{"condition": 0, "counterbalance": 0, "assignmentId": "a44447925", "workerId": "w80540223", "hitId": "h43075915", "currenttrial": 55, "bonus": 0, "data": [{"uniqueid": "w80540223:a44447925", "current_trial": 0, "dateTime": 1693395966782, "trialdata": {"success": true, "trial_type": "fullscreen", "trial_index": 0, "time_elapsed": 4800, "internal_node_id": "0.0-0.0"}}, {"uniqueid": "w80540223:a44447925", "current_trial": 1, "dateTime": 1693395979102, "trialdata": {"view_history": [{"page_index": 0, "viewing_time": 12319}], "rt": 12319, "trial_id": "exp_instructions_control", "trial_type": "instructions", "trial_index": 1, "time_elapsed": 17120, "internal_node_id": "0.0-1.0"}}, {"uniqueid": "w80540223:a44447925", "current_trial": 2, "dateTime": 1693396132764, "trialdata": {"view_history": [{"page_index": 0, "viewing_time": 47952}, {"page_index": 1, "viewing_time": 42280}, {"page_index": 2, "viewing_time": 18454}, {"page_index": 3, "viewing_time": 44975}], "rt": 153661, "trial_id": "mouselab_instructions_1_control", "trial_type": "instructions", "trial_index": 2, "time_elapsed": 170782, "internal_node_id": "0.0-2.0-1.0"}}, {"uniqueid": "w80540223:a44447925", "current_trial": 3, "dateTime": 1693396142656, "trialdata": {"revealed_states": [], "clicked_states": ["32", "21"], "num_clicks_accrued": [0, 0, 0, 0, 0, 0, 0, 0, 0, 0, 0, 0, 0], "stateRewards": ["", -10, 10, 10, 10, 10, 10, -10, -10, 10, 10, 10, 10, 10, 10, -10, -10, -10, 10, -10, 10, 10, 10, -10, -10, -10, 10, -10, -10, -10, -10, -10, -10, -10], "withholdReward": false, "trial_id": "practice_1", "block": "test", "trialIndex": 0, "score": 32.5, "costs": -1, "simulationMode": [null, null, null, null, null], "rewards": [10, 10, 10, -10, 10], "path": ["0", "0", "12", "13", "14", "19", "21"], "rt": [4765, 412, 79, 23, 42], "actions": ["right", "right", "right", "down", "down"], "actionTimes": [5486, 6406, 6990, 7518, 8086], "queries": {"click": {"state": {"target": ["32", "21"], "time": [2085, 4107]}, "edge": {"target": [], "time": []}}, "mouseover": {"state": {"target": ["1", "1", "23", "31", "32", "21", "19", "14"], "time": [1009, 1326, 1525, 1693, 1893, 3959, 4376, 4411]}, "edge": {"target": [], "time": []}}, "mouseout": {"state": {"target": ["0", "1", "1", "23", "31", "32", "21", "19", "14"], "time": [542, 1159, 1509, 1559, 1726, 2293, 4342, 4409, 4443]}, "edge": {"target": [], "time": []}}}, "displayed_time": "8.61", "trialTime": 9397, "trial_type": "mouselab-mdp", "trial_index": 3, "time_elapsed": 180674, "internal_node_id": "0.0-2.0-2.0-0.0"}}, {"uniqueid": "w80540223:a44447925", "current_trial": 4, "dateTime": 1693396151992, "trialdata": {"revealed_states": [], "clicked_states": ["27"], "num_clicks_accrued": [0, 0, 0, 0, 0, 0, 0, 0, 0, 0, 0, 0, 0], "stateRewards": ["", 10, 10, 10, 10, -10, -10, -10, 10, 10, 10, -10, -10, -10, 10, 10, 10, -10, -10, 10, 10, 10, 10, -10, -10, 10, 10, 10, -10, 10, -10, -10, 10, 10], "withholdReward": false, "trial_id": "practice_2", "block": "test", "trialIndex": 1, "score": 13, "costs": -0.5, "simulationMode": [null, null, null, null, null], "rewards": [-10, -10, 10, 10, 10], "path": ["0", "0", "23", "24", "25", "26", "27"], "rt": [2501, 25, 35, 5, 33], "actions": ["left", "left", "left", "up", "up"], "actionTimes": [5395, 5931, 6474, 7010, 7570], "queries": {"click": {"state": {"target": ["27"], "time": [3587]}, "edge": {"target": [], "time": []}}, "mouseover": {"state": {"target": ["27", "28", "1"], "time": [3470, 4021, 4154]}, "edge": {"target": [], "time": []}}, "mouseout": {"state": {"target": ["15", "13", "0", "0", "27", "28", "1"], "time": [1877, 1953, 2369, 3008, 3853, 4121, 4170]}, "edge": {"target": [], "time": []}}}, "displayed_time": "8.11", "trialTime": 9210, "trial_type": "mouselab-mdp", "trial_index": 4, "time_elapsed": 190010, "internal_node_id": "0.0-2.0-2.0-1.0"}}, {"uniqueid": "w80540223:a44447925", "current_trial": 5, "dateTime": 1693396173440, "trialdata": {"view_history": [{"page_index": 0, "viewing_time": 17322}, {"page_index": 1, "viewing_time": 4124}], "rt": 21446, "trial_id": "mouselab_instructions_2_control", "trial_type": "instructions", "trial_index": 5, "time_elapsed": 211458, "internal_node_id": "0.0-2.0-3.0"}}, {"uniqueid": "w80540223:a44447925", "current_trial": 6, "dateTime": 1693396200273, "trialdata": {"rt": 26830, "response": {"Q0": "The cost for clicking on nodes may vary between nodes.", "Q1": "The better I perform the higher my bonus will be.", "Q2": "No, the amount of cash at each node of the web may be different each time.", "Q3": "To get the highest total score.", "Q4": "Only before moving the spider.", "Q5": "3 seconds"}, "question_order": [0, 1, 2, 3, 4, 5], "correct": {"Q0": "The cost for clicking on nodes may vary between nodes.", "Q1": "The better I perform the higher my bonus will be.", "Q2": "No, the amount of cash at each node of the web may be different each time.", "Q3": "To get the highest total score.", "Q4": "Only before moving the spider.", "Q5": "3 seconds"}, "trial_id": "mouselab_quiz_control", "trial_type": "survey-multi-choice", "trial_index": 6, "time_elapsed": 238291, "internal_node_id": "0.0-2.0-4.0"}}, {"uniqueid": "w80540223:a44447925", "current_trial": 7, "dateTime": 1693396205316, "trialdata": {"rt": 5040, "response": {"Q0": "No"}, "question_order": [0], "trial_id": "repeat_check", "trial_type": "survey-multi-choice", "trial_index": 7, "time_elapsed": 243334, "internal_node_id": "0.0-4.0-0.0"}}, {"uniqueid": "w80540223:a44447925", "current_trial": 8, "dateTime": 1693396224816, "trialdata": {"rt": 19497, "stimulus": "\n<h1> Get ready to start the game! </h1>\n\nThank you for reading the instructions. Get ready start with the 40 rounds of this game.\n<br><br>\nIf you need to take a break, feel free to take one after the end of a round, before continuing to the next one.\n<br><br>\nRemember, the more money the spider gets, the bigger your bonus will be!\n<br><br>\n<div style='text-align: center;'>Press <code>space</code> to begin.</div>\n\n<br><br>\n(If, at any point, the <code>space</code> key does not take you to the next page, click once on the text and try again.)", "response": " ", "trial_id": "mdp_ready", "trial_type": "html-keyboard-response", "trial_index": 8, "time_elapsed": 262834, "internal_node_id": "0.0-6.0-0.0"}}, {"uniqueid": "w80540223:a44447925", "current_trial": 9, "dateTime": 1693396257528, "trialdata": {"revealed_states": [], "clicked_states": ["14"], "num_clicks_accrued": [0, 0, 0, 0, 0, 0, 0, 0, 0, 0, 0, 0, 0], "stateRewards": ["", 1, 4, -8, -13, -13, -87, -77, -10, -44, 54, 42, 2, -3, -4, 12, -9, -80, 52, 9, 84, -2, -65, 1, -4, -5, -6, 8, 80, 32, 13, -59, -5, -13], "withholdReward": false, "trial_id": "mdp_trial_1", "block": "test", "trialIndex": 2, "score": -3.4000000000000004, "costs": -1.4, "simulationMode": [null, null, null, null, null], "rewards": [2, -3, -4, 12, -9], "path": ["0", "0", "12", "13", "14", "15", "16"], "rt": [3176, 33, 339, 49, 49], "actions": ["right", "right", "right", "up", "up"], "actionTimes": [14868, 15419, 16291, 16851, 17419], "queries": {"click": {"state": {"target": ["14"], "time": [12496]}, "edge": {"target": [], "time": []}}, "mouseover": {"state": {"target": ["12", "13", "14"], "time": [12052, 12102, 12251]}, "edge": {"target": [], "time": []}}, "mouseout": {"state": {"target": ["3", "8", "24", "23", "0", "12", "13", "14", "13", "12", "12", "33", "33", "31", "22", "13", "18"], "time": [267, 300, 10717, 10734, 11452, 12085, 12135, 18686, 18752, 18785, 19302, 19532, 31069, 31086, 31402, 31572, 31702]}, "edge": {"target": [], "time": []}}}, "displayed_time": "25.69", "trialTime": 32555, "trial_type": "mouselab-mdp", "trial_index": 9, "time_elapsed": 295546, "internal_node_id": "0.0-6.0-1.0-0.0"}}, {"uniqueid": "w80540223:a44447925", "current_trial": 10, "dateTime": 1693396278087, "trialdata": {"revealed_states": [], "clicked_states": ["9"], "num_clicks_accrued": [0, 0, 0, 0, 0, 0, 0, 0, 0, 0, 0, 0, 0], "stateRewards": ["", 2, -1, 8, -2, -16, 69, -39, -7, -13, -27, -86, 2, -2, 2, 13, -34, -16, -20, -5, 19, 81, 32, -2, -1, 2, -14, 20, 80, 58, 4, 70, 12, 73], "withholdReward": false, "trial_id": "mdp_trial_2", "block": "test", "trialIndex": 3, "score": -10.4, "costs": -1.4, "simulationMode": [null, null, null, null, null], "rewards": [2, -1, 8, -2, -16], "path": ["0", "0", "1", "2", "3", "4", "5"], "rt": [4329, 59, 13, 32, 57], "actions": ["up", "up", "up", "right", "up"], "actionTimes": [5069, 5636, 6156, 6708, 7301], "queries": {"click": {"state": {"target": ["9"], "time": [1598]}, "edge": {"target": [], "time": []}}, "mouseover": {"state": {"target": ["1", "2", "8", "9", "3", "5"], "time": [975, 1125, 1276, 1492, 3525, 3592]}, "edge": {"target": [], "time": []}}, "mouseout": {"state": {"target": ["1", "2", "8", "9", "3", "5", "0", "23", "24", "25", "30", "32", "31", "23", "0"], "time": [1025, 1175, 1292, 2259, 3542, 8360, 8592, 8609, 8626, 19410, 19510, 19927, 19960, 19993, 20143]}, "edge": {"target": [], "time": []}}}, "displayed_time": "14.74", "trialTime": 20404, "trial_type": "mouselab-mdp", "trial_index": 10, "time_elapsed": 316105, "internal_node_id": "0.0-6.0-1.0-1.0"}}, {"uniqueid": "w80540223:a44447925", "current_trial": 11, "dateTime": 1693396301847, "trialdata": {"revealed_states": [], "clicked_states": ["32"], "num_clicks_accrued": [0, 0, 0, 0, 0, 0, 0, 0, 0, 0, 0, 0, 0], "stateRewards": ["", 2, 4, 7, -6, -76, -81, 2, 5, -66, -3, 36, -2, -4, 6, -2, -69, 4, -49, -6, 67, 38, -67, 2, 1, 1, 6, -68, -21, 52, -16, -16, 6, -70], "withholdReward": false, "trial_id": "mdp_trial_3", "block": "test", "trialIndex": 4, "score": -7.4, "costs": -1.4, "simulationMode": [null, null, null, null, null], "rewards": [2, 1, 1, -16, 6], "path": ["0", "0", "23", "24", "25", "30", "32"], "rt": [3567, 0, 601, 60, 116], "actions": ["left", "left", "left", "down", "down"], "actionTimes": [4212, 4718, 5852, 6427, 7051], "queries": {"click": {"state": {"target": ["32"], "time": [1197]}, "edge": {"target": [], "time": []}}, "mouseover": {"state": {"target": ["32", "31", "23", "0"], "time": [1067, 1816, 1866, 2216]}, "edge": {"target": [], "time": []}}, "mouseout": {"state": {"target": ["0", "32", "31", "23", "0", "25", "33", "30", "31"], "time": [816, 1800, 1833, 1933, 8400, 8583, 22668, 22684, 22701]}, "edge": {"target": [], "time": []}}}, "displayed_time": "14.65", "trialTime": 23587, "trial_type": "mouselab-mdp", "trial_index": 11, "time_elapsed": 339865, "internal_node_id": "0.0-6.0-1.0-2.0"}}, {"uniqueid": "w80540223:a44447925", "current_trial": 12, "dateTime": 1693396326055, "trialdata": {"revealed_states": [], "clicked_states": ["29", "33"], "num_clicks_accrued": [0, 0, 0, 0, 0, 0, 0, 0, 0, 0, 0, 0, 0], "stateRewards": ["", 2, -4, -4, 13, -80, 62, 13, -11, 57, -13, -44, 1, 4, 3, -4, -29, -88, 15, 16, -58, 68, -45, -1, -3, -1, -9, -44, -86, -19, -7, -36, 59, 66], "withholdReward": false, "trial_id": "mdp_trial_4", "block": "test", "trialIndex": 5, "score": 51.2, "costs": -2.8, "simulationMode": [null, null, null, null, null], "rewards": [-1, -3, -1, -7, 66], "path": ["0", "0", "23", "24", "25", "30", "33"], "rt": [5367, 440, 82, 33, 83], "actions": ["left", "left", "left", "down", "left"], "actionTimes": [6143, 7095, 7687, 8239, 8855], "queries": {"click": {"state": {"target": ["29", "33"], "time": [1722, 4159]}, "edge": {"target": [], "time": []}}, "mouseover": {"state": {"target": ["26", "29", "33", "30", "31"], "time": [1289, 1521, 3937, 4438, 4473]}, "edge": {"target": [], "time": []}}, "mouseout": {"state": {"target": ["26", "29", "33", "30", "31", "33"], "time": [1487, 3187, 4437, 4472, 4487, 9665]}, "edge": {"target": [], "time": []}}}, "displayed_time": "14.78", "trialTime": 24031, "trial_type": "mouselab-mdp", "trial_index": 12, "time_elapsed": 364072, "internal_node_id": "0.0-6.0-1.0-3.0"}}, {"uniqueid": "w80540223:a44447925", "current_trial": 13, "dateTime": 1693396343935, "trialdata": {"revealed_states": [], "clicked_states": ["9", "5", "16", "17", "20"], "num_clicks_accrued": [0, 0, 0, 0, 0, 0, 0, 0, 0, 0, 0, 0, 0], "stateRewards": ["", -2, -1, -1, 5, -54, -87, 35, 2, -8, 20, -22, 1, 3, 6, 13, -75, -32, -55, -3, 56, 62, -22, -1, -4, -1, -7, -51, 84, 70, 7, -15, 5, 55], "withholdReward": false, "trial_id": "mdp_trial_5", "block": "test", "trialIndex": 6, "score": 56, "costs": -7, "simulationMode": [null, null, null, null, null], "rewards": [1, 3, 6, -3, 56], "path": ["0", "0", "12", "13", "14", "19", "20"], "rt": [11903, 380, 40, 19, 70], "actions": ["right", "right", "right", "down", "right"], "actionTimes": [12572, 13468, 14028, 14572, 15156], "queries": {"click": {"state": {"target": ["9", "5", "16", "17", "20"], "time": [1768, 3789, 6355, 8387, 10322]}, "edge": {"target": [], "time": []}}, "mouseover": {"state": {"target": ["1", "2", "9", "4", "4", "5", "4", "7", "15", "16", "16", "17", "20", "19"], "time": [1001, 1234, 1618, 2968, 3202, 3302, 4051, 4185, 5119, 5611, 6202, 6818, 8901, 11535]}, "edge": {"target": [], "time": []}}, "mouseout": {"state": {"target": ["0", "0", "1", "2", "9", "4", "4", "5", "5", "4", "7", "15", "16", "16", "17", "20", "19", "30", "31", "32", "33", "30", "31"], "time": [415, 951, 1018, 1418, 1857, 3035, 3252, 3867, 4018, 4068, 4235, 5368, 5969, 6568, 8618, 10635, 11585, 16169, 16218, 16568, 17219, 17252, 17303]}, "edge": {"target": [], "time": []}}}, "displayed_time": "15.67", "trialTime": 17724, "trial_type": "mouselab-mdp", "trial_index": 13, "time_elapsed": 381953, "internal_node_id": "0.0-6.0-1.0-4.0"}}, {"uniqueid": "w80540223:a44447925", "current_trial": 14, "dateTime": 1693396363655, "trialdata": {"revealed_states": [], "clicked_states": ["29"], "num_clicks_accrued": [0, 0, 0, 0, 0, 0, 0, 0, 0, 0, 0, 0, 0], "stateRewards": ["", -2, -1, -4, -15, -14, -67, 32, -3, -59, 63, 31, 2, -1, -7, -15, 71, -66, -27, -3, -54, -39, 72, 2, 1, 1, -13, 77, -40, 35, -9, 35, 75, 57], "withholdReward": false, "trial_id": "mdp_trial_6", "block": "test", "trialIndex": 7, "score": 24.6, "costs": -1.4, "simulationMode": [null, null, null, null, null], "rewards": [2, 1, 1, -13, 35], "path": ["0", "0", "23", "24", "25", "26", "29"], "rt": [3121, 17, 18, 38, 71], "actions": ["left", "left", "left", "up", "left"], "actionTimes": [5615, 6142, 6678, 7231, 7831], "queries": {"click": {"state": {"target": ["29"], "time": [3593]}, "edge": {"target": [], "time": []}}, "mouseover": {"state": {"target": ["26", "29"], "time": [2942, 3226]}, "edge": {"target": [], "time": []}}, "mouseout": {"state": {"target": ["29", "26", "1", "0", "26", "29", "24", "23", "33", "30", "31", "32", "31"], "time": [1892, 1909, 1975, 2613, 3193, 3892, 13659, 13709, 16342, 16377, 16393, 17009, 18927]}, "edge": {"target": [], "time": []}}}, "displayed_time": "16.50", "trialTime": 19567, "trial_type": "mouselab-mdp", "trial_index": 14, "time_elapsed": 401672, "internal_node_id": "0.0-6.0-1.0-5.0"}}, {"uniqueid": "w80540223:a44447925", "current_trial": 15, "dateTime": 1693396382022, "trialdata": {"revealed_states": [], "clicked_states": ["11"], "num_clicks_accrued": [0, 0, 0, 0, 0, 0, 0, 0, 0, 0, 0, 0, 0], "stateRewards": ["", -1, 1, -1, 2, 19, 85, -18, 2, -3, -26, 36, 2, 4, 7, -9, -18, 70, 72, -5, 35, -20, -28, 1, -2, -4, -3, -59, -11, -63, -2, -72, 59, -69], "withholdReward": false, "trial_id": "mdp_trial_7", "block": "test", "trialIndex": 8, "score": 35.6, "costs": -1.4, "simulationMode": [null, null, null, null, null], "rewards": [-1, 1, -1, 2, 36], "path": ["0", "0", "1", "2", "3", "8", "11"], "rt": [4591, 26, 85, 461, 109], "actions": ["up", "up", "up", "left", "left"], "actionTimes": [7516, 8052, 8643, 9620, 10235], "queries": {"click": {"state": {"target": ["11"], "time": [3636]}, "edge": {"target": [], "time": []}}, "mouseover": {"state": {"target": ["0", "11", "26", "28", "23"], "time": [3140, 3408, 6091, 6109, 6591]}, "edge": {"target": [], "time": []}}, "mouseout": {"state": {"target": ["23", "0", "0", "11", "26", "28", "23", "31", "30", "33"], "time": [2291, 2507, 3224, 3891, 6108, 6443, 6608, 10942, 10991, 11024]}, "edge": {"target": [], "time": []}}}, "displayed_time": "16.93", "trialTime": 18115, "trial_type": "mouselab-mdp", "trial_index": 15, "time_elapsed": 420040, "internal_node_id": "0.0-6.0-1.0-6.0"}}, {"uniqueid": "w80540223:a44447925", "current_trial": 16, "dateTime": 1693396406286, "trialdata": {"revealed_states": [], "clicked_states": ["9", "5", "6", "16", "17"], "num_clicks_accrued": [0, 0, 0, 0, 0, 0, 0, 0, 0, 0, 0, 0, 0], "stateRewards": ["", -1, -3, 1, -4, -48, -63, -49, -2, -84, -19, 65, 2, -2, -2, -12, -4, 59, 9, 6, 75, 69, -13, -1, -3, -3, -2, -37, -68, -36, 13, 32, 18, -14], "withholdReward": false, "trial_id": "mdp_trial_8", "block": "test", "trialIndex": 9, "score": 38, "costs": -7, "simulationMode": [null, null, null, null, null], "rewards": [2, -2, -2, -12, 59], "path": ["0", "0", "12", "13", "14", "15", "17"], "rt": [15888, 95, 119, 21, 65], "actions": ["right", "right", "right", "up", "right"], "actionTimes": [19668, 20267, 20891, 21427, 22003], "queries": {"click": {"state": {"target": ["9", "5", "6", "16", "17"], "time": [4976, 7145, 9911, 13107, 16611]}, "edge": {"target": [], "time": []}}, "mouseover": {"state": {"target": ["1", "10", "8", "9", "5", "27", "8", "3", "4", "6", "6", "15", "1", "0", "29", "26", "1", "16", "18", "23", "25", "24", "12", "18", "15", "17", "17", "25", "0"], "time": [4305, 4537, 4571, 4894, 6921, 7522, 9404, 9422, 9439, 9455, 9688, 10221, 10921, 11355, 12638, 12655, 12688, 12899, 13337, 13371, 15739, 15756, 15807, 16006, 16025, 16057, 16405, 18688, 18721]}, "edge": {"target": [], "time": []}}, "mouseout": {"state": {"target": ["32", "25", "28", "1", "23", "0", "0", "1", "10", "8", "9", "9", "5", "5", "27", "8", "3", "4", "6", "6", "15", "1", "0", "29", "26", "1", "16", "18", "23", "25", "24", "12", "18", "15", "17", "17", "25", "0", "31"], "time": [170, 886, 936, 1086, 1187, 3137, 4257, 4471, 4554, 4604, 5171, 6706, 7156, 7489, 7538, 9421, 9438, 9454, 9554, 10104, 10339, 10938, 11371, 12654, 12671, 12705, 13304, 13354, 13387, 15754, 15772, 15990, 16023, 16040, 16156, 16788, 18705, 18738, 22572]}, "edge": {"target": [], "time": []}}}, "displayed_time": "22.52", "trialTime": 24091, "trial_type": "mouselab-mdp", "trial_index": 16, "time_elapsed": 444303, "internal_node_id": "0.0-6.0-1.0-7.0"}}, {"uniqueid": "w80540223:a44447925", "current_trial": 17, "dateTime": 1693396422614, "trialdata": {"revealed_states": [], "clicked_states": [], "num_clicks_accrued": [0, 0, 0, 0, 0, 0, 0, 0, 0, 0, 0, 0, 0], "stateRewards": ["", 1, -3, -2, 14, 49, -40, -39, 2, 26, -61, 73, 1, -4, -8, 12, 79, 29, -65, -13, 55, -26, 27, -1, 3, 3, 9, -17, -60, -18, -8, 35, -88, 69], "withholdReward": false, "trial_id": "mdp_trial_9", "block": "test", "trialIndex": 10, "score": -3, "costs": 0, "simulationMode": [null, null, null, null, null], "rewards": [-1, 3, 3, 9, -17], "path": ["0", "0", "23", "24", "25", "26", "27"], "rt": [7055, 121, 3246, 57, 66], "actions": ["left", "left", "left", "up", "up"], "actionTimes": [8558, 9189, 12933, 13509, 14101], "queries": {"click": {"state": {"target": [], "time": []}, "edge": {"target": [], "time": []}}, "mouseover": {"state": {"target": ["23", "4", "3", "8", "11", "27", "8", "9", "5", "3", "8", "10", "23"], "time": [1567, 2701, 2751, 2784, 2901, 5467, 6301, 6618, 7134, 7334, 7568, 7618, 7702]}, "edge": {"target": [], "time": []}}, "mouseout": {"state": {"target": ["31", "30", "33", "23", "0", "23", "4", "3", "8", "11", "27", "8", "9", "5", "3", "8", "10", "23", "25"], "time": [34, 50, 59, 1134, 1551, 1584, 2734, 2767, 2884, 5450, 5484, 6385, 7034, 7291, 7352, 7601, 7636, 7718, 11685]}, "edge": {"target": [], "time": []}}}, "displayed_time": "15.50", "trialTime": 16181, "trial_type": "mouselab-mdp", "trial_index": 17, "time_elapsed": 460631, "internal_node_id": "0.0-6.0-1.0-8.0"}}, {"uniqueid": "w80540223:a44447925", "current_trial": 18, "dateTime": 1693396449998, "trialdata": {"revealed_states": [], "clicked_states": ["9", "5"], "num_clicks_accrued": [0, 0, 0, 0, 0, 0, 0, 0, 0, 0, 0, 0, 0], "stateRewards": ["", 2, -4, -8, -15, 71, -43, -41, 7, -17, 20, 67, -1, -1, -4, 6, 37, -24, -47, 9, 34, 57, 45, 1, 2, -4, -5, -23, 88, -5, 13, -40, 43, 44], "withholdReward": false, "trial_id": "mdp_trial_10", "block": "test", "trialIndex": 11, "score": 43.2, "costs": -2.8, "simulationMode": [null, null, null, null, null, null], "rewards": [2, -4, -8, -15, 71], "path": ["0", "0", "1", "2", "3", "4", "5"], "rt": [4355, 1914, 12, 39, 48, 90], "actions": ["left", "up", "up", "up", "right", "up"], "actionTimes": [11380, 13297, 13825, 14385, 14961, 15569], "queries": {"click": {"state": {"target": ["9", "5"], "time": [7914, 10734]}, "edge": {"target": [], "time": []}}, "mouseover": {"state": {"target": ["1", "10", "8", "9", "29", "4", "5", "5", "8", "27", "10", "2"], "time": [7111, 7361, 7394, 7728, 10196, 10346, 10379, 10512, 11045, 11063, 12629, 12845]}, "edge": {"target": [], "time": []}}, "mouseout": {"state": {"target": ["1", "10", "8", "9", "9", "29", "4", "5", "5", "8", "27", "10", "2", "1", "0", "32", "23", "24", "33", "30", "31"], "time": [7178, 7377, 7427, 8018, 8178, 10213, 10362, 10396, 11011, 11061, 11078, 12645, 12945, 16495, 16528, 16879, 21063, 21096, 25446, 25497, 26250]}, "edge": {"target": [], "time": []}}}, "displayed_time": "21.03", "trialTime": 27241, "trial_type": "mouselab-mdp", "trial_index": 18, "time_elapsed": 488016, "internal_node_id": "0.0-6.0-1.0-9.0"}}, {"uniqueid": "w80540223:a44447925", "current_trial": 19, "dateTime": 1693396468414, "trialdata": {"revealed_states": [], "clicked_states": ["29", "33"], "num_clicks_accrued": [0, 0, 0, 0, 0, 0, 0, 0, 0, 0, 0, 0, 0], "stateRewards": ["", 1, -3, -6, -5, 47, 80, -29, 11, -71, 10, -29, -2, 3, -6, 12, 2, -78, -6, 8, 34, -16, -5, -1, 3, 3, -13, 84, -36, -62, -3, -27, 66, 15], "withholdReward": false, "trial_id": "mdp_trial_11", "block": "test", "trialIndex": 12, "score": 14.2, "costs": -2.8, "simulationMode": [null, null, null, null, null], "rewards": [-1, 3, 3, -3, 15], "path": ["0", "0", "23", "24", "25", "30", "33"], "rt": [5569, 459, 148, 33, 44], "actions": ["left", "left", "left", "down", "left"], "actionTimes": [6293, 7276, 7932, 8484, 9060], "queries": {"click": {"state": {"target": ["29", "33"], "time": [1406, 3730]}, "edge": {"target": [], "time": []}}, "mouseover": {"state": {"target": ["28", "26", "29", "26", "27", "26", "25", "33", "32"], "time": [1049, 1166, 1253, 1666, 2432, 3432, 3467, 3516, 4916]}, "edge": {"target": [], "time": []}}, "mouseout": {"state": {"target": ["0", "28", "26", "29", "26", "27", "26", "25", "33", "32", "30", "31"], "time": [966, 1149, 1199, 1649, 1799, 3399, 3466, 3483, 4732, 5749, 17583, 17634]}, "edge": {"target": [], "time": []}}}, "displayed_time": "14.73", "trialTime": 18260, "trial_type": "mouselab-mdp", "trial_index": 19, "time_elapsed": 506431, "internal_node_id": "0.0-6.0-1.0-10.0"}}, {"uniqueid": "w80540223:a44447925", "current_trial": 20, "dateTime": 1693396485518, "trialdata": {"revealed_states": [], "clicked_states": ["32"], "num_clicks_accrued": [0, 0, 0, 0, 0, 0, 0, 0, 0, 0, 0, 0, 0], "stateRewards": ["", -2, -4, 6, 14, -34, 49, 36, -8, -3, 32, -4, 1, -2, 1, -8, -20, -71, -57, -7, -86, -62, -16, -2, -3, -5, 11, 23, -21, 53, 5, -5, 85, 73], "withholdReward": false, "trial_id": "mdp_trial_12", "block": "test", "trialIndex": 13, "score": 78.6, "costs": -1.4, "simulationMode": [null, null, null, null, null], "rewards": [-2, -3, -5, 5, 85], "path": ["0", "0", "23", "24", "25", "30", "32"], "rt": [3285, 432, 176, 101, 84], "actions": ["left", "left", "left", "down", "down"], "actionTimes": [4133, 5085, 5797, 6405, 7005], "queries": {"click": {"state": {"target": ["32"], "time": [1705]}, "edge": {"target": [], "time": []}}, "mouseover": {"state": {"target": ["30", "32", "32"], "time": [1118, 1318, 1618]}, "edge": {"target": [], "time": []}}, "mouseout": {"state": {"target": ["0", "30", "32", "32", "32", "30", "30"], "time": [953, 1285, 1352, 1790, 7602, 10736, 11519]}, "edge": {"target": [], "time": []}}}, "displayed_time": "14.85", "trialTime": 16949, "trial_type": "mouselab-mdp", "trial_index": 20, "time_elapsed": 523535, "internal_node_id": "0.0-6.0-1.0-11.0"}}, {"uniqueid": "w80540223:a44447925", "current_trial": 21, "dateTime": 1693396503773, "trialdata": {"revealed_states": [], "clicked_states": ["32"], "num_clicks_accrued": [0, 0, 0, 0, 0, 0, 0, 0, 0, 0, 0, 0, 0], "stateRewards": ["", 2, -4, 1, -12, -59, -53, -74, 16, -88, -66, 66, 1, -2, 8, -9, -14, 22, 25, -1, -39, 47, -14, -1, -1, -2, 1, -4, 52, -26, 15, -7, 46, 43], "withholdReward": false, "trial_id": "mdp_trial_13", "block": "test", "trialIndex": 14, "score": 55.6, "costs": -1.4, "simulationMode": [null, null, null, null, null], "rewards": [-1, -1, -2, 15, 46], "path": ["0", "0", "23", "24", "25", "30", "32"], "rt": [3820, 3, 29, 15, 81], "actions": ["left", "left", "left", "down", "down"], "actionTimes": [4734, 5254, 5814, 6334, 6949], "queries": {"click": {"state": {"target": ["32"], "time": [1740]}, "edge": {"target": [], "time": []}}, "mouseover": {"state": {"target": ["0", "32", "30", "25", "26", "25", "31"], "time": [1150, 1584, 2133, 3134, 3834, 4068, 4101]}, "edge": {"target": [], "time": []}}, "mouseout": {"state": {"target": ["0", "0", "32", "30", "25", "26", "25", "31"], "time": [733, 1200, 2100, 3117, 3151, 4050, 4084, 4134]}, "edge": {"target": [], "time": []}}}, "displayed_time": "14.91", "trialTime": 18101, "trial_type": "mouselab-mdp", "trial_index": 21, "time_elapsed": 541791, "internal_node_id": "0.0-6.0-1.0-12.0"}}, {"uniqueid": "w80540223:a44447925", "current_trial": 22, "dateTime": 1693396524557, "trialdata": {"revealed_states": [], "clicked_states": ["11"], "num_clicks_accrued": [0, 0, 0, 0, 0, 0, 0, 0, 0, 0, 0, 0, 0], "stateRewards": ["", -2, -3, 1, -7, 39, -67, 16, 5, -20, 73, 66, -1, 4, 5, -3, 23, -68, -87, -8, 3, -3, 17, 1, -4, -2, -13, -32, 34, 61, -5, -11, -18, 12], "withholdReward": false, "trial_id": "mdp_trial_14", "block": "test", "trialIndex": 15, "score": 65.6, "costs": -1.4, "simulationMode": [null, null, null, null, null], "rewards": [-2, -3, 1, 5, 66], "path": ["0", "0", "1", "2", "3", "8", "11"], "rt": [4141, 8, 10, 21, 56], "actions": ["up", "up", "up", "left", "left"], "actionTimes": [4675, 5218, 5754, 6298, 6866], "queries": {"click": {"state": {"target": ["11"], "time": [1857]}, "edge": {"target": [], "time": []}}, "mouseover": {"state": {"target": ["10", "8", "8", "11", "8", "1"], "time": [692, 980, 1227, 1777, 3810, 3911]}, "edge": {"target": [], "time": []}}, "mouseout": {"state": {"target": ["0", "10", "8", "8", "11", "8", "1", "30", "33", "33", "30", "32", "33", "30", "31"], "time": [598, 743, 1026, 1309, 3784, 3860, 3926, 7360, 7376, 13928, 13961, 15074, 18963, 18978, 19145]}, "edge": {"target": [], "time": []}}}, "displayed_time": "14.54", "trialTime": 20594, "trial_type": "mouselab-mdp", "trial_index": 22, "time_elapsed": 562575, "internal_node_id": "0.0-6.0-1.0-13.0"}}, {"uniqueid": "w80540223:a44447925", "current_trial": 23, "dateTime": 1693396546109, "trialdata": {"revealed_states": [], "clicked_states": ["32", "33"], "num_clicks_accrued": [0, 0, 0, 0, 0, 0, 0, 0, 0, 0, 0, 0, 0], "stateRewards": ["", 2, 4, -6, -13, -75, -81, 30, 7, 5, 59, -65, -1, -1, 7, 14, -38, 36, -41, 1, -54, -5, 64, 2, -1, 5, 6, -19, 79, 11, 16, -33, -50, 58], "withholdReward": false, "trial_id": "mdp_trial_15", "block": "test", "trialIndex": 16, "score": 77.2, "costs": -2.8, "simulationMode": [null, null, null, null, null], "rewards": [2, -1, 5, 16, 58], "path": ["0", "0", "23", "24", "25", "30", "33"], "rt": [5836, 328, 55, 511, 54], "actions": ["left", "left", "left", "down", "left"], "actionTimes": [6498, 7330, 7890, 8930, 9490], "queries": {"click": {"state": {"target": ["32", "33"], "time": [1189, 3811]}, "edge": {"target": [], "time": []}}, "mouseover": {"state": {"target": ["30", "32", "30", "31", "33", "29", "30"], "time": [884, 934, 1851, 3401, 3634, 4101, 5818]}, "edge": {"target": [], "time": []}}, "mouseout": {"state": {"target": ["0", "30", "32", "30", "31", "33", "29", "30", "32", "33", "30", "31"], "time": [767, 917, 1817, 3251, 3417, 4034, 5784, 5834, 9818, 20019, 20469, 20685]}, "edge": {"target": [], "time": []}}}, "displayed_time": "14.66", "trialTime": 21386, "trial_type": "mouselab-mdp", "trial_index": 23, "time_elapsed": 584126, "internal_node_id": "0.0-6.0-1.0-14.0"}}, {"uniqueid": "w80540223:a44447925", "current_trial": 24, "dateTime": 1693396561773, "trialdata": {"revealed_states": [], "clicked_states": ["32"], "num_clicks_accrued": [0, 0, 0, 0, 0, 0, 0, 0, 0, 0, 0, 0, 0], "stateRewards": ["", -2, 4, -3, -13, 63, -36, 62, 11, 78, 34, -51, 2, -2, 8, -6, -40, -18, 31, 9, 64, 39, 79, 1, 4, -4, 15, -12, 76, 73, -10, -77, 86, -4], "withholdReward": false, "trial_id": "mdp_trial_16", "block": "test", "trialIndex": 17, "score": 75.6, "costs": -1.4, "simulationMode": [null, null, null, null, null], "rewards": [1, 4, -4, -10, 86], "path": ["0", "0", "23", "24", "25", "30", "32"], "rt": [3390, 34, 27, 28, 110], "actions": ["left", "left", "left", "down", "down"], "actionTimes": [4016, 4560, 5120, 5672, 6288], "queries": {"click": {"state": {"target": ["32"], "time": [1604]}, "edge": {"target": [], "time": []}}, "mouseover": {"state": {"target": ["0", "31", "32"], "time": [760, 942, 1504]}, "edge": {"target": [], "time": []}}, "mouseout": {"state": {"target": ["0", "0", "31", "32", "31"], "time": [375, 792, 975, 3475, 14526]}, "edge": {"target": [], "time": []}}}, "displayed_time": "14.63", "trialTime": 15440, "trial_type": "mouselab-mdp", "trial_index": 24, "time_elapsed": 599790, "internal_node_id": "0.0-6.0-1.0-15.0"}}, {"uniqueid": "w80540223:a44447925", "current_trial": 25, "dateTime": 1693396585420, "trialdata": {"revealed_states": [], "clicked_states": ["9"], "num_clicks_accrued": [0, 0, 0, 0, 0, 0, 0, 0, 0, 0, 0, 0, 0], "stateRewards": ["", -1, 1, -6, -1, 80, 23, 2, -11, 73, -81, 59, 1, 3, 5, -1, -26, 28, -3, 16, -59, -13, -50, -2, -2, 2, 15, -50, 86, 17, -4, 37, 35, 44], "withholdReward": false, "trial_id": "mdp_trial_17", "block": "test", "trialIndex": 18, "score": 54.6, "costs": -1.4, "simulationMode": [null, null, null, null, null], "rewards": [-1, 1, -6, -11, 73], "path": ["0", "0", "1", "2", "3", "8", "9"], "rt": [3636, 38, 63, 41, 58], "actions": ["up", "up", "up", "left", "up"], "actionTimes": [4261, 4812, 5404, 5948, 6516], "queries": {"click": {"state": {"target": ["9"], "time": [1760]}, "edge": {"target": [], "time": []}}, "mouseover": {"state": {"target": ["3", "9", "11", "29", "29", "10", "0"], "time": [1173, 1558, 2073, 2107, 3426, 3640, 3740]}, "edge": {"target": [], "time": []}}, "mouseout": {"state": {"target": ["0", "3", "9", "11", "29", "29", "10", "0", "31", "33", "31"], "time": [456, 1224, 2057, 2090, 2118, 3443, 3673, 3757, 6773, 22758, 22793]}, "edge": {"target": [], "time": []}}}, "displayed_time": "14.63", "trialTime": 23484, "trial_type": "mouselab-mdp", "trial_index": 25, "time_elapsed": 623438, "internal_node_id": "0.0-6.0-1.0-16.0"}}, {"uniqueid": "w80540223:a44447925", "current_trial": 26, "dateTime": 1693396601660, "trialdata": {"revealed_states": [], "clicked_states": ["32"], "num_clicks_accrued": [0, 0, 0, 0, 0, 0, 0, 0, 0, 0, 0, 0, 0], "stateRewards": ["", 2, -3, -4, -1, 25, -16, 16, 10, -71, -20, -55, 1, 3, -4, -9, 1, 32, 11, -6, 32, -50, -41, -1, 4, 4, -8, 7, -81, 70, 2, -52, 45, -10], "withholdReward": false, "trial_id": "mdp_trial_18", "block": "test", "trialIndex": 19, "score": 52.6, "costs": -1.4, "simulationMode": [null, null, null, null, null], "rewards": [-1, 4, 4, 2, 45], "path": ["0", "0", "23", "24", "25", "30", "32"], "rt": [3169, 473, 44, 12, 47], "actions": ["left", "left", "left", "down", "down"], "actionTimes": [4649, 5641, 6193, 6729, 7297], "queries": {"click": {"state": {"target": ["32"], "time": [2052]}, "edge": {"target": [], "time": []}}, "mouseover": {"state": {"target": ["31", "32"], "time": [1832, 1949]}, "edge": {"target": [], "time": []}}, "mouseout": {"state": {"target": ["0", "31", "32", "33", "30", "31"], "time": [1607, 1849, 2153, 7282, 15467, 15501]}, "edge": {"target": [], "time": []}}}, "displayed_time": "15.48", "trialTime": 16065, "trial_type": "mouselab-mdp", "trial_index": 26, "time_elapsed": 639678, "internal_node_id": "0.0-6.0-1.0-17.0"}}, {"uniqueid": "w80540223:a44447925", "current_trial": 27, "dateTime": 1693396617612, "trialdata": {"revealed_states": [], "clicked_states": ["32"], "num_clicks_accrued": [0, 0, 0, 0, 0, 0, 0, 0, 0, 0, 0, 0, 0], "stateRewards": ["", -2, 1, -3, -16, -39, -52, 30, -7, -41, -59, 11, 2, 1, 8, 2, -11, -26, -42, -13, 87, -59, -48, -1, -1, -1, 16, -79, 31, 50, -1, -84, 34, -82], "withholdReward": false, "trial_id": "mdp_trial_19", "block": "test", "trialIndex": 20, "score": 28.6, "costs": -1.4, "simulationMode": [null, null, null, null, null], "rewards": [-1, -1, -1, -1, 34], "path": ["0", "0", "23", "24", "25", "30", "32"], "rt": [3256, 65, 99, 35, 11], "actions": ["left", "left", "left", "down", "down"], "actionTimes": [3806, 4381, 4997, 5533, 6077], "queries": {"click": {"state": {"target": ["32"], "time": [1363]}, "edge": {"target": [], "time": []}}, "mouseover": {"state": {"target": ["31", "30", "32", "33", "33", "30", "31"], "time": [864, 897, 1114, 1697, 3184, 3199, 3219]}, "edge": {"target": [], "time": []}}, "mouseout": {"state": {"target": ["0", "31", "30", "32", "33", "33", "30", "31", "30", "33"], "time": [697, 880, 914, 1443, 1710, 3197, 3218, 3397, 9398, 9415]}, "edge": {"target": [], "time": []}}}, "displayed_time": "14.55", "trialTime": 15781, "trial_type": "mouselab-mdp", "trial_index": 27, "time_elapsed": 655630, "internal_node_id": "0.0-6.0-1.0-18.0"}}, {"uniqueid": "w80540223:a44447925", "current_trial": 28, "dateTime": 1693396645684, "trialdata": {"revealed_states": [], "clicked_states": ["17", "20"], "num_clicks_accrued": [0, 0, 0, 0, 0, 0, 0, 0, 0, 0, 0, 0, 0], "stateRewards": ["", 2, -1, -1, 7, 11, -40, -22, -2, 69, 37, 8, -2, 4, -8, -12, -2, -72, -3, -12, 17, 63, 12, 1, 3, -7, 6, 25, 61, 61, -9, 28, -17, 27], "withholdReward": false, "trial_id": "mdp_trial_20", "block": "test", "trialIndex": 21, "score": -3.8000000000000007, "costs": -2.8, "simulationMode": [null, null, null, null, null], "rewards": [-2, 4, -8, -12, 17], "path": ["0", "0", "12", "13", "14", "19", "20"], "rt": [6002, 479, 71, 39, 57], "actions": ["right", "right", "right", "down", "right"], "actionTimes": [6889, 7896, 8488, 9040, 9624], "queries": {"click": {"state": {"target": ["17", "20"], "time": [1940, 4596]}, "edge": {"target": [], "time": []}}, "mouseover": {"state": {"target": ["12", "13", "14", "17", "14", "20", "20", "21"], "time": [1216, 1299, 1566, 1850, 3817, 4117, 4483, 6266]}, "edge": {"target": [], "time": []}}, "mouseout": {"state": {"target": ["0", "12", "13", "14", "17", "14", "20", "20", "21", "32", "32"], "time": [1017, 1266, 1382, 1766, 3767, 4050, 4188, 6103, 6600, 9983, 27068]}, "edge": {"target": [], "time": []}}}, "displayed_time": "14.89", "trialTime": 27904, "trial_type": "mouselab-mdp", "trial_index": 28, "time_elapsed": 683702, "internal_node_id": "0.0-6.0-1.0-19.0"}}, {"uniqueid": "w80540223:a44447925", "current_trial": 29, "dateTime": 1693396662316, "trialdata": {"revealed_states": [], "clicked_states": ["29"], "num_clicks_accrued": [0, 0, 0, 0, 0, 0, 0, 0, 0, 0, 0, 0, 0], "stateRewards": ["", 1, -4, -4, 8, 1, -79, 68, -10, -79, 8, -74, -1, -3, -6, 14, 43, 23, 9, 5, -51, 63, 61, -2, 4, 6, -10, 69, -32, 57, 15, -80, -80, -77], "withholdReward": false, "trial_id": "mdp_trial_21", "block": "test", "trialIndex": 22, "score": 53.6, "costs": -1.4, "simulationMode": [null, null, null, null, null], "rewards": [-2, 4, 6, -10, 57], "path": ["0", "0", "23", "24", "25", "26", "29"], "rt": [3615, 299, 124, 17, 52], "actions": ["left", "left", "left", "up", "left"], "actionTimes": [4608, 5424, 6064, 6592, 7160], "queries": {"click": {"state": {"target": ["29"], "time": [1932]}, "edge": {"target": [], "time": []}}, "mouseover": {"state": {"target": ["0", "28", "26", "29", "27", "26", "24"], "time": [1140, 1389, 1407, 1757, 2340, 4007, 4056]}, "edge": {"target": [], "time": []}}, "mouseout": {"state": {"target": ["0", "0", "28", "26", "29", "27", "26", "24"], "time": [757, 1340, 1406, 1423, 2256, 3990, 4023, 4073]}, "edge": {"target": [], "time": []}}}, "displayed_time": "14.99", "trialTime": 16408, "trial_type": "mouselab-mdp", "trial_index": 29, "time_elapsed": 700334, "internal_node_id": "0.0-6.0-1.0-20.0"}}, {"uniqueid": "w80540223:a44447925", "current_trial": 30, "dateTime": 1693396686276, "trialdata": {"revealed_states": [], "clicked_states": ["29", "28", "27", "33"], "num_clicks_accrued": [0, 0, 0, 0, 0, 0, 0, 0, 0, 0, 0, 0, 0], "stateRewards": ["", 1, -3, -1, 9, -34, -40, 22, -7, 45, 53, -11, 2, 4, 5, 15, 21, 37, -49, -3, 80, -28, -34, 1, -3, 1, 1, -40, -6, -5, -16, -85, -86, 59], "withholdReward": false, "trial_id": "mdp_trial_22", "block": "test", "trialIndex": 23, "score": 36.4, "costs": -5.6, "simulationMode": [null, null, null, null, null], "rewards": [1, -3, 1, -16, 59], "path": ["0", "0", "23", "24", "25", "30", "33"], "rt": [9857, 1059, 84, 101, 52], "actions": ["left", "left", "left", "down", "left"], "actionTimes": [10517, 12093, 12685, 13301, 13869], "queries": {"click": {"state": {"target": ["29", "28", "27", "33"], "time": [1791, 3947, 5815, 8049]}, "edge": {"target": [], "time": []}}, "mouseover": {"state": {"target": ["31", "30", "25", "29", "29", "26", "28", "28", "27", "26", "25", "25", "24", "10", "8", "25", "33", "30", "31", "31"], "time": [899, 949, 1232, 1433, 1684, 2650, 2683, 3049, 4399, 5999, 6100, 6482, 6566, 6783, 7002, 7800, 7850, 8250, 8268, 8783]}, "edge": {"target": [], "time": []}}, "mouseout": {"state": {"target": ["0", "31", "30", "25", "29", "29", "26", "28", "28", "27", "26", "25", "25", "24", "10", "8", "25", "33", "30", "31", "31", "32"], "time": [750, 933, 1182, 1266, 1482, 2649, 2682, 2699, 4349, 5983, 6049, 6466, 6499, 6666, 6816, 7017, 7817, 8233, 8266, 8533, 9983, 23334]}, "edge": {"target": [], "time": []}}}, "displayed_time": "14.66", "trialTime": 23693, "trial_type": "mouselab-mdp", "trial_index": 30, "time_elapsed": 724294, "internal_node_id": "0.0-6.0-1.0-21.0"}}, {"uniqueid": "w80540223:a44447925", "current_trial": 31, "dateTime": 1693396702100, "trialdata": {"revealed_states": [], "clicked_states": ["32"], "num_clicks_accrued": [0, 0, 0, 0, 0, 0, 0, 0, 0, 0, 0, 0, 0], "stateRewards": ["", -1, 3, 8, 9, -53, 20, -84, 2, -28, -62, -31, -1, -2, -7, 2, 51, 58, 45, -4, -17, -41, 36, 2, -2, -7, -15, 29, -54, -37, -16, -43, 65, -17], "withholdReward": false, "trial_id": "mdp_trial_23", "block": "test", "trialIndex": 24, "score": 40.6, "costs": -1.4, "simulationMode": [null, null, null, null, null], "rewards": [2, -2, -7, -16, 65], "path": ["0", "0", "23", "24", "25", "30", "32"], "rt": [2517, 481, 105, 56, 89], "actions": ["left", "left", "left", "down", "down"], "actionTimes": [3171, 4155, 4779, 5347, 5963], "queries": {"click": {"state": {"target": ["32"], "time": [1211]}, "edge": {"target": [], "time": []}}, "mouseover": {"state": {"target": ["0", "32"], "time": [789, 1122]}, "edge": {"target": [], "time": []}}, "mouseout": {"state": {"target": ["0", "0", "32"], "time": [472, 823, 3239]}, "edge": {"target": [], "time": []}}}, "displayed_time": "14.66", "trialTime": 15538, "trial_type": "mouselab-mdp", "trial_index": 31, "time_elapsed": 740117, "internal_node_id": "0.0-6.0-1.0-22.0"}}, {"uniqueid": "w80540223:a44447925", "current_trial": 32, "dateTime": 1693396720323, "trialdata": {"revealed_states": [], "clicked_states": ["21"], "num_clicks_accrued": [0, 0, 0, 0, 0, 0, 0, 0, 0, 0, 0, 0, 0], "stateRewards": ["", 1, 1, -2, 7, -31, -6, 76, 1, -36, -16, -53, 2, 1, 7, 13, -47, -10, 47, -7, 72, 46, -56, -2, -2, -2, 11, -80, 44, 38, 16, 67, 85, -78], "withholdReward": false, "trial_id": "mdp_trial_24", "block": "test", "trialIndex": 25, "score": 47.6, "costs": -1.4, "simulationMode": [null, null, null, null, null], "rewards": [2, 1, 7, -7, 46], "path": ["0", "0", "12", "13", "14", "19", "21"], "rt": [2907, 33, 60, 45, 78], "actions": ["right", "right", "right", "down", "down"], "actionTimes": [3971, 4514, 5106, 5675, 6275], "queries": {"click": {"state": {"target": ["21"], "time": [1693]}, "edge": {"target": [], "time": []}}, "mouseover": {"state": {"target": ["0", "21"], "time": [1270, 1530]}, "edge": {"target": [], "time": []}}, "mouseout": {"state": {"target": ["0", "0", "0", "21"], "time": [429, 546, 1296, 3563]}, "edge": {"target": [], "time": []}}}, "displayed_time": "15.06", "trialTime": 18018, "trial_type": "mouselab-mdp", "trial_index": 32, "time_elapsed": 758341, "internal_node_id": "0.0-6.0-1.0-23.0"}}, {"uniqueid": "w80540223:a44447925", "current_trial": 33, "dateTime": 1693396737747, "trialdata": {"revealed_states": [], "clicked_states": ["29", "28"], "num_clicks_accrued": [0, 0, 0, 0, 0, 0, 0, 0, 0, 0, 0, 0, 0], "stateRewards": ["", -2, -1, -6, -14, -55, 78, -13, 11, 14, -71, 59, 2, 2, 6, -6, 9, 38, 14, 7, 85, 11, 68, 1, -4, -1, -3, -63, -85, 9, -2, 63, -86, -10], "withholdReward": false, "trial_id": "mdp_trial_25", "block": "test", "trialIndex": 26, "score": -0.8000000000000007, "costs": -2.8, "simulationMode": [null, null, null, null, null], "rewards": [1, -4, -1, -3, 9], "path": ["0", "0", "23", "24", "25", "26", "29"], "rt": [5044, 51, 13, 7, 49], "actions": ["left", "left", "left", "up", "left"], "actionTimes": [5862, 6422, 6965, 7493, 8069], "queries": {"click": {"state": {"target": ["29", "28"], "time": [1364, 4041]}, "edge": {"target": [], "time": []}}, "mouseover": {"state": {"target": ["28", "29", "27", "26", "24", "28"], "time": [1035, 1202, 3202, 3569, 3802, 3869]}, "edge": {"target": [], "time": []}}, "mouseout": {"state": {"target": ["0", "28", "29", "29", "27", "26", "24", "28", "32"], "time": [902, 1052, 1451, 2968, 3535, 3619, 3835, 4802, 8520]}, "edge": {"target": [], "time": []}}}, "displayed_time": "14.82", "trialTime": 17197, "trial_type": "mouselab-mdp", "trial_index": 33, "time_elapsed": 775765, "internal_node_id": "0.0-6.0-1.0-24.0"}}, {"uniqueid": "w80540223:a44447925", "current_trial": 34, "dateTime": 1693396757211, "trialdata": {"revealed_states": [], "clicked_states": ["32"], "num_clicks_accrued": [0, 0, 0, 0, 0, 0, 0, 0, 0, 0, 0, 0, 0], "stateRewards": ["", 1, -2, -8, -13, 4, 34, -84, -4, -49, 88, -70, -1, 3, -4, 10, -77, 13, -34, 15, -21, -16, 27, 1, -2, 8, -8, -6, 38, -26, 6, -15, 66, -3], "withholdReward": false, "trial_id": "mdp_trial_26", "block": "test", "trialIndex": 27, "score": 77.6, "costs": -1.4, "simulationMode": [null, null, null, null, null], "rewards": [1, -2, 8, 6, 66], "path": ["0", "0", "23", "24", "25", "30", "32"], "rt": [3805, 406, 77, 4, 16], "actions": ["left", "left", "left", "down", "down"], "actionTimes": [4296, 5220, 5791, 6303, 6847], "queries": {"click": {"state": {"target": ["32"], "time": [1093]}, "edge": {"target": [], "time": []}}, "mouseover": {"state": {"target": ["0", "31", "30", "32", "31"], "time": [595, 746, 795, 1013, 2896]}, "edge": {"target": [], "time": []}}, "mouseout": {"state": {"target": ["0", "0", "31", "30", "32", "32", "32", "31", "33"], "time": [345, 646, 779, 896, 1173, 2513, 2846, 3529, 18896]}, "edge": {"target": [], "time": []}}}, "displayed_time": "14.49", "trialTime": 19287, "trial_type": "mouselab-mdp", "trial_index": 34, "time_elapsed": 795229, "internal_node_id": "0.0-6.0-1.0-25.0"}}, {"uniqueid": "w80540223:a44447925", "current_trial": 35, "dateTime": 1693396772819, "trialdata": {"revealed_states": [], "clicked_states": ["9"], "num_clicks_accrued": [0, 0, 0, 0, 0, 0, 0, 0, 0, 0, 0, 0, 0], "stateRewards": ["", -2, -3, 8, -4, -30, 31, 69, 9, 66, 87, 64, -2, 2, 8, 5, 47, 16, -39, -8, -54, 51, -19, 1, -2, -2, -11, -25, -26, 43, -9, 19, -84, 86], "withholdReward": false, "trial_id": "mdp_trial_27", "block": "test", "trialIndex": 28, "score": 76.6, "costs": -1.4, "simulationMode": [null, null, null, null, null], "rewards": [-2, -3, 8, 9, 66], "path": ["0", "0", "1", "2", "3", "8", "9"], "rt": [2586, 24, 35, 13, 375], "actions": ["up", "up", "up", "left", "up"], "actionTimes": [3238, 3758, 4302, 4846, 5742], "queries": {"click": {"state": {"target": ["9"], "time": [1329]}, "edge": {"target": [], "time": []}}, "mouseover": {"state": {"target": ["0", "11", "9", "3", "2"], "time": [815, 1049, 1232, 3016, 3067]}, "edge": {"target": [], "time": []}}, "mouseout": {"state": {"target": ["0", "11", "9", "3", "2", "1", "24", "33", "24", "23", "0"], "time": [932, 1099, 2838, 3033, 3116, 6016, 6083, 14099, 14816, 14833, 14866]}, "edge": {"target": [], "time": []}}}, "displayed_time": "14.65", "trialTime": 15414, "trial_type": "mouselab-mdp", "trial_index": 35, "time_elapsed": 810836, "internal_node_id": "0.0-6.0-1.0-26.0"}}, {"uniqueid": "w80540223:a44447925", "current_trial": 36, "dateTime": 1693396793155, "trialdata": {"revealed_states": [], "clicked_states": ["29", "28"], "num_clicks_accrued": [0, 0, 0, 0, 0, 0, 0, 0, 0, 0, 0, 0, 0], "stateRewards": ["", -2, 1, 6, -2, -10, -78, -69, 14, -15, 7, -1, 1, -1, -2, 13, 77, 32, 87, 5, -74, 30, -26, 1, 3, 4, 12, 39, 54, -43, 2, 10, 23, 13], "withholdReward": false, "trial_id": "mdp_trial_28", "block": "test", "trialIndex": 29, "score": 71.2, "costs": -2.8, "simulationMode": [null, null, null, null, null], "rewards": [1, 3, 4, 12, 54], "path": ["0", "0", "23", "24", "25", "26", "28"], "rt": [4999, 23, 50, 4, 38], "actions": ["left", "left", "left", "up", "right"], "actionTimes": [5583, 6135, 6695, 7214, 7782], "queries": {"click": {"state": {"target": ["29", "28"], "time": [1124, 3476]}, "edge": {"target": [], "time": []}}, "mouseover": {"state": {"target": ["23", "29", "28", "27", "26", "31"], "time": [793, 976, 3343, 4143, 5476, 5543]}, "edge": {"target": [], "time": []}}, "mouseout": {"state": {"target": ["0", "0", "23", "29", "29", "28", "27", "26", "31", "23", "33", "30"], "time": [259, 776, 810, 1210, 2660, 3540, 5460, 5510, 5560, 8110, 19461, 19511]}, "edge": {"target": [], "time": []}}}, "displayed_time": "14.59", "trialTime": 20143, "trial_type": "mouselab-mdp", "trial_index": 36, "time_elapsed": 831172, "internal_node_id": "0.0-6.0-1.0-27.0"}}, {"uniqueid": "w80540223:a44447925", "current_trial": 37, "dateTime": 1693396823531, "trialdata": {"revealed_states": [], "clicked_states": ["21", "22", "20", "17", "16", "9", "5"], "num_clicks_accrued": [0, 0, 0, 0, 0, 0, 0, 0, 0, 0, 0, 0, 0], "stateRewards": ["", -2, -1, 3, -3, 71, -58, -21, 7, -10, -75, -37, 2, 4, -1, -12, -79, -29, -48, 3, -41, -10, -30, -1, -2, 1, -15, 13, 66, 22, -1, -42, -86, -55], "withholdReward": false, "trial_id": "mdp_trial_29", "block": "test", "trialIndex": 30, "score": 58.2, "costs": -9.8, "simulationMode": [null, null, null, null, null], "rewards": [-2, -1, 3, -3, 71], "path": ["0", "0", "1", "2", "3", "4", "5"], "rt": [14286, 304, 87, 39, 65], "actions": ["up", "up", "up", "right", "up"], "actionTimes": [15146, 15969, 16569, 17121, 17713], "queries": {"click": {"state": {"target": ["21", "22", "20", "17", "16", "9", "5"], "time": [1787, 3666, 5572, 7559, 9458, 11386, 13218]}, "edge": {"target": [], "time": []}}, "mouseover": {"state": {"target": ["0", "22", "21", "22", "19", "20", "17", "15", "18", "16", "18", "1", "9", "5", "5", "2", "23", "24", "24", "28"], "time": [1070, 1446, 1732, 2730, 4296, 4713, 6096, 7897, 7930, 8197, 9697, 9815, 10097, 11680, 11947, 13564, 13780, 13830, 14797, 14897]}, "edge": {"target": [], "time": []}}, "mouseout": {"state": {"target": ["0", "0", "22", "21", "22", "19", "20", "17", "15", "18", "16", "18", "1", "9", "5", "5", "2", "23", "24", "24", "28", "1", "25"], "time": [729, 1096, 1479, 2413, 4279, 4313, 5963, 7880, 7914, 8013, 9630, 9714, 9831, 11647, 11697, 13497, 13581, 13797, 14497, 14847, 15114, 17915, 18031]}, "edge": {"target": [], "time": []}}}, "displayed_time": "18.23", "trialTime": 30121, "trial_type": "mouselab-mdp", "trial_index": 37, "time_elapsed": 861548, "internal_node_id": "0.0-6.0-1.0-28.0"}}, {"uniqueid": "w80540223:a44447925", "current_trial": 38, "dateTime": 1693396849883, "trialdata": {"revealed_states": [], "clicked_states": ["32", "33", "28"], "num_clicks_accrued": [0, 0, 0, 0, 0, 0, 0, 0, 0, 0, 0, 0, 0], "stateRewards": ["", 1, 1, 4, 11, 83, -66, 18, -16, -23, 5, 25, 1, -3, 1, -12, 18, 24, -86, -11, -64, 36, 40, 2, 1, -6, 13, 55, 29, 72, -2, 81, -72, -41], "withholdReward": false, "trial_id": "mdp_trial_30", "block": "test", "trialIndex": 31, "score": 34.8, "costs": -4.199999999999999, "simulationMode": [null, null, null, null, null], "rewards": [2, 1, -6, 13, 29], "path": ["0", "0", "23", "24", "25", "26", "28"], "rt": [7935, 4, 494, 37, 61], "actions": ["left", "left", "left", "up", "right"], "actionTimes": [8500, 9027, 10051, 10594, 11155], "queries": {"click": {"state": {"target": ["32", "33", "28"], "time": [1138, 4001, 6484]}, "edge": {"target": [], "time": []}}, "mouseover": {"state": {"target": ["30", "32", "30", "25", "33", "33", "29", "26", "28", "28", "10", "3", "9", "9", "8", "10"], "time": [938, 1021, 3156, 3205, 3422, 3910, 4906, 6072, 6090, 6399, 7255, 7305, 7705, 7872, 8439, 8472]}, "edge": {"target": [], "time": []}}, "mouseout": {"state": {"target": ["0", "30", "32", "30", "25", "33", "33", "29", "26", "28", "28", "10", "3", "9", "9", "8", "10", "23", "24"], "time": [788, 972, 2872, 3172, 3339, 3505, 4689, 6055, 6089, 6139, 7222, 7272, 7489, 7755, 8422, 8455, 8489, 11273, 11289]}, "edge": {"target": [], "time": []}}}, "displayed_time": "14.57", "trialTime": 26163, "trial_type": "mouselab-mdp", "trial_index": 38, "time_elapsed": 887900, "internal_node_id": "0.0-6.0-1.0-29.0"}}, {"uniqueid": "w80540223:a44447925", "current_trial": 39, "dateTime": 1693396872610, "trialdata": {"revealed_states": [], "clicked_states": ["32", "31", "28"], "num_clicks_accrued": [0, 0, 0, 0, 0, 0, 0, 0, 0, 0, 0, 0, 0], "stateRewards": ["", -1, 1, -5, -6, -78, 47, -13, 12, 48, -88, 20, 2, -3, -2, 13, -20, 37, -57, 14, -38, 30, 31, -2, -2, 8, 2, -23, 78, 28, 12, -74, -88, 8], "withholdReward": false, "trial_id": "mdp_trial_31", "block": "test", "trialIndex": 32, "score": 79.8, "costs": -4.199999999999999, "simulationMode": [null, null, null, null, null], "rewards": [-2, -2, 8, 2, 78], "path": ["0", "0", "23", "24", "25", "26", "28"], "rt": [6966, 390, 83, 59, 45], "actions": ["left", "left", "left", "up", "right"], "actionTimes": [7627, 8530, 9122, 9698, 10268], "queries": {"click": {"state": {"target": ["32", "31", "28"], "time": [1200, 3107, 5688]}, "edge": {"target": [], "time": []}}, "mouseover": {"state": {"target": ["32", "31", "28", "27"], "time": [988, 1938, 5505, 6088]}, "edge": {"target": [], "time": []}}, "mouseout": {"state": {"target": ["0", "32", "31", "28", "27", "28", "23", "24", "25", "29", "26", "31"], "time": [772, 1872, 5071, 5694, 7705, 7755, 10238, 10256, 10268, 22039, 22074, 22189]}, "edge": {"target": [], "time": []}}}, "displayed_time": "14.66", "trialTime": 22538, "trial_type": "mouselab-mdp", "trial_index": 39, "time_elapsed": 910628, "internal_node_id": "0.0-6.0-1.0-30.0"}}, {"uniqueid": "w80540223:a44447925", "current_trial": 40, "dateTime": 1693396889010, "trialdata": {"revealed_states": [], "clicked_states": ["32", "33"], "num_clicks_accrued": [0, 0, 0, 0, 0, 0, 0, 0, 0, 0, 0, 0, 0], "stateRewards": ["", -2, 3, -5, -7, 66, 43, -60, -4, -70, -75, 4, -1, 2, 2, -13, 54, 11, -40, -1, 77, 32, 15, -2, 3, -8, -9, -35, 83, -27, 6, -74, -34, 44], "withholdReward": false, "trial_id": "mdp_trial_32", "block": "test", "trialIndex": 33, "score": 40.2, "costs": -2.8, "simulationMode": [null, null, null, null, null], "rewards": [-2, 3, -8, 6, 44], "path": ["0", "0", "23", "24", "25", "30", "33"], "rt": [5311, 25, 109, 28, 30], "actions": ["left", "left", "left", "down", "left"], "actionTimes": [5998, 6517, 7133, 7669, 8221], "queries": {"click": {"state": {"target": ["32", "33"], "time": [1411, 3547]}, "edge": {"target": [], "time": []}}, "mouseover": {"state": {"target": ["31", "32", "30", "33", "29", "29"], "time": [1089, 1339, 3323, 3423, 4273, 4423]}, "edge": {"target": [], "time": []}}, "mouseout": {"state": {"target": ["0", "31", "32", "30", "33", "33", "29", "29", "25", "24", "23"], "time": [1039, 1106, 1511, 3340, 3647, 3956, 4307, 5524, 15724, 15758, 15874]}, "edge": {"target": [], "time": []}}}, "displayed_time": "14.69", "trialTime": 16205, "trial_type": "mouselab-mdp", "trial_index": 40, "time_elapsed": 927028, "internal_node_id": "0.0-6.0-1.0-31.0"}}, {"uniqueid": "w80540223:a44447925", "current_trial": 41, "dateTime": 1693396915370, "trialdata": {"revealed_states": [], "clicked_states": ["17", "16", "18", "22", "20", "21", "32"], "num_clicks_accrued": [0, 0, 0, 0, 0, 0, 0, 0, 0, 0, 0, 0, 0], "stateRewards": ["", 2, -1, -1, -9, -81, -30, 55, -6, 78, 25, 62, 2, 4, -1, 9, -85, 1, -19, 1, -60, 12, -34, 1, 4, -1, -13, -24, -16, -83, -8, 16, 43, 9], "withholdReward": false, "trial_id": "mdp_trial_33", "block": "test", "trialIndex": 34, "score": 29.2, "costs": -9.8, "simulationMode": [null, null, null, null, null], "rewards": [1, 4, -1, -8, 43], "path": ["0", "0", "23", "24", "25", "30", "32"], "rt": [14134, 413, 104, 54, 57], "actions": ["left", "left", "left", "down", "down"], "actionTimes": [14636, 15556, 16164, 16732, 17300], "queries": {"click": {"state": {"target": ["17", "16", "18", "22", "20", "21", "32"], "time": [1049, 3100, 4966, 6808, 8642, 10502, 12580]}, "edge": {"target": [], "time": []}}, "mouseover": {"state": {"target": ["0", "12", "13", "14", "17", "16", "15", "18", "13", "22", "20", "21", "30", "32", "30", "33"], "time": [607, 674, 724, 774, 974, 2424, 3524, 4124, 5391, 5858, 7075, 8825, 10841, 11058, 13042, 13459]}, "edge": {"target": [], "time": []}}, "mouseout": {"state": {"target": ["0", "0", "12", "13", "14", "17", "17", "16", "15", "18", "18", "13", "22", "20", "21", "30", "32", "30", "33", "30", "31", "33", "30"], "time": [323, 624, 707, 757, 790, 1058, 1741, 3491, 3558, 5050, 5358, 5425, 6958, 8791, 10708, 10975, 12925, 13075, 14742, 14773, 14808, 25659, 25692]}, "edge": {"target": [], "time": []}}}, "displayed_time": "17.81", "trialTime": 26132, "trial_type": "mouselab-mdp", "trial_index": 41, "time_elapsed": 953387, "internal_node_id": "0.0-6.0-1.0-32.0"}}, {"uniqueid": "w80540223:a44447925", "current_trial": 42, "dateTime": 1693396932081, "trialdata": {"revealed_states": [], "clicked_states": ["29", "28"], "num_clicks_accrued": [0, 0, 0, 0, 0, 0, 0, 0, 0, 0, 0, 0, 0], "stateRewards": ["", -2, -4, 2, 10, -17, 18, 73, 11, -32, 23, -13, -2, -4, 7, 12, -25, 66, -23, 15, 40, -76, -9, 1, 2, -7, -5, -20, 24, 3, -5, 16, -73, 70], "withholdReward": false, "trial_id": "mdp_trial_34", "block": "test", "trialIndex": 35, "score": 12.2, "costs": -2.8, "simulationMode": [null, null, null, null, null], "rewards": [1, 2, -7, -5, 24], "path": ["0", "0", "23", "24", "25", "26", "28"], "rt": [5000, 507, 50, 53, 52], "actions": ["left", "left", "left", "up", "right"], "actionTimes": [5705, 6729, 7289, 7873, 8441], "queries": {"click": {"state": {"target": ["29", "28"], "time": [1292, 3740]}, "edge": {"target": [], "time": []}}, "mouseover": {"state": {"target": ["0", "25", "29", "26", "28"], "time": [986, 1053, 1152, 3288, 3686]}, "edge": {"target": [], "time": []}}, "mouseout": {"state": {"target": ["0", "0", "25", "29", "26", "28", "25", "31"], "time": [519, 1002, 1069, 2736, 3470, 5370, 15588, 15721]}, "edge": {"target": [], "time": []}}}, "displayed_time": "14.71", "trialTime": 16520, "trial_type": "mouselab-mdp", "trial_index": 42, "time_elapsed": 970099, "internal_node_id": "0.0-6.0-1.0-33.0"}}, {"uniqueid": "w80540223:a44447925", "current_trial": 43, "dateTime": 1693396948041, "trialdata": {"revealed_states": [], "clicked_states": ["16"], "num_clicks_accrued": [0, 0, 0, 0, 0, 0, 0, 0, 0, 0, 0, 0, 0], "stateRewards": ["", 1, -1, -7, -7, -22, 15, -13, 13, 26, -32, 38, -1, 1, -7, -4, 16, -62, 86, 12, -54, 56, 64, -2, -1, 6, 14, -57, 37, 62, -6, -25, 50, -70], "withholdReward": false, "trial_id": "mdp_trial_35", "block": "test", "trialIndex": 36, "score": 3.5999999999999996, "costs": -1.4, "simulationMode": [null, null, null, null, null], "rewards": [-1, 1, -7, -4, 16], "path": ["0", "0", "12", "13", "14", "15", "16"], "rt": [2960, 60, 68, 53, 111], "actions": ["right", "right", "right", "up", "up"], "actionTimes": [3750, 4325, 4901, 5469, 6094], "queries": {"click": {"state": {"target": ["16"], "time": [1323]}, "edge": {"target": [], "time": []}}, "mouseover": {"state": {"target": ["16"], "time": [1114]}, "edge": {"target": [], "time": []}}, "mouseout": {"state": {"target": ["0", "16", "15", "18", "25"], "time": [632, 1393, 6014, 6048, 6132]}, "edge": {"target": [], "time": []}}}, "displayed_time": "14.79", "trialTime": 15741, "trial_type": "mouselab-mdp", "trial_index": 43, "time_elapsed": 986059, "internal_node_id": "0.0-6.0-1.0-34.0"}}, {"uniqueid": "w80540223:a44447925", "current_trial": 44, "dateTime": 1693396974977, "trialdata": {"revealed_states": [], "clicked_states": ["9", "5", "7"], "num_clicks_accrued": [0, 0, 0, 0, 0, 0, 0, 0, 0, 0, 0, 0, 0], "stateRewards": ["", 2, 3, -1, 16, -78, -11, 46, 2, -20, 79, -67, 2, 3, 2, 11, -83, -42, -58, -11, -67, -22, 55, 2, -1, -1, -16, -83, -82, 23, -11, -29, 13, 13], "withholdReward": false, "trial_id": "mdp_trial_36", "block": "test", "trialIndex": 37, "score": 61.8, "costs": -4.199999999999999, "simulationMode": [null, null, null, null, null], "rewards": [2, 3, -1, 16, 46], "path": ["0", "0", "1", "2", "3", "4", "7"], "rt": [6956, 471, 81, 48, 42], "actions": ["up", "up", "up", "right", "down"], "actionTimes": [7460, 8443, 9036, 9603, 10163], "queries": {"click": {"state": {"target": ["9", "5", "7"], "time": [1085, 3535, 5436]}, "edge": {"target": [], "time": []}}, "mouseover": {"state": {"target": ["10", "8", "9", "5", "4", "7", "16"], "time": [753, 853, 1003, 3487, 3987, 4771, 6304]}, "edge": {"target": [], "time": []}}, "mouseout": {"state": {"target": ["0", "10", "8", "9", "9", "5", "4", "7", "7", "16", "18", "1"], "time": [620, 804, 970, 1153, 1370, 3904, 4304, 5517, 5804, 7537, 10221, 10271]}, "edge": {"target": [], "time": []}}}, "displayed_time": "14.51", "trialTime": 26715, "trial_type": "mouselab-mdp", "trial_index": 44, "time_elapsed": 1012995, "internal_node_id": "0.0-6.0-1.0-35.0"}}, {"uniqueid": "w80540223:a44447925", "current_trial": 45, "dateTime": 1693396990841, "trialdata": {"revealed_states": [], "clicked_states": ["10"], "num_clicks_accrued": [0, 0, 0, 0, 0, 0, 0, 0, 0, 0, 0, 0, 0], "stateRewards": ["", -2, -3, 7, -13, 60, 9, 37, -6, 37, 20, 1, 2, -2, -8, 6, -80, -31, -10, -7, 70, -65, -44, -1, 1, 7, 6, -11, 73, -85, 16, -21, 47, 34], "withholdReward": false, "trial_id": "mdp_trial_37", "block": "test", "trialIndex": 38, "score": 14.6, "costs": -1.4, "simulationMode": [null, null, null, null, null], "rewards": [-2, -3, 7, -6, 20], "path": ["0", "0", "1", "2", "3", "8", "10"], "rt": [2815, 50, 35, 37, 31], "actions": ["up", "up", "up", "left", "down"], "actionTimes": [4011, 4570, 5138, 5706, 6234], "queries": {"click": {"state": {"target": ["10"], "time": [1762]}, "edge": {"target": [], "time": []}}, "mouseover": {"state": {"target": ["1", "10", "10", "24", "31"], "time": [1418, 1485, 1601, 2119, 2768]}, "edge": {"target": [], "time": []}}, "mouseout": {"state": {"target": ["0", "0", "0", "1", "10", "10", "24", "31", "23", "23", "30", "33", "25", "24", "23"], "time": [18, 518, 1401, 1434, 1501, 2068, 2135, 4035, 4068, 6401, 6468, 6501, 13719, 13754, 13853]}, "edge": {"target": [], "time": []}}}, "displayed_time": "15.20", "trialTime": 15642, "trial_type": "mouselab-mdp", "trial_index": 45, "time_elapsed": 1028859, "internal_node_id": "0.0-6.0-1.0-36.0"}}, {"uniqueid": "w80540223:a44447925", "current_trial": 46, "dateTime": 1693397005905, "trialdata": {"revealed_states": [], "clicked_states": ["32"], "num_clicks_accrued": [0, 0, 0, 0, 0, 0, 0, 0, 0, 0, 0, 0, 0], "stateRewards": ["", 2, -2, 7, -11, -76, -65, -23, 16, -58, 30, 81, 1, 2, 7, 14, 9, 55, -2, 6, 11, -15, 31, -1, -1, -3, 2, 15, 2, 46, 15, 18, 45, -34], "withholdReward": false, "trial_id": "mdp_trial_38", "block": "test", "trialIndex": 39, "score": 53.6, "costs": -1.4, "simulationMode": [null, null, null, null, null], "rewards": [-1, -1, -3, 15, 45], "path": ["0", "0", "23", "24", "25", "30", "32"], "rt": [2543, 491, 92, 10, 91], "actions": ["left", "left", "left", "down", "down"], "actionTimes": [3122, 4129, 4729, 5265, 5881], "queries": {"click": {"state": {"target": ["32"], "time": [1223]}, "edge": {"target": [], "time": []}}, "mouseover": {"state": {"target": ["0", "31", "30", "32"], "time": [820, 886, 904, 1137]}, "edge": {"target": [], "time": []}}, "mouseout": {"state": {"target": ["0", "0", "31", "30", "32", "31", "33", "33"], "time": [703, 836, 903, 1087, 2020, 3537, 6104, 13589]}, "edge": {"target": [], "time": []}}}, "displayed_time": "14.58", "trialTime": 14857, "trial_type": "mouselab-mdp", "trial_index": 46, "time_elapsed": 1043923, "internal_node_id": "0.0-6.0-1.0-37.0"}}, {"uniqueid": "w80540223:a44447925", "current_trial": 47, "dateTime": 1693397028937, "trialdata": {"revealed_states": [], "clicked_states": ["9", "10", "7", "18"], "num_clicks_accrued": [0, 0, 0, 0, 0, 0, 0, 0, 0, 0, 0, 0, 0], "stateRewards": ["", 1, -3, 4, 13, -72, 52, 5, 5, -58, 5, 14, 2, 1, 3, -14, -86, -4, 73, 6, -58, -50, 49, 2, -3, -4, 2, 33, -41, 42, -11, 81, 45, 53], "withholdReward": false, "trial_id": "mdp_trial_39", "block": "test", "trialIndex": 40, "score": 59.4, "costs": -5.6, "simulationMode": [null, null, null, null, null], "rewards": [2, 1, 3, -14, 73], "path": ["0", "0", "12", "13", "14", "15", "18"], "rt": [8885, 584, 44, 80, 70], "actions": ["right", "right", "right", "up", "left"], "actionTimes": [9490, 10593, 11137, 11738, 12313], "queries": {"click": {"state": {"target": ["9", "10", "7", "18"], "time": [1611, 3588, 5544, 7583]}, "edge": {"target": [], "time": []}}, "mouseover": {"state": {"target": ["1", "2", "3", "9", "8", "10", "2", "7", "18", "13", "15", "17"], "time": [874, 908, 957, 1467, 3157, 3257, 3957, 4274, 5958, 8058, 8442, 8575]}, "edge": {"target": [], "time": []}}, "mouseout": {"state": {"target": ["0", "1", "2", "3", "9", "8", "10", "2", "7", "18", "13", "15", "17", "24", "33", "12", "13", "22"], "time": [457, 907, 940, 1044, 3107, 3207, 3891, 4007, 5691, 7908, 8391, 8542, 10808, 12441, 21975, 22042, 22409, 22459]}, "edge": {"target": [], "time": []}}}, "displayed_time": "14.61", "trialTime": 22825, "trial_type": "mouselab-mdp", "trial_index": 47, "time_elapsed": 1066955, "internal_node_id": "0.0-6.0-1.0-38.0"}}, {"uniqueid": "w80540223:a44447925", "current_trial": 48, "dateTime": 1693397049785, "trialdata": {"revealed_states": [], "clicked_states": ["29", "28", "27", "33", "31", "32"], "num_clicks_accrued": [0, 0, 0, 0, 0, 0, 0, 0, 0, 0, 0, 0, 0], "stateRewards": ["", -2, 2, -5, 1, 42, -63, -58, -6, 2, 16, 81, -2, 4, 7, -10, 33, 3, -33, -2, -52, -84, -27, 2, -3, -3, 15, -74, -14, -5, -5, -84, 79, -31], "withholdReward": false, "trial_id": "mdp_trial_40", "block": "test", "trialIndex": 41, "score": 61.6, "costs": -8.4, "simulationMode": [null, null, null, null, null], "rewards": [2, -3, -3, -5, 79], "path": ["0", "0", "23", "24", "25", "30", "32"], "rt": [13523, 463, 65, 424, 98], "actions": ["left", "left", "left", "down", "down"], "actionTimes": [14168, 15143, 15727, 16671, 17295], "queries": {"click": {"state": {"target": ["29", "28", "27", "33", "31", "32"], "time": [1490, 4085, 6062, 8340, 10213, 12117]}, "edge": {"target": [], "time": []}}, "mouseover": {"state": {"target": ["26", "29", "26", "28", "27", "26", "25", "30", "33", "30", "31", "31", "31", "32", "19", "22"], "time": [1078, 1411, 3503, 4045, 6011, 6312, 6361, 6695, 8262, 8612, 8646, 8895, 9612, 10629, 12712, 13178]}, "edge": {"target": [], "time": []}}, "mouseout": {"state": {"target": ["12", "0", "26", "29", "26", "28", "27", "26", "25", "30", "33", "30", "31", "31", "31", "32", "19", "22", "12", "30"], "time": [151, 881, 1128, 3295, 3945, 5728, 6311, 6345, 6395, 6711, 8596, 8630, 8662, 9112, 10529, 12202, 12778, 14462, 14762, 19180]}, "edge": {"target": [], "time": []}}}, "displayed_time": "17.81", "trialTime": 20559, "trial_type": "mouselab-mdp", "trial_index": 48, "time_elapsed": 1087803, "internal_node_id": "0.0-6.0-1.0-39.0"}}, {"uniqueid": "w80540223:a44447925", "current_trial": 49, "dateTime": 1693397108481, "trialdata": {"rt": 58694, "response": {"Q0": "$-16 to 16", "Q1": "$-4 to $4", "Q2": "$-88 to $88", "Q3": "The cost for clicking on nodes varied between nodes.", "Q4": "Very motivated"}, "question_order": [0, 1, 2, 3, 4], "trial_id": "final_quiz_control", "trial_type": "survey-multi-choice", "trial_index": 49, "time_elapsed": 1146499, "internal_node_id": "0.0-6.0-2.0"}}, {"uniqueid": "w80540223:a44447925", "current_trial": 50, "dateTime": 1693397216889, "trialdata": {"rt": 108400, "response": {"Q0": "I wanted to look for the highest paying node right from the beginning and I would keep clicking until I found a really good one.", "Q1": "I got a bit better at it once I realised how high the amount could go up to for the nodes so I would take longer looking for the really good ones.", "Q2": "It wasn't difficult."}, "trial_id": "self_report_control", "trial_type": "survey-text", "trial_index": 50, "time_elapsed": 1254907, "internal_node_id": "0.0-6.0-3.0"}}, {"uniqueid": "w80540223:a44447925", "current_trial": 51, "dateTime": 1693397280738, "trialdata": {"rt": 63846, "response": {"gender": "male", "age": "28", "colorblind": "0", "effort": "0"}, "trial_type": "survey-html-form", "trial_index": 51, "time_elapsed": 1318756, "internal_node_id": "0.0-6.0-4.0"}}, {"uniqueid": "w80540223:a44447925", "current_trial": 52, "dateTime": 1693397391774, "trialdata": {"rt": 111031, "response": {"Q0": "No.", "Q1": "I didn't realise that because this is my first time.", "Q2": "N/A"}, "trial_type": "survey-text", "trial_index": 52, "time_elapsed": 1429792, "internal_node_id": "0.0-6.0-5.0"}}, {"uniqueid": "w80540223:a44447925", "current_trial": 53, "dateTime": 1693397396206, "trialdata": {"rt": 4427, "stimulus": "<h1>Completion Code Instructions (1/2)</h1>\n<br><br><br><br>\nYou have reached the end of the experiment! The completion code consists of two parts: (1) a code with 2 characters (2) a code with 6 characters. On this page, you will receive the second part of the code. The first part of the completion code will be on the next page.\n<br><br>\nThe second part of your completion code is: <b>EWEK22</b>\n<br><br>\nPlease note this down. Then, press 'Finish HIT' in order to find the first part of your completion code. Once the data has been saved, you will receive this code either in this window or in the original browser window where you started the experiment.\n", "response": 0, "trial_type": "html-button-response", "trial_index": 53, "time_elapsed": 1434223, "internal_node_id": "0.0-6.0-6.0"}}, {"uniqueid": "w80540223:a44447925", "current_trial": 54, "dateTime": 1693397397208, "trialdata": {"success": true, "trial_type": "fullscreen", "trial_index": 54, "time_elapsed": 1435226, "internal_node_id": "0.0-7.0"}}], "questiondata": {"params": {"CODE": "C6DMOQA6", "MIN_TIME": 14, "inspectCost": 1, "startTime": "Wed Aug 30 2023 12:46:01 GMT+0100 (British Summer Time)", "bonusRate": 0.002, "variance": "1_2_4_8_44", "branching": "31123"}, "final_score": 1635}, "eventdata": [{"eventtype": "initialized", "value": null, "timestamp": 1693395960829, "interval": 0}, {"eventtype": "window_resize", "value": [911, 796], "timestamp": 1693395960829, "interval": 0}, {"eventtype": "window_resize", "value": [911, 796], "timestamp": 1693395961166, "interval": 337}, {"eventtype": "focus", "value": "off", "timestamp": 1693395964364, "interval": 3198}, {"eventtype": "focus", "value": "on", "timestamp": 1693395965637, "interval": 1273}, {"eventtype": "window_resize", "value": [911, 796], "timestamp": 1693395966084, "interval": 447}, {"eventtype": "focus", "value": "off", "timestamp": 1693395974110, "interval": 8026}, {"eventtype": "focus", "value": "on", "timestamp": 1693395979054, "interval": 4944}, {"eventtype": "focus", "value": "off", "timestamp": 1693396006641, "interval": 27587}, {"eventtype": "focus", "value": "on", "timestamp": 1693396006735, "interval": 94}, {"eventtype": "window_resize", "value": [935, 833], "timestamp": 1693396010044, "interval": 3309}, {"eventtype": "window_resize", "value": [939, 837], "timestamp": 1693396010353, "interval": 309}, {"eventtype": "focus", "value": "off", "timestamp": 1693396024765, "interval": 14412}, {"eventtype": "focus", "value": "on", "timestamp": 1693396026977, "interval": 2212}, {"eventtype": "focus", "value": "off", "timestamp": 1693396030461, "interval": 3484}, {"eventtype": "focus", "value": "on", "timestamp": 1693396069240, "interval": 38779}, {"eventtype": "focus", "value": "off", "timestamp": 1693396085558, "interval": 16318}, {"eventtype": "focus", "value": "on", "timestamp": 1693396087702, "interval": 2144}, {"eventtype": "focus", "value": "off", "timestamp": 1693396100714, "interval": 13012}, {"eventtype": "focus", "value": "on", "timestamp": 1693396132662, "interval": 31948}, {"eventtype": "focus", "value": "off", "timestamp": 1693396158179, "interval": 25517}, {"eventtype": "focus", "value": "on", "timestamp": 1693396168347, "interval": 10168}, {"eventtype": "focus", "value": "off", "timestamp": 1693396172535, "interval": 4188}, {"eventtype": "focus", "value": "on", "timestamp": 1693396173356, "interval": 821}, {"eventtype": "focus", "value": "off", "timestamp": 1693396176835, "interval": 3479}, {"eventtype": "focus", "value": "on", "timestamp": 1693396177559, "interval": 724}, {"eventtype": "focus", "value": "off", "timestamp": 1693396181783, "interval": 4224}, {"eventtype": "focus", "value": "on", "timestamp": 1693396185044, "interval": 3261}, {"eventtype": "focus", "value": "off", "timestamp": 1693396188942, "interval": 3898}, {"eventtype": "focus", "value": "on", "timestamp": 1693396192900, "interval": 3958}, {"eventtype": "focus", "value": "off", "timestamp": 1693396195580, "interval": 2680}, {"eventtype": "focus", "value": "on", "timestamp": 1693396198788, "interval": 3208}, {"eventtype": "focus", "value": "off", "timestamp": 1693396203489, "interval": 4701}, {"eventtype": "focus", "value": "on", "timestamp": 1693396205255, "interval": 1766}, {"eventtype": "focus", "value": "off", "timestamp": 1693396205890, "interval": 635}, {"eventtype": "focus", "value": "on", "timestamp": 1693396213826, "interval": 7936}, {"eventtype": "window_resize", "value": [807, 837], "timestamp": 1693396215037, "interval": 1211}, {"eventtype": "focus", "value": "off", "timestamp": 1693396216536, "interval": 1499}, {"eventtype": "focus", "value": "on", "timestamp": 1693396224564, "interval": 8028}, {"eventtype": "focus", "value": "off", "timestamp": 1693396226057, "interval": 1493}, {"eventtype": "focus", "value": "on", "timestamp": 1693396235999, "interval": 9942}, {"eventtype": "focus", "value": "off", "timestamp": 1693396244979, "interval": 8980}, {"eventtype": "focus", "value": "on", "timestamp": 1693396257363, "interval": 12384}, {"eventtype": "focus", "value": "off", "timestamp": 1693396267502, "interval": 10139}, {"eventtype": "focus", "value": "on", "timestamp": 1693396277899, "interval": 10397}, {"eventtype": "focus", "value": "off", "timestamp": 1693396287386, "interval": 9487}, {"eventtype": "focus", "value": "on", "timestamp": 1693396301504, "interval": 14118}, {"eventtype": "focus", "value": "off", "timestamp": 1693396311920, "interval": 10416}, {"eventtype": "focus", "value": "on", "timestamp": 1693396325904, "interval": 13984}, {"eventtype": "focus", "value": "off", "timestamp": 1693396343022, "interval": 17118}, {"eventtype": "focus", "value": "on", "timestamp": 1693396343622, "interval": 600}, {"eventtype": "focus", "value": "off", "timestamp": 1693396344964, "interval": 1342}, {"eventtype": "focus", "value": "on", "timestamp": 1693396346450, "interval": 1486}, {"eventtype": "focus", "value": "off", "timestamp": 1693396353581, "interval": 7131}, {"eventtype": "focus", "value": "on", "timestamp": 1693396363428, "interval": 9847}, {"eventtype": "focus", "value": "off", "timestamp": 1693396365775, "interval": 2347}, {"eventtype": "focus", "value": "on", "timestamp": 1693396366694, "interval": 919}, {"eventtype": "focus", "value": "off", "timestamp": 1693396369635, "interval": 2941}, {"eventtype": "focus", "value": "on", "timestamp": 1693396370860, "interval": 1225}, {"eventtype": "focus", "value": "off", "timestamp": 1693396375407, "interval": 4547}, {"eventtype": "focus", "value": "on", "timestamp": 1693396381828, "interval": 6421}, {"eventtype": "focus", "value": "off", "timestamp": 1693396382585, "interval": 757}, {"eventtype": "focus", "value": "on", "timestamp": 1693396385841, "interval": 3256}, {"eventtype": "focus", "value": "off", "timestamp": 1693396388093, "interval": 2252}, {"eventtype": "focus", "value": "on", "timestamp": 1693396389331, "interval": 1238}, {"eventtype": "focus", "value": "off", "timestamp": 1693396391313, "interval": 1982}, {"eventtype": "focus", "value": "on", "timestamp": 1693396392099, "interval": 786}, {"eventtype": "focus", "value": "off", "timestamp": 1693396396391, "interval": 4292}, {"eventtype": "focus", "value": "on", "timestamp": 1693396398800, "interval": 2409}, {"eventtype": "focus", "value": "off", "timestamp": 1693396399585, "interval": 785}, {"eventtype": "focus", "value": "on", "timestamp": 1693396401611, "interval": 2026}, {"eventtype": "focus", "value": "off", "timestamp": 1693396405345, "interval": 3734}, {"eventtype": "focus", "value": "on", "timestamp": 1693396406129, "interval": 784}, {"eventtype": "focus", "value": "off", "timestamp": 1693396407029, "interval": 900}, {"eventtype": "focus", "value": "on", "timestamp": 1693396407821, "interval": 792}, {"eventtype": "focus", "value": "off", "timestamp": 1693396408605, "interval": 784}, {"eventtype": "focus", "value": "on", "timestamp": 1693396413249, "interval": 4644}, {"eventtype": "focus", "value": "off", "timestamp": 1693396416267, "interval": 3018}, {"eventtype": "focus", "value": "on", "timestamp": 1693396419122, "interval": 2855}, {"eventtype": "focus", "value": "off", "timestamp": 1693396423113, "interval": 3991}, {"eventtype": "focus", "value": "on", "timestamp": 1693396429656, "interval": 6543}, {"eventtype": "focus", "value": "off", "timestamp": 1693396431512, "interval": 1856}, {"eventtype": "focus", "value": "on", "timestamp": 1693396433483, "interval": 1971}, {"eventtype": "focus", "value": "off", "timestamp": 1693396434477, "interval": 994}, {"eventtype": "focus", "value": "on", "timestamp": 1693396435883, "interval": 1406}, {"eventtype": "focus", "value": "off", "timestamp": 1693396439912, "interval": 4029}, {"eventtype": "focus", "value": "on", "timestamp": 1693396449801, "interval": 9889}, {"eventtype": "focus", "value": "off", "timestamp": 1693396459933, "interval": 10132}, {"eventtype": "focus", "value": "on", "timestamp": 1693396468303, "interval": 8370}, {"eventtype": "focus", "value": "off", "timestamp": 1693396476455, "interval": 8152}, {"eventtype": "focus", "value": "on", "timestamp": 1693396485461, "interval": 9006}, {"eventtype": "focus", "value": "off", "timestamp": 1693396493372, "interval": 7911}, {"eventtype": "focus", "value": "on", "timestamp": 1693396503659, "interval": 10287}, {"eventtype": "focus", "value": "off", "timestamp": 1693396511790, "interval": 8131}, {"eventtype": "focus", "value": "on", "timestamp": 1693396524330, "interval": 12540}, {"eventtype": "focus", "value": "off", "timestamp": 1693396534755, "interval": 10425}, {"eventtype": "focus", "value": "on", "timestamp": 1693396545930, "interval": 11175}, {"eventtype": "focus", "value": "off", "timestamp": 1693396553225, "interval": 7295}, {"eventtype": "focus", "value": "on", "timestamp": 1693396561651, "interval": 8426}, {"eventtype": "focus", "value": "off", "timestamp": 1693396569077, "interval": 7426}, {"eventtype": "focus", "value": "on", "timestamp": 1693396585266, "interval": 16189}, {"eventtype": "focus", "value": "off", "timestamp": 1693396588989, "interval": 3723}, {"eventtype": "focus", "value": "on", "timestamp": 1693396590095, "interval": 1106}, {"eventtype": "focus", "value": "off", "timestamp": 1693396593441, "interval": 3346}, {"eventtype": "focus", "value": "on", "timestamp": 1693396601572, "interval": 8131}, {"eventtype": "focus", "value": "off", "timestamp": 1693396608701, "interval": 7129}, {"eventtype": "focus", "value": "on", "timestamp": 1693396617498, "interval": 8797}, {"eventtype": "focus", "value": "off", "timestamp": 1693396628149, "interval": 10651}, {"eventtype": "focus", "value": "on", "timestamp": 1693396645539, "interval": 17390}, {"eventtype": "focus", "value": "off", "timestamp": 1693396653668, "interval": 8129}, {"eventtype": "focus", "value": "on", "timestamp": 1693396662174, "interval": 8506}, {"eventtype": "focus", "value": "off", "timestamp": 1693396676991, "interval": 14817}, {"eventtype": "focus", "value": "on", "timestamp": 1693396686172, "interval": 9181}, {"eventtype": "focus", "value": "off", "timestamp": 1693396693103, "interval": 6931}, {"eventtype": "focus", "value": "on", "timestamp": 1693396701886, "interval": 8783}, {"eventtype": "focus", "value": "off", "timestamp": 1693396709328, "interval": 7442}, {"eventtype": "focus", "value": "on", "timestamp": 1693396720141, "interval": 10813}, {"eventtype": "focus", "value": "off", "timestamp": 1693396729408, "interval": 9267}, {"eventtype": "focus", "value": "on", "timestamp": 1693396737605, "interval": 8197}, {"eventtype": "focus", "value": "off", "timestamp": 1693396745546, "interval": 7941}, {"eventtype": "focus", "value": "on", "timestamp": 1693396757056, "interval": 11510}, {"eventtype": "focus", "value": "off", "timestamp": 1693396763979, "interval": 6923}, {"eventtype": "focus", "value": "on", "timestamp": 1693396772598, "interval": 8619}, {"eventtype": "focus", "value": "off", "timestamp": 1693396781487, "interval": 8889}, {"eventtype": "focus", "value": "on", "timestamp": 1693396793031, "interval": 11544}, {"eventtype": "focus", "value": "off", "timestamp": 1693396811692, "interval": 18661}, {"eventtype": "focus", "value": "on", "timestamp": 1693396823425, "interval": 11733}, {"eventtype": "focus", "value": "off", "timestamp": 1693396835389, "interval": 11964}, {"eventtype": "focus", "value": "on", "timestamp": 1693396849772, "interval": 14383}, {"eventtype": "focus", "value": "off", "timestamp": 1693396860885, "interval": 11113}, {"eventtype": "focus", "value": "on", "timestamp": 1693396872443, "interval": 11558}, {"eventtype": "focus", "value": "off", "timestamp": 1693396881545, "interval": 9102}, {"eventtype": "focus", "value": "on", "timestamp": 1693396888894, "interval": 7349}, {"eventtype": "focus", "value": "off", "timestamp": 1693396907072, "interval": 18178}, {"eventtype": "focus", "value": "on", "timestamp": 1693396915239, "interval": 8167}, {"eventtype": "focus", "value": "off", "timestamp": 1693396924507, "interval": 9268}, {"eventtype": "focus", "value": "on", "timestamp": 1693396931899, "interval": 7392}, {"eventtype": "focus", "value": "off", "timestamp": 1693396939557, "interval": 7658}, {"eventtype": "focus", "value": "on", "timestamp": 1693396947819, "interval": 8262}, {"eventtype": "focus", "value": "off", "timestamp": 1693396959034, "interval": 11215}, {"eventtype": "focus", "value": "on", "timestamp": 1693396974873, "interval": 15839}, {"eventtype": "focus", "value": "off", "timestamp": 1693396981948, "interval": 7075}, {"eventtype": "focus", "value": "on", "timestamp": 1693396990306, "interval": 8358}, {"eventtype": "focus", "value": "off", "timestamp": 1693396997489, "interval": 7183}, {"eventtype": "focus", "value": "on", "timestamp": 1693397005226, "interval": 7737}, {"eventtype": "focus", "value": "off", "timestamp": 1693397018954, "interval": 13728}, {"eventtype": "focus", "value": "on", "timestamp": 1693397028674, "interval": 9720}, {"eventtype": "focus", "value": "off", "timestamp": 1693397047392, "interval": 18718}, {"eventtype": "focus", "value": "on", "timestamp": 1693397049049, "interval": 1657}, {"eventtype": "focus", "value": "off", "timestamp": 1693397050734, "interval": 1685}, {"eventtype": "focus", "value": "on", "timestamp": 1693397057119, "interval": 6385}, {"eventtype": "focus", "value": "off", "timestamp": 1693397058444, "interval": 1325}, {"eventtype": "focus", "value": "on", "timestamp": 1693397070782, "interval": 12338}, {"eventtype": "focus", "value": "off", "timestamp": 1693397078819, "interval": 8037}, {"eventtype": "focus", "value": "on", "timestamp": 1693397081781, "interval": 2962}, {"eventtype": "focus", "value": "off", "timestamp": 1693397084043, "interval": 2262}, {"eventtype": "focus", "value": "on", "timestamp": 1693397103690, "interval": 19647}, {"eventtype": "focus", "value": "off", "timestamp": 1693397106017, "interval": 2327}, {"eventtype": "focus", "value": "on", "timestamp": 1693397108401, "interval": 2384}, {"eventtype": "focus", "value": "off", "timestamp": 1693397109031, "interval": 630}, {"eventtype": "focus", "value": "on", "timestamp": 1693397133551, "interval": 24520}, {"eventtype": "focus", "value": "off", "timestamp": 1693397157555, "interval": 24004}, {"eventtype": "focus", "value": "on", "timestamp": 1693397169935, "interval": 12380}, {"eventtype": "focus", "value": "off", "timestamp": 1693397203864, "interval": 33929}, {"eventtype": "focus", "value": "on", "timestamp": 1693397209217, "interval": 5353}, {"eventtype": "focus", "value": "off", "timestamp": 1693397215486, "interval": 6269}, {"eventtype": "focus", "value": "on", "timestamp": 1693397216816, "interval": 1330}, {"eventtype": "focus", "value": "off", "timestamp": 1693397220232, "interval": 3416}, {"eventtype": "focus", "value": "on", "timestamp": 1693397254276, "interval": 34044}, {"eventtype": "focus", "value": "off", "timestamp": 1693397257007, "interval": 2731}, {"eventtype": "focus", "value": "on", "timestamp": 1693397260791, "interval": 3784}, {"eventtype": "focus", "value": "off", "timestamp": 1693397262955, "interval": 2164}, {"eventtype": "focus", "value": "on", "timestamp": 1693397264250, "interval": 1295}, {"eventtype": "focus", "value": "off", "timestamp": 1693397273054, "interval": 8804}, {"eventtype": "focus", "value": "on", "timestamp": 1693397275790, "interval": 2736}, {"eventtype": "focus", "value": "off", "timestamp": 1693397278514, "interval": 2724}, {"eventtype": "focus", "value": "on", "timestamp": 1693397280642, "interval": 2128}, {"eventtype": "focus", "value": "off", "timestamp": 1693397281587, "interval": 945}, {"eventtype": "focus", "value": "on", "timestamp": 1693397287560, "interval": 5973}, {"eventtype": "focus", "value": "off", "timestamp": 1693397289699, "interval": 2139}, {"eventtype": "focus", "value": "on", "timestamp": 1693397300872, "interval": 11173}, {"eventtype": "focus", "value": "off", "timestamp": 1693397310493, "interval": 9621}, {"eventtype": "focus", "value": "on", "timestamp": 1693397315941, "interval": 5448}, {"eventtype": "focus", "value": "off", "timestamp": 1693397318095, "interval": 2154}, {"eventtype": "focus", "value": "on", "timestamp": 1693397345537, "interval": 27442}, {"eventtype": "focus", "value": "off", "timestamp": 1693397346982, "interval": 1445}, {"eventtype": "focus", "value": "on", "timestamp": 1693397391686, "interval": 44704}, {"eventtype": "focus", "value": "off", "timestamp": 1693397394244, "interval": 2558}, {"eventtype": "focus", "value": "on", "timestamp": 1693397396090, "interval": 1846}], "useragent": "Mozilla/5.0 (Windows NT 10.0; Win64; x64) AppleWebKit/537.36 (KHTML, like Gecko) Chrome/116.0.0.0 Safari/537.36", "mode": "live", "id": "w80540223:a44447925", "status": "user data saved", "Beginhit": "2023-08-30 11:46:00.479362", "Beginexp": "2023-08-30 11:46:07.630719", "Endhit": "2023-08-30 12:09:58.460811", "psiturkStatus": 3, "browser": "<redacted>", "platform": "windows", "language": "en-GB"}