{"condition": 1, "counterbalance": 0, "assignmentId": "a56617748", "workerId": "w44425181", "hitId": "h52482086", "currenttrial": 68, "bonus": 0, "data": [{"uniqueid": "w44425181:a56617748", "current_trial": 0, "dateTime": 1693580109215, "trialdata": {"success": true, "trial_type": "fullscreen", "trial_index": 0, "time_elapsed": 5770, "internal_node_id": "0.0-0.0"}}, {"uniqueid": "w44425181:a56617748", "current_trial": 1, "dateTime": 1693580128048, "trialdata": {"view_history": [{"page_index": 0, "viewing_time": 18810}], "rt": 18811, "trial_id": "exp_instructions_misaligned", "trial_type": "instructions", "trial_index": 1, "time_elapsed": 24604, "internal_node_id": "0.0-1.0"}}, {"uniqueid": "w44425181:a56617748", "current_trial": 2, "dateTime": 1693580266235, "trialdata": {"view_history": [{"page_index": 0, "viewing_time": 46757}, {"page_index": 1, "viewing_time": 53976}, {"page_index": 2, "viewing_time": 16220}, {"page_index": 3, "viewing_time": 21217}], "rt": 138170, "trial_id": "mouselab_instructions_1_misaligned", "trial_type": "instructions", "trial_index": 2, "time_elapsed": 162791, "internal_node_id": "0.0-2.0-1.0"}}, {"uniqueid": "w44425181:a56617748", "current_trial": 3, "dateTime": 1693581723367, "trialdata": {"revealed_states": [], "clicked_states": ["26", "27", "11", "8", "3", "4", "6", "7", "2", "10", "1", "25", "30", "32", "31", "33", "24", "12", "13", "14", "22", "19", "20", "21", "15", "17", "18", "16", "9", "5", "29", "28", "23"], "num_clicks_accrued": [0, 0, 0, 0, 0, 0, 0, 0, 0, 0, 0, 0, 0], "stateRewards": ["", 10, 10, -10, 10, 10, -10, -10, 10, 10, 10, 10, -10, -10, 10, 10, 10, 10, 10, -10, 10, -10, -10, 10, 10, -10, -10, -10, -10, -10, -10, -10, -10, 10], "withholdReward": false, "trial_id": "practice_1", "block": "test", "trialIndex": 0, "score": -3, "costs": -16.5, "simulationMode": [null, null, null, null, null], "rewards": [10, 10, -10, 10, -10], "path": ["0", "0", "1", "2", "3", "4", "6"], "rt": [106439, 78856, 1134747, 6453, 477], "actions": ["up", "up", "up", "right", "right"], "actionTimes": [169938, 249359, 1384659, 1391876, 1392908], "queries": {"click": {"state": {"target": ["26", "27", "11", "8", "3", "4", "6", "7", "2", "10", "1", "25", "30", "32", "31", "33", "24", "12", "13", "14", "22", "19", "20", "21", "15", "17", "18", "16", "9", "5", "29", "28", "23"], "time": [67040, 70732, 73001, 76633, 78795, 80290, 82013, 83952, 85571, 87222, 90143, 100182, 102748, 104155, 105771, 107664, 110173, 114345, 116093, 117282, 119243, 120985, 122846, 124736, 126589, 128048, 130294, 132118, 139494, 141118, 143608, 145666, 146923]}, "edge": {"target": [], "time": []}}, "mouseover": {"state": {"target": ["12", "31", "28", "26", "28", "27", "11", "8", "3", "4", "6", "7", "2", "10", "1", "1", "1", "2", "10", "26", "25", "30", "32", "31", "33", "24", "23", "0", "12", "13", "14", "22", "19", "20", "21", "19", "14", "15", "17", "18", "16", "1", "2", "10", "3", "9", "5", "8", "27", "29", "28", "23", "0", "0", "0", "0", "12"], "time": [64907, 65656, 66287, 66627, 69430, 70156, 72253, 76136, 77816, 79762, 81346, 83537, 85086, 86537, 89093, 89620, 95829, 96336, 96796, 99053, 99785, 102330, 103760, 105021, 106698, 109681, 110933, 111832, 113880, 115711, 116876, 118434, 120494, 121983, 123970, 125216, 125738, 126176, 127397, 128743, 131570, 133342, 135306, 136348, 138352, 139086, 140248, 141857, 142305, 142858, 144866, 146263, 157791, 158200, 158934, 164752, 167436]}, "edge": {"target": [], "time": []}}, "mouseout": {"state": {"target": ["0", "16", "12", "31", "28", "26", "28", "27", "11", "8", "3", "4", "6", "7", "2", "10", "10", "1", "1", "1", "2", "10", "26", "25", "25", "30", "30", "32", "31", "30", "33", "24", "23", "0", "12", "13", "14", "22", "19", "20", "19", "21", "19", "14", "15", "17", "18", "16", "1", "2", "10", "3", "9", "5", "8", "27", "29", "28", "28", "23", "0", "0", "0", "0", "12", "18", "0", "23", "8", "9", "28", "27", "27", "29", "26", "2", "7", "4", "5", "3", "8", "9", "8", "3", "0", "19", "20", "22", "3", "8", "3", "3", "4", "4", "11", "25", "30", "32", "32", "30", "32", "30", "1", "1", "2", "8", "4", "24", "0", "2", "3", "1", "0", "12", "13", "14", "14", "30", "32", "32", "30", "30", "32", "32", "30", "25", "28", "8", "8", "4", "4", "30", "25", "25", "30", "32", "30", "30", "25", "26", "26", "26", "24", "24", "0", "12", "14", "18", "8", "3", "8", "11", "8", "3", "3", "3", "8", "8", "3", "4", "6", "4", "3", "8", "3", "4", "8", "4", "21", "7", "2", "10", "2", "3", "3", "3", "0", "26", "9", "8", "8", "3", "3", "3", "3", "1", "23", "23", "13", "23", "0", "0", "3", "3", "8", "26", "2", "2", "1", "0", "0", "1", "4", "6"], "time": [17144, 17350, 64946, 65823, 66375, 68658, 69722, 71717, 75371, 77681, 79531, 81145, 83168, 84677, 85675, 87336, 89054, 89133, 92201, 95889, 96554, 98253, 99102, 100326, 101898, 102878, 103385, 104634, 106401, 106649, 108301, 110821, 111775, 113841, 114995, 116716, 117965, 119374, 121104, 122978, 123493, 124882, 125262, 126102, 126713, 128169, 130381, 132646, 134476, 136307, 137702, 138687, 140116, 141728, 141909, 142341, 143700, 145792, 146208, 147429, 157841, 158375, 159481, 166195, 167473, 174701, 177465, 180367, 180967, 183496, 185266, 186260, 187866, 189404, 190345, 190423, 190687, 190756, 192876, 193006, 193945, 194960, 196444, 197574, 197660, 198071, 198309, 202395, 202808, 204819, 208419, 210602, 213553, 215843, 216035, 216334, 217056, 217185, 217477, 218059, 221891, 223402, 226081, 229381, 231257, 239253, 244966, 247537, 251508, 253393, 257916, 258560, 260474, 262943, 264861, 264911, 266810, 267488, 268792, 269941, 272227, 272778, 273544, 275121, 276644, 277684, 344605, 380616, 381150, 455575, 458634, 459531, 461586, 462214, 462551, 462814, 467135, 468593, 469830, 470314, 471670, 474000, 474761, 475145, 475184, 475448, 475525, 477923, 481895, 483293, 492443, 573156, 573195, 573242, 702957, 703426, 705511, 711893, 716770, 776458, 916911, 917361, 939390, 961616, 983959, 984809, 986114, 995210, 996606, 997856, 998157, 1000057, 1001213, 1069586, 1163652, 1168284, 1170830, 1203254, 1209330, 1209779, 1212669, 1260692, 1265153, 1265981, 1335579, 1335744, 1337856, 1339390, 1339961, 1340590, 1341139, 1347172, 1354886, 1366967, 1368907, 1373434, 1375976, 1376667, 1377033, 1378911, 1380763, 1385456, 1406746, 1409979]}, "edge": {"target": [], "time": []}}}, "displayed_time": "1393.46", "trialTime": 1455041, "trial_type": "mouselab-mdp", "trial_index": 3, "time_elapsed": 1619922, "internal_node_id": "0.0-2.0-2.0-0.0"}}, {"uniqueid": "w44425181:a56617748", "current_trial": 4, "dateTime": 1693581747774, "trialdata": {"revealed_states": [], "clicked_states": [], "num_clicks_accrued": [0, 0, 0, 0, 0, 0, 0, 0, 0, 0, 0, 0, 0], "stateRewards": ["", 10, -10, 10, 10, -10, -10, -10, 10, 10, -10, 10, -10, -10, -10, -10, 10, -10, -10, 10, -10, -10, -10, -10, 10, -10, 10, -10, 10, -10, -10, -10, 10, 10], "withholdReward": false, "trial_id": "practice_2", "block": "test", "trialIndex": 1, "score": 13.5, "costs": 0, "simulationMode": [null, null, null, null, null], "rewards": [10, -10, 10, 10, -10], "path": ["0", "0", "1", "2", "3", "4", "6"], "rt": [3198, 176, 413, 1660, 189], "actions": ["up", "up", "up", "right", "right"], "actionTimes": [9462, 10203, 11154, 13357, 14079], "queries": {"click": {"state": {"target": [], "time": []}, "edge": {"target": [], "time": []}}, "mouseover": {"state": {"target": [], "time": []}, "edge": {"target": [], "time": []}}, "mouseout": {"state": {"target": ["6", "1", "0"], "time": [3161, 3909, 20291]}, "edge": {"target": [], "time": []}}}, "displayed_time": "14.62", "trialTime": 22449, "trial_type": "mouselab-mdp", "trial_index": 4, "time_elapsed": 1644329, "internal_node_id": "0.0-2.0-2.0-1.0"}}, {"uniqueid": "w44425181:a56617748", "current_trial": 5, "dateTime": 1693581783494, "trialdata": {"view_history": [{"page_index": 0, "viewing_time": 32120}, {"page_index": 1, "viewing_time": 3587}], "rt": 35709, "trial_id": "mouselab_instructions_2_misaligned", "trial_type": "instructions", "trial_index": 5, "time_elapsed": 1680050, "internal_node_id": "0.0-2.0-3.0"}}, {"uniqueid": "w44425181:a56617748", "current_trial": 6, "dateTime": 1693581823193, "trialdata": {"rt": 39673, "response": {"Q0": "There is no cost for clicking on nodes.", "Q1": "The better I perform the higher my bonus will be.", "Q2": "No, the structure of the web will be different each time.", "Q3": "To get the highest total score.", "Q4": "Only after moving the spider.", "Q5": "3 seconds"}, "question_order": [0, 1, 2, 3, 4, 5], "correct": {"Q0": "The cost for clicking on nodes may vary between nodes.", "Q1": "The better I perform the higher my bonus will be.", "Q2": "No, the amount of cash at each node of the web may be different each time.", "Q3": "To get the highest total score.", "Q4": "Only before moving the spider.", "Q5": "3 seconds"}, "trial_id": "mouselab_quiz_misaligned", "trial_type": "survey-multi-choice", "trial_index": 6, "time_elapsed": 1719749, "internal_node_id": "0.0-2.0-4.0"}}, {"uniqueid": "w44425181:a56617748", "current_trial": 7, "dateTime": 1693581831808, "trialdata": {"success": true, "trial_type": "fullscreen", "trial_index": 7, "time_elapsed": 1728364, "internal_node_id": "0.0-2.1-0.1-0.1"}}, {"uniqueid": "w44425181:a56617748", "current_trial": 8, "dateTime": 1693581866873, "trialdata": {"view_history": [{"page_index": 0, "viewing_time": 14125}, {"page_index": 1, "viewing_time": 14782}, {"page_index": 2, "viewing_time": 3892}, {"page_index": 3, "viewing_time": 2251}], "rt": 35051, "trial_id": "mouselab_instructions_1_misaligned", "trial_type": "instructions", "trial_index": 8, "time_elapsed": 1763429, "internal_node_id": "0.0-2.1-1.1"}}, {"uniqueid": "w44425181:a56617748", "current_trial": 9, "dateTime": 1693581950593, "trialdata": {"revealed_states": [], "clicked_states": ["1", "2", "3", "9", "11", "27", "29", "26", "25", "28", "24", "30", "32", "33", "31", "23", "10", "7", "4", "6", "5", "16", "18", "15", "17", "14", "13", "12", "22", "19", "20", "21", "8"], "num_clicks_accrued": [0, 0, 0, 0, 0, 0, 0, 0, 0, 0, 0, 0, 0], "stateRewards": ["", 10, 10, -10, 10, 10, -10, -10, 10, 10, 10, 10, -10, -10, 10, 10, 10, 10, 10, -10, 10, -10, -10, 10, 10, -10, -10, -10, -10, -10, -10, -10, -10, 10], "withholdReward": false, "trial_id": "practice_1", "block": "test", "trialIndex": 2, "score": 17, "costs": -16.5, "simulationMode": [null, null, null, null, null], "rewards": [10, 10, -10, 10, 10], "path": ["0", "0", "1", "2", "3", "4", "5"], "rt": [66330, 279, 638, 1229, 3159], "actions": ["up", "up", "up", "right", "up"], "actionTimes": [70908, 71741, 72942, 74737, 78457], "queries": {"click": {"state": {"target": ["1", "2", "3", "9", "11", "27", "29", "26", "25", "28", "24", "30", "32", "33", "31", "23", "10", "7", "4", "6", "5", "16", "18", "15", "17", "14", "13", "12", "22", "19", "20", "21", "8"], "time": [7070, 8834, 10306, 12176, 13530, 15523, 16668, 18010, 19087, 20678, 21856, 23373, 24681, 25940, 27292, 28743, 30824, 32109, 33645, 36265, 37465, 40688, 42367, 44133, 45768, 46884, 48328, 49664, 50744, 52258, 53910, 55004, 57294]}, "edge": {"target": [], "time": []}}, "mouseover": {"state": {"target": ["1", "0", "1", "2", "3", "8", "9", "11", "11", "27", "27", "29", "29", "26", "25", "28", "24", "24", "30", "32", "33", "31", "23", "0", "10", "7", "4", "5", "6", "6", "5", "15", "16", "16", "18", "18", "15", "17", "14", "13", "12", "22", "19", "20", "21", "4", "3", "8", "22", "21"], "time": [5379, 6067, 6668, 8425, 9981, 10800, 11785, 12705, 13203, 14137, 14782, 16018, 16319, 17634, 18792, 19430, 21155, 21440, 22347, 24128, 25572, 26899, 27853, 29349, 30431, 31270, 32463, 34029, 35127, 35560, 37098, 38050, 38762, 39858, 41228, 41761, 43762, 44578, 46277, 47552, 48953, 50274, 51166, 52721, 54562, 55924, 56221, 56834, 67916, 68376]}, "edge": {"target": [], "time": []}}, "mouseout": {"state": {"target": ["0", "1", "0", "1", "2", "3", "8", "9", "11", "11", "27", "27", "29", "29", "26", "25", "28", "24", "24", "30", "32", "33", "30", "31", "23", "0", "10", "7", "4", "5", "6", "6", "5", "15", "16", "16", "18", "18", "15", "17", "17", "14", "13", "12", "22", "19", "20", "21", "4", "3", "8", "22", "21"], "time": [4636, 5427, 6299, 8131, 9579, 10744, 11724, 12686, 12759, 14087, 14177, 15666, 16082, 17083, 18388, 19373, 21136, 21198, 22274, 24083, 24821, 26478, 26570, 27717, 29104, 30078, 31187, 32428, 33978, 34844, 35168, 36719, 37908, 38699, 39671, 41168, 41308, 42998, 44516, 45942, 46167, 47004, 48766, 49950, 51108, 52662, 54051, 55523, 56155, 56524, 58175, 67975, 68808]}, "edge": {"target": [], "time": []}}}, "displayed_time": "79.00", "trialTime": 81961, "trial_type": "mouselab-mdp", "trial_index": 9, "time_elapsed": 1847145, "internal_node_id": "0.0-2.1-2.1-0.1"}}, {"uniqueid": "w44425181:a56617748", "current_trial": 10, "dateTime": 1693582024715, "trialdata": {"revealed_states": [], "clicked_states": ["1", "2", "3", "8", "9", "11", "27", "26", "29", "28", "25", "23", "24", "31", "30", "33", "32", "10", "7", "4", "5", "6", "16", "18", "15", "17", "14", "12", "13", "22", "19", "20", "21"], "num_clicks_accrued": [0, 0, 0, 0, 0, 0, 0, 0, 0, 0, 0, 0, 0], "stateRewards": ["", 10, -10, 10, 10, -10, -10, -10, 10, 10, -10, 10, -10, -10, -10, -10, 10, -10, -10, 10, -10, -10, -10, -10, 10, -10, 10, -10, 10, -10, -10, -10, 10, 10], "withholdReward": false, "trial_id": "practice_2", "block": "test", "trialIndex": 3, "score": 17, "costs": -16.5, "simulationMode": [null, null, null, null, null, null], "rewards": [10, -10, 10, 10, 10], "path": ["0", "0", "1", "2", "3", "8", "11"], "rt": [55672, 730, 580, 2337, 1318, 743], "actions": ["up", "up", "up", "up", "left", "left"], "actionTimes": [59286, 60036, 61134, 64005, 65861, 67154], "queries": {"click": {"state": {"target": ["1", "2", "3", "8", "9", "11", "27", "26", "29", "28", "25", "23", "24", "31", "30", "33", "32", "10", "7", "4", "5", "6", "16", "18", "15", "17", "14", "12", "13", "22", "19", "20", "21"], "time": [6671, 7805, 9001, 11291, 12948, 14116, 15630, 16865, 18090, 19303, 20677, 22607, 23877, 25030, 27558, 28750, 29980, 31745, 33566, 35324, 36415, 39186, 40619, 42132, 44459, 46015, 47737, 49915, 51286, 54347, 55993, 57360, 58501]}, "edge": {"target": [], "time": []}}, "mouseover": {"state": {"target": ["1", "2", "3", "8", "9", "9", "11", "27", "27", "26", "29", "28", "25", "24", "23", "24", "31", "31", "30", "30", "33", "32", "24", "10", "2", "7", "4", "5", "6", "16", "6", "16", "18", "15", "17", "14", "13", "12", "13", "22", "19", "19", "20", "21"], "time": [6190, 7273, 8444, 9587, 11760, 12603, 13579, 14715, 15200, 16490, 17682, 18960, 19981, 21268, 22174, 23403, 24385, 24697, 26100, 27150, 28072, 29241, 30495, 31160, 32215, 33194, 33975, 35673, 36882, 37942, 38729, 39935, 41076, 42718, 44881, 47112, 48249, 49458, 51035, 53885, 55212, 55545, 56645, 57759]}, "edge": {"target": [], "time": []}}, "mouseout": {"state": {"target": ["19", "22", "12", "0", "1", "2", "3", "8", "9", "9", "11", "27", "27", "26", "29", "26", "28", "25", "24", "23", "24", "31", "31", "30", "30", "33", "33", "32", "24", "10", "2", "7", "4", "5", "6", "16", "6", "16", "18", "15", "17", "14", "13", "12", "13", "13", "22", "19", "19", "20", "21"], "time": [1532, 1827, 1900, 6075, 7204, 7933, 9530, 11705, 11819, 13107, 14676, 14774, 16125, 17011, 18221, 18719, 19909, 21179, 22087, 23012, 24337, 24434, 26033, 26939, 27952, 28876, 29172, 30101, 30550, 32165, 33100, 33905, 35454, 36835, 37865, 38361, 39573, 40989, 42613, 44785, 46645, 48179, 49082, 50324, 51440, 53848, 55195, 55256, 56593, 57671, 58648]}, "edge": {"target": [], "time": []}}}, "displayed_time": "67.70", "trialTime": 72609, "trial_type": "mouselab-mdp", "trial_index": 10, "time_elapsed": 1921268, "internal_node_id": "0.0-2.1-2.1-1.1"}}, {"uniqueid": "w44425181:a56617748", "current_trial": 11, "dateTime": 1693582063675, "trialdata": {"view_history": [{"page_index": 0, "viewing_time": 31415}, {"page_index": 1, "viewing_time": 7533}], "rt": 38949, "trial_id": "mouselab_instructions_2_misaligned", "trial_type": "instructions", "trial_index": 11, "time_elapsed": 1960230, "internal_node_id": "0.0-2.1-3.1"}}, {"uniqueid": "w44425181:a56617748", "current_trial": 12, "dateTime": 1693582120709, "trialdata": {"rt": 57019, "response": {"Q0": "There is no cost for clicking on nodes.", "Q1": "The better I perform the higher my bonus will be.", "Q2": "No, the structure of the web will be different each time.", "Q3": "To get the highest total score.", "Q4": "Only before moving the spider.", "Q5": "3 seconds"}, "question_order": [0, 1, 2, 3, 4, 5], "correct": {"Q0": "The cost for clicking on nodes may vary between nodes.", "Q1": "The better I perform the higher my bonus will be.", "Q2": "No, the amount of cash at each node of the web may be different each time.", "Q3": "To get the highest total score.", "Q4": "Only before moving the spider.", "Q5": "3 seconds"}, "trial_id": "mouselab_quiz_misaligned", "trial_type": "survey-multi-choice", "trial_index": 12, "time_elapsed": 2017264, "internal_node_id": "0.0-2.1-4.1"}}, {"uniqueid": "w44425181:a56617748", "current_trial": 13, "dateTime": 1693582129720, "trialdata": {"success": true, "trial_type": "fullscreen", "trial_index": 13, "time_elapsed": 2026276, "internal_node_id": "0.0-2.2-0.2-0.2"}}, {"uniqueid": "w44425181:a56617748", "current_trial": 14, "dateTime": 1693582229770, "trialdata": {"view_history": [{"page_index": 0, "viewing_time": 43226}, {"page_index": 1, "viewing_time": 44703}, {"page_index": 2, "viewing_time": 191}, {"page_index": 3, "viewing_time": 11920}], "rt": 100040, "trial_id": "mouselab_instructions_1_misaligned", "trial_type": "instructions", "trial_index": 14, "time_elapsed": 2126326, "internal_node_id": "0.0-2.2-1.2"}}, {"uniqueid": "w44425181:a56617748", "current_trial": 15, "dateTime": 1693582299960, "trialdata": {"revealed_states": [], "clicked_states": ["1", "2", "10", "7", "6", "4", "3", "8", "11", "9", "5", "27", "26", "29", "28", "25", "30", "32", "33", "31", "24", "23", "12", "13", "14", "15", "18", "16", "17", "20", "19", "22", "21"], "num_clicks_accrued": [0, 0, 0, 0, 0, 0, 0, 0, 0, 0, 0, 0, 0], "stateRewards": ["", 10, 10, -10, 10, 10, -10, -10, 10, 10, 10, 10, -10, -10, 10, 10, 10, 10, 10, -10, 10, -10, -10, 10, 10, -10, -10, -10, -10, -10, -10, -10, -10, 10], "withholdReward": false, "trial_id": "practice_1", "block": "test", "trialIndex": 4, "score": -3, "costs": -16.5, "simulationMode": [null, null, null, null, null], "rewards": [10, 10, -10, 10, -10], "path": ["0", "0", "1", "2", "3", "4", "6"], "rt": [56167, 108, 2337, 888, 855], "actions": ["up", "up", "up", "right", "right"], "actionTimes": [59427, 60089, 62974, 64405, 65808], "queries": {"click": {"state": {"target": ["1", "2", "10", "7", "6", "4", "3", "8", "11", "9", "5", "27", "26", "29", "28", "25", "30", "32", "33", "31", "24", "23", "12", "13", "14", "15", "18", "16", "17", "20", "19", "22", "21"], "time": [5791, 7477, 9110, 10757, 11948, 13935, 16072, 17510, 19221, 20438, 22086, 23581, 24768, 25919, 27131, 28419, 29568, 30649, 31776, 33349, 34596, 36640, 40846, 42499, 43573, 44773, 47051, 48258, 49414, 50655, 51868, 52996, 54253]}, "edge": {"target": [], "time": []}}, "mouseover": {"state": {"target": ["1", "2", "10", "7", "6", "4", "3", "3", "8", "11", "9", "5", "5", "27", "26", "29", "28", "25", "25", "30", "32", "33", "31", "24", "23", "23", "0", "12", "13", "14", "15", "18", "16", "18", "16", "17", "20", "19", "22", "21", "14", "19"], "time": [5097, 6330, 8444, 9759, 11617, 12558, 14488, 15737, 16853, 18084, 19818, 20973, 21665, 23056, 24236, 25337, 26422, 27605, 28034, 29238, 30296, 31072, 32589, 33883, 35075, 36191, 37041, 40392, 42123, 43196, 44076, 45104, 45993, 46444, 47515, 48797, 50213, 51149, 52566, 53815, 58279, 58903]}, "edge": {"target": [], "time": []}}, "mouseout": {"state": {"target": ["1", "0", "0", "1", "2", "10", "2", "7", "6", "4", "3", "3", "8", "11", "9", "5", "5", "27", "27", "26", "29", "26", "28", "25", "25", "30", "30", "32", "33", "31", "24", "23", "23", "0", "12", "13", "14", "15", "18", "16", "18", "16", "17", "20", "19", "22", "21", "14"], "time": [1070, 1116, 3311, 6291, 8269, 9614, 9709, 11225, 12081, 14390, 15500, 16613, 18055, 19721, 20919, 21047, 22611, 23774, 24189, 24952, 26321, 26372, 27547, 27710, 28920, 29720, 30023, 30804, 32182, 33591, 34995, 35957, 36974, 40269, 40940, 42644, 43694, 44896, 45927, 46336, 47417, 48747, 49901, 51090, 52397, 53426, 57686, 58577]}, "edge": {"target": [], "time": []}}}, "displayed_time": "66.35", "trialTime": 68350, "trial_type": "mouselab-mdp", "trial_index": 15, "time_elapsed": 2196512, "internal_node_id": "0.0-2.2-2.2-0.2"}}, {"uniqueid": "w44425181:a56617748", "current_trial": 16, "dateTime": 1693582372646, "trialdata": {"revealed_states": [], "clicked_states": ["23", "24", "25", "30", "31", "32", "33", "26", "28", "29", "27", "11", "8", "9", "10", "2", "3", "5", "4", "7", "6", "1", "12", "18", "16", "15", "17", "13", "22", "20", "21"], "num_clicks_accrued": [0, 0, 0, 0, 0, 0, 0, 0, 0, 0, 0, 0, 0], "stateRewards": ["", 10, -10, 10, 10, -10, -10, -10, 10, 10, -10, 10, -10, -10, -10, -10, 10, -10, -10, 10, -10, -10, -10, -10, 10, -10, 10, -10, 10, -10, -10, -10, 10, 10], "withholdReward": false, "trial_id": "practice_2", "block": "test", "trialIndex": 5, "score": 18, "costs": -15.5, "simulationMode": [null, null, null, null, null], "rewards": [10, -10, 10, 10, 10], "path": ["0", "0", "1", "2", "3", "8", "11"], "rt": [55645, 52, 5580, 2154, 19], "actions": ["up", "up", "up", "left", "left"], "actionTimes": [58753, 59425, 65586, 68291, 68944], "queries": {"click": {"state": {"target": ["23", "24", "25", "30", "31", "32", "33", "26", "28", "29", "27", "11", "8", "9", "10", "2", "3", "5", "4", "7", "6", "1", "12", "18", "16", "15", "17", "13", "22", "20", "21"], "time": [6554, 7839, 9397, 10602, 12574, 14088, 15207, 19402, 20640, 22502, 24159, 25601, 27404, 28499, 29943, 31543, 32615, 33982, 35535, 36859, 38561, 39785, 42859, 44388, 46056, 47238, 48415, 50399, 51667, 53465, 55278]}, "edge": {"target": [], "time": []}}, "mouseover": {"state": {"target": ["1", "0", "23", "24", "25", "30", "31", "31", "32", "33", "25", "26", "28", "29", "27", "11", "11", "8", "9", "10", "2", "3", "4", "5", "4", "7", "6", "1", "0", "12", "18", "18", "16", "15", "17", "14", "13", "22", "19", "20", "19", "21"], "time": [5526, 6022, 6159, 7438, 8707, 10249, 11105, 12184, 13713, 14882, 16073, 18847, 20390, 21432, 22946, 24832, 25177, 26201, 27868, 29228, 31146, 31948, 33165, 33598, 34561, 36514, 37852, 39467, 41436, 42513, 43329, 43882, 44867, 46847, 48057, 48950, 50005, 51127, 52181, 53135, 54048, 54734]}, "edge": {"target": [], "time": []}}, "mouseout": {"state": {"target": ["1", "0", "23", "24", "25", "25", "30", "31", "31", "32", "33", "25", "26", "28", "29", "27", "11", "11", "8", "9", "10", "2", "3", "4", "5", "4", "4", "7", "6", "1", "1", "0", "12", "18", "18", "16", "15", "17", "14", "13", "22", "19", "20", "19", "21"], "time": [5742, 6066, 7189, 8370, 9514, 9930, 10993, 11977, 13365, 14518, 15683, 16142, 19934, 21077, 22798, 24749, 24932, 25742, 27811, 29139, 30466, 31869, 33113, 33221, 34504, 35710, 36163, 37033, 38716, 39935, 40315, 42175, 43275, 43388, 44790, 46610, 47664, 48896, 49877, 51057, 52098, 52954, 53973, 54658, 70657]}, "edge": {"target": [], "time": []}}}, "displayed_time": "69.49", "trialTime": 70978, "trial_type": "mouselab-mdp", "trial_index": 16, "time_elapsed": 2269198, "internal_node_id": "0.0-2.2-2.2-1.2"}}, {"uniqueid": "w44425181:a56617748", "current_trial": 17, "dateTime": 1693582384352, "trialdata": {"view_history": [{"page_index": 0, "viewing_time": 9514}, {"page_index": 1, "viewing_time": 2172}], "rt": 11688, "trial_id": "mouselab_instructions_2_misaligned", "trial_type": "instructions", "trial_index": 17, "time_elapsed": 2280908, "internal_node_id": "0.0-2.2-3.2"}}, {"uniqueid": "w44425181:a56617748", "current_trial": 18, "dateTime": 1693582497961, "trialdata": {"rt": 113586, "response": {"Q0": "The cost for clicking on nodes may vary between nodes.", "Q1": "The better I perform the higher my bonus will be.", "Q2": "No, the amount of cash at each node of the web may be different each time.", "Q3": "To get the highest total score.", "Q4": "Only before moving the spider.", "Q5": "3 seconds"}, "question_order": [0, 1, 2, 3, 4, 5], "correct": {"Q0": "The cost for clicking on nodes may vary between nodes.", "Q1": "The better I perform the higher my bonus will be.", "Q2": "No, the amount of cash at each node of the web may be different each time.", "Q3": "To get the highest total score.", "Q4": "Only before moving the spider.", "Q5": "3 seconds"}, "trial_id": "mouselab_quiz_misaligned", "trial_type": "survey-multi-choice", "trial_index": 18, "time_elapsed": 2394517, "internal_node_id": "0.0-2.2-4.2"}}, {"uniqueid": "w44425181:a56617748", "current_trial": 19, "dateTime": 1693582510300, "trialdata": {"rt": 12305, "response": {"Q0": "No"}, "question_order": [0], "trial_id": "repeat_check", "trial_type": "survey-multi-choice", "trial_index": 19, "time_elapsed": 2406855, "internal_node_id": "0.0-4.0-0.0"}}, {"uniqueid": "w44425181:a56617748", "current_trial": 20, "dateTime": 1693582524589, "trialdata": {"rt": 14227, "stimulus": "\n<h1> Get ready to start the game! </h1>\n\nThank you for reading the instructions. Get ready start with the 40 rounds of this game.\n<br><br>\nIf you need to take a break, feel free to take one after the end of a round, before continuing to the next one.\n<br><br>\nRemember, the more money the spider gets, the bigger your bonus will be!\n<br><br>\n<div style='text-align: center;'>Press <code>space</code> to begin.</div>\n\n<br><br>\n(If, at any point, the <code>space</code> key does not take you to the next page, click once on the text and try again.)", "response": " ", "trial_id": "mdp_ready", "trial_type": "html-keyboard-response", "trial_index": 20, "time_elapsed": 2421144, "internal_node_id": "0.0-6.0-0.0"}}, {"uniqueid": "w44425181:a56617748", "current_trial": 21, "dateTime": 1693582597440, "trialdata": {"revealed_states": [], "clicked_states": ["1", "2", "10", "3", "4", "6", "5", "9", "27", "29", "28", "33", "31", "12", "13", "14", "16", "17", "19", "20"], "num_clicks_accrued": [0, 0, 0, 0, 0, 0, 0, 0, 0, 0, 0, 0, 0], "stateRewards": ["", -2, -3, 4, 1, 33, -53, 15, 9, -12, 61, -6, -2, 4, 6, -11, 47, -43, -7, -11, 46, 23, -28, -1, -1, 3, -10, 11, 76, -76, 10, 18, -38, 87], "withholdReward": false, "trial_id": "mdp_trial_1", "block": "test", "trialIndex": 6, "score": -29, "costs": -30.999999999999996, "simulationMode": [null, null, null, null, null], "rewards": [-2, -3, 4, 9, -6], "path": ["0", "0", "1", "2", "3", "8", "11"], "rt": [56639, 508, 365, 1075, 867], "actions": ["up", "up", "up", "left", "left"], "actionTimes": [61465, 62557, 63468, 65091, 66503], "queries": {"click": {"state": {"target": ["1", "2", "10", "3", "4", "6", "5", "9", "27", "29", "28", "33", "31", "12", "13", "14", "16", "17", "19", "20"], "time": [7540, 8736, 9979, 13701, 14736, 16103, 19603, 22800, 26281, 29377, 32583, 36203, 39289, 43862, 45558, 46481, 47748, 51592, 54674, 55656]}, "edge": {"target": [], "time": []}}, "mouseover": {"state": {"target": ["1", "2", "2", "10", "8", "3", "4", "6", "5", "9", "9", "8", "11", "27", "26", "29", "26", "28", "25", "25", "30", "33", "32", "31", "24", "23", "0", "12", "13", "13", "14", "15", "16", "15", "18", "17", "21", "19", "22", "19", "20", "21", "21"], "time": [6828, 8010, 8372, 9258, 10577, 12982, 14320, 15507, 16656, 20454, 22134, 23386, 24573, 25689, 27168, 28270, 30303, 31983, 33126, 33435, 34527, 35658, 36801, 38913, 39783, 41283, 42436, 43389, 44447, 44810, 46114, 46895, 47296, 48378, 49550, 50710, 51996, 52792, 53222, 54340, 55133, 56585, 57622]}, "edge": {"target": [], "time": []}}, "mouseout": {"state": {"target": ["0", "0", "1", "2", "2", "10", "8", "3", "4", "6", "5", "9", "9", "8", "11", "27", "26", "29", "26", "28", "25", "25", "30", "33", "32", "31", "24", "23", "0", "12", "13", "13", "14", "15", "16", "15", "18", "17", "21", "19", "22", "19", "20", "21", "21"], "time": [1975, 2890, 7991, 8070, 8858, 10102, 12915, 14262, 15299, 16531, 19981, 20984, 23372, 24288, 25605, 26816, 28092, 29817, 31828, 33067, 33175, 34458, 35556, 36753, 38545, 39648, 41258, 42310, 43308, 44388, 44494, 46059, 46598, 47001, 48325, 49456, 50638, 51712, 52247, 53124, 53956, 55076, 56147, 57348, 58402]}, "edge": {"target": [], "time": []}}}, "displayed_time": "67.06", "trialTime": 70984, "trial_type": "mouselab-mdp", "trial_index": 21, "time_elapsed": 2493995, "internal_node_id": "0.0-6.0-1.0-0.0"}}, {"uniqueid": "w44425181:a56617748", "current_trial": 22, "dateTime": 1693582682652, "trialdata": {"revealed_states": [], "clicked_states": ["1", "2", "7", "10", "11", "8", "3", "4", "6", "9", "27", "28", "29", "25", "24", "23", "31", "33", "32", "21", "22", "20", "14", "13", "15", "18", "17"], "num_clicks_accrued": [0, 0, 0, 0, 0, 0, 0, 0, 0, 0, 0, 0, 0], "stateRewards": ["", 2, 3, -3, 12, -43, 81, -82, -15, 58, -7, -75, -1, -1, 3, -5, 50, -25, -8, 4, 66, 65, -66, 2, -4, 2, -1, -10, 10, 37, 11, 88, -37, 8], "withholdReward": false, "trial_id": "mdp_trial_2", "block": "test", "trialIndex": 7, "score": -130.45, "costs": -42.44999999999999, "simulationMode": [null, null, null, null, null], "rewards": [2, 3, -3, -15, -75], "path": ["0", "0", "1", "2", "3", "8", "11"], "rt": [67989, 605, 2256, 1119, 102], "actions": ["up", "up", "up", "left", "left"], "actionTimes": [72098, 73264, 76054, 77781, 78430], "queries": {"click": {"state": {"target": ["1", "2", "7", "10", "11", "8", "3", "4", "6", "9", "27", "28", "29", "25", "24", "23", "31", "33", "32", "21", "22", "20", "14", "13", "15", "18", "17"], "time": [6070, 7130, 8337, 11642, 15314, 18361, 19612, 20584, 22073, 25426, 29116, 32868, 36464, 39345, 40457, 41349, 43042, 46320, 49133, 52251, 55223, 58523, 61531, 62913, 64185, 65341, 68543]}, "edge": {"target": [], "time": []}}, "mouseover": {"state": {"target": ["1", "2", "7", "10", "11", "8", "3", "4", "6", "5", "9", "27", "26", "28", "28", "26", "29", "29", "25", "24", "23", "31", "30", "33", "32", "31", "30", "21", "19", "22", "19", "20", "19", "14", "13", "15", "18", "16", "17"], "time": [5441, 6707, 7940, 9261, 13005, 15944, 19296, 20220, 21644, 22624, 24873, 27210, 29759, 32145, 32529, 33623, 34434, 36096, 37569, 39928, 41016, 42476, 43726, 45186, 46894, 49887, 50172, 51880, 52738, 54535, 55865, 57310, 59169, 60443, 62415, 63579, 64876, 66169, 68154]}, "edge": {"target": [], "time": []}}, "mouseout": {"state": {"target": ["20", "20", "12", "0", "1", "2", "7", "10", "11", "8", "3", "4", "6", "5", "9", "27", "26", "28", "28", "26", "29", "29", "25", "24", "23", "24", "31", "30", "33", "32", "31", "30", "21", "19", "22", "19", "20", "19", "14", "13", "15", "18", "16", "17"], "time": [1684, 1907, 2200, 2604, 6622, 7873, 8910, 12206, 15878, 19030, 19755, 20725, 22197, 24492, 25960, 29702, 32109, 32217, 33367, 34366, 35529, 36947, 39841, 40996, 42101, 42205, 43640, 45124, 46841, 49549, 50146, 51119, 52390, 54473, 55850, 56155, 59149, 60037, 62188, 63080, 64692, 65855, 67928, 69093]}, "edge": {"target": [], "time": []}}}, "displayed_time": "78.98", "trialTime": 82979, "trial_type": "mouselab-mdp", "trial_index": 22, "time_elapsed": 2579204, "internal_node_id": "0.0-6.0-1.0-1.0"}}, {"uniqueid": "w44425181:a56617748", "current_trial": 23, "dateTime": 1693582711928, "trialdata": {"revealed_states": [], "clicked_states": [], "num_clicks_accrued": [0, 0, 0, 0, 0, 0, 0, 0, 0, 0, 0, 0, 0], "stateRewards": ["", -2, 2, -2, -7, -50, -62, -45, 7, 36, -24, -72, -1, -1, 8, -1, -67, 20, -52, 2, 35, -50, 80, -1, 1, 6, -6, -70, 6, 88, 8, -47, 74, -19], "withholdReward": false, "trial_id": "mdp_trial_3", "block": "test", "trialIndex": 8, "score": -71, "costs": 0, "simulationMode": [null, null, null, null, null], "rewards": [-2, 2, -2, -7, -62], "path": ["0", "0", "1", "2", "3", "4", "6"], "rt": [6533, 6492, 534, 1274, 231], "actions": ["up", "up", "up", "right", "right"], "actionTimes": [11515, 18561, 19636, 21445, 22230], "queries": {"click": {"state": {"target": [], "time": []}, "edge": {"target": [], "time": []}}, "mouseover": {"state": {"target": ["1", "2", "1"], "time": [7613, 8608, 9826]}, "edge": {"target": [], "time": []}}, "mouseout": {"state": {"target": ["20", "0", "1", "2", "1", "2", "24", "13", "15"], "time": [2440, 2753, 8560, 9439, 15916, 24670, 24716, 25223, 25549]}, "edge": {"target": [], "time": []}}}, "displayed_time": "22.80", "trialTime": 27350, "trial_type": "mouselab-mdp", "trial_index": 23, "time_elapsed": 2608480, "internal_node_id": "0.0-6.0-1.0-2.0"}}, {"uniqueid": "w44425181:a56617748", "current_trial": 24, "dateTime": 1693582780205, "trialdata": {"revealed_states": [], "clicked_states": ["1", "2", "3", "8", "11", "9", "5", "6", "7", "27", "29", "28", "25", "24", "23", "31", "33"], "num_clicks_accrued": [0, 0, 0, 0, 0, 0, 0, 0, 0, 0, 0, 0, 0], "stateRewards": ["", -2, -4, -6, 12, -58, -70, -80, 2, 16, -88, -62, 1, 2, -5, 11, 77, -35, -44, -5, 18, -83, 87, 1, -3, -5, 13, -44, -21, -86, 10, -52, 8, 29], "withholdReward": false, "trial_id": "mdp_trial_4", "block": "test", "trialIndex": 9, "score": -97.15, "costs": -25.15, "simulationMode": [null, null, null, null, null], "rewards": [-2, -4, -6, 2, -62], "path": ["0", "0", "1", "2", "3", "8", "11"], "rt": [52432, 64, 141, 1546, 1388], "actions": ["up", "up", "up", "left", "left"], "actionTimes": [55914, 56566, 57274, 59355, 61313], "queries": {"click": {"state": {"target": ["1", "2", "3", "8", "11", "9", "5", "6", "7", "27", "29", "28", "25", "24", "23", "31", "33"], "time": [5667, 7071, 8678, 9864, 10771, 13955, 18907, 21982, 24919, 28581, 31618, 34573, 37528, 38510, 39402, 40443, 44561]}, "edge": {"target": [], "time": []}}, "mouseover": {"state": {"target": ["1", "2", "3", "8", "11", "9", "9", "4", "5", "4", "6", "7", "7", "2", "10", "27", "26", "29", "26", "28", "28", "25", "25", "24", "23", "31", "30", "33", "30", "32", "31", "23", "0", "12", "17"], "time": [4912, 6383, 7986, 9232, 10364, 11350, 12998, 14774, 18526, 19541, 21363, 22729, 23209, 25564, 25864, 28213, 29426, 31275, 32278, 33127, 33555, 35113, 35453, 38161, 39078, 40012, 41277, 44108, 44911, 46342, 50705, 51765, 51874, 51926, 52349]}, "edge": {"target": [], "time": []}}, "mouseout": {"state": {"target": ["7", "0", "1", "2", "3", "8", "11", "9", "9", "4", "5", "4", "6", "7", "7", "2", "10", "27", "26", "29", "26", "28", "28", "25", "25", "24", "24", "23", "31", "30", "33", "30", "32", "31", "23", "0", "12", "17", "1", "16"], "time": [1105, 1822, 6263, 7763, 9160, 10310, 11293, 12354, 14458, 16488, 19421, 21301, 22628, 22788, 25481, 25788, 27839, 29180, 30943, 32216, 33038, 33199, 35004, 35322, 38082, 38641, 39061, 39986, 40921, 42105, 44846, 45920, 50535, 51705, 51826, 51912, 52236, 53568, 63069, 63841]}, "edge": {"target": [], "time": []}}}, "displayed_time": "61.85", "trialTime": 66019, "trial_type": "mouselab-mdp", "trial_index": 24, "time_elapsed": 2676758, "internal_node_id": "0.0-6.0-1.0-3.0"}}, {"uniqueid": "w44425181:a56617748", "current_trial": 25, "dateTime": 1693582845416, "trialdata": {"revealed_states": [], "clicked_states": ["1", "2", "10", "3", "8", "9", "4", "5", "7", "26", "29", "25", "24", "23", "30", "31", "32", "13", "18"], "num_clicks_accrued": [0, 0, 0, 0, 0, 0, 0, 0, 0, 0, 0, 0, 0], "stateRewards": ["", 1, 1, -6, -2, 7, 77, 3, 16, -16, 66, 31, -1, 3, -8, -6, 33, -50, -48, 7, -60, -66, 36, 2, -3, 3, -7, -12, -61, -79, -4, 8, 74, -70], "withholdReward": false, "trial_id": "mdp_trial_5", "block": "test", "trialIndex": 10, "score": -29.85, "costs": -25.85, "simulationMode": [null, null, null, null, null], "rewards": [1, 1, -6, 16, -16], "path": ["0", "0", "1", "2", "3", "8", "9"], "rt": [45032, 369, 384, 1553, 421], "actions": ["up", "up", "up", "left", "up"], "actionTimes": [55537, 56465, 57424, 59528, 60481], "queries": {"click": {"state": {"target": ["1", "2", "10", "3", "8", "9", "4", "5", "7", "26", "29", "25", "24", "23", "30", "31", "32", "13", "18"], "time": [13479, 14497, 15574, 19903, 20793, 21935, 25807, 26949, 30635, 33558, 34519, 37883, 38763, 39922, 41318, 42311, 45568, 48831, 49978]}, "edge": {"target": [], "time": []}}, "mouseover": {"state": {"target": ["1", "2", "10", "7", "4", "3", "8", "9", "11", "4", "5", "6", "7", "27", "26", "29", "28", "25", "24", "23", "31", "30", "31", "33", "32", "12", "13", "18", "16", "15", "17", "15"], "time": [13093, 14155, 15170, 16254, 18742, 19277, 20421, 21377, 22692, 25357, 26369, 28151, 30209, 31923, 33288, 34115, 35234, 36821, 38373, 39536, 40563, 40888, 41976, 43224, 45224, 46662, 48494, 49601, 50896, 52167, 53384, 54946]}, "edge": {"target": [], "time": []}}, "mouseout": {"state": {"target": ["1", "2", "10", "2", "7", "4", "3", "8", "9", "11", "4", "5", "6", "7", "27", "26", "29", "26", "28", "25", "24", "23", "31", "30", "31", "30", "33", "32", "12", "13", "18", "16", "15", "17", "15"], "time": [14090, 15085, 16095, 16200, 18696, 19154, 20013, 20924, 22625, 24663, 26259, 27428, 29961, 31163, 32930, 33695, 35125, 35211, 36712, 38351, 39476, 40493, 40632, 41872, 42797, 43146, 44893, 46054, 48448, 49544, 50561, 52090, 53084, 54929, 54989]}, "edge": {"target": [], "time": []}}}, "displayed_time": "61.04", "trialTime": 63210, "trial_type": "mouselab-mdp", "trial_index": 25, "time_elapsed": 2741968, "internal_node_id": "0.0-6.0-1.0-4.0"}}, {"uniqueid": "w44425181:a56617748", "current_trial": 26, "dateTime": 1693582867325, "trialdata": {"revealed_states": [], "clicked_states": [], "num_clicks_accrued": [0, 0, 0, 0, 0, 0, 0, 0, 0, 0, 0, 0, 0], "stateRewards": ["", 1, -2, -3, 14, -42, -87, -37, -11, -50, 33, -44, -2, 4, -7, 13, 48, -75, -66, 12, 23, -2, 82, 1, -4, 3, 12, 51, -15, -26, -11, -52, -29, 82], "withholdReward": false, "trial_id": "mdp_trial_6", "block": "test", "trialIndex": 11, "score": -65, "costs": 0, "simulationMode": [null, null, null, null, null], "rewards": [1, -2, -3, -11, -50], "path": ["0", "0", "1", "2", "3", "8", "9"], "rt": [5690, 60, 539, 645, 1223], "actions": ["up", "up", "up", "left", "up"], "actionTimes": [8683, 9268, 10361, 11541, 13321], "queries": {"click": {"state": {"target": [], "time": []}, "edge": {"target": [], "time": []}}, "mouseover": {"state": {"target": ["1", "1"], "time": [4265, 4438]}, "edge": {"target": [], "time": []}}, "mouseout": {"state": {"target": ["0", "1", "1"], "time": [1312, 4309, 4717]}, "edge": {"target": [], "time": []}}}, "displayed_time": "16.99", "trialTime": 19516, "trial_type": "mouselab-mdp", "trial_index": 26, "time_elapsed": 2763879, "internal_node_id": "0.0-6.0-1.0-5.0"}}, {"uniqueid": "w44425181:a56617748", "current_trial": 27, "dateTime": 1693582887803, "trialdata": {"revealed_states": [], "clicked_states": [], "num_clicks_accrued": [0, 0, 0, 0, 0, 0, 0, 0, 0, 0, 0, 0, 0], "stateRewards": ["", -2, -3, 1, -7, 39, -67, 16, 5, -20, 73, 66, -1, 4, 5, -3, 23, -68, -87, -8, 3, -3, 17, 1, -4, -2, -13, -32, 34, 61, -5, -11, -18, 12], "withholdReward": false, "trial_id": "mdp_trial_7", "block": "test", "trialIndex": 12, "score": -78, "costs": 0, "simulationMode": [null, null, null, null, null], "rewards": [-2, -3, 1, -7, -67], "path": ["0", "0", "1", "2", "3", "4", "6"], "rt": [6011, 650, 319, 969, 93], "actions": ["up", "up", "up", "right", "right"], "actionTimes": [8817, 10025, 10895, 12401, 13043], "queries": {"click": {"state": {"target": [], "time": []}, "edge": {"target": [], "time": []}}, "mouseover": {"state": {"target": [], "time": []}, "edge": {"target": [], "time": []}}, "mouseout": {"state": {"target": ["0"], "time": [1202]}, "edge": {"target": [], "time": []}}}, "displayed_time": "16.81", "trialTime": 18314, "trial_type": "mouselab-mdp", "trial_index": 27, "time_elapsed": 2784355, "internal_node_id": "0.0-6.0-1.0-6.0"}}, {"uniqueid": "w44425181:a56617748", "current_trial": 28, "dateTime": 1693582908333, "trialdata": {"revealed_states": [], "clicked_states": [], "num_clicks_accrued": [0, 0, 0, 0, 0, 0, 0, 0, 0, 0, 0, 0, 0], "stateRewards": ["", -1, 2, -6, 6, 43, 78, 78, -2, 55, -29, -17, -2, -4, 1, -15, 13, 7, -79, 8, -28, -68, 36, -1, -3, 3, -16, 84, -18, 87, 10, 32, 13, -81], "withholdReward": false, "trial_id": "mdp_trial_8", "block": "test", "trialIndex": 13, "score": -24, "costs": 0, "simulationMode": [null, null, null, null, null], "rewards": [-1, 2, -6, -2, -17], "path": ["0", "0", "1", "2", "3", "8", "11"], "rt": [4129, 285, 517, 2050, 33], "actions": ["up", "up", "up", "left", "left"], "actionTimes": [7171, 8012, 9063, 11665, 12258], "queries": {"click": {"state": {"target": [], "time": []}, "edge": {"target": [], "time": []}}, "mouseover": {"state": {"target": ["0"], "time": [4017]}, "edge": {"target": [], "time": []}}, "mouseout": {"state": {"target": ["0"], "time": [4516]}, "edge": {"target": [], "time": []}}}, "displayed_time": "17.05", "trialTime": 18239, "trial_type": "mouselab-mdp", "trial_index": 28, "time_elapsed": 2804885, "internal_node_id": "0.0-6.0-1.0-7.0"}}, {"uniqueid": "w44425181:a56617748", "current_trial": 29, "dateTime": 1693582929196, "trialdata": {"revealed_states": [], "clicked_states": [], "num_clicks_accrued": [0, 0, 0, 0, 0, 0, 0, 0, 0, 0, 0, 0, 0], "stateRewards": ["", -1, -4, 8, 8, -68, 47, 24, -7, -61, 49, -69, -1, -1, 8, -7, 42, 1, -45, -11, 10, -63, -6, 1, 4, 6, -16, 79, -37, -58, -12, 81, 18, -53], "withholdReward": false, "trial_id": "mdp_trial_9", "block": "test", "trialIndex": 14, "score": -73, "costs": 0, "simulationMode": [null, null, null, null, null], "rewards": [-1, -4, 8, -7, -69], "path": ["0", "0", "1", "2", "3", "8", "11"], "rt": [3076, 185, 1523, 489, 179], "actions": ["up", "up", "up", "left", "left"], "actionTimes": [6035, 6764, 8871, 9984, 10720], "queries": {"click": {"state": {"target": [], "time": []}, "edge": {"target": [], "time": []}}, "mouseover": {"state": {"target": [], "time": []}, "edge": {"target": [], "time": []}}, "mouseout": {"state": {"target": ["0", "0"], "time": [1556, 14449]}, "edge": {"target": [], "time": []}}}, "displayed_time": "16.97", "trialTime": 18379, "trial_type": "mouselab-mdp", "trial_index": 29, "time_elapsed": 2825748, "internal_node_id": "0.0-6.0-1.0-8.0"}}, {"uniqueid": "w44425181:a56617748", "current_trial": 30, "dateTime": 1693583086325, "trialdata": {"revealed_states": [], "clicked_states": [], "num_clicks_accrued": [0, 0, 0, 0, 0, 0, 0, 0, 0, 0, 0, 0, 0], "stateRewards": ["", 1, 2, -8, 9, 18, -83, -11, 6, -64, -48, 17, -2, -2, -5, -3, -24, -3, -86, -2, 48, -41, -22, -2, 4, 7, 8, 81, 13, -48, 10, 61, 19, 57], "withholdReward": false, "trial_id": "mdp_trial_10", "block": "test", "trialIndex": 15, "score": -79, "costs": 0, "simulationMode": [null, null, null, null, null], "rewards": [1, 2, -8, 9, -83], "path": ["0", "0", "1", "2", "3", "4", "6"], "rt": [3560, 329, 2375, 605, 501], "actions": ["up", "up", "up", "right", "right"], "actionTimes": [8165, 9063, 11986, 13184, 14234], "queries": {"click": {"state": {"target": [], "time": []}, "edge": {"target": [], "time": []}}, "mouseover": {"state": {"target": [], "time": []}, "edge": {"target": [], "time": []}}, "mouseout": {"state": {"target": ["1", "0", "24"], "time": [1098, 153585, 153656]}, "edge": {"target": [], "time": []}}}, "displayed_time": "18.61", "trialTime": 154361, "trial_type": "mouselab-mdp", "trial_index": 30, "time_elapsed": 2982878, "internal_node_id": "0.0-6.0-1.0-9.0"}}, {"uniqueid": "w44425181:a56617748", "current_trial": 31, "dateTime": 1693583109125, "trialdata": {"revealed_states": [], "clicked_states": [], "num_clicks_accrued": [0, 0, 0, 0, 0, 0, 0, 0, 0, 0, 0, 0, 0], "stateRewards": ["", 2, 2, 3, -15, 23, -14, 73, -7, -32, -20, -6, 1, 1, -5, -12, 73, 6, -84, 11, -81, -57, 13, -2, -1, -4, -8, -52, -58, 49, 13, 5, -41, -41], "withholdReward": false, "trial_id": "mdp_trial_11", "block": "test", "trialIndex": 16, "score": -6, "costs": 0, "simulationMode": [null, null, null, null, null], "rewards": [2, 2, 3, -7, -6], "path": ["0", "0", "1", "2", "3", "8", "11"], "rt": [4008, 444, 2717, 1832, 245], "actions": ["up", "up", "up", "left", "left"], "actionTimes": [6866, 7844, 11107, 13486, 14281], "queries": {"click": {"state": {"target": [], "time": []}, "edge": {"target": [], "time": []}}, "mouseover": {"state": {"target": [], "time": []}, "edge": {"target": [], "time": []}}, "mouseout": {"state": {"target": ["31", "0"], "time": [493, 3410]}, "edge": {"target": [], "time": []}}}, "displayed_time": "16.86", "trialTime": 20254, "trial_type": "mouselab-mdp", "trial_index": 31, "time_elapsed": 3005678, "internal_node_id": "0.0-6.0-1.0-10.0"}}, {"uniqueid": "w44425181:a56617748", "current_trial": 32, "dateTime": 1693583130870, "trialdata": {"revealed_states": [], "clicked_states": [], "num_clicks_accrued": [0, 0, 0, 0, 0, 0, 0, 0, 0, 0, 0, 0, 0], "stateRewards": ["", 1, 2, 7, 13, 88, -71, 27, 3, 60, 5, -53, -2, 2, -6, -1, -30, 79, 47, -4, -14, 46, 68, 1, 1, 8, 10, -14, 86, 48, -11, -67, -44, 5], "withholdReward": false, "trial_id": "mdp_trial_12", "block": "test", "trialIndex": 17, "score": -40, "costs": 0, "simulationMode": [null, null, null, null, null], "rewards": [1, 2, 7, 3, -53], "path": ["0", "0", "1", "2", "3", "8", "11"], "rt": [2878, 124, 1862, 466, 124], "actions": ["up", "up", "up", "left", "left"], "actionTimes": [6034, 6692, 9115, 10124, 10813], "queries": {"click": {"state": {"target": [], "time": []}, "edge": {"target": [], "time": []}}, "mouseover": {"state": {"target": [], "time": []}, "edge": {"target": [], "time": []}}, "mouseout": {"state": {"target": ["0"], "time": [1286]}, "edge": {"target": [], "time": []}}}, "displayed_time": "17.16", "trialTime": 19505, "trial_type": "mouselab-mdp", "trial_index": 32, "time_elapsed": 3027422, "internal_node_id": "0.0-6.0-1.0-11.0"}}, {"uniqueid": "w44425181:a56617748", "current_trial": 33, "dateTime": 1693583151766, "trialdata": {"revealed_states": [], "clicked_states": [], "num_clicks_accrued": [0, 0, 0, 0, 0, 0, 0, 0, 0, 0, 0, 0, 0], "stateRewards": ["", -2, -4, 4, -11, -63, -60, -7, 2, -14, 81, -43, -1, -1, -5, 7, 10, 69, 40, 8, -83, 52, 60, 1, 2, 5, -5, 16, 64, 14, -3, 29, 7, -51], "withholdReward": false, "trial_id": "mdp_trial_13", "block": "test", "trialIndex": 18, "score": -14, "costs": 0, "simulationMode": [null, null, null, null, null], "rewards": [-2, -4, 4, 2, -14], "path": ["0", "0", "1", "2", "3", "8", "9"], "rt": [1167, 115, 1807, 497, 740], "actions": ["up", "up", "up", "left", "up"], "actionTimes": [3915, 4572, 6943, 7994, 9286], "queries": {"click": {"state": {"target": [], "time": []}, "edge": {"target": [], "time": []}}, "mouseover": {"state": {"target": [], "time": []}, "edge": {"target": [], "time": []}}, "mouseout": {"state": {"target": ["0"], "time": [1072]}, "edge": {"target": [], "time": []}}}, "displayed_time": "16.75", "trialTime": 18147, "trial_type": "mouselab-mdp", "trial_index": 33, "time_elapsed": 3048321, "internal_node_id": "0.0-6.0-1.0-12.0"}}, {"uniqueid": "w44425181:a56617748", "current_trial": 34, "dateTime": 1693583199269, "trialdata": {"revealed_states": [], "clicked_states": ["1", "2", "10", "11", "3", "4", "5", "7", "14", "19", "20"], "num_clicks_accrued": [0, 0, 0, 0, 0, 0, 0, 0, 0, 0, 0, 0, 0], "stateRewards": ["", -2, 1, -7, 9, 8, 25, 61, -7, -17, 69, -81, 1, 4, -4, -11, 16, 67, 44, 3, 6, -45, -54, -2, 3, 6, -11, -15, 32, -47, 3, -39, -6, -88], "withholdReward": false, "trial_id": "mdp_trial_14", "block": "test", "trialIndex": 19, "score": 10.149999999999999, "costs": -15.850000000000001, "simulationMode": [null, null, null, null, null], "rewards": [-2, 1, -7, 9, 25], "path": ["0", "0", "1", "2", "3", "4", "6"], "rt": [33344, 268, 23, 1501, 20], "actions": ["up", "up", "up", "right", "right"], "actionTimes": [35919, 36712, 37291, 39354, 39918], "queries": {"click": {"state": {"target": ["1", "2", "10", "11", "3", "4", "5", "7", "14", "19", "20"], "time": [4989, 6889, 8208, 11325, 14552, 15637, 17086, 20437, 26081, 27513, 29510]}, "edge": {"target": [], "time": []}}, "mouseover": {"state": {"target": ["1", "2", "10", "8", "11", "9", "9", "3", "3", "4", "5", "16", "6", "7", "16", "15", "17", "14", "19", "20", "22", "21", "21", "22", "0"], "time": [4623, 6499, 7869, 9072, 11046, 12100, 12408, 13428, 13861, 15043, 16642, 17728, 18076, 20015, 21064, 22276, 24152, 25510, 27170, 29132, 30085, 31080, 34489, 34798, 35130]}, "edge": {"target": [], "time": []}}, "mouseout": {"state": {"target": ["0", "1", "2", "10", "8", "11", "11", "9", "9", "3", "3", "4", "5", "16", "6", "7", "16", "15", "17", "14", "14", "19", "20", "19", "22", "21", "21", "22", "0", "1", "13"], "time": [1039, 6137, 7475, 8810, 10872, 11473, 12026, 12165, 13413, 13490, 14977, 16080, 17693, 17944, 19787, 20548, 22165, 23379, 24217, 26215, 26756, 27650, 29647, 30067, 31016, 32145, 34547, 34865, 35200, 42549, 42885]}, "edge": {"target": [], "time": []}}}, "displayed_time": "40.46", "trialTime": 45072, "trial_type": "mouselab-mdp", "trial_index": 34, "time_elapsed": 3095821, "internal_node_id": "0.0-6.0-1.0-13.0"}}, {"uniqueid": "w44425181:a56617748", "current_trial": 35, "dateTime": 1693583224200, "trialdata": {"revealed_states": [], "clicked_states": [], "num_clicks_accrued": [0, 0, 0, 0, 0, 0, 0, 0, 0, 0, 0, 0, 0], "stateRewards": ["", 2, -1, 3, -12, -83, 6, -33, 9, 28, 24, -50, -2, -1, -2, -5, -87, 37, 82, 12, 80, -5, 10, -2, -3, -6, 9, 22, -1, 16, 9, 77, -62, 58], "withholdReward": false, "trial_id": "mdp_trial_15", "block": "test", "trialIndex": 20, "score": -37, "costs": 0, "simulationMode": [null, null, null, null, null], "rewards": [2, -1, 3, 9, -50], "path": ["0", "0", "1", "2", "3", "8", "11"], "rt": [1490, 510, 144, 732, 13], "actions": ["up", "up", "up", "left", "left"], "actionTimes": [5805, 6861, 7544, 8808, 9360], "queries": {"click": {"state": {"target": [], "time": []}, "edge": {"target": [], "time": []}}, "mouseover": {"state": {"target": [], "time": []}, "edge": {"target": [], "time": []}}, "mouseout": {"state": {"target": ["0", "22"], "time": [4406, 20568]}, "edge": {"target": [], "time": []}}}, "displayed_time": "18.32", "trialTime": 22477, "trial_type": "mouselab-mdp", "trial_index": 35, "time_elapsed": 3120753, "internal_node_id": "0.0-6.0-1.0-14.0"}}, {"uniqueid": "w44425181:a56617748", "current_trial": 36, "dateTime": 1693583249138, "trialdata": {"revealed_states": [], "clicked_states": [], "num_clicks_accrued": [0, 0, 0, 0, 0, 0, 0, 0, 0, 0, 0, 0, 0], "stateRewards": ["", -1, 3, 1, -11, -22, -36, 19, -5, -70, -52, 50, -2, -4, 4, -2, -41, -83, 29, -2, 22, 10, -6, -2, 3, -2, 14, 54, 44, 77, -9, -65, -37, -40], "withholdReward": false, "trial_id": "mdp_trial_16", "block": "test", "trialIndex": 21, "score": 48, "costs": 0, "simulationMode": [null, null, null, null, null], "rewards": [-1, 3, 1, -5, 50], "path": ["0", "0", "1", "2", "3", "8", "11"], "rt": [3236, 81, 729, 711, 512], "actions": ["up", "up", "up", "left", "left"], "actionTimes": [7659, 8306, 9583, 10826, 11872], "queries": {"click": {"state": {"target": [], "time": []}, "edge": {"target": [], "time": []}}, "mouseover": {"state": {"target": [], "time": []}, "edge": {"target": [], "time": []}}, "mouseout": {"state": {"target": ["0"], "time": [19888]}, "edge": {"target": [], "time": []}}}, "displayed_time": "18.43", "trialTime": 22354, "trial_type": "mouselab-mdp", "trial_index": 36, "time_elapsed": 3145691, "internal_node_id": "0.0-6.0-1.0-15.0"}}, {"uniqueid": "w44425181:a56617748", "current_trial": 37, "dateTime": 1693583271307, "trialdata": {"revealed_states": [], "clicked_states": [], "num_clicks_accrued": [0, 0, 0, 0, 0, 0, 0, 0, 0, 0, 0, 0, 0], "stateRewards": ["", -2, -4, 6, 14, -34, 49, 36, -8, -3, 32, -4, 1, -2, 1, -8, -20, -71, -57, -7, -86, -62, -16, -2, -3, -5, 11, 23, -21, 53, 5, -5, 85, 73], "withholdReward": false, "trial_id": "mdp_trial_17", "block": "test", "trialIndex": 22, "score": -12, "costs": 0, "simulationMode": [null, null, null, null, null], "rewards": [-2, -4, 6, -8, -4], "path": ["0", "0", "1", "2", "3", "8", "11"], "rt": [2625, 10, 1301, 290, 119], "actions": ["up", "up", "up", "left", "left"], "actionTimes": [6074, 6640, 8486, 9307, 9982], "queries": {"click": {"state": {"target": [], "time": []}, "edge": {"target": [], "time": []}}, "mouseover": {"state": {"target": [], "time": []}, "edge": {"target": [], "time": []}}, "mouseout": {"state": {"target": ["0"], "time": [1086]}, "edge": {"target": [], "time": []}}}, "displayed_time": "17.45", "trialTime": 19461, "trial_type": "mouselab-mdp", "trial_index": 37, "time_elapsed": 3167861, "internal_node_id": "0.0-6.0-1.0-16.0"}}, {"uniqueid": "w44425181:a56617748", "current_trial": 38, "dateTime": 1693583292910, "trialdata": {"revealed_states": [], "clicked_states": [], "num_clicks_accrued": [0, 0, 0, 0, 0, 0, 0, 0, 0, 0, 0, 0, 0], "stateRewards": ["", 1, 2, 2, -15, -84, 28, -26, 13, 31, 86, 30, -2, 1, -1, -8, 66, -40, -1, -10, -32, 57, -17, 1, 2, -2, 9, -23, 77, 85, 12, -32, -62, -35], "withholdReward": false, "trial_id": "mdp_trial_18", "block": "test", "trialIndex": 23, "score": 49, "costs": 0, "simulationMode": [null, null, null, null, null], "rewards": [1, 2, 2, 13, 31], "path": ["0", "0", "1", "2", "3", "8", "9"], "rt": [1354, 147, 1769, 86, 1828], "actions": ["up", "up", "up", "left", "up"], "actionTimes": [4608, 5298, 7616, 8261, 10687], "queries": {"click": {"state": {"target": [], "time": []}, "edge": {"target": [], "time": []}}, "mouseover": {"state": {"target": [], "time": []}, "edge": {"target": [], "time": []}}, "mouseout": {"state": {"target": ["0", "0"], "time": [1393, 16979]}, "edge": {"target": [], "time": []}}}, "displayed_time": "17.26", "trialTime": 18527, "trial_type": "mouselab-mdp", "trial_index": 38, "time_elapsed": 3189464, "internal_node_id": "0.0-6.0-1.0-17.0"}}, {"uniqueid": "w44425181:a56617748", "current_trial": 39, "dateTime": 1693583385434, "trialdata": {"revealed_states": [], "clicked_states": ["1", "2", "10", "4", "3", "8", "9", "11", "6", "27", "29", "26", "25", "24", "23", "31", "33", "32", "13", "18", "19", "22", "21", "16", "17", "14", "20", "15", "28"], "num_clicks_accrued": [0, 0, 0, 0, 0, 0, 0, 0, 0, 0, 0, 0, 0], "stateRewards": ["", -1, -1, 4, -16, -75, 81, -51, -7, -84, 73, -30, -2, 1, -3, -16, -77, 33, 14, 1, 45, 87, -66, 2, 2, -5, -7, -19, -17, 79, -3, 8, 49, 47], "withholdReward": false, "trial_id": "mdp_trial_19", "block": "test", "trialIndex": 24, "score": -80.54999999999998, "costs": -45.54999999999999, "simulationMode": [null, null, null, null, null], "rewards": [-1, -1, 4, -7, -30], "path": ["0", "0", "1", "2", "3", "8", "11"], "rt": [76546, 145, 2093, 257, 42], "actions": ["up", "up", "up", "left", "left"], "actionTimes": [80993, 81691, 84325, 85120, 85723], "queries": {"click": {"state": {"target": ["1", "2", "10", "4", "3", "8", "9", "11", "6", "27", "29", "26", "25", "24", "23", "31", "33", "32", "13", "18", "19", "22", "21", "16", "17", "14", "20", "15", "28"], "time": [7247, 8475, 9413, 12471, 13389, 14485, 15603, 19362, 22253, 25214, 28221, 31315, 32321, 34497, 35754, 37037, 40676, 43995, 47851, 49214, 52691, 53798, 57206, 60365, 63617, 66621, 67283, 71399, 72307]}, "edge": {"target": [], "time": []}}, "mouseover": {"state": {"target": ["1", "2", "10", "7", "7", "4", "3", "8", "9", "11", "11", "5", "6", "5", "27", "26", "29", "28", "26", "25", "24", "24", "23", "31", "30", "33", "30", "32", "12", "13", "18", "14", "19", "22", "20", "21", "15", "16", "17", "15", "14", "20", "15", "7", "18", "15", "1", "28", "25", "30"], "time": [6515, 8089, 8981, 10151, 11819, 11986, 13025, 13895, 15054, 16596, 17963, 20046, 21011, 22540, 24108, 25745, 27629, 28782, 30757, 32016, 33581, 34159, 35194, 36434, 37652, 40279, 41855, 43571, 45045, 47099, 48797, 49805, 52366, 53506, 54802, 56276, 58369, 59550, 60941, 63847, 65297, 66895, 68550, 69495, 70591, 70971, 71661, 71734, 72908, 73021]}, "edge": {"target": [], "time": []}}, "mouseout": {"state": {"target": ["1", "13", "0", "1", "2", "10", "2", "7", "7", "4", "3", "8", "9", "11", "11", "5", "6", "5", "27", "26", "29", "28", "26", "26", "25", "24", "24", "23", "31", "30", "33", "33", "30", "32", "12", "13", "18", "14", "19", "19", "22", "20", "21", "15", "16", "17", "15", "14", "20", "15", "7", "18", "15", "1", "28", "25", "30"], "time": [181, 1031, 4587, 7747, 8896, 10026, 10121, 11055, 11969, 12963, 13878, 14992, 16473, 17686, 19565, 20869, 22470, 23692, 25677, 27443, 28721, 30605, 31428, 31950, 33263, 33652, 35107, 36321, 37584, 40038, 40813, 41406, 43497, 44635, 46952, 48339, 49742, 52277, 52889, 53481, 54405, 56208, 57911, 59466, 60650, 63820, 65241, 66841, 68091, 69132, 70535, 70640, 71646, 71721, 72890, 72995, 75509]}, "edge": {"target": [], "time": []}}}, "displayed_time": "86.29", "trialTime": 89706, "trial_type": "mouselab-mdp", "trial_index": 39, "time_elapsed": 3281986, "internal_node_id": "0.0-6.0-1.0-18.0"}}, {"uniqueid": "w44425181:a56617748", "current_trial": 40, "dateTime": 1693583474063, "trialdata": {"revealed_states": [], "clicked_states": ["1", "2", "10", "7", "6", "3", "8", "11", "5", "26", "29", "28", "25", "30", "33", "32", "23", "24", "12", "18", "15", "17", "14", "19", "22"], "num_clicks_accrued": [0, 0, 0, 0, 0, 0, 0, 0, 0, 0, 0, 0, 0], "stateRewards": ["", 1, 4, -8, -5, -15, -7, 21, 13, -30, 40, -65, 1, 1, 5, -14, 35, 27, -38, -11, 36, -58, -47, -2, 4, -3, 13, -16, -49, 22, 15, -56, -44, -10], "withholdReward": false, "trial_id": "mdp_trial_20", "block": "test", "trialIndex": 25, "score": -56.349999999999994, "costs": -36.349999999999994, "simulationMode": [null, null, null, null, null], "rewards": [1, 4, -8, 13, -30], "path": ["0", "0", "1", "2", "3", "8", "9"], "rt": [62542, 166, 1154, 346, 5150], "actions": ["up", "up", "up", "left", "up"], "actionTimes": [73070, 73776, 75506, 76420, 82116], "queries": {"click": {"state": {"target": ["1", "2", "10", "7", "6", "3", "8", "11", "5", "26", "29", "28", "25", "30", "33", "32", "23", "24", "12", "18", "15", "17", "14", "19", "22"], "time": [13078, 14131, 15531, 18441, 21726, 25336, 26659, 27626, 30517, 34159, 34825, 37853, 40901, 41925, 43277, 47023, 50517, 51961, 53618, 54479, 58587, 59433, 62792, 63693, 64830]}, "edge": {"target": [], "time": []}}, "mouseover": {"state": {"target": ["1", "2", "10", "7", "4", "6", "4", "3", "8", "8", "11", "9", "5", "27", "26", "29", "28", "25", "30", "33", "31", "32", "31", "24", "23", "24", "0", "12", "18", "16", "15", "17", "16", "14", "19", "22", "20", "21"], "time": [12576, 13732, 14810, 16095, 19045, 21143, 23066, 24923, 25897, 26309, 27241, 28691, 29882, 31534, 33528, 34479, 35512, 38431, 41532, 42929, 43983, 46285, 47659, 48202, 50132, 51485, 52608, 53199, 54125, 55137, 58252, 59136, 60034, 62368, 63317, 64432, 65713, 66908]}, "edge": {"target": [], "time": []}}, "mouseout": {"state": {"target": ["0", "0", "1", "2", "10", "2", "7", "4", "6", "4", "3", "8", "8", "11", "9", "5", "5", "27", "26", "29", "28", "25", "25", "30", "33", "31", "32", "31", "24", "23", "24", "0", "12", "18", "16", "15", "17", "16", "14", "19", "22", "19", "20", "19", "21"], "time": [973, 10718, 13618, 14746, 15977, 16066, 18978, 21034, 22312, 24635, 25878, 25966, 27176, 28283, 29769, 30586, 31084, 33482, 34415, 34961, 38414, 41041, 41474, 41971, 43901, 46158, 47137, 48137, 49992, 51016, 52590, 52668, 53976, 54594, 57545, 58697, 59569, 61960, 63250, 64251, 65336, 65391, 66657, 66795, 71450]}, "edge": {"target": [], "time": []}}}, "displayed_time": "82.65", "trialTime": 85662, "trial_type": "mouselab-mdp", "trial_index": 40, "time_elapsed": 3370615, "internal_node_id": "0.0-6.0-1.0-19.0"}}, {"uniqueid": "w44425181:a56617748", "current_trial": 41, "dateTime": 1693583502825, "trialdata": {"revealed_states": [], "clicked_states": [], "num_clicks_accrued": [0, 0, 0, 0, 0, 0, 0, 0, 0, 0, 0, 0, 0], "stateRewards": ["", 2, 3, 8, 14, 69, -27, 17, 2, -71, -65, -10, 2, -3, 7, 8, 65, -10, 65, -12, 73, -12, 13, -2, -2, 6, 10, -79, -69, -18, 10, -85, 67, 74], "withholdReward": false, "trial_id": "mdp_trial_21", "block": "test", "trialIndex": 26, "score": -56, "costs": 0, "simulationMode": [null, null, null, null, null], "rewards": [2, 3, 8, 2, -71], "path": ["0", "0", "1", "2", "3", "8", "9"], "rt": [8976, 509, 4601, 332, 2493], "actions": ["up", "up", "up", "left", "up"], "actionTimes": [12716, 13776, 18929, 19788, 22854], "queries": {"click": {"state": {"target": [], "time": []}, "edge": {"target": [], "time": []}}, "mouseover": {"state": {"target": ["1", "1"], "time": [9174, 9687]}, "edge": {"target": [], "time": []}}, "mouseout": {"state": {"target": ["0", "1", "1"], "time": [3855, 9273, 11461]}, "edge": {"target": [], "time": []}}}, "displayed_time": "23.38", "trialTime": 25675, "trial_type": "mouselab-mdp", "trial_index": 41, "time_elapsed": 3399376, "internal_node_id": "0.0-6.0-1.0-20.0"}}, {"uniqueid": "w44425181:a56617748", "current_trial": 42, "dateTime": 1693583550764, "trialdata": {"revealed_states": [], "clicked_states": [], "num_clicks_accrued": [0, 0, 0, 0, 0, 0, 0, 0, 0, 0, 0, 0, 0], "stateRewards": ["", 2, 3, -1, 6, 44, -4, -59, -14, -3, 64, 16, 1, -3, 3, 6, 3, 49, 19, 3, -49, -14, -86, 1, 2, -3, -8, -33, 14, 32, -13, -77, -47, -67], "withholdReward": false, "trial_id": "mdp_trial_22", "block": "test", "trialIndex": 27, "score": 6, "costs": 0, "simulationMode": [null, null, null, null, null], "rewards": [2, 3, -1, -14, 16], "path": ["0", "0", "1", "2", "3", "8", "11"], "rt": [6755, 25, 3716, 495, 515], "actions": ["up", "up", "up", "left", "left"], "actionTimes": [10936, 11497, 15755, 16793, 17883], "queries": {"click": {"state": {"target": [], "time": []}, "edge": {"target": [], "time": []}}, "mouseover": {"state": {"target": [], "time": []}, "edge": {"target": [], "time": []}}, "mouseout": {"state": {"target": ["0"], "time": [2029]}, "edge": {"target": [], "time": []}}}, "displayed_time": "18.45", "trialTime": 44687, "trial_type": "mouselab-mdp", "trial_index": 42, "time_elapsed": 3447317, "internal_node_id": "0.0-6.0-1.0-21.0"}}, {"uniqueid": "w44425181:a56617748", "current_trial": 43, "dateTime": 1693583571934, "trialdata": {"revealed_states": [], "clicked_states": [], "num_clicks_accrued": [0, 0, 0, 0, 0, 0, 0, 0, 0, 0, 0, 0, 0], "stateRewards": ["", -1, 3, -5, -2, -13, -9, -34, -7, -81, 32, 35, -2, -2, 1, -14, -32, 81, 7, 4, 82, 56, -8, -1, 3, -8, 6, -24, -24, -53, 2, 38, 61, 54], "withholdReward": false, "trial_id": "mdp_trial_23", "block": "test", "trialIndex": 28, "score": -91, "costs": 0, "simulationMode": [null, null, null, null, null], "rewards": [-1, 3, -5, -7, -81], "path": ["0", "0", "1", "2", "3", "8", "9"], "rt": [2982, 172, 3012, 72, 4565], "actions": ["up", "up", "up", "left", "up"], "actionTimes": [5945, 6675, 10249, 10865, 15974], "queries": {"click": {"state": {"target": [], "time": []}, "edge": {"target": [], "time": []}}, "mouseover": {"state": {"target": [], "time": []}, "edge": {"target": [], "time": []}}, "mouseout": {"state": {"target": ["0"], "time": [1205]}, "edge": {"target": [], "time": []}}}, "displayed_time": "16.96", "trialTime": 18052, "trial_type": "mouselab-mdp", "trial_index": 43, "time_elapsed": 3468486, "internal_node_id": "0.0-6.0-1.0-22.0"}}, {"uniqueid": "w44425181:a56617748", "current_trial": 44, "dateTime": 1693583596133, "trialdata": {"revealed_states": [], "clicked_states": [], "num_clicks_accrued": [0, 0, 0, 0, 0, 0, 0, 0, 0, 0, 0, 0, 0], "stateRewards": ["", 1, -2, 4, 7, -43, -83, -60, -5, -86, -80, 83, -1, -2, 6, 11, -15, 21, 13, 9, 29, -49, 11, -1, 4, -6, -11, 87, 40, 63, -8, -39, -11, 62], "withholdReward": false, "trial_id": "mdp_trial_24", "block": "test", "trialIndex": 29, "score": 81, "costs": 0, "simulationMode": [null, null, null, null, null], "rewards": [1, -2, 4, -5, 83], "path": ["0", "0", "1", "2", "3", "8", "11"], "rt": [1557, 706, 1056, 146, 37], "actions": ["up", "up", "up", "left", "left"], "actionTimes": [5665, 6954, 8574, 9244, 9827], "queries": {"click": {"state": {"target": [], "time": []}, "edge": {"target": [], "time": []}}, "mouseover": {"state": {"target": [], "time": []}, "edge": {"target": [], "time": []}}, "mouseout": {"state": {"target": ["0", "12", "12", "0"], "time": [1337, 1420, 1774, 5022]}, "edge": {"target": [], "time": []}}}, "displayed_time": "18.11", "trialTime": 21418, "trial_type": "mouselab-mdp", "trial_index": 44, "time_elapsed": 3492687, "internal_node_id": "0.0-6.0-1.0-23.0"}}, {"uniqueid": "w44425181:a56617748", "current_trial": 45, "dateTime": 1693583616721, "trialdata": {"revealed_states": [], "clicked_states": [], "num_clicks_accrued": [0, 0, 0, 0, 0, 0, 0, 0, 0, 0, 0, 0, 0], "stateRewards": ["", -1, 2, -2, 5, 80, -61, -27, 12, 44, -26, -75, -2, -4, 1, -16, 42, -49, -50, 4, -44, 2, 80, -2, -2, 5, -2, 59, 10, 24, 7, -48, -86, -44], "withholdReward": false, "trial_id": "mdp_trial_25", "block": "test", "trialIndex": 30, "score": 55, "costs": 0, "simulationMode": [null, null, null, null, null], "rewards": [-1, 2, -2, 12, 44], "path": ["0", "0", "1", "2", "3", "8", "9"], "rt": [5709, 464, 693, 355, 2254], "actions": ["up", "up", "up", "left", "up"], "actionTimes": [8515, 9507, 10750, 11657, 14452], "queries": {"click": {"state": {"target": [], "time": []}, "edge": {"target": [], "time": []}}, "mouseover": {"state": {"target": ["1"], "time": [4901]}, "edge": {"target": [], "time": []}}, "mouseout": {"state": {"target": ["0"], "time": [901]}, "edge": {"target": [], "time": []}}}, "displayed_time": "16.81", "trialTime": 17763, "trial_type": "mouselab-mdp", "trial_index": 45, "time_elapsed": 3513272, "internal_node_id": "0.0-6.0-1.0-24.0"}}, {"uniqueid": "w44425181:a56617748", "current_trial": 46, "dateTime": 1693583639239, "trialdata": {"revealed_states": [], "clicked_states": [], "num_clicks_accrued": [0, 0, 0, 0, 0, 0, 0, 0, 0, 0, 0, 0, 0], "stateRewards": ["", -1, -4, -3, 1, -45, -67, -24, 14, 32, 22, 22, -1, 1, -5, -7, 72, 84, -79, -5, 19, -40, -2, -1, -2, 8, -3, 84, -25, -28, 11, 64, -66, 77], "withholdReward": false, "trial_id": "mdp_trial_26", "block": "test", "trialIndex": 31, "score": 28, "costs": 0, "simulationMode": [null, null, null, null, null], "rewards": [-1, -4, -3, 14, 22], "path": ["0", "0", "1", "2", "3", "8", "11"], "rt": [1594, 1745, 702, 782, 903], "actions": ["up", "up", "up", "left", "left"], "actionTimes": [5698, 8017, 9242, 10582, 12043], "queries": {"click": {"state": {"target": [], "time": []}, "edge": {"target": [], "time": []}}, "mouseover": {"state": {"target": [], "time": []}, "edge": {"target": [], "time": []}}, "mouseout": {"state": {"target": ["1"], "time": [897]}, "edge": {"target": [], "time": []}}}, "displayed_time": "18.11", "trialTime": 19801, "trial_type": "mouselab-mdp", "trial_index": 46, "time_elapsed": 3535792, "internal_node_id": "0.0-6.0-1.0-25.0"}}, {"uniqueid": "w44425181:a56617748", "current_trial": 47, "dateTime": 1693583662517, "trialdata": {"revealed_states": [], "clicked_states": [], "num_clicks_accrued": [0, 0, 0, 0, 0, 0, 0, 0, 0, 0, 0, 0, 0], "stateRewards": ["", -2, 4, 3, 5, -61, 4, 30, 1, -47, 83, 10, 1, 4, 7, -14, 19, -74, -83, 6, -2, -2, -65, -1, -2, 4, -11, 12, -1, -68, 11, -38, -28, 66], "withholdReward": false, "trial_id": "mdp_trial_27", "block": "test", "trialIndex": 32, "score": 16, "costs": 0, "simulationMode": [null, null, null, null, null], "rewards": [-2, 4, 3, 1, 10], "path": ["0", "0", "1", "2", "3", "8", "11"], "rt": [1548, 40, 667, 73, 263], "actions": ["up", "up", "up", "left", "left"], "actionTimes": [4496, 5110, 6324, 6955, 7764], "queries": {"click": {"state": {"target": [], "time": []}, "edge": {"target": [], "time": []}}, "mouseover": {"state": {"target": ["0"], "time": [3180]}, "edge": {"target": [], "time": []}}, "mouseout": {"state": {"target": ["0", "0"], "time": [946, 3798]}, "edge": {"target": [], "time": []}}}, "displayed_time": "16.95", "trialTime": 20251, "trial_type": "mouselab-mdp", "trial_index": 47, "time_elapsed": 3559043, "internal_node_id": "0.0-6.0-1.0-26.0"}}, {"uniqueid": "w44425181:a56617748", "current_trial": 48, "dateTime": 1693583684472, "trialdata": {"revealed_states": [], "clicked_states": [], "num_clicks_accrued": [0, 0, 0, 0, 0, 0, 0, 0, 0, 0, 0, 0, 0], "stateRewards": ["", -2, 1, -5, 2, -68, 80, 33, 10, 67, -59, 20, -1, -3, 3, 14, 74, -2, 24, -16, 63, 80, 46, -1, 4, 6, 12, 83, -38, -43, -4, 43, 14, -79], "withholdReward": false, "trial_id": "mdp_trial_28", "block": "test", "trialIndex": 33, "score": 71, "costs": 0, "simulationMode": [null, null, null, null, null], "rewards": [-2, 1, -5, 10, 67], "path": ["0", "0", "1", "2", "3", "8", "9"], "rt": [2511, 298, 4358, 2149, 661], "actions": ["up", "up", "up", "left", "up"], "actionTimes": [6614, 7480, 12391, 15088, 16280], "queries": {"click": {"state": {"target": [], "time": []}, "edge": {"target": [], "time": []}}, "mouseover": {"state": {"target": [], "time": []}, "edge": {"target": [], "time": []}}, "mouseout": {"state": {"target": ["0"], "time": [1983]}, "edge": {"target": [], "time": []}}}, "displayed_time": "18.11", "trialTime": 19152, "trial_type": "mouselab-mdp", "trial_index": 48, "time_elapsed": 3581026, "internal_node_id": "0.0-6.0-1.0-27.0"}}, {"uniqueid": "w44425181:a56617748", "current_trial": 49, "dateTime": 1693583711165, "trialdata": {"revealed_states": [], "clicked_states": ["1"], "num_clicks_accrued": [0, 0, 0, 0, 0, 0, 0, 0, 0, 0, 0, 0, 0], "stateRewards": ["", 2, -4, -4, 13, -80, 62, 13, -11, 57, -13, -44, 1, 4, 3, -4, -29, -88, 15, 16, -58, 68, -45, -1, -3, -1, -9, -44, -86, -19, -7, -36, 59, 66], "withholdReward": false, "trial_id": "mdp_trial_29", "block": "test", "trialIndex": 34, "score": -60.75, "costs": 0.25, "simulationMode": [null, null, null, null, null], "rewards": [2, -4, -4, -11, -44], "path": ["0", "0", "1", "2", "3", "8", "11"], "rt": [3021, 422, 1002, 302, 292], "actions": ["up", "up", "up", "left", "left"], "actionTimes": [8461, 9472, 11032, 11890, 12733], "queries": {"click": {"state": {"target": ["1"], "time": [7218]}, "edge": {"target": [], "time": []}}, "mouseover": {"state": {"target": ["1"], "time": [6878]}, "edge": {"target": [], "time": []}}, "mouseout": {"state": {"target": ["0"], "time": [3066]}, "edge": {"target": [], "time": []}}}, "displayed_time": "19.45", "trialTime": 23361, "trial_type": "mouselab-mdp", "trial_index": 49, "time_elapsed": 3607718, "internal_node_id": "0.0-6.0-1.0-28.0"}}, {"uniqueid": "w44425181:a56617748", "current_trial": 50, "dateTime": 1693583732634, "trialdata": {"revealed_states": [], "clicked_states": [], "num_clicks_accrued": [0, 0, 0, 0, 0, 0, 0, 0, 0, 0, 0, 0, 0], "stateRewards": ["", 1, -4, -6, 11, -20, 8, -30, 1, -38, 88, 42, 2, 3, 5, -12, -8, -74, 30, -8, 67, -19, 42, 2, -1, 4, 13, 50, -68, 2, -8, -15, 87, -46], "withholdReward": false, "trial_id": "mdp_trial_30", "block": "test", "trialIndex": 35, "score": -46, "costs": 0, "simulationMode": [null, null, null, null, null], "rewards": [1, -4, -6, 1, -38], "path": ["0", "0", "1", "2", "3", "8", "9"], "rt": [2579, 128, 1153, 214, 640], "actions": ["up", "up", "up", "left", "up"], "actionTimes": [6246, 6946, 8654, 9434, 10631], "queries": {"click": {"state": {"target": [], "time": []}, "edge": {"target": [], "time": []}}, "mouseover": {"state": {"target": [], "time": []}, "edge": {"target": [], "time": []}}, "mouseout": {"state": {"target": ["1"], "time": [783]}, "edge": {"target": [], "time": []}}}, "displayed_time": "17.67", "trialTime": 18747, "trial_type": "mouselab-mdp", "trial_index": 50, "time_elapsed": 3629186, "internal_node_id": "0.0-6.0-1.0-29.0"}}, {"uniqueid": "w44425181:a56617748", "current_trial": 51, "dateTime": 1693583755834, "trialdata": {"revealed_states": [], "clicked_states": [], "num_clicks_accrued": [0, 0, 0, 0, 0, 0, 0, 0, 0, 0, 0, 0, 0], "stateRewards": ["", -2, 4, -5, -12, 85, -24, -18, -15, -78, -22, 26, -1, -1, 2, 14, -45, 52, -23, 7, -33, 24, -6, -2, -4, 5, -7, -16, 36, -39, 5, 71, -87, -23], "withholdReward": false, "trial_id": "mdp_trial_31", "block": "test", "trialIndex": 36, "score": 8, "costs": 0, "simulationMode": [null, null, null, null, null], "rewards": [-2, 4, -5, -15, 26], "path": ["0", "0", "1", "2", "3", "8", "11"], "rt": [1220, 106, 609, 36, 18], "actions": ["up", "up", "up", "left", "left"], "actionTimes": [4164, 4833, 6009, 6617, 7210], "queries": {"click": {"state": {"target": [], "time": []}, "edge": {"target": [], "time": []}}, "mouseover": {"state": {"target": [], "time": []}, "edge": {"target": [], "time": []}}, "mouseout": {"state": {"target": ["0"], "time": [958]}, "edge": {"target": [], "time": []}}}, "displayed_time": "16.95", "trialTime": 19863, "trial_type": "mouselab-mdp", "trial_index": 51, "time_elapsed": 3652386, "internal_node_id": "0.0-6.0-1.0-30.0"}}, {"uniqueid": "w44425181:a56617748", "current_trial": 52, "dateTime": 1693583782187, "trialdata": {"revealed_states": [], "clicked_states": [], "num_clicks_accrued": [0, 0, 0, 0, 0, 0, 0, 0, 0, 0, 0, 0, 0], "stateRewards": ["", -2, -2, -3, -6, -15, -11, 41, -12, -63, -76, 2, -2, -3, 8, 9, -36, -2, -18, -16, -32, -85, -17, -2, 1, 5, -16, 82, 35, -88, -1, 80, -82, -20], "withholdReward": false, "trial_id": "mdp_trial_32", "block": "test", "trialIndex": 37, "score": -17, "costs": 0, "simulationMode": [null, null, null, null, null], "rewards": [-2, -2, -3, -12, 2], "path": ["0", "0", "1", "2", "3", "8", "11"], "rt": [1584, 606, 2022, 213, 68], "actions": ["up", "up", "up", "left", "left"], "actionTimes": [5114, 6286, 8873, 9630, 10234], "queries": {"click": {"state": {"target": [], "time": []}, "edge": {"target": [], "time": []}}, "mouseover": {"state": {"target": [], "time": []}, "edge": {"target": [], "time": []}}, "mouseout": {"state": {"target": ["0", "22"], "time": [20665, 20727]}, "edge": {"target": [], "time": []}}}, "displayed_time": "17.53", "trialTime": 22621, "trial_type": "mouselab-mdp", "trial_index": 52, "time_elapsed": 3678739, "internal_node_id": "0.0-6.0-1.0-31.0"}}, {"uniqueid": "w44425181:a56617748", "current_trial": 53, "dateTime": 1693583803837, "trialdata": {"revealed_states": [], "clicked_states": [], "num_clicks_accrued": [0, 0, 0, 0, 0, 0, 0, 0, 0, 0, 0, 0, 0], "stateRewards": ["", 2, -1, -4, -13, 74, 77, 3, 2, -43, -2, -11, 2, 3, 7, 11, -26, -29, -33, -3, -3, -13, -3, 1, 3, -7, 14, -59, 33, 9, -5, 34, 79, 68], "withholdReward": false, "trial_id": "mdp_trial_33", "block": "test", "trialIndex": 38, "score": -12, "costs": 0, "simulationMode": [null, null, null, null, null], "rewards": [2, -1, -4, 2, -11], "path": ["0", "0", "1", "2", "3", "8", "11"], "rt": [1125, 74, 2273, 173, 464], "actions": ["up", "up", "up", "left", "left"], "actionTimes": [4875, 5517, 8345, 9061, 10122], "queries": {"click": {"state": {"target": [], "time": []}, "edge": {"target": [], "time": []}}, "mouseover": {"state": {"target": [], "time": []}, "edge": {"target": [], "time": []}}, "mouseout": {"state": {"target": ["22"], "time": [949]}, "edge": {"target": [], "time": []}}}, "displayed_time": "17.75", "trialTime": 18772, "trial_type": "mouselab-mdp", "trial_index": 53, "time_elapsed": 3700392, "internal_node_id": "0.0-6.0-1.0-32.0"}}, {"uniqueid": "w44425181:a56617748", "current_trial": 54, "dateTime": 1693583833162, "trialdata": {"revealed_states": [], "clicked_states": [], "num_clicks_accrued": [0, 0, 0, 0, 0, 0, 0, 0, 0, 0, 0, 0, 0], "stateRewards": ["", 2, 3, -6, -5, -3, 55, 40, 11, 61, 11, 51, 2, -4, -6, 9, -25, 29, -15, -6, 7, -77, -2, -2, -4, 1, 14, -43, -1, 56, -12, -54, 41, -74], "withholdReward": false, "trial_id": "mdp_trial_34", "block": "test", "trialIndex": 39, "score": 61, "costs": 0, "simulationMode": [null, null, null, null, null], "rewards": [2, 3, -6, 11, 51], "path": ["0", "0", "1", "2", "3", "8", "11"], "rt": [1502, 111, 148, 62, 96], "actions": ["up", "up", "up", "left", "left"], "actionTimes": [4847, 5530, 6269, 6888, 7540], "queries": {"click": {"state": {"target": [], "time": []}, "edge": {"target": [], "time": []}}, "mouseover": {"state": {"target": [], "time": []}, "edge": {"target": [], "time": []}}, "mouseout": {"state": {"target": ["0"], "time": [3409]}, "edge": {"target": [], "time": []}}}, "displayed_time": "17.35", "trialTime": 25880, "trial_type": "mouselab-mdp", "trial_index": 54, "time_elapsed": 3729714, "internal_node_id": "0.0-6.0-1.0-33.0"}}, {"uniqueid": "w44425181:a56617748", "current_trial": 55, "dateTime": 1693583865271, "trialdata": {"revealed_states": [], "clicked_states": [], "num_clicks_accrued": [0, 0, 0, 0, 0, 0, 0, 0, 0, 0, 0, 0, 0], "stateRewards": ["", 1, -1, 1, -14, -10, 67, -28, -11, 72, 40, -65, -1, 1, 1, -2, 8, -55, 34, -10, 61, 33, -15, 2, -4, 7, 4, -75, 63, -21, -16, 61, 19, 21], "withholdReward": false, "trial_id": "mdp_trial_35", "block": "test", "trialIndex": 40, "score": -75, "costs": 0, "simulationMode": [null, null, null, null, null], "rewards": [1, -1, 1, -11, -65], "path": ["0", "0", "1", "2", "3", "8", "11"], "rt": [4390, 599, 259, 385, 37], "actions": ["up", "up", "up", "left", "left"], "actionTimes": [13949, 15099, 15915, 16854, 17452], "queries": {"click": {"state": {"target": [], "time": []}, "edge": {"target": [], "time": []}}, "mouseover": {"state": {"target": [], "time": []}, "edge": {"target": [], "time": []}}, "mouseout": {"state": {"target": ["0"], "time": [7024]}, "edge": {"target": [], "time": []}}}, "displayed_time": "23.56", "trialTime": 29119, "trial_type": "mouselab-mdp", "trial_index": 55, "time_elapsed": 3761823, "internal_node_id": "0.0-6.0-1.0-34.0"}}, {"uniqueid": "w44425181:a56617748", "current_trial": 56, "dateTime": 1693583887696, "trialdata": {"revealed_states": [], "clicked_states": [], "num_clicks_accrued": [0, 0, 0, 0, 0, 0, 0, 0, 0, 0, 0, 0, 0], "stateRewards": ["", 1, 2, -5, 14, 54, -14, -25, 16, -5, -87, 78, -1, 1, 3, -3, 52, 53, 53, -10, 73, -69, -48, 2, 3, 1, 8, -62, -7, 85, 7, 82, 52, -28], "withholdReward": false, "trial_id": "mdp_trial_36", "block": "test", "trialIndex": 41, "score": 92, "costs": 0, "simulationMode": [null, null, null, null, null], "rewards": [1, 2, -5, 16, 78], "path": ["0", "0", "1", "2", "3", "8", "11"], "rt": [1564, 60, 2535, 17, 390], "actions": ["up", "up", "up", "left", "left"], "actionTimes": [4972, 5591, 8728, 9455, 10419], "queries": {"click": {"state": {"target": [], "time": []}, "edge": {"target": [], "time": []}}, "mouseover": {"state": {"target": ["0"], "time": [3474]}, "edge": {"target": [], "time": []}}, "mouseout": {"state": {"target": ["0", "0"], "time": [1428, 4236]}, "edge": {"target": [], "time": []}}}, "displayed_time": "17.41", "trialTime": 18990, "trial_type": "mouselab-mdp", "trial_index": 56, "time_elapsed": 3784251, "internal_node_id": "0.0-6.0-1.0-35.0"}}, {"uniqueid": "w44425181:a56617748", "current_trial": 57, "dateTime": 1693583911015, "trialdata": {"revealed_states": [], "clicked_states": [], "num_clicks_accrued": [0, 0, 0, 0, 0, 0, 0, 0, 0, 0, 0, 0, 0], "stateRewards": ["", 1, 1, -3, 2, 22, -25, -11, -5, 50, 49, 3, 1, -1, 8, 14, -85, -30, 57, -6, -39, -16, 59, -2, -1, 5, 5, 59, -16, 8, 4, 67, 56, -9], "withholdReward": false, "trial_id": "mdp_trial_37", "block": "test", "trialIndex": 42, "score": -3, "costs": 0, "simulationMode": [null, null, null, null, null], "rewards": [1, 1, -3, -5, 3], "path": ["0", "0", "1", "2", "3", "8", "11"], "rt": [1465, 92, 742, 64, 362], "actions": ["up", "up", "up", "left", "left"], "actionTimes": [6723, 7384, 8691, 9311, 10226], "queries": {"click": {"state": {"target": [], "time": []}, "edge": {"target": [], "time": []}}, "mouseover": {"state": {"target": [], "time": []}, "edge": {"target": [], "time": []}}, "mouseout": {"state": {"target": ["0"], "time": [2619]}, "edge": {"target": [], "time": []}}}, "displayed_time": "19.26", "trialTime": 20194, "trial_type": "mouselab-mdp", "trial_index": 57, "time_elapsed": 3807567, "internal_node_id": "0.0-6.0-1.0-36.0"}}, {"uniqueid": "w44425181:a56617748", "current_trial": 58, "dateTime": 1693583935646, "trialdata": {"revealed_states": [], "clicked_states": [], "num_clicks_accrued": [0, 0, 0, 0, 0, 0, 0, 0, 0, 0, 0, 0, 0], "stateRewards": ["", 2, -1, -1, 7, 11, -40, -22, -2, 69, 37, 8, -2, 4, -8, -12, -2, -72, -3, -12, 17, 63, 12, 1, 3, -7, 6, 25, 61, 61, -9, 28, -17, 27], "withholdReward": false, "trial_id": "mdp_trial_38", "block": "test", "trialIndex": 43, "score": 6, "costs": 0, "simulationMode": [null, null, null, null, null], "rewards": [2, -1, -1, -2, 8], "path": ["0", "0", "1", "2", "3", "8", "11"], "rt": [3606, 16, 880, 151, 396], "actions": ["up", "up", "up", "left", "left"], "actionTimes": [7229, 7793, 9240, 9929, 10849], "queries": {"click": {"state": {"target": [], "time": []}, "edge": {"target": [], "time": []}}, "mouseover": {"state": {"target": [], "time": []}, "edge": {"target": [], "time": []}}, "mouseout": {"state": {"target": ["0"], "time": [1254]}, "edge": {"target": [], "time": []}}}, "displayed_time": "17.63", "trialTime": 21489, "trial_type": "mouselab-mdp", "trial_index": 58, "time_elapsed": 3832201, "internal_node_id": "0.0-6.0-1.0-37.0"}}, {"uniqueid": "w44425181:a56617748", "current_trial": 59, "dateTime": 1693583962984, "trialdata": {"revealed_states": [], "clicked_states": [], "num_clicks_accrued": [0, 0, 0, 0, 0, 0, 0, 0, 0, 0, 0, 0, 0], "stateRewards": ["", -1, 4, -5, 9, 29, -75, -42, -16, 24, -28, -41, 2, -3, 1, 10, 60, 47, 55, -1, -53, 22, -40, 2, -3, -6, 4, -26, 44, 54, 15, -76, 42, 14], "withholdReward": false, "trial_id": "mdp_trial_39", "block": "test", "trialIndex": 44, "score": -59, "costs": 0, "simulationMode": [null, null, null, null, null], "rewards": [-1, 4, -5, -16, -41], "path": ["0", "0", "1", "2", "3", "8", "11"], "rt": [1549, 99, 874, 126, 261], "actions": ["up", "up", "up", "left", "left"], "actionTimes": [8468, 9118, 10546, 11222, 12006], "queries": {"click": {"state": {"target": [], "time": []}, "edge": {"target": [], "time": []}}, "mouseover": {"state": {"target": [], "time": []}, "edge": {"target": [], "time": []}}, "mouseout": {"state": {"target": ["0"], "time": [4408]}, "edge": {"target": [], "time": []}}}, "displayed_time": "20.92", "trialTime": 23931, "trial_type": "mouselab-mdp", "trial_index": 59, "time_elapsed": 3859535, "internal_node_id": "0.0-6.0-1.0-38.0"}}, {"uniqueid": "w44425181:a56617748", "current_trial": 60, "dateTime": 1693583985542, "trialdata": {"revealed_states": [], "clicked_states": [], "num_clicks_accrued": [0, 0, 0, 0, 0, 0, 0, 0, 0, 0, 0, 0, 0], "stateRewards": ["", 2, 3, 6, -5, -74, -53, 17, -12, 46, 44, 18, -2, 4, 1, -8, 22, -23, -49, 9, -45, 55, 81, 1, -1, -7, -16, -83, -71, -45, 2, 51, 82, 61], "withholdReward": false, "trial_id": "mdp_trial_40", "block": "test", "trialIndex": 45, "score": 17, "costs": 0, "simulationMode": [null, null, null, null, null], "rewards": [2, 3, 6, -12, 18], "path": ["0", "0", "1", "2", "3", "8", "11"], "rt": [1769, 89, 395, 926, 502], "actions": ["up", "up", "up", "left", "left"], "actionTimes": [5299, 5924, 6890, 8385, 9444], "queries": {"click": {"state": {"target": [], "time": []}, "edge": {"target": [], "time": []}}, "mouseover": {"state": {"target": [], "time": []}, "edge": {"target": [], "time": []}}, "mouseout": {"state": {"target": ["0"], "time": [1486]}, "edge": {"target": [], "time": []}}}, "displayed_time": "17.53", "trialTime": 19440, "trial_type": "mouselab-mdp", "trial_index": 60, "time_elapsed": 3882094, "internal_node_id": "0.0-6.0-1.0-39.0"}}, {"uniqueid": "w44425181:a56617748", "current_trial": 61, "dateTime": 1693584024631, "trialdata": {"rt": 38403, "response": {"Q0": "$-2 to $2", "Q1": "$-32 to $32", "Q2": "$-16 to $16", "Q3": "The cost for clicking on nodes varied between nodes.", "Q4": "Slightly motivated"}, "question_order": [0, 1, 2, 3, 4], "trial_id": "final_quiz_control", "trial_type": "survey-multi-choice", "trial_index": 61, "time_elapsed": 3921177, "internal_node_id": "0.0-6.0-2.0"}}, {"uniqueid": "w44425181:a56617748", "current_trial": 62, "dateTime": 1693584102871, "trialdata": {"rt": 77843, "response": {"Q0": "Change arrows", "Q1": "Yes,I'd skip a couple of arrows", "Q2": "As I could not use arrows/clicks"}, "trial_id": "self_report_control", "trial_type": "survey-text", "trial_index": 62, "time_elapsed": 3999427, "internal_node_id": "0.0-6.0-3.0"}}, {"uniqueid": "w44425181:a56617748", "current_trial": 63, "dateTime": 1693584146581, "trialdata": {"rt": 43693, "response": {"Q0": "Neither disagree nor agree", "Q1": "Disagree", "Q2": "Disagree", "Q3": "Agree", "Q4": "Agree", "Q5": "Agree", "Q6": "Neither disagree nor agree"}, "question_order": [0, 1, 2, 3, 4, 5, 6], "trial_id": "self_report_2", "trial_type": "survey-multi-choice", "trial_index": 63, "time_elapsed": 4043137, "internal_node_id": "0.0-6.0-4.0"}}, {"uniqueid": "w44425181:a56617748", "current_trial": 64, "dateTime": 1693584178769, "trialdata": {"rt": 31864, "response": {"gender": "female", "age": "21", "colorblind": "0", "effort": "1"}, "trial_type": "survey-html-form", "trial_index": 64, "time_elapsed": 4075324, "internal_node_id": "0.0-6.0-5.0"}}, {"uniqueid": "w44425181:a56617748", "current_trial": 65, "dateTime": 1693584213179, "trialdata": {"rt": 34349, "response": {"Q0": "no everything was clear", "Q1": "Yes", "Q2": ""}, "trial_type": "survey-text", "trial_index": 65, "time_elapsed": 4109735, "internal_node_id": "0.0-6.0-6.0"}}, {"uniqueid": "w44425181:a56617748", "current_trial": 66, "dateTime": 1693584249147, "trialdata": {"rt": 35903, "stimulus": "<h1>Completion Code Instructions (1/2)</h1>\n<br><br><br><br>\nYou have reached the end of the experiment! The completion code consists of two parts: (1) a code with 2 characters (2) a code with 6 characters. On this page, you will receive the second part of the code. The first part of the completion code will be on the next page.\n<br><br>\nThe second part of your completion code is: <b>EWEK22</b>\n<br><br>\nPlease note this down. Then, press 'Next' in order to find the first part of your completion code. Once the data has been saved, you will receive this code either in this window or in the original browser window where you started the experiment.\n <br><br>\n<h2 style='color: red;'>Note: this is <strong>NOT</strong> the full completion code. Copy this down and click 'Next' to get the full completion code on the next page.</h2>", "response": 0, "trial_type": "html-button-response", "trial_index": 66, "time_elapsed": 4145703, "internal_node_id": "0.0-6.0-7.0"}}, {"uniqueid": "w44425181:a56617748", "current_trial": 67, "dateTime": 1693584250382, "trialdata": {"success": true, "trial_type": "fullscreen", "trial_index": 67, "time_elapsed": 4146938, "internal_node_id": "0.0-7.0"}}], "questiondata": {"params": {"CODE": "C6DMOQA6", "MIN_TIME": 14, "inspectCost": 1, "startTime": "Fri Sep 01 2023 16:55:00 GMT+0200 (South Africa Standard Time)", "bonusRate": 0.002, "variance": "1_2_4_8_44", "branching": "31123"}, "final_score": -793.95}, "eventdata": [{"eventtype": "initialized", "value": null, "timestamp": 1693580099440, "interval": 0}, {"eventtype": "window_resize", "value": [1024, 654], "timestamp": 1693580099440, "interval": 0}, {"eventtype": "window_resize", "value": [1024, 654], "timestamp": 1693580100078, "interval": 638}, {"eventtype": "window_resize", "value": [1360, 768], "timestamp": 1693580108606, "interval": 8528}, {"eventtype": "focus", "value": "off", "timestamp": 1693581474493, "interval": 1365887}, {"eventtype": "window_resize", "value": [1360, 767], "timestamp": 1693581474766, "interval": 273}, {"eventtype": "focus", "value": "on", "timestamp": 1693581477108, "interval": 2342}, {"eventtype": "window_resize", "value": [1360, 768], "timestamp": 1693581477387, "interval": 279}, {"eventtype": "focus", "value": "off", "timestamp": 1693581653633, "interval": 176246}, {"eventtype": "window_resize", "value": [1360, 767], "timestamp": 1693581653839, "interval": 206}, {"eventtype": "focus", "value": "on", "timestamp": 1693581656380, "interval": 2541}, {"eventtype": "window_resize", "value": [1360, 768], "timestamp": 1693581656658, "interval": 278}, {"eventtype": "focus", "value": "off", "timestamp": 1693581828938, "interval": 172280}, {"eventtype": "focus", "value": "on", "timestamp": 1693581828940, "interval": 2}, {"eventtype": "window_resize", "value": [1024, 654], "timestamp": 1693581829241, "interval": 301}, {"eventtype": "window_resize", "value": [1360, 768], "timestamp": 1693581831192, "interval": 1951}, {"eventtype": "focus", "value": "off", "timestamp": 1693582127050, "interval": 295858}, {"eventtype": "focus", "value": "on", "timestamp": 1693582127051, "interval": 1}, {"eventtype": "window_resize", "value": [1024, 654], "timestamp": 1693582127334, "interval": 283}, {"eventtype": "window_resize", "value": [1360, 768], "timestamp": 1693582129064, "interval": 1730}], "useragent": "Mozilla/5.0 (Windows NT 10.0; Win64; x64) AppleWebKit/537.36 (KHTML, like Gecko) Chrome/116.0.0.0 Safari/537.36", "mode": "live", "id": "w44425181:a56617748", "status": "user data saved", "Beginhit": "2023-09-01 14:56:40.046169", "Beginexp": "2023-09-01 14:56:56.37507", "Endhit": "2023-09-01 16:06:00.062729", "psiturkStatus": 3, "browser": "<redacted>", "platform": "windows", "language": "en-US", "excludeReason": "exceededTime"}