{"condition": 1, "counterbalance": 0, "assignmentId": "a87137067", "workerId": "w61181804", "hitId": "h16599270", "currenttrial": 56, "bonus": 0, "data": [{"uniqueid": "w61181804:a87137067", "current_trial": 0, "dateTime": 1691142368467, "trialdata": {"success": true, "trial_type": "fullscreen", "trial_index": 0, "time_elapsed": 11286, "internal_node_id": "0.0-0.0"}}, {"uniqueid": "w61181804:a87137067", "current_trial": 1, "dateTime": 1691142462605, "trialdata": {"view_history": [{"page_index": 0, "viewing_time": 94108}], "rt": 94113, "trial_id": "exp_instructions_misaligned", "trial_type": "instructions", "trial_index": 1, "time_elapsed": 105426, "internal_node_id": "0.0-1.0"}}, {"uniqueid": "w61181804:a87137067", "current_trial": 2, "dateTime": 1691142469510, "trialdata": {"success": true, "trial_type": "fullscreen", "trial_index": 2, "time_elapsed": 112331, "internal_node_id": "0.0-2.0-0.0"}}, {"uniqueid": "w61181804:a87137067", "current_trial": 3, "dateTime": 1691142986614, "trialdata": {"view_history": [{"page_index": 0, "viewing_time": 213396}, {"page_index": 1, "viewing_time": 173631}, {"page_index": 2, "viewing_time": 39373}, {"page_index": 3, "viewing_time": 8640}, {"page_index": 2, "viewing_time": 5390}, {"page_index": 3, "viewing_time": 76664}], "rt": 517095, "trial_id": "mouselab_instructions_1_misaligned", "trial_type": "instructions", "trial_index": 3, "time_elapsed": 629435, "internal_node_id": "0.0-2.0-1.0"}}, {"uniqueid": "w61181804:a87137067", "current_trial": 4, "dateTime": 1691143100934, "trialdata": {"revealed_states": [], "clicked_states": ["6", "8", "10", "1", "3", "13", "19", "21", "25", "23", "24", "26"], "num_clicks_accrued": [0, 0, 0, 0, 0, 0, 0, 0, 0, 0, 0, 0, 0], "stateRewards": ["", -10, 10, -10, 10, 10, 10, -10, 10, 10, -10, 10, -10, 10, -10, 10, 10, -10, -10, 10, 10, -10, -10, -10, -10, -10, 10, 10, 10, 10, -10, -10, 10, 10], "withholdReward": false, "trial_id": "practice_1", "block": "test", "trialIndex": 0, "score": -12.5, "costs": -6, "simulationMode": [null, null, null, null, null], "rewards": [-10, -10, -10, 10, 10], "path": ["0", "0", "23", "24", "25", "26", "27"], "rt": [87049, 2483, 775, 922, 542], "actions": ["left", "left", "left", "up", "up"], "actionTimes": [98076, 101074, 102363, 103810, 104879], "queries": {"click": {"state": {"target": ["6", "8", "10", "1", "3", "13", "19", "21", "25", "23", "24", "26"], "time": [16173, 21565, 23985, 31010, 33314, 39275, 42637, 52280, 61978, 68934, 71039, 75136]}, "edge": {"target": [], "time": []}}, "mouseover": {"state": {"target": ["1", "2", "4", "6", "6", "4", "7", "1", "2", "8", "10", "28", "1", "28", "2", "7", "1", "2", "3", "4", "6", "13", "14", "19", "14", "19", "14", "19", "21", "22", "0", "23", "24", "25", "24", "23", "23", "24", "30", "24", "23", "24", "25", "26", "10", "17", "20", "19", "22", "12", "23", "0", "23", "24", "23", "23"], "time": [14053, 14380, 14600, 15083, 15482, 18233, 19098, 20493, 20598, 20898, 23014, 25063, 25837, 26926, 27135, 27296, 28063, 32483, 32728, 34443, 34848, 38588, 40809, 41820, 45279, 46980, 50639, 51285, 51687, 57168, 58014, 60221, 60656, 61243, 63931, 64195, 65115, 65278, 66161, 67427, 67735, 70076, 71711, 74404, 77008, 77074, 84808, 84842, 84922, 85440, 86056, 86138, 87031, 93457, 95434, 96551]}, "edge": {"target": [], "time": []}}, "mouseout": {"state": {"target": ["0", "1", "2", "4", "6", "6", "4", "7", "1", "2", "8", "10", "28", "1", "28", "10", "2", "7", "1", "2", "3", "4", "6", "13", "14", "19", "14", "19", "14", "19", "21", "22", "0", "23", "24", "25", "24", "23", "23", "24", "25", "30", "24", "23", "24", "25", "26", "10", "17", "20", "19", "22", "12", "23", "0", "23", "24", "23", "23"], "time": [13921, 14218, 14468, 15055, 15200, 18070, 18962, 19648, 20565, 20649, 22946, 24900, 25397, 26346, 27014, 27110, 27196, 27930, 32443, 32578, 34377, 34734, 37576, 40559, 41550, 45154, 46400, 49081, 51000, 51439, 57055, 57186, 58115, 60414, 61013, 63676, 64112, 64329, 65212, 65378, 65978, 67361, 67477, 69128, 71611, 73176, 76925, 77051, 77093, 84827, 84856, 84944, 85488, 86098, 86400, 93293, 93975, 95586, 97133]}, "edge": {"target": [], "time": []}}}, "displayed_time": "105.40", "trialTime": 113033, "trial_type": "mouselab-mdp", "trial_index": 4, "time_elapsed": 743753, "internal_node_id": "0.0-2.0-2.0-0.0"}}, {"uniqueid": "w61181804:a87137067", "current_trial": 5, "dateTime": 1691143163553, "trialdata": {"revealed_states": [], "clicked_states": ["13", "2", "24", "30", "19", "21", "28", "25", "23", "15", "4"], "num_clicks_accrued": [0, 0, 0, 0, 0, 0, 0, 0, 0, 0, 0, 0, 0], "stateRewards": ["", -10, 10, 10, -10, 10, 10, -10, -10, 10, -10, -10, 10, 10, -10, -10, 10, 10, 10, 10, -10, 10, -10, 10, -10, 10, 10, 10, -10, -10, 10, 10, 10, 10], "withholdReward": false, "trial_id": "practice_2", "block": "test", "trialIndex": 1, "score": 8, "costs": -5.5, "simulationMode": [null, null, null, null, null], "rewards": [10, -10, 10, 10, -10], "path": ["0", "0", "23", "24", "25", "26", "28"], "rt": [41005, 894, 899, 1406, 1332], "actions": ["left", "left", "left", "up", "right"], "actionTimes": [47707, 49127, 50546, 52470, 54327], "queries": {"click": {"state": {"target": ["13", "2", "24", "30", "19", "21", "28", "25", "23", "15", "4"], "time": [9062, 11168, 13390, 14860, 16752, 18326, 20474, 25677, 27733, 32854, 34716]}, "edge": {"target": [], "time": []}}, "mouseover": {"state": {"target": ["12", "13", "2", "23", "24", "30", "0", "22", "19", "21", "22", "28", "23", "24", "25", "23", "0", "12", "13", "13", "14", "15", "4", "7", "12", "0", "18", "20", "12"], "time": [8138, 8406, 10364, 12570, 12804, 14324, 15823, 16050, 16236, 17803, 19446, 19949, 23531, 23789, 24144, 27232, 29595, 29664, 30149, 30661, 32063, 32222, 34042, 35515, 35845, 36117, 42146, 45537, 46242]}, "edge": {"target": [], "time": []}}, "mouseout": {"state": {"target": ["1", "16", "14", "13", "12", "12", "13", "2", "23", "24", "30", "0", "22", "19", "21", "22", "28", "23", "24", "25", "23", "0", "12", "13", "13", "14", "15", "4", "7", "12", "0", "18", "20"], "time": [2745, 2770, 5000, 5028, 5435, 8257, 10184, 12353, 12604, 14088, 15733, 15842, 16189, 17659, 18525, 19483, 20658, 23664, 24010, 25855, 29547, 29615, 30097, 30264, 31963, 32097, 33767, 35467, 35599, 35996, 36163, 42195, 45986]}, "edge": {"target": [], "time": []}}}, "displayed_time": "54.84", "trialTime": 61993, "trial_type": "mouselab-mdp", "trial_index": 5, "time_elapsed": 806372, "internal_node_id": "0.0-2.0-2.0-1.0"}}, {"uniqueid": "w61181804:a87137067", "current_trial": 6, "dateTime": 1691143243469, "trialdata": {"view_history": [{"page_index": 0, "viewing_time": 60698}, {"page_index": 1, "viewing_time": 19203}], "rt": 79903, "trial_id": "mouselab_instructions_2_misaligned", "trial_type": "instructions", "trial_index": 6, "time_elapsed": 886290, "internal_node_id": "0.0-2.0-3.0"}}, {"uniqueid": "w61181804:a87137067", "current_trial": 7, "dateTime": 1691143325328, "trialdata": {"rt": 81830, "response": {"Q0": "The cost for clicking on nodes may vary between nodes.", "Q1": "The better I perform the higher my bonus will be.", "Q2": "No, the amount of cash at each node of the web may be different each time.", "Q3": "To get the highest total score.", "Q4": "Only before moving the spider.", "Q5": "3 seconds"}, "question_order": [0, 1, 2, 3, 4, 5], "correct": {"Q0": "The cost for clicking on nodes may vary between nodes.", "Q1": "The better I perform the higher my bonus will be.", "Q2": "No, the amount of cash at each node of the web may be different each time.", "Q3": "To get the highest total score.", "Q4": "Only before moving the spider.", "Q5": "3 seconds"}, "trial_id": "mouselab_quiz_misaligned", "trial_type": "survey-multi-choice", "trial_index": 7, "time_elapsed": 968149, "internal_node_id": "0.0-2.0-4.0"}}, {"uniqueid": "w61181804:a87137067", "current_trial": 8, "dateTime": 1691143357277, "trialdata": {"rt": 31915, "stimulus": "\n<h1> Get ready to start the game! </h1>\n\nThank you for reading the instructions. Get ready start with the 40 rounds of this game.\n<br><br>\nIf you need to take a break, feel free to take one after the end of a round, before continuing to the next one.\n<br><br>\nRemember, the more money the spider gets, the bigger your bonus will be!\n<br><br>\n<div style='text-align: center;'>Press <code>space</code> to begin.</div>\n\n<br><br>\n(If, at any point, the <code>space</code> key does not take you to the next page, click once on the text and try again.)", "response": " ", "trial_id": "mdp_ready", "trial_type": "html-keyboard-response", "trial_index": 8, "time_elapsed": 1000097, "internal_node_id": "0.0-4.0-0.0"}}, {"uniqueid": "w61181804:a87137067", "current_trial": 9, "dateTime": 1691143391230, "trialdata": {"revealed_states": [], "clicked_states": ["15", "14", "13", "12", "22"], "num_clicks_accrued": [0, 0, 0, 0, 0, 0, 0, 0, 0, 0, 0, 0, 0], "stateRewards": ["", -1, 1, 6, -6, 70, 66, 67, -16, -75, -35, 37, -1, 4, 4, -6, 47, -9, 63, 15, 21, -63, 13, 1, 3, -6, 10, 79, -29, 18, -15, 9, -67, -19], "withholdReward": false, "trial_id": "mdp_trial_1", "block": "test", "trialIndex": 2, "score": 30.25, "costs": -4.75, "simulationMode": [null, null, null, null, null, null], "rewards": [-1, 4, 4, 15, 13], "path": ["0", "0", "12", "13", "14", "19", "22"], "rt": [9342, 1873, 375, 339, 515, 408], "actions": ["right", "right", "right", "right", "down", "left"], "actionTimes": [16643, 18525, 19400, 20263, 21305, 22231], "queries": {"click": {"state": {"target": ["15", "14", "13", "12", "22"], "time": [9007, 10403, 11942, 13100, 14581]}, "edge": {"target": [], "time": []}}, "mouseover": {"state": {"target": ["18", "15", "14", "13", "12", "22"], "time": [8191, 8473, 9909, 11409, 12531, 14157]}, "edge": {"target": [], "time": []}}, "mouseout": {"state": {"target": ["20", "19", "12", "18", "15", "14", "13", "12", "22", "12"], "time": [5404, 5825, 5934, 8308, 9648, 11342, 12465, 14041, 14772, 15506]}, "edge": {"target": [], "time": []}}}, "displayed_time": "22.76", "trialTime": 33309, "trial_type": "mouselab-mdp", "trial_index": 9, "time_elapsed": 1034050, "internal_node_id": "0.0-4.0-1.0-0.0"}}, {"uniqueid": "w61181804:a87137067", "current_trial": 10, "dateTime": 1691143420771, "trialdata": {"revealed_states": [], "clicked_states": [], "num_clicks_accrued": [0, 0, 0, 0, 0, 0, 0, 0, 0, 0, 0, 0, 0], "stateRewards": ["", 1, 1, -3, 2, 22, -25, -11, -5, 50, 49, 3, 1, -1, 8, 14, -85, -30, 57, -6, -39, -16, 59, -2, -1, 5, 5, 59, -16, 8, 4, 67, 56, -9], "withholdReward": false, "trial_id": "mdp_trial_2", "block": "test", "trialIndex": 3, "score": -24, "costs": 0, "simulationMode": [null, null, null, null, null], "rewards": [1, 1, -3, 2, -25], "path": ["0", "0", "1", "2", "3", "4", "6"], "rt": [11036, 402, 813, 713, 426], "actions": ["up", "up", "up", "right", "right"], "actionTimes": [18195, 19124, 20449, 21690, 22632], "queries": {"click": {"state": {"target": [], "time": []}, "edge": {"target": [], "time": []}}, "mouseover": {"state": {"target": ["0", "23"], "time": [10262, 11441]}, "edge": {"target": [], "time": []}}, "mouseout": {"state": {"target": ["13", "12", "0", "0", "23", "0", "12", "13", "22"], "time": [5629, 5728, 9715, 11398, 12507, 27361, 27404, 27455, 27677]}, "edge": {"target": [], "time": []}}}, "displayed_time": "23.15", "trialTime": 28838, "trial_type": "mouselab-mdp", "trial_index": 10, "time_elapsed": 1063591, "internal_node_id": "0.0-4.0-1.0-1.0"}}, {"uniqueid": "w61181804:a87137067", "current_trial": 11, "dateTime": 1691143452181, "trialdata": {"revealed_states": [], "clicked_states": ["12", "13", "14", "15", "16"], "num_clicks_accrued": [0, 0, 0, 0, 0, 0, 0, 0, 0, 0, 0, 0, 0], "stateRewards": ["", 2, -1, -1, 7, 11, -40, -22, -2, 69, 37, 8, -2, 4, -8, -12, -2, -72, -3, -12, 17, 63, 12, 1, 3, -7, 6, 25, 61, 61, -9, 28, -17, 27], "withholdReward": false, "trial_id": "mdp_trial_3", "block": "test", "trialIndex": 4, "score": -24.75, "costs": -4.75, "simulationMode": [null, null, null, null, null, null], "rewards": [-2, 4, -8, -12, -2], "path": ["0", "0", "12", "13", "14", "15", "16"], "rt": [8326, 1481, 644, 347, 479, 430], "actions": ["right", "right", "right", "right", "up", "up"], "actionTimes": [20219, 21707, 22870, 23743, 24738, 25689], "queries": {"click": {"state": {"target": ["12", "13", "14", "15", "16"], "time": [13136, 14274, 15304, 16424, 17699]}, "edge": {"target": [], "time": []}}, "mouseover": {"state": {"target": ["0", "12", "12", "13", "14", "15", "16", "18"], "time": [12078, 12292, 12654, 13779, 14845, 15918, 17193, 19224]}, "edge": {"target": [], "time": []}}, "mouseout": {"state": {"target": ["0", "18", "17", "18", "0", "12", "12", "13", "14", "15", "16", "18"], "time": [4148, 4259, 9668, 10202, 12242, 12342, 13728, 14474, 15520, 16994, 19159, 19310]}, "edge": {"target": [], "time": []}}}, "displayed_time": "26.21", "trialTime": 30701, "trial_type": "mouselab-mdp", "trial_index": 11, "time_elapsed": 1095000, "internal_node_id": "0.0-4.0-1.0-2.0"}}, {"uniqueid": "w61181804:a87137067", "current_trial": 12, "dateTime": 1691143477407, "trialdata": {"revealed_states": [], "clicked_states": ["2", "3", "4", "6"], "num_clicks_accrued": [0, 0, 0, 0, 0, 0, 0, 0, 0, 0, 0, 0, 0], "stateRewards": ["", 1, 2, -5, 14, 54, -14, -25, 16, -5, -87, 78, -1, 1, 3, -3, 52, 53, 53, -10, 73, -69, -48, 2, 3, 1, 8, -62, -7, 85, 7, 82, 52, -28], "withholdReward": false, "trial_id": "mdp_trial_4", "block": "test", "trialIndex": 5, "score": -7, "costs": -5, "simulationMode": [null, null, null, null, null], "rewards": [1, 2, -5, 14, -14], "path": ["0", "0", "1", "2", "3", "4", "6"], "rt": [9388, 443, 524, 644, 385], "actions": ["up", "up", "up", "right", "right"], "actionTimes": [13338, 14302, 15348, 16518, 17424], "queries": {"click": {"state": {"target": ["2", "3", "4", "6"], "time": [5735, 7211, 8741, 10331]}, "edge": {"target": [], "time": []}}, "mouseover": {"state": {"target": ["1", "2", "3", "4", "6"], "time": [4790, 4873, 6712, 8339, 9923]}, "edge": {"target": [], "time": []}}, "mouseout": {"state": {"target": ["12", "1", "2", "3", "4"], "time": [2739, 4829, 5915, 8025, 9608]}, "edge": {"target": [], "time": []}}}, "displayed_time": "17.95", "trialTime": 24416, "trial_type": "mouselab-mdp", "trial_index": 12, "time_elapsed": 1120226, "internal_node_id": "0.0-4.0-1.0-3.0"}}, {"uniqueid": "w61181804:a87137067", "current_trial": 13, "dateTime": 1691143504515, "trialdata": {"revealed_states": [], "clicked_states": ["23", "24", "25", "30", "32"], "num_clicks_accrued": [0, 0, 0, 0, 0, 0, 0, 0, 0, 0, 0, 0, 0], "stateRewards": ["", -2, -3, -5, 8, 27, 11, 43, -6, -24, -87, 69, -2, 1, 1, 9, 19, 48, -37, 9, -14, 45, 62, 1, 2, 1, 16, -81, -41, 22, 4, -6, -63, 47], "withholdReward": false, "trial_id": "mdp_trial_5", "block": "test", "trialIndex": 6, "score": -59.75, "costs": -4.75, "simulationMode": [null, null, null, null, null], "rewards": [1, 2, 1, 4, -63], "path": ["0", "0", "23", "24", "25", "30", "32"], "rt": [11834, 295, 498, 592, 377], "actions": ["left", "left", "left", "down", "down"], "actionTimes": [15900, 16719, 17739, 18848, 19750], "queries": {"click": {"state": {"target": ["23", "24", "25", "30", "32"], "time": [5509, 6657, 7965, 9073, 11474]}, "edge": {"target": [], "time": []}}, "mouseover": {"state": {"target": ["0", "23", "24", "25", "30", "32"], "time": [4711, 4873, 6159, 7359, 8613, 11119]}, "edge": {"target": [], "time": []}}, "mouseout": {"state": {"target": ["6", "2", "1", "0", "23", "24", "25", "25", "30"], "time": [2363, 2455, 2953, 4746, 6027, 6864, 8164, 8499, 9745]}, "edge": {"target": [], "time": []}}}, "displayed_time": "20.27", "trialTime": 26200, "trial_type": "mouselab-mdp", "trial_index": 13, "time_elapsed": 1147335, "internal_node_id": "0.0-4.0-1.0-4.0"}}, {"uniqueid": "w61181804:a87137067", "current_trial": 14, "dateTime": 1691143526841, "trialdata": {"revealed_states": [], "clicked_states": [], "num_clicks_accrued": [0, 0, 0, 0, 0, 0, 0, 0, 0, 0, 0, 0, 0], "stateRewards": ["", 1, 2, -8, 9, 18, -83, -11, 6, -64, -48, 17, -2, -2, -5, -3, -24, -3, -86, -2, 48, -41, -22, -2, 4, 7, 8, 81, 13, -48, 10, 61, 19, 57], "withholdReward": false, "trial_id": "mdp_trial_6", "block": "test", "trialIndex": 7, "score": -36, "costs": 0, "simulationMode": [null, null, null, null, null], "rewards": [-2, -2, -5, -3, -24], "path": ["0", "0", "12", "13", "14", "15", "16"], "rt": [1423, 360, 458, 770, 573], "actions": ["right", "right", "right", "up", "up"], "actionTimes": [5592, 6473, 7452, 8748, 9832], "queries": {"click": {"state": {"target": [], "time": []}, "edge": {"target": [], "time": []}}, "mouseover": {"state": {"target": [], "time": []}, "edge": {"target": [], "time": []}}, "mouseout": {"state": {"target": ["32", "30", "24", "23", "0", "13", "14", "15", "13", "13", "17"], "time": [2019, 2122, 2272, 2390, 13854, 14554, 15270, 16160, 17221, 17352, 17421]}, "edge": {"target": [], "time": []}}}, "displayed_time": "18.18", "trialTime": 21439, "trial_type": "mouselab-mdp", "trial_index": 14, "time_elapsed": 1169661, "internal_node_id": "0.0-4.0-1.0-5.0"}}, {"uniqueid": "w61181804:a87137067", "current_trial": 15, "dateTime": 1691143554771, "trialdata": {"revealed_states": [], "clicked_states": ["12", "13", "14", "19", "20"], "num_clicks_accrued": [0, 0, 0, 0, 0, 0, 0, 0, 0, 0, 0, 0, 0], "stateRewards": ["", 2, 3, 8, 11, 25, -80, 6, -4, -56, 84, -23, -2, -4, -3, 4, -51, -9, -61, -15, -64, 67, -35, 1, -1, -7, -6, 83, 59, -15, 12, -79, 56, 41], "withholdReward": false, "trial_id": "mdp_trial_7", "block": "test", "trialIndex": 8, "score": -63.75, "costs": -4.75, "simulationMode": [null, null, null, null, null], "rewards": [-2, -4, -3, -15, -35], "path": ["0", "0", "12", "13", "14", "19", "22"], "rt": [9850, 437, 384, 649, 833], "actions": ["right", "right", "right", "down", "left"], "actionTimes": [13731, 14725, 15628, 18917, 20277], "queries": {"click": {"state": {"target": ["12", "13", "14", "19", "20"], "time": [5225, 6468, 7685, 8855, 9955]}, "edge": {"target": [], "time": []}}, "mouseover": {"state": {"target": ["12", "13", "14", "19", "20", "22"], "time": [4676, 5961, 7116, 8340, 9428, 12080]}, "edge": {"target": [], "time": []}}, "mouseout": {"state": {"target": ["13", "12", "12", "13", "14", "19", "20", "22"], "time": [2242, 2328, 5845, 7045, 8290, 9361, 10170, 12151]}, "edge": {"target": [], "time": []}}}, "displayed_time": "20.79", "trialTime": 26972, "trial_type": "mouselab-mdp", "trial_index": 15, "time_elapsed": 1197589, "internal_node_id": "0.0-4.0-1.0-6.0"}}, {"uniqueid": "w61181804:a87137067", "current_trial": 16, "dateTime": 1691143603312, "trialdata": {"revealed_states": [], "clicked_states": ["1", "2", "3", "8", "10"], "num_clicks_accrued": [0, 0, 0, 0, 0, 0, 0, 0, 0, 0, 0, 0, 0], "stateRewards": ["", 2, 1, -3, 7, 46, 11, -36, 16, 71, 5, 1, 2, -2, -8, -3, -4, 6, 55, 7, 68, -54, 2, 1, 1, 6, -6, 42, -4, -84, -11, -65, 63, 25], "withholdReward": false, "trial_id": "mdp_trial_8", "block": "test", "trialIndex": 9, "score": 16.25, "costs": -4.75, "simulationMode": [null, null, null, null, null], "rewards": [2, 1, -3, 16, 5], "path": ["0", "0", "1", "2", "3", "8", "10"], "rt": [9618, 279, 250, 473, 522], "actions": ["up", "up", "up", "left", "down"], "actionTimes": [34795, 35602, 36370, 37358, 38409], "queries": {"click": {"state": {"target": ["1", "2", "3", "8", "10"], "time": [26606, 27685, 28822, 29869, 30964]}, "edge": {"target": [], "time": []}}, "mouseover": {"state": {"target": ["1", "2", "3", "8", "10"], "time": [26087, 27231, 28327, 29380, 30566]}, "edge": {"target": [], "time": []}}, "mouseout": {"state": {"target": ["0", "1", "2", "3", "8", "10", "10"], "time": [1374, 26784, 28257, 29289, 30434, 31183, 33019]}, "edge": {"target": [], "time": []}}}, "displayed_time": "39.18", "trialTime": 47624, "trial_type": "mouselab-mdp", "trial_index": 16, "time_elapsed": 1246131, "internal_node_id": "0.0-4.0-1.0-7.0"}}, {"uniqueid": "w61181804:a87137067", "current_trial": 17, "dateTime": 1691143628632, "trialdata": {"revealed_states": [], "clicked_states": ["23", "24", "25", "30", "32"], "num_clicks_accrued": [0, 0, 0, 0, 0, 0, 0, 0, 0, 0, 0, 0, 0], "stateRewards": ["", 2, -1, -2, -5, -47, -57, -33, -11, 31, -18, -72, -2, 1, -4, -8, -46, -53, -50, 15, -85, -9, 39, -2, -2, 1, 14, -1, -8, 53, -12, -41, -74, 62], "withholdReward": false, "trial_id": "mdp_trial_9", "block": "test", "trialIndex": 10, "score": 5.25, "costs": -4.75, "simulationMode": [null, null, null, null, null, null], "rewards": [-2, -2, 1, 14, -1], "path": ["0", "0", "23", "24", "25", "26", "27"], "rt": [10015, 3249, 417, 392, 780, 462], "actions": ["left", "left", "left", "left", "up", "up"], "actionTimes": [12588, 15844, 16779, 17686, 18990, 19971], "queries": {"click": {"state": {"target": ["23", "24", "25", "30", "32"], "time": [4677, 6413, 7680, 8997, 10118]}, "edge": {"target": [], "time": []}}, "mouseover": {"state": {"target": ["23", "24", "25", "30", "32"], "time": [3676, 5463, 7187, 8533, 9771]}, "edge": {"target": [], "time": []}}, "mouseout": {"state": {"target": ["23", "23", "24", "25", "25", "30", "32"], "time": [1352, 5216, 7029, 7871, 8429, 9649, 10341]}, "edge": {"target": [], "time": []}}}, "displayed_time": "20.49", "trialTime": 24309, "trial_type": "mouselab-mdp", "trial_index": 17, "time_elapsed": 1271451, "internal_node_id": "0.0-4.0-1.0-8.0"}}, {"uniqueid": "w61181804:a87137067", "current_trial": 18, "dateTime": 1691143663853, "trialdata": {"revealed_states": [], "clicked_states": ["1", "2", "3", "8"], "num_clicks_accrued": [0, 0, 0, 0, 0, 0, 0, 0, 0, 0, 0, 0, 0], "stateRewards": ["", -1, -3, -7, -7, -76, 30, -49, 11, -70, 56, 2, 1, 4, -3, -14, -59, -83, -25, -9, -21, -67, -73, -2, 4, 4, -9, -11, -32, 60, 9, -87, 22, -64], "withholdReward": false, "trial_id": "mdp_trial_10", "block": "test", "trialIndex": 11, "score": 53.4, "costs": -2.5999999999999996, "simulationMode": [null, null, null, null, null], "rewards": [-1, -3, -7, 11, 56], "path": ["0", "0", "1", "2", "3", "8", "10"], "rt": [7792, 283, 333, 724, 1023], "actions": ["up", "up", "up", "left", "down"], "actionTimes": [24066, 24885, 25742, 26986, 28531], "queries": {"click": {"state": {"target": ["1", "2", "3", "8"], "time": [17951, 19178, 20520, 21579]}, "edge": {"target": [], "time": []}}, "mouseover": {"state": {"target": ["1", "2", "3", "8"], "time": [17424, 18682, 19885, 21128]}, "edge": {"target": [], "time": []}}, "mouseout": {"state": {"target": ["0", "0", "0", "1", "2", "3"], "time": [5483, 11919, 17214, 18528, 19726, 21000]}, "edge": {"target": [], "time": []}}}, "displayed_time": "30.29", "trialTime": 34210, "trial_type": "mouselab-mdp", "trial_index": 18, "time_elapsed": 1306673, "internal_node_id": "0.0-4.0-1.0-9.0"}}, {"uniqueid": "w61181804:a87137067", "current_trial": 19, "dateTime": 1691143689518, "trialdata": {"revealed_states": [], "clicked_states": ["1", "2", "3", "4", "7"], "num_clicks_accrued": [0, 0, 0, 0, 0, 0, 0, 0, 0, 0, 0, 0, 0], "stateRewards": ["", 2, 3, 8, 14, 69, -27, 17, 2, -71, -65, -10, 2, -3, 7, 8, 65, -10, 65, -12, 73, -12, 13, -2, -2, 6, 10, -79, -69, -18, 10, -85, 67, 74], "withholdReward": false, "trial_id": "mdp_trial_11", "block": "test", "trialIndex": 12, "score": 39.25, "costs": -4.75, "simulationMode": [null, null, null, null, null], "rewards": [2, 3, 8, 14, 17], "path": ["0", "0", "1", "2", "3", "4", "7"], "rt": [9243, 385, 371, 536, 562], "actions": ["up", "up", "up", "right", "down"], "actionTimes": [15803, 16710, 17595, 18643, 19719], "queries": {"click": {"state": {"target": ["1", "2", "3", "4", "7"], "time": [8206, 9348, 10469, 11534, 12926]}, "edge": {"target": [], "time": []}}, "mouseover": {"state": {"target": ["1", "2", "3", "4", "7"], "time": [7455, 8820, 9944, 11069, 12472]}, "edge": {"target": [], "time": []}}, "mouseout": {"state": {"target": ["8", "9", "1", "1", "2", "3", "4", "4", "7"], "time": [3152, 3522, 4888, 8726, 9917, 11010, 11753, 12359, 13118]}, "edge": {"target": [], "time": []}}}, "displayed_time": "20.57", "trialTime": 24549, "trial_type": "mouselab-mdp", "trial_index": 19, "time_elapsed": 1332337, "internal_node_id": "0.0-4.0-1.0-10.0"}}, {"uniqueid": "w61181804:a87137067", "current_trial": 20, "dateTime": 1691143712249, "trialdata": {"revealed_states": [], "clicked_states": ["12", "13", "14", "15", "17"], "num_clicks_accrued": [0, 0, 0, 0, 0, 0, 0, 0, 0, 0, 0, 0, 0], "stateRewards": ["", -1, 4, -6, -5, -22, -38, -38, -2, -56, 88, 14, -1, -1, -7, -6, 61, -60, 21, 11, 57, 31, -30, -2, -2, 6, -9, -44, -70, -44, -15, 34, 16, -78], "withholdReward": false, "trial_id": "mdp_trial_12", "block": "test", "trialIndex": 13, "score": 78.25, "costs": -4.75, "simulationMode": [null, null, null, null, null], "rewards": [-1, 4, -6, -2, 88], "path": ["0", "0", "1", "2", "3", "8", "10"], "rt": [9520, 319, 375, 551, 707], "actions": ["up", "up", "up", "left", "down"], "actionTimes": [12606, 13439, 14327, 15407, 16643], "queries": {"click": {"state": {"target": ["12", "13", "14", "15", "17"], "time": [5015, 6041, 7071, 8254, 9578]}, "edge": {"target": [], "time": []}}, "mouseover": {"state": {"target": ["12", "13", "14", "15", "17", "12", "0"], "time": [4263, 5588, 6593, 7739, 9101, 11115, 11334]}, "edge": {"target": [], "time": []}}, "mouseout": {"state": {"target": ["7", "1", "12", "13", "14", "15", "17", "15", "12"], "time": [1514, 1817, 5524, 6536, 7653, 8955, 9787, 10955, 11265]}, "edge": {"target": [], "time": []}}}, "displayed_time": "17.17", "trialTime": 21649, "trial_type": "mouselab-mdp", "trial_index": 20, "time_elapsed": 1355067, "internal_node_id": "0.0-4.0-1.0-11.0"}}, {"uniqueid": "w61181804:a87137067", "current_trial": 21, "dateTime": 1691143740585, "trialdata": {"revealed_states": [], "clicked_states": [], "num_clicks_accrued": [0, 0, 0, 0, 0, 0, 0, 0, 0, 0, 0, 0, 0], "stateRewards": ["", -1, 2, -6, 6, 43, 78, 78, -2, 55, -29, -17, -2, -4, 1, -15, 13, 7, -79, 8, -28, -68, 36, -1, -3, 3, -16, 84, -18, 87, 10, 32, 13, -81], "withholdReward": false, "trial_id": "mdp_trial_13", "block": "test", "trialIndex": 14, "score": 67, "costs": 0, "simulationMode": [null, null, null, null, null], "rewards": [-1, -3, 3, -16, 84], "path": ["0", "0", "23", "24", "25", "26", "27"], "rt": [1604, 5667, 613, 1089, 3857], "actions": ["left", "left", "left", "up", "up"], "actionTimes": [10155, 16384, 17516, 19156, 23541], "queries": {"click": {"state": {"target": [], "time": []}, "edge": {"target": [], "time": []}}, "mouseover": {"state": {"target": [], "time": []}, "edge": {"target": [], "time": []}}, "mouseout": {"state": {"target": ["0", "0", "1"], "time": [2735, 11718, 15203]}, "edge": {"target": [], "time": []}}}, "displayed_time": "24.06", "trialTime": 27378, "trial_type": "mouselab-mdp", "trial_index": 21, "time_elapsed": 1383404, "internal_node_id": "0.0-4.0-1.0-12.0"}}, {"uniqueid": "w61181804:a87137067", "current_trial": 22, "dateTime": 1691143771643, "trialdata": {"revealed_states": [], "clicked_states": ["23", "25", "26", "27", "28", "12", "13", "14"], "num_clicks_accrued": [0, 0, 0, 0, 0, 0, 0, 0, 0, 0, 0, 0, 0], "stateRewards": ["", 2, 4, 4, -8, -36, -33, 38, 16, -51, 57, 57, 1, 3, 4, -6, 45, 68, 87, 1, 63, 24, -55, -2, 2, -6, -13, -63, -50, 8, 2, 80, 6, 60], "withholdReward": false, "trial_id": "mdp_trial_14", "block": "test", "trialIndex": 15, "score": 25.4, "costs": -7.6000000000000005, "simulationMode": [null, null, null, null, null], "rewards": [1, 3, 4, 1, 24], "path": ["0", "0", "12", "13", "14", "19", "21"], "rt": [18187, 378, 386, 735, 449], "actions": ["right", "right", "right", "down", "down"], "actionTimes": [21715, 22613, 23519, 24767, 25731], "queries": {"click": {"state": {"target": ["23", "25", "26", "27", "28", "12", "13", "14"], "time": [5495, 6875, 8113, 9213, 12858, 16333, 17496, 18748]}, "edge": {"target": [], "time": []}}, "mouseover": {"state": {"target": ["23", "24", "23", "24", "25", "26", "27", "28", "24", "23", "0", "12", "13", "14"], "time": [4418, 4625, 4953, 6064, 6398, 7681, 8788, 9879, 13659, 14951, 15022, 15105, 16998, 18270]}, "edge": {"target": [], "time": []}}, "mouseout": {"state": {"target": ["0", "23", "24", "23", "24", "25", "26", "27", "28", "24", "23", "0", "12", "13"], "time": [1857, 4521, 4917, 5713, 6247, 7502, 8616, 9784, 13535, 14888, 14977, 15044, 16901, 17694]}, "edge": {"target": [], "time": []}}}, "displayed_time": "26.28", "trialTime": 29614, "trial_type": "mouselab-mdp", "trial_index": 22, "time_elapsed": 1414462, "internal_node_id": "0.0-4.0-1.0-13.0"}}, {"uniqueid": "w61181804:a87137067", "current_trial": 23, "dateTime": 1691143797928, "trialdata": {"revealed_states": [], "clicked_states": ["1", "12", "13", "23", "2", "24", "3", "8", "4"], "num_clicks_accrued": [0, 0, 0, 0, 0, 0, 0, 0, 0, 0, 0, 0, 0], "stateRewards": ["", 2, 4, -6, -13, -75, -81, 30, 7, 5, 59, -65, -1, -1, 7, 14, -38, 36, -41, 1, -54, -5, 64, 2, -1, 5, 6, -19, 79, 11, 16, -33, -50, 58], "withholdReward": false, "trial_id": "mdp_trial_15", "block": "test", "trialIndex": 16, "score": 61.65, "costs": -4.35, "simulationMode": [null, null, null, null, null], "rewards": [2, 4, -6, 7, 59], "path": ["0", "0", "1", "2", "3", "8", "10"], "rt": [14493, 492, 390, 550, 568], "actions": ["up", "up", "up", "left", "down"], "actionTimes": [18570, 19585, 20500, 21575, 22660], "queries": {"click": {"state": {"target": ["1", "12", "13", "23", "2", "24", "3", "8", "4"], "time": [5488, 6849, 8075, 9378, 10683, 12243, 13775, 14967, 16203]}, "edge": {"target": [], "time": []}}, "mouseover": {"state": {"target": ["1", "12", "13", "23", "2", "24", "3", "8", "4"], "time": [4877, 6394, 7566, 8719, 10081, 11625, 13199, 14380, 15568]}, "edge": {"target": [], "time": []}}, "mouseout": {"state": {"target": ["14", "13", "12", "0", "1", "12", "13", "23", "2", "24", "3", "8", "3", "4"], "time": [1971, 2004, 2071, 4773, 5673, 7460, 8543, 9585, 11378, 12994, 14318, 15446, 15490, 16395]}, "edge": {"target": [], "time": []}}}, "displayed_time": "23.17", "trialTime": 25046, "trial_type": "mouselab-mdp", "trial_index": 23, "time_elapsed": 1440747, "internal_node_id": "0.0-4.0-1.0-14.0"}}, {"uniqueid": "w61181804:a87137067", "current_trial": 24, "dateTime": 1691143825817, "trialdata": {"revealed_states": [], "clicked_states": ["23", "28", "25", "30", "26", "24"], "num_clicks_accrued": [0, 0, 0, 0, 0, 0, 0, 0, 0, 0, 0, 0, 0], "stateRewards": ["", -1, 1, -5, -6, -78, 47, -13, 12, 48, -88, 20, 2, -3, -2, 13, -20, 37, -57, 14, -38, 30, 31, -2, -2, 8, 2, -23, 78, 28, 12, -74, -88, 8], "withholdReward": false, "trial_id": "mdp_trial_16", "block": "test", "trialIndex": 17, "score": 77.7, "costs": -6.299999999999999, "simulationMode": [null, null, null, null, null], "rewards": [-2, -2, 8, 2, 78], "path": ["0", "0", "23", "24", "25", "26", "28"], "rt": [13129, 553, 468, 775, 772], "actions": ["left", "left", "left", "up", "right"], "actionTimes": [19038, 20120, 21133, 22430, 23718], "queries": {"click": {"state": {"target": ["23", "28", "25", "30", "26", "24"], "time": [7519, 8752, 11908, 13230, 14804, 16567]}, "edge": {"target": [], "time": []}}, "mouseover": {"state": {"target": ["23", "28", "25", "30", "26", "28", "24", "0"], "time": [7029, 8239, 9269, 12736, 14092, 15753, 16095, 17406]}, "edge": {"target": [], "time": []}}, "mouseout": {"state": {"target": ["4", "4", "1", "23", "28", "25", "25", "30", "25", "26", "28", "24", "0"], "time": [2680, 4013, 4633, 8027, 9228, 12096, 12655, 13412, 13835, 14996, 15816, 17287, 17430]}, "edge": {"target": [], "time": []}}}, "displayed_time": "24.23", "trialTime": 26517, "trial_type": "mouselab-mdp", "trial_index": 24, "time_elapsed": 1468636, "internal_node_id": "0.0-4.0-1.0-15.0"}}, {"uniqueid": "w61181804:a87137067", "current_trial": 25, "dateTime": 1691143855522, "trialdata": {"revealed_states": [], "clicked_states": ["1", "2", "12", "13", "14", "23", "24", "31"], "num_clicks_accrued": [0, 0, 0, 0, 0, 0, 0, 0, 0, 0, 0, 0, 0], "stateRewards": ["", -2, -1, 3, -3, 71, -58, -21, 7, -10, -75, -37, 2, 4, -1, -12, -79, -29, -48, 3, -41, -10, -30, -1, -2, 1, -15, 13, 66, 22, -1, -42, -86, -55], "withholdReward": false, "trial_id": "mdp_trial_17", "block": "test", "trialIndex": 18, "score": -25.4, "costs": -3.4, "simulationMode": [null, null, null, null, null], "rewards": [2, 4, -1, 3, -30], "path": ["0", "0", "12", "13", "14", "19", "22"], "rt": [14223, 303, 383, 1045, 999], "actions": ["right", "right", "right", "down", "left"], "actionTimes": [19559, 20377, 21272, 22838, 24354], "queries": {"click": {"state": {"target": ["1", "2", "12", "13", "14", "23", "24", "31"], "time": [6744, 8190, 9827, 10976, 12228, 13877, 15050, 16085]}, "edge": {"target": [], "time": []}}, "mouseover": {"state": {"target": ["1", "2", "12", "12", "13", "14", "12", "23", "24", "31", "25"], "time": [6175, 7699, 8884, 9205, 10420, 11679, 12993, 13386, 14409, 15712, 16707]}, "edge": {"target": [], "time": []}}, "mouseout": {"state": {"target": ["0", "1", "2", "12", "12", "13", "14", "13", "12", "23", "24", "24", "31", "25"], "time": [4386, 7539, 8742, 8962, 10324, 11439, 12424, 12958, 13059, 14070, 15236, 15595, 16588, 17791]}, "edge": {"target": [], "time": []}}}, "displayed_time": "24.87", "trialTime": 28689, "trial_type": "mouselab-mdp", "trial_index": 25, "time_elapsed": 1498341, "internal_node_id": "0.0-4.0-1.0-16.0"}}, {"uniqueid": "w61181804:a87137067", "current_trial": 26, "dateTime": 1691143882423, "trialdata": {"revealed_states": [], "clicked_states": ["1", "2", "3", "12", "23", "13", "14", "24"], "num_clicks_accrued": [0, 0, 0, 0, 0, 0, 0, 0, 0, 0, 0, 0, 0], "stateRewards": ["", 2, 3, -1, 16, -78, -11, 46, 2, -20, 79, -67, 2, 3, 2, 11, -83, -42, -58, -11, -67, -22, 55, 2, -1, -1, -16, -83, -82, 23, -11, -29, 13, 13], "withholdReward": false, "trial_id": "mdp_trial_18", "block": "test", "trialIndex": 19, "score": -67.2, "costs": -2.1999999999999997, "simulationMode": [null, null, null, null, null], "rewards": [2, 3, 2, 11, -83], "path": ["0", "0", "12", "13", "14", "15", "16"], "rt": [13009, 342, 363, 741, 1068], "actions": ["right", "right", "right", "up", "up"], "actionTimes": [16568, 17432, 18285, 19546, 21124], "queries": {"click": {"state": {"target": ["1", "2", "3", "12", "23", "13", "14", "24"], "time": [4850, 6078, 7508, 8755, 10285, 11740, 12812, 14403]}, "edge": {"target": [], "time": []}}, "mouseover": {"state": {"target": ["1", "2", "3", "12", "23", "13", "14", "23", "24"], "time": [4340, 5569, 6918, 8315, 9589, 11104, 12333, 13555, 13920]}, "edge": {"target": [], "time": []}}, "mouseout": {"state": {"target": ["1", "2", "3", "12", "23", "13", "14", "23", "24"], "time": [5378, 6663, 8005, 8950, 10471, 11934, 13022, 13617, 14604]}, "edge": {"target": [], "time": []}}}, "displayed_time": "21.64", "trialTime": 25649, "trial_type": "mouselab-mdp", "trial_index": 26, "time_elapsed": 1525242, "internal_node_id": "0.0-4.0-1.0-17.0"}}, {"uniqueid": "w61181804:a87137067", "current_trial": 27, "dateTime": 1691143907093, "trialdata": {"revealed_states": [], "clicked_states": ["23", "24", "25", "30", "31", "33"], "num_clicks_accrued": [0, 0, 0, 0, 0, 0, 0, 0, 0, 0, 0, 0, 0], "stateRewards": ["", 2, 3, -2, -8, -8, -41, 74, 15, -23, -80, 1, 1, 3, 3, -15, -63, -78, 67, 13, 75, -41, 86, 2, -2, 6, -3, -8, -49, 50, -6, 83, 74, 80], "withholdReward": false, "trial_id": "mdp_trial_19", "block": "test", "trialIndex": 20, "score": 76.1, "costs": -6.9, "simulationMode": [null, null, null, null, null], "rewards": [2, -2, 6, -6, 83], "path": ["0", "0", "23", "24", "25", "30", "31"], "rt": [12706, 324, 427, 732, 470], "actions": ["left", "left", "left", "down", "right"], "actionTimes": [15461, 16307, 17259, 18508, 19499], "queries": {"click": {"state": {"target": ["23", "24", "25", "30", "31", "33"], "time": [4403, 5725, 7016, 8052, 9447, 12498]}, "edge": {"target": [], "time": []}}, "mouseover": {"state": {"target": ["23", "24", "25", "30", "31", "33"], "time": [3847, 5259, 6337, 7600, 9019, 10645]}, "edge": {"target": [], "time": []}}, "mouseout": {"state": {"target": ["23", "24", "25", "30", "31", "30", "33", "31"], "time": [5115, 6251, 7472, 8938, 10254, 10405, 13450, 13788]}, "edge": {"target": [], "time": []}}}, "displayed_time": "20.01", "trialTime": 23037, "trial_type": "mouselab-mdp", "trial_index": 27, "time_elapsed": 1549913, "internal_node_id": "0.0-4.0-1.0-18.0"}}, {"uniqueid": "w61181804:a87137067", "current_trial": 28, "dateTime": 1691143953438, "trialdata": {"revealed_states": [], "clicked_states": ["23", "24", "25", "30", "31", "12", "13"], "num_clicks_accrued": [0, 0, 0, 0, 0, 0, 0, 0, 0, 0, 0, 0, 0], "stateRewards": ["", 1, 1, -5, 10, -31, 73, 14, -8, -23, 63, -70, -1, 2, 8, 7, 25, -59, 27, -10, -40, -71, -15, -2, 3, -8, -5, -19, 77, -34, 7, 67, 63, 19], "withholdReward": false, "trial_id": "mdp_trial_20", "block": "test", "trialIndex": 21, "score": 62.15, "costs": -4.85, "simulationMode": [null, null, null, null, null], "rewards": [-2, 3, -8, 7, 67], "path": ["0", "0", "23", "24", "25", "30", "31"], "rt": [14652, 225, 580, 934, 596], "actions": ["left", "left", "left", "down", "right"], "actionTimes": [18598, 19410, 20502, 21988, 23126], "queries": {"click": {"state": {"target": ["23", "24", "25", "30", "31", "12", "13"], "time": [5410, 6885, 8035, 9141, 10239, 14594, 16086]}, "edge": {"target": [], "time": []}}, "mouseover": {"state": {"target": ["23", "24", "25", "30", "31", "1", "12", "13"], "time": [4867, 6418, 7551, 8700, 9797, 11383, 13986, 15633]}, "edge": {"target": [], "time": []}}, "mouseout": {"state": {"target": ["0", "23", "24", "25", "30", "31", "1", "12", "13", "13", "22", "19", "21"], "time": [4764, 6220, 7406, 8601, 9326, 10817, 13678, 15553, 16260, 17499, 43970, 44103, 44269]}, "edge": {"target": [], "time": []}}}, "displayed_time": "23.66", "trialTime": 45142, "trial_type": "mouselab-mdp", "trial_index": 28, "time_elapsed": 1596258, "internal_node_id": "0.0-4.0-1.0-19.0"}}, {"uniqueid": "w61181804:a87137067", "current_trial": 29, "dateTime": 1691143980107, "trialdata": {"revealed_states": [], "clicked_states": ["1", "2", "12", "13", "14", "19", "23", "24"], "num_clicks_accrued": [0, 0, 0, 0, 0, 0, 0, 0, 0, 0, 0, 0, 0], "stateRewards": ["", -1, 3, 1, -7, 56, 76, 57, 3, 11, -9, 14, 1, -2, 2, 8, -77, -3, 79, -5, 88, 24, -66, -2, -1, 7, -7, -30, 14, -76, 11, -36, 28, -6], "withholdReward": false, "trial_id": "mdp_trial_21", "block": "test", "trialIndex": 22, "score": -5.800000000000001, "costs": -2.8000000000000003, "simulationMode": [null, null, null, null, null], "rewards": [-1, 3, 1, 3, -9], "path": ["0", "0", "1", "2", "3", "8", "10"], "rt": [13972, 191, 277, 814, 780], "actions": ["up", "up", "up", "left", "down"], "actionTimes": [16749, 17467, 18286, 19614, 20938], "queries": {"click": {"state": {"target": ["1", "2", "12", "13", "14", "19", "23", "24"], "time": [4217, 5746, 7218, 9156, 10316, 11395, 12850, 13875]}, "edge": {"target": [], "time": []}}, "mouseover": {"state": {"target": ["1", "2", "12", "13", "14", "19", "12", "23", "24", "1", "0"], "time": [3696, 5280, 6457, 8721, 9926, 11022, 11915, 12443, 13472, 14555, 15660]}, "edge": {"target": [], "time": []}}, "mouseout": {"state": {"target": ["0", "1", "2", "2", "12", "13", "14", "19", "13", "12", "23", "24", "1", "0"], "time": [3623, 5217, 5942, 6298, 7661, 9356, 10844, 11825, 11890, 11943, 13034, 14407, 15621, 15687]}, "edge": {"target": [], "time": []}}}, "displayed_time": "21.46", "trialTime": 25309, "trial_type": "mouselab-mdp", "trial_index": 29, "time_elapsed": 1622928, "internal_node_id": "0.0-4.0-1.0-20.0"}}, {"uniqueid": "w61181804:a87137067", "current_trial": 30, "dateTime": 1691144005616, "trialdata": {"revealed_states": [], "clicked_states": ["23", "24", "25", "26", "28", "27"], "num_clicks_accrued": [0, 0, 0, 0, 0, 0, 0, 0, 0, 0, 0, 0, 0], "stateRewards": ["", 1, 4, -4, 14, 35, 51, 19, -13, 54, 78, -74, -2, -1, -3, 13, -11, -42, -73, -15, -24, -3, -69, 2, -1, 5, 16, -27, 73, 58, 9, -60, 5, -60], "withholdReward": false, "trial_id": "mdp_trial_22", "block": "test", "trialIndex": 23, "score": 88.1, "costs": -6.9, "simulationMode": [null, null, null, null, null], "rewards": [2, -1, 5, 16, 73], "path": ["0", "0", "23", "24", "25", "26", "28"], "rt": [14088, 126, 250, 838, 198], "actions": ["left", "left", "left", "up", "right"], "actionTimes": [17919, 18580, 19360, 20723, 21445], "queries": {"click": {"state": {"target": ["23", "24", "25", "26", "28", "27"], "time": [5605, 6790, 8049, 9364, 10654, 14689]}, "edge": {"target": [], "time": []}}, "mouseover": {"state": {"target": ["23", "24", "25", "26", "28", "27", "26", "26", "25"], "time": [4778, 6279, 7506, 8795, 10215, 11420, 15874, 16407, 16648]}, "edge": {"target": [], "time": []}}, "mouseout": {"state": {"target": ["0", "23", "24", "25", "26", "28", "27", "26", "27", "26", "25"], "time": [2771, 6128, 7289, 8641, 10009, 11126, 15503, 15908, 16303, 16513, 16765]}, "edge": {"target": [], "time": []}}}, "displayed_time": "21.97", "trialTime": 23896, "trial_type": "mouselab-mdp", "trial_index": 30, "time_elapsed": 1648435, "internal_node_id": "0.0-4.0-1.0-21.0"}}, {"uniqueid": "w61181804:a87137067", "current_trial": 31, "dateTime": 1691144035266, "trialdata": {"revealed_states": [], "clicked_states": ["1", "2", "10", "14", "13", "12", "23", "24"], "num_clicks_accrued": [0, 0, 0, 0, 0, 0, 0, 0, 0, 0, 0, 0, 0], "stateRewards": ["", -1, -3, 3, 5, 56, 39, 50, -1, -80, 33, -46, 1, -2, -6, -8, 87, 48, 54, -11, -20, -64, -54, -2, 3, -7, -3, 12, 88, 35, -16, -46, -70, -3], "withholdReward": false, "trial_id": "mdp_trial_23", "block": "test", "trialIndex": 24, "score": 27.6, "costs": -3.4000000000000004, "simulationMode": [null, null, null, null, null], "rewards": [-1, -3, 3, -1, 33], "path": ["0", "0", "1", "2", "3", "8", "10"], "rt": [13392, 206, 387, 512, 785], "actions": ["up", "up", "up", "left", "down"], "actionTimes": [20541, 21303, 22201, 23256, 24569], "queries": {"click": {"state": {"target": ["1", "2", "10", "14", "13", "12", "23", "24"], "time": [8641, 9641, 10894, 13681, 14938, 16299, 17787, 18950]}, "edge": {"target": [], "time": []}}, "mouseover": {"state": {"target": ["1", "2", "10", "13", "14", "13", "12", "23", "24"], "time": [8140, 9234, 10268, 11940, 13256, 14402, 15846, 17182, 18461]}, "edge": {"target": [], "time": []}}, "mouseout": {"state": {"target": ["25", "28", "1", "1", "2", "10", "2", "13", "14", "14", "13", "12", "23"], "time": [4978, 5052, 5815, 9126, 10128, 11375, 11462, 13080, 13905, 14292, 15704, 16939, 18403]}, "edge": {"target": [], "time": []}}}, "displayed_time": "25.09", "trialTime": 28363, "trial_type": "mouselab-mdp", "trial_index": 31, "time_elapsed": 1678085, "internal_node_id": "0.0-4.0-1.0-22.0"}}, {"uniqueid": "w61181804:a87137067", "current_trial": 32, "dateTime": 1691144068755, "trialdata": {"revealed_states": [], "clicked_states": ["23", "28", "25", "12", "13", "2", "3", "4", "8"], "num_clicks_accrued": [0, 0, 0, 0, 0, 0, 0, 0, 0, 0, 0, 0, 0], "stateRewards": ["", 2, 4, 7, -6, -76, -81, 2, 5, -66, -3, 36, -2, -4, 6, -2, -69, 4, -49, -6, 67, 38, -67, 2, 1, 1, 6, -68, -21, 52, -16, -16, 6, -70], "withholdReward": false, "trial_id": "mdp_trial_24", "block": "test", "trialIndex": 25, "score": -55.35, "costs": -7.35, "simulationMode": [null, null, null, null, null], "rewards": [2, 4, 7, 5, -66], "path": ["0", "0", "1", "2", "3", "8", "9"], "rt": [18415, 191, 312, 1111, 1041], "actions": ["up", "up", "up", "left", "up"], "actionTimes": [22485, 23200, 24037, 25668, 27231], "queries": {"click": {"state": {"target": ["23", "28", "25", "12", "13", "2", "3", "4", "8"], "time": [5593, 7015, 10885, 12901, 14754, 16445, 17901, 19149, 20498]}, "edge": {"target": [], "time": []}}, "mouseover": {"state": {"target": ["0", "23", "28", "26", "25", "24", "12", "13", "1", "2", "3", "4", "8", "3", "18"], "time": [4862, 4991, 6382, 7829, 10412, 11649, 12322, 14247, 15670, 15905, 17374, 18651, 19984, 21113, 21311]}, "edge": {"target": [], "time": []}}, "mouseout": {"state": {"target": ["24", "23", "0", "23", "28", "26", "25", "24", "12", "13", "1", "2", "3", "4", "3", "8", "3", "18"], "time": [2159, 2592, 4914, 6375, 7561, 10092, 11087, 11713, 13088, 14942, 15854, 16639, 18543, 19353, 19820, 21075, 21148, 21349]}, "edge": {"target": [], "time": []}}}, "displayed_time": "27.75", "trialTime": 32096, "trial_type": "mouselab-mdp", "trial_index": 32, "time_elapsed": 1711574, "internal_node_id": "0.0-4.0-1.0-23.0"}}, {"uniqueid": "w61181804:a87137067", "current_trial": 33, "dateTime": 1691144103910, "trialdata": {"revealed_states": [], "clicked_states": ["12", "13", "14", "15", "18", "17", "16"], "num_clicks_accrued": [0, 0, 0, 0, 0, 0, 0, 0, 0, 0, 0, 0, 0], "stateRewards": ["", 2, -1, 1, 10, -52, 86, -22, -2, -14, -63, 38, 1, 3, 7, -8, 11, -32, -27, 9, -71, 40, -87, -2, -1, 5, -7, 12, 31, -57, 13, 86, -58, 29], "withholdReward": false, "trial_id": "mdp_trial_25", "block": "test", "trialIndex": 26, "score": 50.95, "costs": -9.05, "simulationMode": [null, null, null, null, null], "rewards": [1, 3, 7, 9, 40], "path": ["0", "0", "12", "13", "14", "19", "21"], "rt": [20164, 262, 123, 1445, 546], "actions": ["right", "right", "right", "down", "down"], "actionTimes": [22745, 23521, 24168, 26121, 27189], "queries": {"click": {"state": {"target": ["12", "13", "14", "15", "18", "17", "16"], "time": [5495, 6516, 7497, 8818, 10759, 13594, 17051]}, "edge": {"target": [], "time": []}}, "mouseover": {"state": {"target": ["23", "23", "12", "13", "14", "15", "15", "18", "17", "16", "15", "14", "19", "22"], "time": [3779, 4128, 4829, 6075, 7041, 8027, 8350, 10293, 11887, 15062, 18073, 18444, 18985, 21254]}, "edge": {"target": [], "time": []}}, "mouseout": {"state": {"target": ["0", "23", "23", "12", "13", "14", "15", "15", "18", "15", "17", "16", "15", "14", "19", "22"], "time": [3744, 3863, 4327, 6000, 6973, 7962, 8106, 10125, 10958, 11637, 14856, 17874, 18194, 18793, 21104, 21454]}, "edge": {"target": [], "time": []}}}, "displayed_time": "27.72", "trialTime": 34048, "trial_type": "mouselab-mdp", "trial_index": 33, "time_elapsed": 1746729, "internal_node_id": "0.0-4.0-1.0-24.0"}}, {"uniqueid": "w61181804:a87137067", "current_trial": 34, "dateTime": 1691144136722, "trialdata": {"revealed_states": [], "clicked_states": ["2", "13", "14", "28", "25", "31", "4"], "num_clicks_accrued": [0, 0, 0, 0, 0, 0, 0, 0, 0, 0, 0, 0, 0], "stateRewards": ["", 2, -2, 7, -11, -76, -65, -23, 16, -58, 30, 81, 1, 2, 7, 14, 9, 55, -2, 6, 11, -15, 31, -1, -1, -3, 2, 15, 2, 46, 15, 18, 45, -34], "withholdReward": false, "trial_id": "mdp_trial_26", "block": "test", "trialIndex": 27, "score": 19.549999999999997, "costs": -8.450000000000001, "simulationMode": [null, null, null, null, null], "rewards": [-1, -1, -3, 15, 18], "path": ["0", "0", "23", "24", "25", "30", "31"], "rt": [20415, 258, 346, 767, 601], "actions": ["left", "left", "left", "down", "right"], "actionTimes": [24571, 25354, 26228, 27523, 28653], "queries": {"click": {"state": {"target": ["2", "13", "14", "28", "25", "31", "4"], "time": [6360, 7946, 9207, 11042, 14294, 16748, 21773]}, "edge": {"target": [], "time": []}}, "mouseover": {"state": {"target": ["1", "2", "13", "14", "28", "26", "25", "24", "31", "3", "4", "7", "12"], "time": [5431, 5831, 7480, 8734, 10498, 11759, 12753, 15677, 16289, 18220, 20276, 22831, 23010]}, "edge": {"target": [], "time": []}}, "mouseout": {"state": {"target": ["0", "1", "2", "13", "14", "28", "28", "26", "25", "24", "31", "3", "4", "7", "12"], "time": [5286, 5631, 7128, 8146, 9784, 11245, 11654, 12240, 14497, 16008, 17659, 20009, 22812, 22893, 23043]}, "edge": {"target": [], "time": []}}}, "displayed_time": "29.18", "trialTime": 31476, "trial_type": "mouselab-mdp", "trial_index": 34, "time_elapsed": 1779541, "internal_node_id": "0.0-4.0-1.0-25.0"}}, {"uniqueid": "w61181804:a87137067", "current_trial": 35, "dateTime": 1691144161109, "trialdata": {"revealed_states": [], "clicked_states": ["1", "18", "14", "19", "21"], "num_clicks_accrued": [0, 0, 0, 0, 0, 0, 0, 0, 0, 0, 0, 0, 0], "stateRewards": ["", -1, -3, 1, 13, -64, -29, 12, -4, -33, 50, 56, 2, -3, 4, 11, -64, -58, -55, 12, 47, 38, -25, -2, 2, 5, -15, 85, 7, 84, 10, 8, 57, 26], "withholdReward": false, "trial_id": "mdp_trial_27", "block": "test", "trialIndex": 28, "score": 46.45, "costs": -6.549999999999999, "simulationMode": [null, null, null, null, null], "rewards": [2, -3, 4, 12, 38], "path": ["0", "0", "12", "13", "14", "19", "21"], "rt": [12477, 229, 415, 765, 152], "actions": ["right", "right", "right", "down", "down"], "actionTimes": [15681, 16455, 17413, 18730, 19431], "queries": {"click": {"state": {"target": ["1", "18", "14", "19", "21"], "time": [4624, 6059, 8890, 10665, 12367]}, "edge": {"target": [], "time": []}}, "mouseover": {"state": {"target": ["1", "18", "14", "19", "21"], "time": [4083, 5522, 7240, 10152, 11958]}, "edge": {"target": [], "time": []}}, "mouseout": {"state": {"target": ["0", "1", "18", "14", "14", "19", "19", "21"], "time": [4037, 4820, 6709, 9105, 9926, 10853, 11598, 12586]}, "edge": {"target": [], "time": []}}}, "displayed_time": "19.96", "trialTime": 23132, "trial_type": "mouselab-mdp", "trial_index": 35, "time_elapsed": 1803929, "internal_node_id": "0.0-4.0-1.0-26.0"}}, {"uniqueid": "w61181804:a87137067", "current_trial": 36, "dateTime": 1691144193994, "trialdata": {"revealed_states": [], "clicked_states": ["13", "14", "19", "20", "23", "24", "25", "26", "30", "2", "1"], "num_clicks_accrued": [0, 0, 0, 0, 0, 0, 0, 0, 0, 0, 0, 0, 0], "stateRewards": ["", -2, -4, 4, -11, -63, -60, -7, 2, -14, 81, -43, -1, -1, -5, 7, 10, 69, 40, 8, -83, 52, 60, 1, 2, 5, -5, 16, 64, 14, -3, 29, 7, -51], "withholdReward": false, "trial_id": "mdp_trial_28", "block": "test", "trialIndex": 29, "score": 9.75, "costs": -9.25, "simulationMode": [null, null, null, null, null], "rewards": [1, 2, 5, -5, 16], "path": ["0", "0", "23", "24", "25", "26", "27"], "rt": [21251, 408, 581, 990, 622], "actions": ["left", "left", "left", "up", "up"], "actionTimes": [24586, 25522, 26636, 28166, 29354], "queries": {"click": {"state": {"target": ["13", "14", "19", "20", "23", "24", "25", "26", "30", "2", "1"], "time": [5188, 6494, 7678, 8697, 13738, 15233, 16356, 17619, 19116, 20897, 22142]}, "edge": {"target": [], "time": []}}, "mouseover": {"state": {"target": ["12", "13", "14", "19", "20", "12", "0", "23", "24", "25", "26", "30", "2", "1", "0"], "time": [4448, 4631, 6010, 7210, 8249, 9804, 9982, 10767, 14690, 15920, 17085, 18616, 20284, 21706, 23384]}, "edge": {"target": [], "time": []}}, "mouseout": {"state": {"target": ["23", "12", "13", "14", "19", "20", "12", "0", "23", "24", "25", "26", "25", "30", "2", "1"], "time": [1982, 4549, 5901, 7077, 8167, 9486, 9840, 10570, 14623, 15835, 16967, 18318, 18480, 19916, 21658, 23249]}, "edge": {"target": [], "time": []}}}, "displayed_time": "29.90", "trialTime": 31602, "trial_type": "mouselab-mdp", "trial_index": 36, "time_elapsed": 1836813, "internal_node_id": "0.0-4.0-1.0-27.0"}}, {"uniqueid": "w61181804:a87137067", "current_trial": 37, "dateTime": 1691144221698, "trialdata": {"revealed_states": [], "clicked_states": ["1", "2", "10", "15", "14", "24"], "num_clicks_accrued": [0, 0, 0, 0, 0, 0, 0, 0, 0, 0, 0, 0, 0], "stateRewards": ["", 1, -2, -3, 14, -42, -87, -37, -11, -50, 33, -44, -2, 4, -7, 13, 48, -75, -66, 12, 23, -2, 82, 1, -4, 3, 12, 51, -15, -26, -11, -52, -29, 82], "withholdReward": false, "trial_id": "mdp_trial_29", "block": "test", "trialIndex": 30, "score": 12.899999999999999, "costs": -5.1, "simulationMode": [null, null, null, null, null], "rewards": [1, -2, -3, -11, 33], "path": ["0", "0", "1", "2", "3", "8", "10"], "rt": [15869, 356, 437, 847, 756], "actions": ["up", "up", "up", "left", "down"], "actionTimes": [18537, 19422, 20404, 21779, 23072], "queries": {"click": {"state": {"target": ["1", "2", "10", "15", "14", "24"], "time": [4770, 6244, 7860, 13037, 14735, 16615]}, "edge": {"target": [], "time": []}}, "mouseover": {"state": {"target": ["1", "2", "10", "7", "18", "15", "14", "12", "24"], "time": [4000, 5795, 7328, 8787, 9462, 12521, 14157, 15558, 16114]}, "edge": {"target": [], "time": []}}, "mouseout": {"state": {"target": ["0", "1", "2", "10", "7", "18", "15", "14", "14", "12", "24"], "time": [3857, 5058, 7242, 8458, 8952, 12405, 14079, 14939, 15546, 15602, 17422]}, "edge": {"target": [], "time": []}}}, "displayed_time": "23.60", "trialTime": 26509, "trial_type": "mouselab-mdp", "trial_index": 37, "time_elapsed": 1864517, "internal_node_id": "0.0-4.0-1.0-28.0"}}, {"uniqueid": "w61181804:a87137067", "current_trial": 38, "dateTime": 1691144248148, "trialdata": {"revealed_states": [], "clicked_states": ["32", "31"], "num_clicks_accrued": [0, 0, 0, 0, 0, 0, 0, 0, 0, 0, 0, 0, 0], "stateRewards": ["", 1, 2, -3, -6, 50, -7, 7, -7, -80, 21, -1, 2, 2, 4, -1, 33, 84, 1, 14, -53, 81, 6, -2, -2, -3, -9, -87, -38, -59, -5, -74, -3, -71], "withholdReward": false, "trial_id": "mdp_trial_30", "block": "test", "trialIndex": 31, "score": -17.3, "costs": -4.3, "simulationMode": [null, null, null, null, null], "rewards": [1, 2, -3, -6, -7], "path": ["0", "0", "1", "2", "3", "4", "6"], "rt": [14116, 292, 258, 808, 545], "actions": ["up", "up", "up", "right", "right"], "actionTimes": [16976, 17798, 18581, 19914, 20986], "queries": {"click": {"state": {"target": ["32", "31"], "time": [4472, 8023]}, "edge": {"target": [], "time": []}}, "mouseover": {"state": {"target": ["23", "30", "32", "31", "0", "13", "14", "20", "14", "15", "16", "0"], "time": [3504, 3621, 3956, 5334, 8873, 9039, 9133, 9761, 12918, 13001, 13816, 15667]}, "edge": {"target": [], "time": []}}, "mouseout": {"state": {"target": ["23", "1", "23", "30", "32", "31", "0", "13", "14", "20", "14", "15", "16", "0"], "time": [1099, 1387, 3565, 3671, 5080, 8799, 8938, 9092, 9165, 12621, 12971, 13021, 15111, 15784]}, "edge": {"target": [], "time": []}}}, "displayed_time": "21.52", "trialTime": 25116, "trial_type": "mouselab-mdp", "trial_index": 38, "time_elapsed": 1890967, "internal_node_id": "0.0-4.0-1.0-29.0"}}, {"uniqueid": "w61181804:a87137067", "current_trial": 39, "dateTime": 1691144280738, "trialdata": {"revealed_states": [], "clicked_states": ["12", "14", "21", "16", "8", "10"], "num_clicks_accrued": [0, 0, 0, 0, 0, 0, 0, 0, 0, 0, 0, 0, 0], "stateRewards": ["", -1, -4, 8, 8, -68, 47, 24, -7, -61, 49, -69, -1, -1, 8, -7, 42, 1, -45, -11, 10, -63, -6, 1, 4, 6, -16, 79, -37, -58, -12, 81, 18, -53], "withholdReward": false, "trial_id": "mdp_trial_31", "block": "test", "trialIndex": 32, "score": 36.3, "costs": -8.7, "simulationMode": [null, null, null, null, null, null], "rewards": [-1, -4, 8, -7, 49], "path": ["0", "0", "1", "2", "3", "8", "10"], "rt": [15629, 4104, 325, 416, 701, 645], "actions": ["right", "up", "up", "up", "left", "down"], "actionTimes": [19318, 23431, 24268, 25195, 26425, 27570], "queries": {"click": {"state": {"target": ["12", "14", "21", "16", "8", "10"], "time": [5047, 6430, 7845, 11521, 15574, 17276]}, "edge": {"target": [], "time": []}}, "mouseover": {"state": {"target": ["12", "14", "19", "21", "13", "18", "16", "6", "5", "9", "8", "10"], "time": [4592, 5876, 7092, 7342, 8664, 8801, 9197, 12398, 12672, 14927, 15175, 16761]}, "edge": {"target": [], "time": []}}, "mouseout": {"state": {"target": ["0", "12", "14", "19", "21", "13", "18", "16", "6", "5", "9", "8"], "time": [2556, 5240, 7043, 7250, 8564, 8758, 9114, 12262, 12455, 14662, 15011, 16646]}, "edge": {"target": [], "time": []}}}, "displayed_time": "28.22", "trialTime": 31318, "trial_type": "mouselab-mdp", "trial_index": 39, "time_elapsed": 1923558, "internal_node_id": "0.0-4.0-1.0-30.0"}}, {"uniqueid": "w61181804:a87137067", "current_trial": 40, "dateTime": 1691144311067, "trialdata": {"revealed_states": [], "clicked_states": ["27", "31"], "num_clicks_accrued": [0, 0, 0, 0, 0, 0, 0, 0, 0, 0, 0, 0, 0], "stateRewards": ["", -2, 3, -1, -9, 44, 48, -37, -3, 71, -39, 87, -1, 3, -4, 4, -21, 59, -15, -8, -1, 28, -38, 2, 4, 4, 8, -85, -72, -63, 14, 58, 63, -46], "withholdReward": false, "trial_id": "mdp_trial_32", "block": "test", "trialIndex": 33, "score": 77.7, "costs": -4.3, "simulationMode": [null, null, null, null, null], "rewards": [2, 4, 4, 14, 58], "path": ["0", "0", "23", "24", "25", "30", "31"], "rt": [15456, 224, 179, 795, 218], "actions": ["left", "left", "left", "down", "right"], "actionTimes": [19944, 20702, 21406, 22717, 23460], "queries": {"click": {"state": {"target": ["27", "31"], "time": [6338, 11095]}, "edge": {"target": [], "time": []}}, "mouseover": {"state": {"target": ["23", "28", "27", "26", "25", "30", "32", "31", "24", "28", "18", "15", "17", "15", "12"], "time": [5543, 5606, 5791, 7360, 7498, 7746, 7997, 10547, 12547, 12811, 16407, 16457, 16659, 18469, 18570]}, "edge": {"target": [], "time": []}}, "mouseout": {"state": {"target": ["10", "2", "1", "23", "28", "27", "26", "25", "30", "32", "31", "24", "28", "18", "15", "17", "15", "12"], "time": [2533, 2690, 2874, 5568, 5640, 7212, 7448, 7656, 7886, 10174, 12387, 12615, 15756, 16431, 16505, 18463, 18499, 18655]}, "edge": {"target": [], "time": []}}}, "displayed_time": "23.97", "trialTime": 29071, "trial_type": "mouselab-mdp", "trial_index": 40, "time_elapsed": 1953885, "internal_node_id": "0.0-4.0-1.0-31.0"}}, {"uniqueid": "w61181804:a87137067", "current_trial": 41, "dateTime": 1691144338971, "trialdata": {"revealed_states": [], "clicked_states": ["1", "7", "16", "3", "2"], "num_clicks_accrued": [0, 0, 0, 0, 0, 0, 0, 0, 0, 0, 0, 0, 0], "stateRewards": ["", -1, -3, -6, 14, 41, 18, 63, -14, 80, 21, 17, -2, -4, -2, -5, 13, 70, 8, -4, -64, -10, -20, 2, -1, 4, -1, -17, -55, 42, -7, 47, 54, 15], "withholdReward": false, "trial_id": "mdp_trial_33", "block": "test", "trialIndex": 34, "score": 61.65, "costs": -5.35, "simulationMode": [null, null, null, null, null], "rewards": [-1, -3, -6, 14, 63], "path": ["0", "0", "1", "2", "3", "4", "7"], "rt": [13244, 251, 499, 691, 488], "actions": ["up", "up", "up", "right", "down"], "actionTimes": [17675, 18447, 19469, 20697, 21716], "queries": {"click": {"state": {"target": ["1", "7", "16", "3", "2"], "time": [6066, 7318, 10686, 14252, 15820]}, "edge": {"target": [], "time": []}}, "mouseover": {"state": {"target": ["1", "7", "16", "4", "5", "3", "2", "1", "0"], "time": [5364, 6781, 8318, 11933, 12431, 13693, 15445, 16429, 16546]}, "edge": {"target": [], "time": []}}, "mouseout": {"state": {"target": ["0", "1", "1", "7", "16", "4", "5", "3", "2", "2", "1", "0"], "time": [1414, 1889, 6599, 7854, 10881, 12181, 13515, 15316, 16024, 16360, 16485, 16606]}, "edge": {"target": [], "time": []}}}, "displayed_time": "22.28", "trialTime": 26577, "trial_type": "mouselab-mdp", "trial_index": 41, "time_elapsed": 1981790, "internal_node_id": "0.0-4.0-1.0-32.0"}}, {"uniqueid": "w61181804:a87137067", "current_trial": 42, "dateTime": 1691144361682, "trialdata": {"revealed_states": [], "clicked_states": ["29", "26"], "num_clicks_accrued": [0, 0, 0, 0, 0, 0, 0, 0, 0, 0, 0, 0, 0], "stateRewards": ["", -1, -4, -1, -11, 43, 69, 39, 4, 17, -20, -82, -2, -1, 4, 8, -79, 24, -79, 11, 36, 64, 41, 2, 4, -1, 11, -79, -47, 75, -3, 63, -36, -19], "withholdReward": false, "trial_id": "mdp_trial_34", "block": "test", "trialIndex": 35, "score": 87.3, "costs": -3.7, "simulationMode": [null, null, null, null, null], "rewards": [2, 4, -1, 11, 75], "path": ["0", "0", "23", "24", "25", "26", "29"], "rt": [9072, 357, 222, 870, 761], "actions": ["left", "left", "left", "up", "left"], "actionTimes": [11412, 12296, 13061, 14499, 15766], "queries": {"click": {"state": {"target": ["29", "26"], "time": [3997, 9215]}, "edge": {"target": [], "time": []}}, "mouseover": {"state": {"target": ["29", "33", "25", "26", "25", "31"], "time": [3475, 5957, 8101, 8602, 10266, 10402]}, "edge": {"target": [], "time": []}}, "mouseout": {"state": {"target": ["23", "0", "29", "29", "33", "25", "26", "25", "31"], "time": [941, 3053, 4204, 5059, 8005, 8417, 10207, 10301, 10451]}, "edge": {"target": [], "time": []}}}, "displayed_time": "16.34", "trialTime": 21390, "trial_type": "mouselab-mdp", "trial_index": 42, "time_elapsed": 2004501, "internal_node_id": "0.0-4.0-1.0-33.0"}}, {"uniqueid": "w61181804:a87137067", "current_trial": 43, "dateTime": 1691144389980, "trialdata": {"revealed_states": [], "clicked_states": ["5", "17", "25", "32", "13"], "num_clicks_accrued": [0, 0, 0, 0, 0, 0, 0, 0, 0, 0, 0, 0, 0], "stateRewards": ["", -2, 2, 8, -6, -25, 3, 87, 2, -62, -2, 74, -2, -1, 2, -1, 79, 49, -37, -14, 5, 67, -9, -1, 2, -2, 5, 15, 38, 32, -14, -38, -38, 30], "withholdReward": false, "trial_id": "mdp_trial_35", "block": "test", "trialIndex": 36, "score": 39.25, "costs": -7.75, "simulationMode": [null, null, null, null, null], "rewards": [-2, -1, 2, -1, 49], "path": ["0", "0", "12", "13", "14", "15", "17"], "rt": [17599, 141, 451, 532, 406], "actions": ["right", "right", "right", "up", "right"], "actionTimes": [21063, 21751, 22736, 23816, 24759], "queries": {"click": {"state": {"target": ["5", "17", "25", "32", "13"], "time": [5834, 9554, 14076, 15739, 19091]}, "edge": {"target": [], "time": []}}, "mouseover": {"state": {"target": ["1", "4", "5", "6", "16", "17", "14", "13", "24", "25", "30", "32", "31", "23", "13"], "time": [4362, 4465, 5191, 6752, 8166, 8879, 10750, 12506, 13012, 13478, 14940, 15264, 16520, 17019, 18467]}, "edge": {"target": [], "time": []}}, "mouseout": {"state": {"target": ["31", "23", "1", "4", "5", "6", "16", "17", "17", "14", "13", "24", "25", "30", "32", "31", "23", "13", "13"], "time": [1360, 1770, 4424, 5021, 6580, 8090, 8423, 9750, 10681, 12483, 12558, 13368, 14816, 15091, 16402, 16698, 18235, 19282, 20149]}, "edge": {"target": [], "time": []}}}, "displayed_time": "25.29", "trialTime": 26839, "trial_type": "mouselab-mdp", "trial_index": 43, "time_elapsed": 2032799, "internal_node_id": "0.0-4.0-1.0-34.0"}}, {"uniqueid": "w61181804:a87137067", "current_trial": 44, "dateTime": 1691144416507, "trialdata": {"revealed_states": [], "clicked_states": ["21", "20", "15"], "num_clicks_accrued": [0, 0, 0, 0, 0, 0, 0, 0, 0, 0, 0, 0, 0], "stateRewards": ["", -2, 1, -8, 12, -65, -79, 16, 7, -80, -17, -45, -2, 2, -5, -2, -85, 23, -4, -7, 48, 27, -76, 2, 3, 5, 2, 43, 71, -13, 7, -49, 59, -31], "withholdReward": false, "trial_id": "mdp_trial_36", "block": "test", "trialIndex": 37, "score": 30.15, "costs": -5.85, "simulationMode": [null, null, null, null, null], "rewards": [-2, 2, -5, -7, 48], "path": ["0", "0", "12", "13", "14", "19", "20"], "rt": [13879, 273, 400, 1180, 293], "actions": ["right", "right", "right", "down", "right"], "actionTimes": [18371, 19170, 20110, 21813, 22621], "queries": {"click": {"state": {"target": ["21", "20", "15"], "time": [6083, 10962, 15433]}, "edge": {"target": [], "time": []}}, "mouseover": {"state": {"target": ["13", "22", "21", "20", "19", "20", "19", "13", "12", "18", "15", "13"], "time": [5276, 5328, 5478, 7119, 9976, 10393, 11748, 11844, 12294, 14847, 14941, 16527]}, "edge": {"target": [], "time": []}}, "mouseout": {"state": {"target": ["0", "13", "22", "21", "20", "19", "20", "19", "13", "12", "18", "15", "13"], "time": [5176, 5299, 5363, 6922, 9850, 10237, 11738, 11797, 12251, 14797, 14875, 16437, 16648]}, "edge": {"target": [], "time": []}}}, "displayed_time": "23.15", "trialTime": 25026, "trial_type": "mouselab-mdp", "trial_index": 44, "time_elapsed": 2059326, "internal_node_id": "0.0-4.0-1.0-35.0"}}, {"uniqueid": "w61181804:a87137067", "current_trial": 45, "dateTime": 1691144443588, "trialdata": {"revealed_states": [], "clicked_states": ["3", "2", "6", "14", "20"], "num_clicks_accrued": [0, 0, 0, 0, 0, 0, 0, 0, 0, 0, 0, 0, 0], "stateRewards": ["", 1, 1, 6, -14, -40, 37, 16, -13, 33, -68, 49, 2, 4, 3, 6, 55, 27, 32, 10, -65, 20, -87, 2, 1, -6, -5, -42, 12, 29, -8, 16, 76, -33], "withholdReward": false, "trial_id": "mdp_trial_37", "block": "test", "trialIndex": 38, "score": 24.450000000000003, "costs": -6.549999999999999, "simulationMode": [null, null, null, null, null], "rewards": [1, 1, 6, -14, 37], "path": ["0", "0", "1", "2", "3", "4", "6"], "rt": [16602, 182, 514, 763, 123], "actions": ["up", "up", "up", "right", "right"], "actionTimes": [19567, 20279, 21299, 22606, 23282], "queries": {"click": {"state": {"target": ["3", "2", "6", "14", "20"], "time": [5346, 6696, 8135, 12860, 14625]}, "edge": {"target": [], "time": []}}, "mouseover": {"state": {"target": ["1", "2", "3", "2", "4", "6", "16", "15", "14", "20", "19", "22"], "time": [3771, 3917, 4820, 6161, 7313, 7649, 9567, 11987, 12332, 14071, 15536, 15921]}, "edge": {"target": [], "time": []}}, "mouseout": {"state": {"target": ["0", "1", "2", "3", "2", "4", "6", "16", "15", "14", "20", "19"], "time": [3727, 3868, 4661, 6063, 7238, 7366, 8973, 11838, 12198, 13823, 14851, 15755]}, "edge": {"target": [], "time": []}}}, "displayed_time": "23.81", "trialTime": 25637, "trial_type": "mouselab-mdp", "trial_index": 45, "time_elapsed": 2086406, "internal_node_id": "0.0-4.0-1.0-36.0"}}, {"uniqueid": "w61181804:a87137067", "current_trial": 46, "dateTime": 1691144487424, "trialdata": {"revealed_states": [], "clicked_states": ["27", "33", "31", "13", "2", "10", "6", "20"], "num_clicks_accrued": [0, 0, 0, 0, 0, 0, 0, 0, 0, 0, 0, 0, 0], "stateRewards": ["", 1, -1, 8, 4, 76, -33, -17, -3, -1, -54, -74, -2, 2, -5, 13, -51, 63, 83, 1, 84, 29, -36, 2, -1, 7, -12, -10, -44, -43, -14, 8, -69, 19], "withholdReward": false, "trial_id": "mdp_trial_38", "block": "test", "trialIndex": 39, "score": 66.4, "costs": -13.6, "simulationMode": [null, null, null, null, null], "rewards": [-2, 2, -5, 1, 84], "path": ["0", "0", "12", "13", "14", "19", "20"], "rt": [32084, 138, 416, 666, 484], "actions": ["right", "right", "right", "down", "right"], "actionTimes": [35851, 36580, 37474, 38663, 39682], "queries": {"click": {"state": {"target": ["27", "33", "31", "13", "2", "10", "6", "20"], "time": [5563, 10219, 13978, 16917, 18936, 20296, 25326, 30776]}, "edge": {"target": [], "time": []}}, "mouseover": {"state": {"target": ["23", "28", "27", "26", "25", "33", "30", "32", "31", "23", "0", "12", "13", "2", "10", "28", "2", "4", "6", "16", "17", "20", "17", "14"], "time": [4514, 4630, 4970, 6399, 6594, 9412, 11003, 11284, 13228, 15161, 15265, 15699, 16006, 18359, 19822, 22042, 24119, 24609, 24756, 26669, 27198, 30057, 31982, 34693]}, "edge": {"target": [], "time": []}}, "mouseout": {"state": {"target": ["22", "0", "23", "28", "27", "26", "25", "33", "30", "32", "31", "23", "0", "12", "13", "2", "10", "28", "10", "2", "4", "6", "16", "17", "20", "17", "14"], "time": [1140, 4453, 4540, 4729, 6269, 6499, 9017, 10907, 11145, 12983, 14959, 15200, 15615, 15958, 17816, 19660, 21903, 23671, 23757, 24192, 24640, 26255, 26811, 29570, 31510, 34632, 34719]}, "edge": {"target": [], "time": []}}}, "displayed_time": "40.22", "trialTime": 42410, "trial_type": "mouselab-mdp", "trial_index": 46, "time_elapsed": 2130243, "internal_node_id": "0.0-4.0-1.0-37.0"}}, {"uniqueid": "w61181804:a87137067", "current_trial": 47, "dateTime": 1691144518511, "trialdata": {"revealed_states": [], "clicked_states": ["21", "17", "3", "5", "7"], "num_clicks_accrued": [0, 0, 0, 0, 0, 0, 0, 0, 0, 0, 0, 0, 0], "stateRewards": ["", 1, 2, 3, 16, 63, -25, 16, -4, -14, 82, -66, -1, -3, -3, -11, -14, 19, 46, 3, -34, -82, 66, -2, -3, 4, -5, -63, 77, -37, -1, -45, -41, 84], "withholdReward": false, "trial_id": "mdp_trial_39", "block": "test", "trialIndex": 40, "score": 75.45, "costs": -9.55, "simulationMode": [null, null, null, null, null, null], "rewards": [1, 2, 3, 16, 63], "path": ["0", "0", "1", "2", "3", "4", "5"], "rt": [18846, 1364, 373, 298, 820, 521], "actions": ["up", "up", "up", "up", "right", "up"], "actionTimes": [21340, 22713, 23614, 24451, 25788, 26858], "queries": {"click": {"state": {"target": ["21", "17", "3", "5", "7"], "time": [4117, 7525, 12920, 14544, 18944]}, "edge": {"target": [], "time": []}}, "mouseover": {"state": {"target": ["12", "22", "19", "21", "19", "14", "17", "16", "7", "2", "3", "5", "6", "7", "1", "0"], "time": [3217, 3305, 3352, 3581, 4922, 5299, 6825, 8685, 11312, 11563, 12395, 13834, 15566, 18378, 19882, 20105]}, "edge": {"target": [], "time": []}}, "mouseout": {"state": {"target": ["0", "0", "12", "22", "19", "21", "19", "14", "17", "16", "7", "2", "3", "5", "6", "7", "7", "1", "0"], "time": [1430, 3196, 3278, 3329, 3381, 4315, 5000, 6476, 7734, 11208, 11395, 11953, 13689, 15349, 18112, 19147, 19784, 19982, 20150]}, "edge": {"target": [], "time": []}}}, "displayed_time": "27.41", "trialTime": 29363, "trial_type": "mouselab-mdp", "trial_index": 47, "time_elapsed": 2161330, "internal_node_id": "0.0-4.0-1.0-38.0"}}, {"uniqueid": "w61181804:a87137067", "current_trial": 48, "dateTime": 1691144558245, "trialdata": {"revealed_states": [], "clicked_states": ["5", "16", "20", "25", "32", "29", "24", "1", "2"], "num_clicks_accrued": [0, 0, 0, 0, 0, 0, 0, 0, 0, 0, 0, 0, 0], "stateRewards": ["", -1, 1, 8, -3, -24, 11, -65, -6, -77, 48, 44, -2, 1, -2, -7, -55, -35, 33, 8, -28, 19, -53, -1, -1, -5, -5, -70, 10, 44, 8, -58, -70, 51], "withholdReward": false, "trial_id": "mdp_trial_40", "block": "test", "trialIndex": 41, "score": 19.85, "costs": -12.149999999999999, "simulationMode": [null, null, null, null, null], "rewards": [-1, -1, -5, -5, 44], "path": ["0", "0", "23", "24", "25", "26", "29"], "rt": [28329, 125, 670, 782, 577], "actions": ["left", "left", "left", "up", "left"], "actionTimes": [31178, 31848, 33034, 34362, 35479], "queries": {"click": {"state": {"target": ["5", "16", "20", "25", "32", "29", "24", "1", "2"], "time": [4951, 8748, 12846, 17306, 18933, 22987, 25885, 27645, 29258]}, "edge": {"target": [], "time": []}}, "mouseover": {"state": {"target": ["7", "4", "5", "6", "16", "17", "20", "21", "25", "30", "32", "33", "29", "26", "28", "24", "1", "2"], "time": [3627, 4042, 4426, 5975, 8163, 9692, 12156, 13875, 16704, 18171, 18519, 20047, 22388, 23833, 24093, 25433, 26809, 28792]}, "edge": {"target": [], "time": []}}, "mouseout": {"state": {"target": ["0", "7", "4", "5", "6", "16", "17", "20", "21", "25", "30", "32", "33", "29", "26", "28", "24", "1", "2"], "time": [3550, 3975, 4241, 5686, 7799, 9464, 11637, 13043, 15562, 18107, 18329, 19781, 21753, 23770, 23917, 25259, 26707, 28534, 30108]}, "edge": {"target": [], "time": []}}}, "displayed_time": "36.03", "trialTime": 37784, "trial_type": "mouselab-mdp", "trial_index": 48, "time_elapsed": 2201064, "internal_node_id": "0.0-4.0-1.0-39.0"}}, {"uniqueid": "w61181804:a87137067", "current_trial": 49, "dateTime": 1691144647906, "trialdata": {"rt": 89074, "response": {"Q0": "$-2 to $2", "Q1": "$-16 to $16", "Q2": "$-88 to $88", "Q3": "The cost for clicking on nodes varied between nodes.", "Q4": "Very motivated"}, "question_order": [0, 1, 2, 3, 4], "trial_id": "final_quiz_control", "trial_type": "survey-multi-choice", "trial_index": 49, "time_elapsed": 2290727, "internal_node_id": "0.0-4.0-2.0"}}, {"uniqueid": "w61181804:a87137067", "current_trial": 50, "dateTime": 1691144741339, "trialdata": {"rt": 92832, "response": {"Q0": "I was clicking on the nodes in the order of following each other", "Q1": "I started to click on the nodes that were farthest from the start", "Q2": "It was not difficult at all"}, "trial_id": "self_report_control", "trial_type": "survey-text", "trial_index": 50, "time_elapsed": 2384160, "internal_node_id": "0.0-4.0-3.0"}}, {"uniqueid": "w61181804:a87137067", "current_trial": 51, "dateTime": 1691144879261, "trialdata": {"rt": 137898, "response": {"Q0": "Agree", "Q1": "Disagree", "Q2": "Strongly agree", "Q3": "Strongly agree", "Q4": "Strongly disagree", "Q5": "Strongly agree", "Q6": "Neither disagree nor agree"}, "question_order": [0, 1, 2, 3, 4, 5, 6], "trial_id": "self_report_2", "trial_type": "survey-multi-choice", "trial_index": 51, "time_elapsed": 2522082, "internal_node_id": "0.0-4.0-4.0"}}, {"uniqueid": "w61181804:a87137067", "current_trial": 52, "dateTime": 1691144923767, "trialdata": {"rt": 44458, "response": {"gender": "female", "age": "29", "colorblind": "0", "effort": "0"}, "trial_type": "survey-html-form", "trial_index": 52, "time_elapsed": 2566587, "internal_node_id": "0.0-4.0-5.0"}}, {"uniqueid": "w61181804:a87137067", "current_trial": 53, "dateTime": 1691144965345, "trialdata": {"rt": 41515, "response": {"Q0": "No", "Q1": "No", "Q2": ""}, "trial_type": "survey-text", "trial_index": 53, "time_elapsed": 2608165, "internal_node_id": "0.0-4.0-6.0"}}, {"uniqueid": "w61181804:a87137067", "current_trial": 54, "dateTime": 1691144976060, "trialdata": {"rt": 10688, "stimulus": "Press 'Finish HIT' in order to reach the completion code. Once the data has been saved, you will receive the code either in this window or in the original browser window where you started the experiment.\n", "response": 0, "trial_type": "html-button-response", "trial_index": 54, "time_elapsed": 2618881, "internal_node_id": "0.0-5.0"}}, {"uniqueid": "w61181804:a87137067", "current_trial": 55, "dateTime": 1691144977096, "trialdata": {"success": true, "trial_type": "fullscreen", "trial_index": 55, "time_elapsed": 2619917, "internal_node_id": "0.0-6.0"}}], "questiondata": {"params": {"CODE": "C6DMOQA6", "MIN_TIME": 14, "inspectCost": 1, "startTime": "Fri Aug 04 2023 11:45:46 GMT+0200 (South Africa Standard Time)", "bonusRate": 0.002, "variance": "1_2_4_8_44", "branching": "31123"}, "final_score": 980.15}, "eventdata": [{"eventtype": "initialized", "value": null, "timestamp": 1691142346054, "interval": 0}, {"eventtype": "window_resize", "value": [1024, 646], "timestamp": 1691142346054, "interval": 0}, {"eventtype": "window_resize", "value": [1024, 646], "timestamp": 1691142346652, "interval": 598}, {"eventtype": "window_resize", "value": [1366, 768], "timestamp": 1691142367788, "interval": 21136}], "useragent": "Mozilla/5.0 (Windows NT 10.0; Win64; x64) AppleWebKit/537.36 (KHTML, like Gecko) Chrome/115.0.0.0 Safari/537.36", "mode": "live", "id": "w61181804:a87137067", "status": "user data saved", "Beginhit": "2023-08-04 09:45:35.25073", "Beginexp": "2023-08-04 09:46:10.198173", "Endhit": "2023-08-04 10:29:42.017277", "psiturkStatus": 3, "browser": "<redacted>", "platform": "windows", "language": "en-US"}