{"condition": 0, "counterbalance": 0, "assignmentId": "a73217223", "workerId": "w72409719", "hitId": "h82393628", "currenttrial": 61, "bonus": 0, "data": [{"uniqueid": "w72409719:a73217223", "current_trial": 0, "dateTime": 1693480753513, "trialdata": {"success": true, "trial_type": "fullscreen", "trial_index": 0, "time_elapsed": 20914, "internal_node_id": "0.0-0.0"}}, {"uniqueid": "w72409719:a73217223", "current_trial": 1, "dateTime": 1693480765140, "trialdata": {"view_history": [{"page_index": 0, "viewing_time": 11625}], "rt": 11625, "trial_id": "exp_instructions_control", "trial_type": "instructions", "trial_index": 1, "time_elapsed": 32541, "internal_node_id": "0.0-1.0"}}, {"uniqueid": "w72409719:a73217223", "current_trial": 2, "dateTime": 1693480958890, "trialdata": {"view_history": [{"page_index": 0, "viewing_time": 60716}, {"page_index": 1, "viewing_time": 85816}, {"page_index": 2, "viewing_time": 15936}, {"page_index": 3, "viewing_time": 31280}], "rt": 193748, "trial_id": "mouselab_instructions_1_control", "trial_type": "instructions", "trial_index": 2, "time_elapsed": 226291, "internal_node_id": "0.0-2.0-1.0"}}, {"uniqueid": "w72409719:a73217223", "current_trial": 3, "dateTime": 1693480983904, "trialdata": {"revealed_states": [], "clicked_states": ["21", "9", "33"], "num_clicks_accrued": [0, 0, 0, 0, 0, 0, 0, 0, 0, 0, 0, 0, 0], "stateRewards": ["", -10, 10, 10, 10, -10, -10, 10, -10, 10, -10, -10, 10, 10, 10, -10, -10, 10, -10, 10, -10, -10, -10, -10, 10, -10, -10, 10, 10, -10, -10, -10, -10, 10], "withholdReward": false, "trial_id": "practice_1", "block": "test", "trialIndex": 0, "score": 12, "costs": -1.5, "simulationMode": [null, null, null, null, null], "rewards": [-10, 10, 10, -10, 10], "path": ["0", "0", "1", "2", "3", "8", "9"], "rt": [12582, 789, 147, 950, 184], "actions": ["up", "up", "up", "left", "up"], "actionTimes": [15564, 16861, 17517, 18986, 19684], "queries": {"click": {"state": {"target": ["21", "9", "33"], "time": [8725, 10451, 12890]}, "edge": {"target": [], "time": []}}, "mouseover": {"state": {"target": ["0", "21", "19", "14", "3", "8", "9", "11", "27", "26", "33", "24", "7", "6", "5"], "time": [5395, 7994, 9593, 9677, 10075, 10158, 10291, 10908, 11258, 11391, 12647, 13456, 13506, 13539, 13989]}, "edge": {"target": [], "time": []}}, "mouseout": {"state": {"target": ["0", "0", "21", "19", "14", "3", "8", "9", "11", "27", "26", "33", "24", "7", "6", "5"], "time": [3348, 6079, 9560, 9644, 9710, 10125, 10208, 10825, 11059, 11308, 11623, 13423, 13473, 13523, 13573, 14937]}, "edge": {"target": [], "time": []}}}, "displayed_time": "20.20", "trialTime": 24612, "trial_type": "mouselab-mdp", "trial_index": 3, "time_elapsed": 251305, "internal_node_id": "0.0-2.0-2.0-0.0"}}, {"uniqueid": "w72409719:a73217223", "current_trial": 4, "dateTime": 1693481001837, "trialdata": {"revealed_states": [], "clicked_states": ["5", "21", "32"], "num_clicks_accrued": [0, 0, 0, 0, 0, 0, 0, 0, 0, 0, 0, 0, 0], "stateRewards": ["", -10, -10, -10, 10, -10, 10, 10, -10, 10, 10, -10, -10, -10, -10, 10, -10, 10, 10, 10, 10, 10, -10, -10, 10, -10, 10, -10, -10, 10, -10, 10, -10, -10], "withholdReward": false, "trial_id": "practice_2", "block": "test", "trialIndex": 1, "score": -8, "costs": -1.5, "simulationMode": [null, null, null, null, null], "rewards": [-10, -10, -10, 10, 10], "path": ["0", "0", "12", "13", "14", "19", "21"], "rt": [6675, 258, 727, 170, 395], "actions": ["right", "right", "right", "down", "down"], "actionTimes": [9006, 9780, 11016, 11708, 12615], "queries": {"click": {"state": {"target": ["5", "21", "32"], "time": [3135, 5095, 7007]}, "edge": {"target": [], "time": []}}, "mouseover": {"state": {"target": ["7", "4", "5", "15", "14", "20", "21", "32", "32"], "time": [2694, 2810, 2943, 3544, 3594, 3994, 4899, 6490, 6823]}, "edge": {"target": [], "time": []}}, "mouseout": {"state": {"target": ["0", "0", "7", "4", "5", "15", "14", "20", "21", "32", "32", "21"], "time": [1827, 2061, 2744, 2843, 3411, 3578, 3627, 4226, 5292, 6657, 7207, 7440]}, "edge": {"target": [], "time": []}}}, "displayed_time": "13.12", "trialTime": 17828, "trial_type": "mouselab-mdp", "trial_index": 4, "time_elapsed": 269238, "internal_node_id": "0.0-2.0-2.0-1.0"}}, {"uniqueid": "w72409719:a73217223", "current_trial": 5, "dateTime": 1693481081882, "trialdata": {"view_history": [{"page_index": 0, "viewing_time": 67379}, {"page_index": 1, "viewing_time": 12664}], "rt": 80043, "trial_id": "mouselab_instructions_2_control", "trial_type": "instructions", "trial_index": 5, "time_elapsed": 349283, "internal_node_id": "0.0-2.0-3.0"}}, {"uniqueid": "w72409719:a73217223", "current_trial": 6, "dateTime": 1693481123642, "trialdata": {"rt": 41758, "response": {"Q0": "The cost for clicking on nodes may vary between nodes.", "Q1": "The better I perform the higher my bonus will be.", "Q2": "No, the amount of cash at each node of the web may be different each time.", "Q3": "To click on the least number of nodes.", "Q4": "Only before moving the spider.", "Q5": "3 seconds"}, "question_order": [0, 1, 2, 3, 4, 5], "correct": {"Q0": "The cost for clicking on nodes may vary between nodes.", "Q1": "The better I perform the higher my bonus will be.", "Q2": "No, the amount of cash at each node of the web may be different each time.", "Q3": "To get the highest total score.", "Q4": "Only before moving the spider.", "Q5": "3 seconds"}, "trial_id": "mouselab_quiz_control", "trial_type": "survey-multi-choice", "trial_index": 6, "time_elapsed": 391043, "internal_node_id": "0.0-2.0-4.0"}}, {"uniqueid": "w72409719:a73217223", "current_trial": 7, "dateTime": 1693483310561, "trialdata": {"success": true, "trial_type": "fullscreen", "trial_index": 7, "time_elapsed": 2577962, "internal_node_id": "0.0-2.1-0.1-0.1"}}, {"uniqueid": "w72409719:a73217223", "current_trial": 8, "dateTime": 1693484162680, "trialdata": {"view_history": [{"page_index": 0, "viewing_time": 342254}, {"page_index": 1, "viewing_time": 228048}, {"page_index": 2, "viewing_time": 27920}, {"page_index": 3, "viewing_time": 253896}], "rt": 852118, "trial_id": "mouselab_instructions_1_control", "trial_type": "instructions", "trial_index": 8, "time_elapsed": 3430081, "internal_node_id": "0.0-2.1-1.1"}}, {"uniqueid": "w72409719:a73217223", "current_trial": 9, "dateTime": 1693484186931, "trialdata": {"revealed_states": [], "clicked_states": ["9", "29", "21", "20", "6", "8"], "num_clicks_accrued": [0, 0, 0, 0, 0, 0, 0, 0, 0, 0, 0, 0, 0], "stateRewards": ["", -10, 10, 10, 10, -10, -10, 10, -10, 10, -10, -10, 10, 10, 10, -10, -10, 10, -10, 10, -10, -10, -10, -10, 10, -10, -10, 10, 10, -10, -10, -10, -10, 10], "withholdReward": false, "trial_id": "practice_1", "block": "test", "trialIndex": 2, "score": 20.5, "costs": -3, "simulationMode": [null, null, null, null, null, null, null, null, null, null], "rewards": [-10, -10, 10, 10, 10, 10, -10, 10], "path": ["0", "0", "1", "1", "2", "2", "3", "3", "8", "9"], "rt": [14134, 14101, 325, 135, 4, 59, 134, 348, 49, 172], "actions": ["up", "up", "up", "up", "up", "up", "up", "left", "left", "up"], "actionTimes": [14101, 14102, 14429, 14742, 14960, 15332, 15622, 16203, 16204, 16909], "queries": {"click": {"state": {"target": ["9", "29", "21", "20", "6", "8"], "time": [2795, 4378, 6082, 7778, 9834, 11140]}, "edge": {"target": [], "time": []}}, "mouseover": {"state": {"target": ["0", "1", "2", "3", "3", "9", "11", "27", "29", "26", "12", "13", "14", "14", "19", "21", "21", "20", "17", "17", "16", "6", "4", "3", "8", "10", "10", "24"], "time": [2082, 2149, 2248, 2332, 2365, 2615, 3232, 3399, 4097, 4713, 4830, 4848, 4864, 5479, 5679, 5762, 5945, 6462, 8111, 8478, 9159, 9609, 10374, 10442, 10641, 11559, 11675, 12091]}, "edge": {"target": [], "time": []}}, "mouseout": {"state": {"target": ["0", "0", "1", "2", "3", "3", "9", "11", "27", "29", "26", "12", "13", "14", "14", "19", "21", "21", "20", "17", "17", "16", "6", "6", "4", "3", "8", "10", "10", "24", "24", "23"], "time": [550, 2098, 2198, 2315, 2348, 2398, 3049, 3266, 3466, 4697, 4747, 4847, 4863, 4930, 5646, 5712, 5879, 6263, 7862, 8311, 9061, 9455, 9967, 10341, 10408, 10558, 11425, 11592, 11759, 13788, 19883, 20066]}, "edge": {"target": [], "time": []}}}, "displayed_time": "17.42", "trialTime": 21072, "trial_type": "mouselab-mdp", "trial_index": 9, "time_elapsed": 3454332, "internal_node_id": "0.0-2.1-2.1-0.1"}}, {"uniqueid": "w72409719:a73217223", "current_trial": 10, "dateTime": 1693484195689, "trialdata": {"revealed_states": [], "clicked_states": [], "num_clicks_accrued": [0, 0, 0, 0, 0, 0, 0, 0, 0, 0, 0, 0, 0], "stateRewards": ["", -10, -10, -10, 10, -10, 10, 10, -10, 10, 10, -10, -10, -10, -10, 10, -10, 10, 10, 10, 10, 10, -10, -10, 10, -10, 10, -10, -10, 10, -10, 10, -10, -10], "withholdReward": false, "trial_id": "practice_2", "block": "test", "trialIndex": 3, "score": -6.5, "costs": 0, "simulationMode": [null, null, null, null, null], "rewards": [-10, -10, -10, 10, 10], "path": ["0", "0", "1", "2", "3", "4", "6"], "rt": [776, 89, 33, 178, 417], "actions": ["up", "up", "up", "right", "right"], "actionTimes": [2306, 2907, 3450, 4160, 5083], "queries": {"click": {"state": {"target": [], "time": []}, "edge": {"target": [], "time": []}}, "mouseover": {"state": {"target": [], "time": []}, "edge": {"target": [], "time": []}}, "mouseout": {"state": {"target": ["0"], "time": [7529]}, "edge": {"target": [], "time": []}}}, "displayed_time": "5.60", "trialTime": 8650, "trial_type": "mouselab-mdp", "trial_index": 10, "time_elapsed": 3463090, "internal_node_id": "0.0-2.1-2.1-1.1"}}, {"uniqueid": "w72409719:a73217223", "current_trial": 11, "dateTime": 1693484269967, "trialdata": {"view_history": [{"page_index": 0, "viewing_time": 67829}, {"page_index": 1, "viewing_time": 6447}], "rt": 74276, "trial_id": "mouselab_instructions_2_control", "trial_type": "instructions", "trial_index": 11, "time_elapsed": 3537368, "internal_node_id": "0.0-2.1-3.1"}}, {"uniqueid": "w72409719:a73217223", "current_trial": 12, "dateTime": 1693484491464, "trialdata": {"rt": 221495, "response": {"Q0": "The cost for clicking on nodes may vary between nodes.", "Q1": "The better I perform the higher my bonus will be.", "Q2": "No, the amount of cash at each node of the web may be different each time.", "Q3": "To get the highest total score.", "Q4": "Only before moving the spider.", "Q5": "3 seconds"}, "question_order": [0, 1, 2, 3, 4, 5], "correct": {"Q0": "The cost for clicking on nodes may vary between nodes.", "Q1": "The better I perform the higher my bonus will be.", "Q2": "No, the amount of cash at each node of the web may be different each time.", "Q3": "To get the highest total score.", "Q4": "Only before moving the spider.", "Q5": "3 seconds"}, "trial_id": "mouselab_quiz_control", "trial_type": "survey-multi-choice", "trial_index": 12, "time_elapsed": 3758865, "internal_node_id": "0.0-2.1-4.1"}}, {"uniqueid": "w72409719:a73217223", "current_trial": 13, "dateTime": 1693484499159, "trialdata": {"rt": 7691, "response": {"Q0": "No"}, "question_order": [0], "trial_id": "repeat_check", "trial_type": "survey-multi-choice", "trial_index": 13, "time_elapsed": 3766560, "internal_node_id": "0.0-4.0-0.0"}}, {"uniqueid": "w72409719:a73217223", "current_trial": 14, "dateTime": 1693484519103, "trialdata": {"rt": 19941, "stimulus": "\n<h1> Get ready to start the game! </h1>\n\nThank you for reading the instructions. Get ready start with the 40 rounds of this game.\n<br><br>\nIf you need to take a break, feel free to take one after the end of a round, before continuing to the next one.\n<br><br>\nRemember, the more money the spider gets, the bigger your bonus will be!\n<br><br>\n<div style='text-align: center;'>Press <code>space</code> to begin.</div>\n\n<br><br>\n(If, at any point, the <code>space</code> key does not take you to the next page, click once on the text and try again.)", "response": " ", "trial_id": "mdp_ready", "trial_type": "html-keyboard-response", "trial_index": 14, "time_elapsed": 3786504, "internal_node_id": "0.0-6.0-0.0"}}, {"uniqueid": "w72409719:a73217223", "current_trial": 15, "dateTime": 1693484541643, "trialdata": {"revealed_states": [], "clicked_states": ["5", "29", "17", "4"], "num_clicks_accrued": [0, 0, 0, 0, 0, 0, 0, 0, 0, 0, 0, 0, 0], "stateRewards": ["", 1, 3, -2, 15, 51, 15, -19, 11, 67, -45, -73, 2, 4, -2, -13, 36, 9, -28, 10, -30, 31, 16, 1, 2, -1, -16, 14, -22, 36, -1, 88, -5, 45], "withholdReward": false, "trial_id": "mdp_trial_1", "block": "test", "trialIndex": 4, "score": 62.4, "costs": -5.6, "simulationMode": [null, null, null, null, null], "rewards": [1, 3, -2, 15, 51], "path": ["0", "0", "1", "2", "3", "4", "5"], "rt": [12480, 152, 68, 19, 166], "actions": ["up", "up", "up", "right", "up"], "actionTimes": [15952, 16621, 17202, 17737, 18416], "queries": {"click": {"state": {"target": ["5", "29", "17", "4"], "time": [5130, 8161, 10929, 13633]}, "edge": {"target": [], "time": []}}, "mouseover": {"state": {"target": ["1", "5", "5", "11", "27", "29", "26", "12", "22", "19", "13", "15", "17", "14", "22", "7", "4", "15"], "time": [4361, 4428, 4678, 7209, 7675, 7825, 8558, 8658, 8908, 9024, 10273, 10506, 10706, 11589, 11772, 13220, 13370, 13954]}, "edge": {"target": [], "time": []}}, "mouseout": {"state": {"target": ["3", "2", "1", "0", "1", "5", "5", "11", "27", "29", "26", "12", "22", "19", "13", "15", "17", "17", "14", "22", "7", "4", "4", "15", "19"], "time": [1597, 1630, 1697, 4245, 4378, 4461, 5594, 7592, 7758, 8525, 8575, 8741, 8991, 9990, 10406, 10656, 11046, 11439, 11638, 12088, 13321, 13742, 13887, 14087, 21597]}, "edge": {"target": [], "time": []}}}, "displayed_time": "18.93", "trialTime": 22407, "trial_type": "mouselab-mdp", "trial_index": 15, "time_elapsed": 3809044, "internal_node_id": "0.0-6.0-1.0-0.0"}}, {"uniqueid": "w72409719:a73217223", "current_trial": 16, "dateTime": 1693484562789, "trialdata": {"revealed_states": [], "clicked_states": ["32", "17", "9", "21"], "num_clicks_accrued": [0, 0, 0, 0, 0, 0, 0, 0, 0, 0, 0, 0, 0], "stateRewards": ["", 1, 2, -8, 9, 18, -83, -11, 6, -64, -48, 17, -2, -2, -5, -3, -24, -3, -86, -2, 48, -41, -22, -2, 4, 7, 8, 81, 13, -48, 10, 61, 19, 57], "withholdReward": false, "trial_id": "mdp_trial_2", "block": "test", "trialIndex": 5, "score": -20.6, "costs": -5.6, "simulationMode": [null, null, null, null, null], "rewards": [-2, -2, -5, -3, -3], "path": ["0", "0", "12", "13", "14", "15", "17"], "rt": [11913, 444, 189, 1583, 310], "actions": ["right", "right", "right", "up", "right"], "actionTimes": [13853, 14814, 15509, 17601, 18426], "queries": {"click": {"state": {"target": ["32", "17", "9", "21"], "time": [2902, 5342, 8046, 10678]}, "edge": {"target": [], "time": []}}, "mouseover": {"state": {"target": ["31", "32", "17", "15", "18", "27", "27", "9", "3", "16", "21", "22", "24", "25", "28", "1"], "time": [2463, 2779, 5177, 5610, 5628, 5777, 7508, 7791, 8524, 8574, 10339, 12820, 12870, 12888, 13220, 13286]}, "edge": {"target": [], "time": []}}, "mouseout": {"state": {"target": ["22", "0", "31", "32", "17", "15", "18", "27", "27", "9", "3", "16", "17", "21", "22", "24", "25", "28", "1"], "time": [1397, 2380, 2562, 3162, 5594, 5627, 5643, 5810, 7525, 8491, 8541, 8591, 8807, 11122, 12837, 12887, 12954, 13237, 13303]}, "edge": {"target": [], "time": []}}}, "displayed_time": "18.93", "trialTime": 21023, "trial_type": "mouselab-mdp", "trial_index": 16, "time_elapsed": 3830190, "internal_node_id": "0.0-6.0-1.0-1.0"}}, {"uniqueid": "w72409719:a73217223", "current_trial": 17, "dateTime": 1693484584378, "trialdata": {"revealed_states": [], "clicked_states": ["29", "5", "8", "32", "22"], "num_clicks_accrued": [0, 0, 0, 0, 0, 0, 0, 0, 0, 0, 0, 0, 0], "stateRewards": ["", -1, 2, -7, -12, -62, 12, -13, 5, 77, -71, 83, 1, -4, 7, 15, -42, -87, -4, 5, -25, 44, 88, -1, 4, -5, -8, 14, 51, 8, -5, 83, -24, -19], "withholdReward": false, "trial_id": "mdp_trial_3", "block": "test", "trialIndex": 6, "score": -30, "costs": -7, "simulationMode": [null, null, null, null, null], "rewards": [1, -4, 7, 15, -42], "path": ["0", "0", "12", "13", "14", "15", "16"], "rt": [13713, 20, 552, 91, 1444], "actions": ["right", "right", "right", "up", "up"], "actionTimes": [14846, 15391, 16457, 17060, 19013], "queries": {"click": {"state": {"target": ["29", "5", "8", "32", "22"], "time": [2341, 4276, 7212, 10292, 12204]}, "edge": {"target": [], "time": []}}, "mouseover": {"state": {"target": ["28", "26", "29", "26", "10", "2", "5", "4", "2", "1", "24", "10", "8", "8", "8", "2", "1", "10", "31", "32", "21", "22"], "time": [1732, 1899, 2165, 2598, 2648, 2665, 3081, 5097, 5247, 5363, 5646, 6578, 6612, 6795, 6928, 7678, 9292, 9475, 9858, 10125, 10958, 11724]}, "edge": {"target": [], "time": []}}, "mouseout": {"state": {"target": ["12", "28", "26", "29", "26", "10", "2", "5", "4", "2", "1", "24", "10", "8", "8", "8", "2", "1", "10", "31", "32", "21", "22", "32"], "time": [683, 1849, 2048, 2581, 2615, 2664, 2681, 5030, 5163, 5296, 5380, 5895, 6611, 6644, 6811, 7560, 7727, 9309, 9542, 9892, 10575, 11507, 12607, 21065]}, "edge": {"target": [], "time": []}}}, "displayed_time": "19.52", "trialTime": 21465, "trial_type": "mouselab-mdp", "trial_index": 17, "time_elapsed": 3851779, "internal_node_id": "0.0-6.0-1.0-2.0"}}, {"uniqueid": "w72409719:a73217223", "current_trial": 18, "dateTime": 1693484608604, "trialdata": {"revealed_states": [], "clicked_states": ["5", "20", "21", "31", "29", "33", "11"], "num_clicks_accrued": [0, 0, 0, 0, 0, 0, 0, 0, 0, 0, 0, 0, 0], "stateRewards": ["", 1, 1, 1, 15, -76, 52, -32, 14, -57, 37, 49, 1, -4, -3, 6, 83, -76, 25, 9, 36, -1, -17, -1, 4, 4, -2, -22, -21, 58, -15, -57, 49, -24], "withholdReward": false, "trial_id": "mdp_trial_4", "block": "test", "trialIndex": 7, "score": 53.2, "costs": -9.8, "simulationMode": [null, null, null, null, null], "rewards": [-1, 4, 4, -2, 58], "path": ["0", "0", "23", "24", "25", "26", "29"], "rt": [17421, 345, 36, 181, 138], "actions": ["left", "left", "left", "up", "left"], "actionTimes": [19195, 20045, 20585, 21279, 21935], "queries": {"click": {"state": {"target": ["5", "20", "21", "31", "29", "33", "11"], "time": [3246, 5109, 7141, 9693, 11893, 14261, 16445]}, "edge": {"target": [], "time": []}}, "mouseover": {"state": {"target": ["12", "8", "9", "5", "4", "13", "22", "21", "20", "21", "30", "33", "33", "30", "31", "30", "29", "33", "27", "11"], "time": [2397, 2513, 2613, 2863, 3496, 3563, 3596, 3862, 4145, 5694, 7593, 7611, 7709, 9041, 9457, 11272, 11755, 12604, 14819, 16057]}, "edge": {"target": [], "time": []}}, "mouseout": {"state": {"target": ["0", "12", "8", "9", "5", "4", "13", "22", "21", "20", "21", "30", "33", "33", "30", "31", "30", "29", "33", "29", "27", "11", "10", "1"], "time": [2381, 2430, 2530, 2663, 3480, 3513, 3579, 3696, 3912, 5594, 7509, 7609, 7642, 8958, 9390, 11239, 11505, 12454, 14586, 14652, 15769, 18449, 23578, 23644]}, "edge": {"target": [], "time": []}}}, "displayed_time": "22.45", "trialTime": 24108, "trial_type": "mouselab-mdp", "trial_index": 18, "time_elapsed": 3876004, "internal_node_id": "0.0-6.0-1.0-3.0"}}, {"uniqueid": "w72409719:a73217223", "current_trial": 19, "dateTime": 1693484625638, "trialdata": {"revealed_states": [], "clicked_states": ["5"], "num_clicks_accrued": [0, 0, 0, 0, 0, 0, 0, 0, 0, 0, 0, 0, 0], "stateRewards": ["", -1, 3, 1, -7, 56, 76, 57, 3, 11, -9, 14, 1, -2, 2, 8, -77, -3, 79, -5, 88, 24, -66, -2, -1, 7, -7, -30, 14, -76, 11, -36, 28, -6], "withholdReward": false, "trial_id": "mdp_trial_5", "block": "test", "trialIndex": 8, "score": 50.6, "costs": -1.4, "simulationMode": [null, null, null, null, null], "rewards": [-1, 3, 1, -7, 56], "path": ["0", "0", "1", "2", "3", "4", "5"], "rt": [3469, 410, 420, 116, 181], "actions": ["up", "up", "up", "right", "up"], "actionTimes": [5029, 5955, 6882, 7510, 8208], "queries": {"click": {"state": {"target": ["5"], "time": [2482]}, "edge": {"target": [], "time": []}}, "mouseover": {"state": {"target": ["4", "5", "5"], "time": [1964, 1982, 2231]}, "edge": {"target": [], "time": []}}, "mouseout": {"state": {"target": ["12", "0", "4", "5", "5", "4", "6"], "time": [1298, 1914, 1981, 1997, 4445, 10740, 10773]}, "edge": {"target": [], "time": []}}}, "displayed_time": "15.56", "trialTime": 16914, "trial_type": "mouselab-mdp", "trial_index": 19, "time_elapsed": 3893039, "internal_node_id": "0.0-6.0-1.0-4.0"}}, {"uniqueid": "w72409719:a73217223", "current_trial": 20, "dateTime": 1693484643566, "trialdata": {"revealed_states": [], "clicked_states": ["20"], "num_clicks_accrued": [0, 0, 0, 0, 0, 0, 0, 0, 0, 0, 0, 0, 0], "stateRewards": ["", 1, -1, 8, 4, 76, -33, -17, -3, -1, -54, -74, -2, 2, -5, 13, -51, 63, 83, 1, 84, 29, -36, 2, -1, 7, -12, -10, -44, -43, -14, 8, -69, 19], "withholdReward": false, "trial_id": "mdp_trial_6", "block": "test", "trialIndex": 9, "score": 78.6, "costs": -1.4, "simulationMode": [null, null, null, null, null], "rewards": [-2, 2, -5, 1, 84], "path": ["0", "0", "12", "13", "14", "19", "20"], "rt": [3600, 99, 84, 122, 160], "actions": ["right", "right", "right", "down", "right"], "actionTimes": [5677, 6311, 6913, 7550, 8221], "queries": {"click": {"state": {"target": ["20"], "time": [3134]}, "edge": {"target": [], "time": []}}, "mouseover": {"state": {"target": ["12", "13", "19", "20"], "time": [2531, 2549, 2715, 2998]}, "edge": {"target": [], "time": []}}, "mouseout": {"state": {"target": ["13", "12", "0", "12", "13", "19", "20", "21"], "time": [1515, 1665, 2514, 2548, 2565, 2731, 16885, 17002]}, "edge": {"target": [], "time": []}}}, "displayed_time": "16.08", "trialTime": 17792, "trial_type": "mouselab-mdp", "trial_index": 20, "time_elapsed": 3910967, "internal_node_id": "0.0-6.0-1.0-5.0"}}, {"uniqueid": "w72409719:a73217223", "current_trial": 21, "dateTime": 1693484662273, "trialdata": {"revealed_states": [], "clicked_states": ["18", "29"], "num_clicks_accrued": [0, 0, 0, 0, 0, 0, 0, 0, 0, 0, 0, 0, 0], "stateRewards": ["", 1, -4, -4, 8, 1, -79, 68, -10, -79, 8, -74, -1, -3, -6, 14, 43, 23, 9, 5, -51, 63, 61, -2, 4, 6, -10, 69, -32, 57, 15, -80, -80, -77], "withholdReward": false, "trial_id": "mdp_trial_7", "block": "test", "trialIndex": 10, "score": 52.2, "costs": -2.8, "simulationMode": [null, null, null, null, null], "rewards": [-2, 4, 6, -10, 57], "path": ["0", "0", "23", "24", "25", "26", "29"], "rt": [8833, 319, 587, 138, 43], "actions": ["left", "left", "left", "up", "left"], "actionTimes": [10482, 11309, 12410, 13059, 13614], "queries": {"click": {"state": {"target": ["18", "29"], "time": [3790, 6446]}, "edge": {"target": [], "time": []}}, "mouseover": {"state": {"target": ["22", "19", "14", "15", "15", "18", "1", "28", "26", "29"], "time": [2613, 2646, 2946, 3012, 3395, 3646, 4562, 5893, 5943, 6310]}, "edge": {"target": [], "time": []}}, "mouseout": {"state": {"target": ["0", "22", "19", "14", "15", "15", "18", "1", "28", "26", "29", "26", "24"], "time": [2579, 2630, 2663, 2962, 3179, 3412, 4512, 4578, 5927, 6026, 17616, 17799, 18216]}, "edge": {"target": [], "time": []}}}, "displayed_time": "15.65", "trialTime": 18562, "trial_type": "mouselab-mdp", "trial_index": 21, "time_elapsed": 3929674, "internal_node_id": "0.0-6.0-1.0-6.0"}}, {"uniqueid": "w72409719:a73217223", "current_trial": 22, "dateTime": 1693484680492, "trialdata": {"revealed_states": [], "clicked_states": ["5", "18", "32"], "num_clicks_accrued": [0, 0, 0, 0, 0, 0, 0, 0, 0, 0, 0, 0, 0], "stateRewards": ["", -1, -3, -6, 14, 41, 18, 63, -14, 80, 21, 17, -2, -4, -2, -5, 13, 70, 8, -4, -64, -10, -20, 2, -1, 4, -1, -17, -55, 42, -7, 47, 54, 15], "withholdReward": false, "trial_id": "mdp_trial_8", "block": "test", "trialIndex": 11, "score": 47.8, "costs": -4.199999999999999, "simulationMode": [null, null, null, null, null], "rewards": [2, -1, 4, -7, 54], "path": ["0", "0", "23", "24", "25", "30", "32"], "rt": [7130, 331, 119, 142, 107], "actions": ["left", "left", "left", "down", "down"], "actionTimes": [8723, 9572, 10209, 10864, 11479], "queries": {"click": {"state": {"target": ["5", "18", "32"], "time": [2417, 4409, 6417]}, "edge": {"target": [], "time": []}}, "mouseover": {"state": {"target": ["7", "4", "5", "6", "16", "18", "13", "32"], "time": [1913, 1946, 2296, 2895, 3411, 3561, 4827, 5310]}, "edge": {"target": [], "time": []}}, "mouseout": {"state": {"target": ["23", "0", "7", "4", "5", "6", "16", "18", "13", "32"], "time": [1063, 1113, 1929, 1963, 2828, 3344, 3478, 4794, 4877, 8024]}, "edge": {"target": [], "time": []}}}, "displayed_time": "15.59", "trialTime": 18080, "trial_type": "mouselab-mdp", "trial_index": 22, "time_elapsed": 3947892, "internal_node_id": "0.0-6.0-1.0-7.0"}}, {"uniqueid": "w72409719:a73217223", "current_trial": 23, "dateTime": 1693484709914, "trialdata": {"revealed_states": [], "clicked_states": [], "num_clicks_accrued": [0, 0, 0, 0, 0, 0, 0, 0, 0, 0, 0, 0, 0], "stateRewards": ["", -2, -1, -1, 5, -54, -87, 35, 2, -8, 20, -22, 1, 3, 6, 13, -75, -32, -55, -3, 56, 62, -22, -1, -4, -1, -7, -51, 84, 70, 7, -15, 5, 55], "withholdReward": false, "trial_id": "mdp_trial_9", "block": "test", "trialIndex": 12, "score": 69, "costs": 0, "simulationMode": [null, null, null, null, null], "rewards": [1, 3, 6, -3, 62], "path": ["0", "0", "12", "13", "14", "19", "21"], "rt": [18901, 304, 7, 66, 473], "actions": ["right", "right", "right", "down", "down"], "actionTimes": [20239, 21051, 21570, 22161, 23151], "queries": {"click": {"state": {"target": [], "time": []}, "edge": {"target": [], "time": []}}, "mouseover": {"state": {"target": [], "time": []}, "edge": {"target": [], "time": []}}, "mouseout": {"state": {"target": ["22", "19", "13"], "time": [712, 779, 862]}, "edge": {"target": [], "time": []}}}, "displayed_time": "23.66", "trialTime": 29267, "trial_type": "mouselab-mdp", "trial_index": 23, "time_elapsed": 3977315, "internal_node_id": "0.0-6.0-1.0-8.0"}}, {"uniqueid": "w72409719:a73217223", "current_trial": 24, "dateTime": 1693484741816, "trialdata": {"revealed_states": [], "clicked_states": [], "num_clicks_accrued": [0, 0, 0, 0, 0, 0, 0, 0, 0, 0, 0, 0, 0], "stateRewards": ["", 2, 3, -1, 16, -78, -11, 46, 2, -20, 79, -67, 2, 3, 2, 11, -83, -42, -58, -11, -67, -22, 55, 2, -1, -1, -16, -83, -82, 23, -11, -29, 13, 13], "withholdReward": false, "trial_id": "mdp_trial_10", "block": "test", "trialIndex": 13, "score": 9, "costs": 0, "simulationMode": [null, null, null, null, null], "rewards": [2, 3, -1, 16, -11], "path": ["0", "0", "1", "2", "3", "4", "6"], "rt": [6507, 88, 356, 195, 336], "actions": ["up", "up", "up", "right", "right"], "actionTimes": [9194, 9792, 10660, 11365, 12206], "queries": {"click": {"state": {"target": [], "time": []}, "edge": {"target": [], "time": []}}, "mouseover": {"state": {"target": ["1", "9", "9", "9"], "time": [4924, 5290, 5573, 6356]}, "edge": {"target": [], "time": []}}, "mouseout": {"state": {"target": ["0", "1", "9", "9", "9"], "time": [4912, 4941, 5407, 6006, 30935]}, "edge": {"target": [], "time": []}}}, "displayed_time": "16.69", "trialTime": 31743, "trial_type": "mouselab-mdp", "trial_index": 24, "time_elapsed": 4009217, "internal_node_id": "0.0-6.0-1.0-9.0"}}, {"uniqueid": "w72409719:a73217223", "current_trial": 25, "dateTime": 1693484766544, "trialdata": {"revealed_states": [], "clicked_states": ["32", "9", "5", "21", "31", "29"], "num_clicks_accrued": [0, 0, 0, 0, 0, 0, 0, 0, 0, 0, 0, 0, 0], "stateRewards": ["", -1, 1, 8, -3, -24, 11, -65, -6, -77, 48, 44, -2, 1, -2, -7, -55, -35, 33, 8, -28, 19, -53, -1, -1, -5, -5, -70, 10, 44, 8, -58, -70, 51], "withholdReward": false, "trial_id": "mdp_trial_11", "block": "test", "trialIndex": 14, "score": 23.6, "costs": -8.4, "simulationMode": [null, null, null, null, null], "rewards": [-1, -1, -5, -5, 44], "path": ["0", "0", "23", "24", "25", "26", "29"], "rt": [14980, 23, 752, 150, 45], "actions": ["left", "left", "left", "up", "left"], "actionTimes": [16129, 16660, 17922, 18585, 19146], "queries": {"click": {"state": {"target": ["32", "9", "5", "21", "31", "29"], "time": [2112, 4847, 6743, 8591, 10424, 12799]}, "edge": {"target": [], "time": []}}, "mouseover": {"state": {"target": ["31", "32", "22", "14", "17", "15", "4", "9", "5", "4", "18", "14", "19", "21", "31", "31", "29", "26", "28", "0"], "time": [1682, 1898, 2515, 2548, 2898, 3763, 4130, 4646, 5379, 7111, 7228, 7294, 7344, 7578, 9226, 9542, 12590, 13091, 13123, 15120]}, "edge": {"target": [], "time": []}}, "mouseout": {"state": {"target": ["8", "1", "0", "0", "31", "32", "22", "14", "17", "15", "4", "9", "5", "4", "18", "14", "19", "21", "31", "31", "31", "29", "26", "28", "0"], "time": [150, 399, 450, 1416, 1715, 2199, 2531, 2698, 3730, 3813, 4296, 5212, 7078, 7128, 7244, 7311, 7528, 8910, 9359, 11024, 11674, 13090, 13107, 13140, 15137]}, "edge": {"target": [], "time": []}}}, "displayed_time": "19.67", "trialTime": 24570, "trial_type": "mouselab-mdp", "trial_index": 25, "time_elapsed": 4033945, "internal_node_id": "0.0-6.0-1.0-10.0"}}, {"uniqueid": "w72409719:a73217223", "current_trial": 26, "dateTime": 1693484783489, "trialdata": {"revealed_states": [], "clicked_states": ["20", "17", "5", "11"], "num_clicks_accrued": [0, 0, 0, 0, 0, 0, 0, 0, 0, 0, 0, 0, 0], "stateRewards": ["", -1, 1, -6, -1, 80, 23, 2, -11, 73, -81, 59, 1, 3, 5, -1, -26, 28, -3, 16, -59, -13, -50, -2, -2, 2, 15, -50, 86, 17, -4, 37, 35, 44], "withholdReward": false, "trial_id": "mdp_trial_12", "block": "test", "trialIndex": 15, "score": 67.4, "costs": -5.6, "simulationMode": [null, null, null, null, null], "rewards": [-1, 1, -6, -1, 80], "path": ["0", "0", "1", "2", "3", "4", "5"], "rt": [10129, 245, 322, 17, 33], "actions": ["up", "up", "up", "right", "up"], "actionTimes": [11398, 12164, 12991, 13518, 14067], "queries": {"click": {"state": {"target": ["20", "17", "5", "11"], "time": [2667, 5242, 7707, 9611]}, "edge": {"target": [], "time": []}}, "mouseover": {"state": {"target": ["21", "20", "17", "15", "6", "5", "4", "3", "8", "11", "11"], "time": [1810, 2552, 4991, 6906, 7322, 7572, 8238, 8438, 8538, 8771, 8970]}, "edge": {"target": [], "time": []}}, "mouseout": {"state": {"target": ["0", "0", "21", "20", "17", "15", "6", "5", "4", "3", "8", "11", "11"], "time": [894, 1510, 1993, 4791, 6622, 6972, 7389, 8038, 8421, 8504, 8604, 8804, 9953]}, "edge": {"target": [], "time": []}}}, "displayed_time": "15.27", "trialTime": 16798, "trial_type": "mouselab-mdp", "trial_index": 26, "time_elapsed": 4050889, "internal_node_id": "0.0-6.0-1.0-11.0"}}, {"uniqueid": "w72409719:a73217223", "current_trial": 27, "dateTime": 1693484802882, "trialdata": {"revealed_states": [], "clicked_states": ["17", "5", "32", "21", "20", "29"], "num_clicks_accrued": [0, 0, 0, 0, 0, 0, 0, 0, 0, 0, 0, 0, 0], "stateRewards": ["", 2, -1, -1, -9, -81, -30, 55, -6, 78, 25, 62, 2, 4, -1, 9, -85, 1, -19, 1, -60, 12, -34, 1, 4, -1, -13, -24, -16, -83, -8, 16, 43, 9], "withholdReward": false, "trial_id": "mdp_trial_13", "block": "test", "trialIndex": 16, "score": 30.6, "costs": -8.4, "simulationMode": [null, null, null, null, null], "rewards": [1, 4, -1, -8, 43], "path": ["0", "0", "23", "24", "25", "30", "32"], "rt": [12651, 2, 200, 57, 19], "actions": ["left", "left", "left", "down", "down"], "actionTimes": [13888, 14397, 15129, 15701, 16229], "queries": {"click": {"state": {"target": ["17", "5", "32", "21", "20", "29"], "time": [2047, 3919, 5735, 7558, 9455, 11942]}, "edge": {"target": [], "time": []}}, "mouseover": {"state": {"target": ["12", "15", "17", "16", "5", "4", "2", "24", "30", "32", "21", "20", "20", "19", "22", "23", "24", "26", "29", "24"], "time": [1423, 1523, 1772, 2372, 2905, 4204, 4287, 4403, 4470, 4637, 6952, 9050, 9232, 10465, 10548, 11364, 11414, 11530, 11797, 12713]}, "edge": {"target": [], "time": []}}, "mouseout": {"state": {"target": ["8", "10", "1", "0", "12", "15", "17", "16", "5", "4", "2", "24", "30", "32", "21", "20", "20", "19", "22", "23", "24", "26", "29", "24", "16", "16", "15", "18", "13"], "time": [490, 573, 823, 1406, 1439, 1539, 2338, 2388, 4171, 4254, 4304, 4437, 4603, 6386, 8666, 9116, 10415, 10514, 10615, 11397, 11464, 11547, 12613, 12830, 18358, 18641, 18907, 18941, 18990]}, "edge": {"target": [], "time": []}}}, "displayed_time": "16.74", "trialTime": 19252, "trial_type": "mouselab-mdp", "trial_index": 27, "time_elapsed": 4070283, "internal_node_id": "0.0-6.0-1.0-12.0"}}, {"uniqueid": "w72409719:a73217223", "current_trial": 28, "dateTime": 1693484822999, "trialdata": {"revealed_states": [], "clicked_states": ["5", "17", "29", "32"], "num_clicks_accrued": [0, 0, 0, 0, 0, 0, 0, 0, 0, 0, 0, 0, 0], "stateRewards": ["", 1, 1, 7, -11, 80, -20, -53, -14, 3, 31, 27, 2, -1, -8, -10, 33, 41, 86, 9, 78, -37, -13, -1, -2, -6, -8, -80, 75, 4, -16, -49, -74, 24], "withholdReward": false, "trial_id": "mdp_trial_14", "block": "test", "trialIndex": 17, "score": 72.4, "costs": -5.6, "simulationMode": [null, null, null, null, null, null], "rewards": [1, 1, 7, -11, 80], "path": ["0", "0", "1", "2", "3", "4", "5"], "rt": [7294, 346, 1012, 78, 632, 200], "actions": ["up", "up", "up", "up", "right", "up"], "actionTimes": [8103, 8450, 9996, 10590, 11728, 12445], "queries": {"click": {"state": {"target": ["5", "17", "29", "32"], "time": [1486, 3788, 5861, 7725]}, "edge": {"target": [], "time": []}}, "mouseover": {"state": {"target": ["1", "2", "4", "5", "6", "16", "17", "15", "18", "1", "24", "25", "29", "25", "30", "32"], "time": [987, 1036, 1187, 1336, 1853, 2868, 3301, 4284, 4334, 4400, 4584, 4633, 5133, 6949, 7182, 7332]}, "edge": {"target": [], "time": []}}, "mouseout": {"state": {"target": ["12", "1", "2", "4", "5", "6", "16", "17", "15", "18", "1", "24", "25", "29", "25", "30", "32", "2", "10", "10", "8", "9", "8"], "time": [320, 1020, 1087, 1237, 1753, 2802, 3018, 3889, 4317, 4350, 4450, 4617, 4917, 6366, 7032, 7249, 7931, 16673, 17422, 17839, 17888, 19554, 19587]}, "edge": {"target": [], "time": []}}}, "displayed_time": "14.81", "trialTime": 19983, "trial_type": "mouselab-mdp", "trial_index": 28, "time_elapsed": 4090400, "internal_node_id": "0.0-6.0-1.0-13.0"}}, {"uniqueid": "w72409719:a73217223", "current_trial": 29, "dateTime": 1693484840201, "trialdata": {"revealed_states": [], "clicked_states": ["21", "22", "20", "17"], "num_clicks_accrued": [0, 0, 0, 0, 0, 0, 0, 0, 0, 0, 0, 0, 0], "stateRewards": ["", -1, -3, -5, -14, -13, -47, 79, 8, -60, -64, 41, -1, 2, 3, 13, -46, 61, -79, -11, -64, -65, 23, 1, -2, 6, -14, 46, 32, 21, 7, 75, -66, 15], "withholdReward": false, "trial_id": "mdp_trial_15", "block": "test", "trialIndex": 18, "score": 72.4, "costs": -5.6, "simulationMode": [null, null, null, null, null], "rewards": [-1, 2, 3, 13, 61], "path": ["0", "0", "12", "13", "14", "15", "17"], "rt": [9801, 236, 215, 110, 400], "actions": ["right", "right", "right", "up", "right"], "actionTimes": [11002, 11747, 12471, 13099, 14006], "queries": {"click": {"state": {"target": ["21", "22", "20", "17"], "time": [2197, 4356, 6283, 8404]}, "edge": {"target": [], "time": []}}, "mouseover": {"state": {"target": ["12", "13", "21", "19", "15", "19", "22", "19", "20", "17", "16", "6", "5", "5"], "time": [1564, 1648, 2056, 2780, 3296, 3979, 4179, 4762, 5062, 6760, 8742, 8808, 9092, 9541]}, "edge": {"target": [], "time": []}}, "mouseout": {"state": {"target": ["0", "12", "13", "21", "19", "15", "19", "22", "19", "20", "17", "16", "6", "5"], "time": [1498, 1632, 1681, 2747, 2797, 3479, 4062, 4745, 4812, 6510, 8692, 8792, 8842, 9391]}, "edge": {"target": [], "time": []}}}, "displayed_time": "15.20", "trialTime": 17064, "trial_type": "mouselab-mdp", "trial_index": 29, "time_elapsed": 4107601, "internal_node_id": "0.0-6.0-1.0-14.0"}}, {"uniqueid": "w72409719:a73217223", "current_trial": 30, "dateTime": 1693484860234, "trialdata": {"revealed_states": [], "clicked_states": ["18", "16", "9", "11", "29"], "num_clicks_accrued": [0, 0, 0, 0, 0, 0, 0, 0, 0, 0, 0, 0, 0], "stateRewards": ["", 2, 4, 7, -6, -76, -81, 2, 5, -66, -3, 36, -2, -4, 6, -2, -69, 4, -49, -6, 67, 38, -67, 2, 1, 1, 6, -68, -21, 52, -16, -16, 6, -70], "withholdReward": false, "trial_id": "mdp_trial_16", "block": "test", "trialIndex": 19, "score": 55, "costs": -7, "simulationMode": [null, null, null, null, null], "rewards": [2, 1, 1, 6, 52], "path": ["0", "0", "23", "24", "25", "26", "29"], "rt": [11847, 121, 278, 69, 463], "actions": ["left", "left", "left", "up", "left"], "actionTimes": [13793, 14427, 15217, 15792, 16768], "queries": {"click": {"state": {"target": ["18", "16", "9", "11", "29"], "time": [3492, 5492, 7308, 9236, 11197]}, "edge": {"target": [], "time": []}}, "mouseover": {"state": {"target": ["7", "5", "6", "16", "15", "18", "2", "7", "16", "4", "5", "9", "9", "11", "26", "29"], "time": [2416, 2749, 2816, 2915, 3165, 3315, 3832, 4697, 5313, 5780, 6147, 6313, 6512, 7629, 10192, 10409]}, "edge": {"target": [], "time": []}}, "mouseout": {"state": {"target": ["5", "10", "28", "23", "0", "7", "5", "6", "16", "15", "18", "2", "7", "16", "4", "5", "9", "9", "9", "11", "26", "29"], "time": [1217, 1300, 1417, 1483, 1699, 2449, 2782, 2849, 2949, 3232, 3765, 4667, 4731, 5730, 5797, 6246, 6329, 7330, 7562, 9595, 10276, 13090]}, "edge": {"target": [], "time": []}}}, "displayed_time": "17.30", "trialTime": 19897, "trial_type": "mouselab-mdp", "trial_index": 30, "time_elapsed": 4127635, "internal_node_id": "0.0-6.0-1.0-15.0"}}, {"uniqueid": "w72409719:a73217223", "current_trial": 31, "dateTime": 1693484879394, "trialdata": {"revealed_states": [], "clicked_states": ["5"], "num_clicks_accrued": [0, 0, 0, 0, 0, 0, 0, 0, 0, 0, 0, 0, 0], "stateRewards": ["", 1, 3, 1, -13, 52, -28, 67, -14, 3, 63, -70, -1, -4, 7, -11, -10, 47, -18, 6, 69, -9, -61, 2, 3, -6, 10, 63, -34, 40, -6, -79, -35, -32], "withholdReward": false, "trial_id": "mdp_trial_17", "block": "test", "trialIndex": 20, "score": 42.6, "costs": -1.4, "simulationMode": [null, null, null, null, null], "rewards": [1, 3, 1, -13, 52], "path": ["0", "0", "1", "2", "3", "4", "5"], "rt": [3659, 34, 103, 33, 85], "actions": ["up", "up", "up", "right", "up"], "actionTimes": [4719, 5258, 5876, 6422, 7040], "queries": {"click": {"state": {"target": ["5"], "time": [2059]}, "edge": {"target": [], "time": []}}, "mouseover": {"state": {"target": ["7", "4", "5", "4", "2", "31", "30", "32"], "time": [1575, 1675, 1925, 2408, 2458, 2791, 2841, 2941]}, "edge": {"target": [], "time": []}}, "mouseout": {"state": {"target": ["30", "0", "7", "4", "5", "5", "4", "2", "31", "30", "32", "14", "17", "15", "18", "18", "6", "9"], "time": [576, 1492, 1625, 1692, 2178, 2375, 2441, 2491, 2807, 2858, 15513, 16346, 16879, 16929, 16997, 17195, 17378, 18694]}, "edge": {"target": [], "time": []}}}, "displayed_time": "15.06", "trialTime": 19000, "trial_type": "mouselab-mdp", "trial_index": 31, "time_elapsed": 4146794, "internal_node_id": "0.0-6.0-1.0-16.0"}}, {"uniqueid": "w72409719:a73217223", "current_trial": 32, "dateTime": 1693484904468, "trialdata": {"revealed_states": [], "clicked_states": ["5", "16", "17", "22", "33", "29", "31"], "num_clicks_accrued": [0, 0, 0, 0, 0, 0, 0, 0, 0, 0, 0, 0, 0], "stateRewards": ["", 1, 1, 6, -14, -40, 37, 16, -13, 33, -68, 49, 2, 4, 3, 6, 55, 27, 32, 10, -65, 20, -87, 2, 1, -6, -5, -42, 12, 29, -8, 16, 76, -33], "withholdReward": false, "trial_id": "mdp_trial_18", "block": "test", "trialIndex": 21, "score": 60.2, "costs": -9.8, "simulationMode": [null, null, null, null, null], "rewards": [2, 4, 3, 6, 55], "path": ["0", "0", "12", "13", "14", "15", "16"], "rt": [14915, 137, 378, 103, 497], "actions": ["right", "right", "right", "up", "up"], "actionTimes": [15805, 16451, 17342, 17953, 18960], "queries": {"click": {"state": {"target": ["5", "16", "17", "22", "33", "29", "31"], "time": [1517, 3340, 5437, 7612, 9460, 11477, 13828]}, "edge": {"target": [], "time": []}}, "mouseover": {"state": {"target": ["4", "5", "17", "16", "17", "15", "18", "13", "21", "22", "31", "30", "33", "29", "29", "27", "24", "31", "31"], "time": [1226, 1259, 2075, 2742, 3625, 5706, 5972, 6172, 6355, 7422, 8503, 8536, 8919, 9968, 10335, 11817, 13349, 13383, 13682]}, "edge": {"target": [], "time": []}}, "mouseout": {"state": {"target": ["3", "2", "1", "0", "4", "5", "5", "17", "16", "17", "15", "18", "13", "21", "22", "31", "30", "33", "29", "29", "27", "24", "31", "31", "31"], "time": [426, 460, 526, 1143, 1243, 1602, 1792, 2608, 3558, 5672, 5889, 6122, 6205, 6938, 8420, 8519, 8853, 9818, 10118, 11606, 13249, 13382, 13432, 14548, 23907]}, "edge": {"target": [], "time": []}}}, "displayed_time": "19.48", "trialTime": 24891, "trial_type": "mouselab-mdp", "trial_index": 32, "time_elapsed": 4171868, "internal_node_id": "0.0-6.0-1.0-17.0"}}, {"uniqueid": "w72409719:a73217223", "current_trial": 33, "dateTime": 1693484934061, "trialdata": {"revealed_states": [], "clicked_states": ["10", "5", "7", "21", "22", "2", "17", "32"], "num_clicks_accrued": [0, 0, 0, 0, 0, 0, 0, 0, 0, 0, 0, 0, 0], "stateRewards": ["", -2, -2, -3, -6, -15, -11, 41, -12, -63, -76, 2, -2, -3, 8, 9, -36, -2, -18, -16, -32, -85, -17, -2, 1, 5, -16, 82, 35, -88, -1, 80, -82, -20], "withholdReward": false, "trial_id": "mdp_trial_19", "block": "test", "trialIndex": 22, "score": 16.799999999999997, "costs": -11.200000000000001, "simulationMode": [null, null, null, null, null], "rewards": [-2, -2, -3, -6, 41], "path": ["0", "0", "1", "2", "3", "4", "7"], "rt": [22896, 361, 91, 556, 100], "actions": ["up", "up", "up", "right", "down"], "actionTimes": [23802, 24674, 25270, 26334, 26944], "queries": {"click": {"state": {"target": ["10", "5", "7", "21", "22", "2", "17", "32"], "time": [1781, 3653, 5773, 8900, 11348, 15621, 18533, 21628]}, "edge": {"target": [], "time": []}}, "mouseover": {"state": {"target": ["1", "10", "2", "18", "15", "17", "15", "16", "6", "5", "6", "7", "7", "12", "22", "21", "22", "0", "1", "2", "4", "6", "12", "13", "1", "2", "12", "22", "14", "17", "14", "22", "25", "29", "30", "32", "32"], "time": [1066, 1609, 2132, 2282, 2315, 2448, 2566, 2665, 3033, 3215, 4163, 5062, 5279, 7744, 8426, 8676, 11041, 13272, 13338, 13407, 13655, 13721, 14704, 14871, 15320, 15453, 16169, 17818, 17935, 18368, 18917, 18984, 20832, 20865, 21082, 21248, 21441]}, "edge": {"target": [], "time": []}}, "mouseout": {"state": {"target": ["0", "1", "10", "2", "18", "15", "17", "15", "16", "6", "5", "6", "7", "7", "12", "22", "21", "22", "0", "1", "2", "4", "6", "12", "13", "1", "2", "12", "22", "14", "17", "14", "22", "25", "29", "30", "32", "32"], "time": [566, 1099, 2099, 2149, 2299, 2332, 2482, 2584, 2948, 3181, 4080, 4213, 5112, 6062, 8360, 8576, 10957, 11489, 13305, 13372, 13438, 13672, 14254, 14787, 15070, 15353, 15886, 16253, 17834, 18234, 18867, 18950, 19017, 20848, 20977, 21232, 21281, 22564]}, "edge": {"target": [], "time": []}}}, "displayed_time": "27.46", "trialTime": 29412, "trial_type": "mouselab-mdp", "trial_index": 33, "time_elapsed": 4201462, "internal_node_id": "0.0-6.0-1.0-18.0"}}, {"uniqueid": "w72409719:a73217223", "current_trial": 34, "dateTime": 1693484959351, "trialdata": {"revealed_states": [], "clicked_states": ["9", "5", "32", "29", "21", "16", "17"], "num_clicks_accrued": [0, 0, 0, 0, 0, 0, 0, 0, 0, 0, 0, 0, 0], "stateRewards": ["", 2, -1, 3, -12, -83, 6, -33, 9, 28, 24, -50, -2, -1, -2, -5, -87, 37, 82, 12, 80, -5, 10, -2, -3, -6, 9, 22, -1, 16, 9, 77, -62, 58], "withholdReward": false, "trial_id": "mdp_trial_20", "block": "test", "trialIndex": 23, "score": 17.2, "costs": -9.8, "simulationMode": [null, null, null, null, null], "rewards": [-2, -1, -2, -5, 37], "path": ["0", "0", "12", "13", "14", "15", "17"], "rt": [16884, 64, 30, 110, 322], "actions": ["right", "right", "right", "up", "right"], "actionTimes": [18256, 18834, 19383, 19997, 20825], "queries": {"click": {"state": {"target": ["9", "5", "32", "29", "21", "16", "17"], "time": [2369, 4577, 7176, 9673, 11656, 13985, 15855]}, "edge": {"target": [], "time": []}}, "mouseover": {"state": {"target": ["1", "2", "3", "9", "4", "6", "6", "5", "17", "13", "33", "32", "33", "29", "25", "30", "21", "19", "14", "15", "16", "15", "17", "14", "19", "22"], "time": [1684, 1717, 1751, 2200, 2783, 2850, 4116, 4365, 5231, 6397, 6463, 6863, 9211, 9561, 10127, 10177, 11309, 12875, 12958, 13324, 13824, 14640, 15206, 16339, 16389, 16422]}, "edge": {"target": [], "time": []}}, "mouseout": {"state": {"target": ["12", "0", "1", "2", "3", "9", "9", "4", "6", "6", "5", "17", "13", "33", "32", "33", "29", "25", "30", "21", "19", "14", "15", "16", "15", "17", "14", "19", "22"], "time": [951, 1634, 1701, 1734, 1817, 2478, 2650, 2833, 2950, 4199, 4798, 6363, 6413, 6496, 8961, 9228, 10044, 10144, 10211, 12815, 12941, 13224, 13607, 14590, 14656, 16189, 16355, 16405, 16439]}, "edge": {"target": [], "time": []}}}, "displayed_time": "21.34", "trialTime": 25130, "trial_type": "mouselab-mdp", "trial_index": 34, "time_elapsed": 4226752, "internal_node_id": "0.0-6.0-1.0-19.0"}}, {"uniqueid": "w72409719:a73217223", "current_trial": 35, "dateTime": 1693484990611, "trialdata": {"revealed_states": [], "clicked_states": ["5", "17"], "num_clicks_accrued": [0, 0, 0, 0, 0, 0, 0, 0, 0, 0, 0, 0, 0], "stateRewards": ["", 1, 1, -3, 2, 22, -25, -11, -5, 50, 49, 3, 1, -1, 8, 14, -85, -30, 57, -6, -39, -16, 59, -2, -1, 5, 5, 59, -16, 8, 4, 67, 56, -9], "withholdReward": false, "trial_id": "mdp_trial_21", "block": "test", "trialIndex": 24, "score": 40.2, "costs": -2.8, "simulationMode": [null, null, null, null, null], "rewards": [1, 1, -3, -5, 49], "path": ["0", "0", "1", "2", "3", "8", "10"], "rt": [10647, 454, 286, 394, 99], "actions": ["up", "up", "up", "left", "down"], "actionTimes": [11946, 12914, 13712, 14603, 15208], "queries": {"click": {"state": {"target": ["5", "17"], "time": [2100, 3939]}, "edge": {"target": [], "time": []}}, "mouseover": {"state": {"target": ["1", "4", "5", "6", "16", "15", "17", "13", "32"], "time": [1702, 1769, 1835, 2402, 2452, 2536, 2735, 8879, 9495]}, "edge": {"target": [], "time": []}}, "mouseout": {"state": {"target": ["23", "0", "1", "4", "5", "6", "16", "15", "17", "13", "32"], "time": [455, 1648, 1719, 1786, 2232, 2419, 2486, 2602, 4383, 8912, 30377]}, "edge": {"target": [], "time": []}}}, "displayed_time": "15.72", "trialTime": 31097, "trial_type": "mouselab-mdp", "trial_index": 35, "time_elapsed": 4258011, "internal_node_id": "0.0-6.0-1.0-20.0"}}, {"uniqueid": "w72409719:a73217223", "current_trial": 36, "dateTime": 1693485007713, "trialdata": {"revealed_states": [], "clicked_states": ["21", "32", "27"], "num_clicks_accrued": [0, 0, 0, 0, 0, 0, 0, 0, 0, 0, 0, 0, 0], "stateRewards": ["", 2, -2, -8, 9, -20, 55, -58, 14, 42, 2, 36, 1, -3, -5, 5, -58, 57, 60, 16, 57, 30, -70, -2, 1, 3, 10, 59, 23, 77, -13, -26, 88, -72], "withholdReward": false, "trial_id": "mdp_trial_22", "block": "test", "trialIndex": 25, "score": 72.8, "costs": -4.199999999999999, "simulationMode": [null, null, null, null, null, null], "rewards": [-2, 1, 3, -13, 88], "path": ["0", "0", "23", "24", "25", "30", "32"], "rt": [5285, 331, 144, 3, 169, 139], "actions": ["left", "left", "left", "left", "down", "down"], "actionTimes": [6466, 6798, 7474, 7983, 8681, 9334], "queries": {"click": {"state": {"target": ["21", "32", "27"], "time": [2009, 3864, 5736]}, "edge": {"target": [], "time": []}}, "mouseover": {"state": {"target": ["0", "21", "32", "30", "25", "26", "27", "28", "23"], "time": [1351, 1817, 2999, 4348, 4449, 4799, 5081, 6213, 6280]}, "edge": {"target": [], "time": []}}, "mouseout": {"state": {"target": ["0", "0", "21", "32", "30", "25", "26", "27", "28", "23"], "time": [984, 1451, 2366, 4216, 4398, 4782, 4981, 6147, 6246, 6363]}, "edge": {"target": [], "time": []}}}, "displayed_time": "15.18", "trialTime": 16908, "trial_type": "mouselab-mdp", "trial_index": 36, "time_elapsed": 4275113, "internal_node_id": "0.0-6.0-1.0-21.0"}}, {"uniqueid": "w72409719:a73217223", "current_trial": 37, "dateTime": 1693485029673, "trialdata": {"revealed_states": [], "clicked_states": ["21", "5", "9", "17", "29", "27", "28"], "num_clicks_accrued": [0, 0, 0, 0, 0, 0, 0, 0, 0, 0, 0, 0, 0], "stateRewards": ["", 2, -1, 1, 10, -52, 86, -22, -2, -14, -63, 38, 1, 3, 7, -8, 11, -32, -27, 9, -71, 40, -87, -2, -1, 5, -7, 12, 31, -57, 13, 86, -58, 29], "withholdReward": false, "trial_id": "mdp_trial_23", "block": "test", "trialIndex": 26, "score": 50.2, "costs": -9.8, "simulationMode": [null, null, null, null, null], "rewards": [1, 3, 7, 9, 40], "path": ["0", "0", "12", "13", "14", "19", "21"], "rt": [15425, 116, 235, 25, 102], "actions": ["right", "right", "right", "down", "down"], "actionTimes": [17015, 17634, 18385, 18926, 19536], "queries": {"click": {"state": {"target": ["21", "5", "9", "17", "29", "27", "28"], "time": [2190, 4188, 6094, 7942, 10366, 12086, 15199]}, "edge": {"target": [], "time": []}}, "mouseover": {"state": {"target": ["0", "21", "19", "5", "4", "7", "7", "11", "9", "4", "16", "17", "15", "18", "1", "23", "24", "26", "29", "27", "26", "25", "30", "31", "24", "28", "23", "23", "28", "23"], "time": [1830, 1913, 2330, 2680, 4595, 4678, 5011, 5078, 5494, 6377, 6477, 6910, 8275, 8309, 8392, 8625, 8941, 8991, 10239, 10656, 12438, 12505, 12554, 13154, 13587, 14486, 14753, 14836, 15019, 15702]}, "edge": {"target": [], "time": []}}, "mouseout": {"state": {"target": ["0", "21", "19", "5", "4", "7", "7", "11", "9", "4", "16", "17", "15", "18", "1", "23", "24", "26", "29", "27", "26", "25", "30", "31", "24", "28", "23", "23", "28", "23"], "time": [1863, 2285, 2347, 4562, 4645, 4745, 5027, 5094, 6310, 6410, 6694, 8259, 8292, 8325, 8509, 8891, 8975, 9042, 10573, 12388, 12471, 12537, 12654, 13554, 14069, 14652, 14769, 14919, 15469, 15835]}, "edge": {"target": [], "time": []}}}, "displayed_time": "20.05", "trialTime": 21746, "trial_type": "mouselab-mdp", "trial_index": 37, "time_elapsed": 4297074, "internal_node_id": "0.0-6.0-1.0-22.0"}}, {"uniqueid": "w72409719:a73217223", "current_trial": 38, "dateTime": 1693485050510, "trialdata": {"revealed_states": [], "clicked_states": ["32", "5", "9", "17", "21", "16"], "num_clicks_accrued": [0, 0, 0, 0, 0, 0, 0, 0, 0, 0, 0, 0, 0], "stateRewards": ["", -1, 3, 2, 9, 41, 4, -46, -12, -54, -87, -25, 2, 3, -1, 11, -77, 12, -33, -9, -32, 35, 72, 1, 3, -7, 4, 37, 65, -73, 6, 77, -43, 8], "withholdReward": false, "trial_id": "mdp_trial_24", "block": "test", "trialIndex": 27, "score": 45.6, "costs": -8.4, "simulationMode": [null, null, null, null, null], "rewards": [-1, 3, 2, 9, 41], "path": ["0", "0", "1", "2", "3", "4", "5"], "rt": [13750, 52, 24, 429, 96], "actions": ["up", "up", "up", "right", "up"], "actionTimes": [16023, 16593, 17132, 18071, 18685], "queries": {"click": {"state": {"target": ["32", "5", "9", "17", "21", "16"], "time": [3418, 5361, 7633, 9961, 11929, 13978]}, "edge": {"target": [], "time": []}}, "mouseover": {"state": {"target": ["23", "24", "30", "32", "32", "10", "3", "5", "5", "9", "9", "3", "7", "15", "17", "17", "19", "21", "16"], "time": [2769, 2819, 2869, 2936, 3236, 3687, 3720, 4303, 4703, 6300, 7482, 8133, 8182, 8249, 8332, 9797, 10396, 10463, 12645]}, "edge": {"target": [], "time": []}}, "mouseout": {"state": {"target": ["14", "23", "0", "23", "24", "30", "32", "32", "10", "3", "5", "5", "5", "9", "9", "3", "7", "15", "17", "17", "19", "21", "16"], "time": [1437, 1820, 2719, 2803, 2836, 2919, 3036, 3587, 3703, 3737, 4321, 5402, 5750, 6517, 8083, 8166, 8199, 8283, 8366, 10279, 10429, 12179, 15460]}, "edge": {"target": [], "time": []}}}, "displayed_time": "19.19", "trialTime": 20642, "trial_type": "mouselab-mdp", "trial_index": 38, "time_elapsed": 4317911, "internal_node_id": "0.0-6.0-1.0-23.0"}}, {"uniqueid": "w72409719:a73217223", "current_trial": 39, "dateTime": 1693485070155, "trialdata": {"revealed_states": [], "clicked_states": ["27"], "num_clicks_accrued": [0, 0, 0, 0, 0, 0, 0, 0, 0, 0, 0, 0, 0], "stateRewards": ["", -1, 2, -6, 6, 43, 78, 78, -2, 55, -29, -17, -2, -4, 1, -15, 13, 7, -79, 8, -28, -68, 36, -1, -3, 3, -16, 84, -18, 87, 10, 32, 13, -81], "withholdReward": false, "trial_id": "mdp_trial_25", "block": "test", "trialIndex": 28, "score": 65.6, "costs": -1.4, "simulationMode": [null, null, null, null, null], "rewards": [-1, -3, 3, -16, 84], "path": ["0", "0", "23", "24", "25", "26", "27"], "rt": [3772, 120, 277, 98, 404], "actions": ["left", "left", "left", "up", "up"], "actionTimes": [6597, 7228, 8019, 8622, 9542], "queries": {"click": {"state": {"target": ["27"], "time": [4305]}, "edge": {"target": [], "time": []}}, "mouseover": {"state": {"target": ["26", "27", "26", "25", "33"], "time": [3743, 4159, 4876, 4975, 5974]}, "edge": {"target": [], "time": []}}, "mouseout": {"state": {"target": ["15", "13", "22", "12", "0", "26", "27", "26", "25", "33", "30", "31"], "time": [1379, 1444, 1511, 2377, 3253, 3943, 4826, 4942, 5042, 18763, 18813, 19146]}, "edge": {"target": [], "time": []}}}, "displayed_time": "16.82", "trialTime": 19446, "trial_type": "mouselab-mdp", "trial_index": 39, "time_elapsed": 4337556, "internal_node_id": "0.0-6.0-1.0-24.0"}}, {"uniqueid": "w72409719:a73217223", "current_trial": 40, "dateTime": 1693485087852, "trialdata": {"revealed_states": [], "clicked_states": ["5", "7", "9", "10", "11"], "num_clicks_accrued": [0, 0, 0, 0, 0, 0, 0, 0, 0, 0, 0, 0, 0], "stateRewards": ["", -1, 4, -8, 12, 14, 69, -8, 5, -72, -14, 56, -1, -1, -1, 9, 67, 19, 11, -9, -88, -58, 3, 2, -4, -8, 4, 62, 77, -74, 5, -31, 65, 88], "withholdReward": false, "trial_id": "mdp_trial_26", "block": "test", "trialIndex": 29, "score": 49, "costs": -7, "simulationMode": [null, null, null, null, null], "rewards": [-1, 4, -8, 5, 56], "path": ["0", "0", "1", "2", "3", "8", "11"], "rt": [10812, 54, 328, 94, 105], "actions": ["up", "up", "up", "left", "left"], "actionTimes": [12149, 12720, 13561, 14160, 14771], "queries": {"click": {"state": {"target": ["5", "7", "9", "10", "11"], "time": [2387, 4139, 6108, 7979, 9787]}, "edge": {"target": [], "time": []}}, "mouseover": {"state": {"target": ["4", "5", "4", "7", "7", "8", "9", "8", "10", "11", "2"], "time": [1658, 2224, 2724, 2774, 3040, 4539, 4689, 6555, 7137, 8386, 10451]}, "edge": {"target": [], "time": []}}, "mouseout": {"state": {"target": ["0", "4", "5", "5", "4", "7", "7", "8", "9", "8", "10", "11", "2"], "time": [1608, 1675, 2511, 2707, 2757, 2807, 4423, 4589, 6488, 6688, 8219, 10185, 10735]}, "edge": {"target": [], "time": []}}}, "displayed_time": "15.34", "trialTime": 17457, "trial_type": "mouselab-mdp", "trial_index": 40, "time_elapsed": 4355253, "internal_node_id": "0.0-6.0-1.0-25.0"}}, {"uniqueid": "w72409719:a73217223", "current_trial": 41, "dateTime": 1693485104444, "trialdata": {"revealed_states": [], "clicked_states": ["32"], "num_clicks_accrued": [0, 0, 0, 0, 0, 0, 0, 0, 0, 0, 0, 0, 0], "stateRewards": ["", 1, 1, 1, -3, -7, -1, -41, -10, 20, -72, -63, 1, -4, -2, 2, -66, 30, -84, -2, 49, 23, 71, -1, -4, 4, -12, 67, 5, 18, -16, 88, 56, -5], "withholdReward": false, "trial_id": "mdp_trial_27", "block": "test", "trialIndex": 30, "score": 37.6, "costs": -1.4, "simulationMode": [null, null, null, null, null], "rewards": [-1, -4, 4, -16, 56], "path": ["0", "0", "23", "24", "25", "30", "32"], "rt": [3773, 104, 250, 45, 64], "actions": ["left", "left", "left", "down", "down"], "actionTimes": [5243, 5866, 6628, 7188, 7773], "queries": {"click": {"state": {"target": ["32"], "time": [2774]}, "edge": {"target": [], "time": []}}, "mouseover": {"state": {"target": ["23", "31", "32", "31", "23", "18", "17", "20", "17", "17"], "time": [1864, 2089, 2580, 3030, 3064, 3115, 3380, 4030, 4728, 5050]}, "edge": {"target": [], "time": []}}, "mouseout": {"state": {"target": ["1", "12", "22", "0", "23", "31", "32", "31", "23", "18", "17", "20", "17", "17", "15", "18", "12"], "time": [398, 431, 465, 1831, 1881, 2214, 2997, 3047, 3080, 3133, 3846, 4434, 4762, 15169, 15302, 15535, 16018]}, "edge": {"target": [], "time": []}}}, "displayed_time": "15.47", "trialTime": 16404, "trial_type": "mouselab-mdp", "trial_index": 41, "time_elapsed": 4371845, "internal_node_id": "0.0-6.0-1.0-26.0"}}, {"uniqueid": "w72409719:a73217223", "current_trial": 42, "dateTime": 1693485131138, "trialdata": {"revealed_states": [], "clicked_states": [], "num_clicks_accrued": [0, 0, 0, 0, 0, 0, 0, 0, 0, 0, 0, 0, 0], "stateRewards": ["", 1, -1, 4, -2, -75, -75, 84, -9, -60, -79, 59, 2, -4, 8, 9, -17, -82, 80, 14, -4, 49, 49, -1, 3, 6, -11, -33, 34, 55, 9, -57, 5, 59], "withholdReward": false, "trial_id": "mdp_trial_28", "block": "test", "trialIndex": 31, "score": 86, "costs": 0, "simulationMode": [null, null, null, null, null], "rewards": [1, -1, 4, -2, 84], "path": ["0", "0", "1", "2", "3", "4", "7"], "rt": [7821, 34, 576, 125, 304], "actions": ["up", "up", "up", "right", "down"], "actionTimes": [18279, 18841, 19949, 20582, 21394], "queries": {"click": {"state": {"target": [], "time": []}, "edge": {"target": [], "time": []}}, "mouseover": {"state": {"target": ["0", "0", "0", "0", "1", "0", "1", "2", "3", "9", "8", "10", "28", "30", "31", "24"], "time": [10630, 14204, 14776, 15026, 15425, 15808, 15941, 16041, 16125, 16576, 17057, 17107, 17125, 17691, 17740, 18156]}, "edge": {"target": [], "time": []}}, "mouseout": {"state": {"target": ["0", "0", "0", "0", "0", "1", "0", "1", "2", "3", "9", "8", "10", "28", "30", "31", "24"], "time": [10196, 13860, 14309, 14792, 15164, 15642, 15900, 16008, 16091, 16158, 16941, 17091, 17124, 17140, 17707, 18023, 18206]}, "edge": {"target": [], "time": []}}}, "displayed_time": "24.46", "trialTime": 26469, "trial_type": "mouselab-mdp", "trial_index": 42, "time_elapsed": 4398539, "internal_node_id": "0.0-6.0-1.0-27.0"}}, {"uniqueid": "w72409719:a73217223", "current_trial": 43, "dateTime": 1693485148595, "trialdata": {"revealed_states": [], "clicked_states": ["7", "32", "20"], "num_clicks_accrued": [0, 0, 0, 0, 0, 0, 0, 0, 0, 0, 0, 0, 0], "stateRewards": ["", 1, -3, -2, 14, 49, -40, -39, 2, 26, -61, 73, 1, -4, -8, 12, 79, 29, -65, -13, 55, -26, 27, -1, 3, 3, 9, -17, -60, -18, -8, 35, -88, 69], "withholdReward": false, "trial_id": "mdp_trial_29", "block": "test", "trialIndex": 32, "score": 26.8, "costs": -4.199999999999999, "simulationMode": [null, null, null, null, null], "rewards": [1, -4, -8, -13, 55], "path": ["0", "0", "12", "13", "14", "19", "20"], "rt": [7444, 105, 438, 30, 25], "actions": ["right", "right", "right", "down", "right"], "actionTimes": [8592, 9206, 10155, 10695, 11224], "queries": {"click": {"state": {"target": ["7", "32", "20"], "time": [1957, 3804, 6444]}, "edge": {"target": [], "time": []}}, "mouseover": {"state": {"target": ["1", "2", "7", "1", "23", "32", "21", "20", "20", "19", "22"], "time": [1456, 1589, 1755, 2406, 2439, 3139, 5818, 6085, 6232, 6851, 6901]}, "edge": {"target": [], "time": []}}, "mouseout": {"state": {"target": ["23", "0", "1", "2", "7", "7", "1", "23", "32", "32", "21", "20", "20", "19", "22", "1", "2", "7", "4", "3"], "time": [423, 1372, 1505, 1606, 2122, 2373, 2423, 2456, 3908, 4171, 5835, 6118, 6801, 6884, 6951, 15859, 16059, 16325, 16425, 16926]}, "edge": {"target": [], "time": []}}}, "displayed_time": "15.15", "trialTime": 17234, "trial_type": "mouselab-mdp", "trial_index": 43, "time_elapsed": 4415996, "internal_node_id": "0.0-6.0-1.0-28.0"}}, {"uniqueid": "w72409719:a73217223", "current_trial": 44, "dateTime": 1693485183817, "trialdata": {"revealed_states": [], "clicked_states": ["5", "17", "29", "32", "21", "20", "28", "7", "11", "9", "10"], "num_clicks_accrued": [0, 0, 0, 0, 0, 0, 0, 0, 0, 0, 0, 0, 0], "stateRewards": ["", -1, -4, 8, 8, -68, 47, 24, -7, -61, 49, -69, -1, -1, 8, -7, 42, 1, -45, -11, 10, -63, -6, 1, 4, 6, -16, 79, -37, -58, -12, 81, 18, -53], "withholdReward": false, "trial_id": "mdp_trial_30", "block": "test", "trialIndex": 33, "score": 29.599999999999998, "costs": -15.400000000000002, "simulationMode": [null, null, null, null, null], "rewards": [-1, -4, 8, -7, 49], "path": ["0", "0", "1", "2", "3", "8", "10"], "rt": [24752, 49, 303, 665, 81], "actions": ["up", "up", "up", "left", "down"], "actionTimes": [26250, 26822, 27642, 28820, 29418], "queries": {"click": {"state": {"target": ["5", "17", "29", "32", "21", "20", "28", "7", "11", "9", "10"], "time": [2749, 4541, 6557, 9053, 10885, 12693, 15252, 17093, 19796, 21982, 23877]}, "edge": {"target": [], "time": []}}, "mouseover": {"state": {"target": ["1", "2", "4", "5", "6", "16", "17", "1", "29", "33", "32", "21", "20", "19", "13", "12", "28", "10", "2", "7", "1", "10", "11", "10", "10", "10", "8", "9", "8", "10", "23", "24", "24"], "time": [2060, 2093, 2276, 2459, 3176, 3758, 4041, 4975, 5707, 8438, 8754, 10170, 12465, 12985, 13118, 13168, 13767, 16198, 16298, 16565, 17630, 19461, 19528, 20211, 20644, 21560, 21609, 21809, 22410, 22526, 24508, 24874, 25856]}, "edge": {"target": [], "time": []}}, "mouseout": {"state": {"target": ["2", "1", "1", "0", "1", "2", "4", "5", "6", "16", "17", "1", "29", "33", "32", "21", "20", "19", "13", "12", "28", "10", "2", "7", "1", "10", "11", "10", "10", "10", "8", "9", "8", "10", "23", "24", "24"], "time": [561, 697, 844, 1793, 2076, 2226, 2343, 3092, 3192, 3792, 4908, 4991, 6857, 8621, 9488, 12102, 12935, 13018, 13151, 13201, 15649, 16232, 16449, 17397, 19445, 19478, 20128, 20444, 20793, 21593, 21643, 22343, 22460, 24175, 24774, 25357, 25906]}, "edge": {"target": [], "time": []}}}, "displayed_time": "29.94", "trialTime": 34993, "trial_type": "mouselab-mdp", "trial_index": 44, "time_elapsed": 4451218, "internal_node_id": "0.0-6.0-1.0-29.0"}}, {"uniqueid": "w72409719:a73217223", "current_trial": 45, "dateTime": 1693485202362, "trialdata": {"revealed_states": [], "clicked_states": ["5", "32"], "num_clicks_accrued": [0, 0, 0, 0, 0, 0, 0, 0, 0, 0, 0, 0, 0], "stateRewards": ["", 2, -4, -4, 13, -80, 62, 13, -11, 57, -13, -44, 1, 4, 3, -4, -29, -88, 15, 16, -58, 68, -45, -1, -3, -1, -9, -44, -86, -19, -7, -36, 59, 66], "withholdReward": false, "trial_id": "mdp_trial_31", "block": "test", "trialIndex": 34, "score": 44.2, "costs": -2.8, "simulationMode": [null, null, null, null, null], "rewards": [-1, -3, -1, -7, 59], "path": ["0", "0", "23", "24", "25", "30", "32"], "rt": [6726, 139, 78, 52, 106], "actions": ["left", "left", "left", "down", "down"], "actionTimes": [8151, 8814, 9403, 9959, 10596], "queries": {"click": {"state": {"target": ["5", "32"], "time": [3774, 5838]}, "edge": {"target": [], "time": []}}, "mouseover": {"state": {"target": ["0", "10", "8", "3", "2", "1", "12", "0", "1", "4", "5", "11", "25", "30", "32", "32", "13", "18", "15", "15", "18", "12", "0", "31"], "time": [1930, 2246, 2296, 2562, 2763, 2912, 2995, 3312, 3345, 3480, 3613, 4304, 4629, 4795, 4846, 5178, 6743, 6859, 6959, 7808, 7826, 7858, 7875, 7941]}, "edge": {"target": [], "time": []}}, "mouseout": {"state": {"target": ["0", "0", "10", "8", "3", "2", "1", "12", "0", "1", "4", "5", "5", "11", "25", "30", "32", "32", "13", "18", "15", "15", "18", "12", "0", "31"], "time": [1163, 2163, 2279, 2530, 2729, 2862, 2946, 3030, 3328, 3362, 3578, 3917, 4113, 4479, 4712, 4829, 4912, 6543, 6809, 6876, 7076, 7825, 7841, 7874, 7891, 17818]}, "edge": {"target": [], "time": []}}}, "displayed_time": "15.43", "trialTime": 18355, "trial_type": "mouselab-mdp", "trial_index": 45, "time_elapsed": 4469763, "internal_node_id": "0.0-6.0-1.0-30.0"}}, {"uniqueid": "w72409719:a73217223", "current_trial": 46, "dateTime": 1693485219546, "trialdata": {"revealed_states": [], "clicked_states": ["16", "32", "29", "9", "5"], "num_clicks_accrued": [0, 0, 0, 0, 0, 0, 0, 0, 0, 0, 0, 0, 0], "stateRewards": ["", -1, 1, -5, -6, -78, 47, -13, 12, 48, -88, 20, 2, -3, -2, 13, -20, 37, -57, 14, -38, 30, 31, -2, -2, 8, 2, -23, 78, 28, 12, -74, -88, 8], "withholdReward": false, "trial_id": "mdp_trial_32", "block": "test", "trialIndex": 35, "score": 48, "costs": -7, "simulationMode": [null, null, null, null, null, null], "rewards": [-1, 1, -5, 12, 48], "path": ["0", "0", "1", "2", "3", "8", "9"], "rt": [9640, 256, 197, 263, 413, 95], "actions": ["up", "up", "up", "up", "left", "up"], "actionTimes": [11016, 11274, 11995, 12774, 13708, 14321], "queries": {"click": {"state": {"target": ["16", "32", "29", "9", "5"], "time": [2533, 4981, 6837, 8629, 10469]}, "edge": {"target": [], "time": []}}, "mouseover": {"state": {"target": ["18", "16", "33", "32", "29", "26", "27", "11", "9", "5"], "time": [1969, 2285, 3218, 4817, 5851, 7232, 7299, 7382, 7698, 9565]}, "edge": {"target": [], "time": []}}, "mouseout": {"state": {"target": ["0", "18", "16", "33", "32", "29", "26", "27", "11", "9", "5", "4", "7"], "time": [1219, 2069, 3102, 3235, 5418, 7183, 7282, 7349, 7416, 9248, 11212, 11378, 11414]}, "edge": {"target": [], "time": []}}}, "displayed_time": "15.38", "trialTime": 16978, "trial_type": "mouselab-mdp", "trial_index": 46, "time_elapsed": 4486947, "internal_node_id": "0.0-6.0-1.0-31.0"}}, {"uniqueid": "w72409719:a73217223", "current_trial": 47, "dateTime": 1693485235770, "trialdata": {"revealed_states": [], "clicked_states": ["17"], "num_clicks_accrued": [0, 0, 0, 0, 0, 0, 0, 0, 0, 0, 0, 0, 0], "stateRewards": ["", -1, -4, -6, -15, 21, -67, -63, 9, 51, 69, -14, -1, 3, 8, -8, 39, 72, 63, 15, 19, 47, 15, 1, 4, 5, 16, -18, 34, 35, -14, -80, 40, 1], "withholdReward": false, "trial_id": "mdp_trial_33", "block": "test", "trialIndex": 36, "score": 72.6, "costs": -1.4, "simulationMode": [null, null, null, null, null], "rewards": [-1, 3, 8, -8, 72], "path": ["0", "0", "12", "13", "14", "15", "17"], "rt": [3089, 31, 29, 54, 292], "actions": ["right", "right", "right", "up", "right"], "actionTimes": [4104, 4653, 5217, 5776, 6597], "queries": {"click": {"state": {"target": ["17"], "time": [1703]}, "edge": {"target": [], "time": []}}, "mouseover": {"state": {"target": ["12", "15", "17", "14", "19", "21"], "time": [1191, 1308, 1458, 2075, 2124, 2207]}, "edge": {"target": [], "time": []}}, "mouseout": {"state": {"target": ["12", "0", "12", "15", "17", "14", "19", "21"], "time": [591, 1158, 1224, 1424, 2008, 2107, 2157, 14130]}, "edge": {"target": [], "time": []}}}, "displayed_time": "15.02", "trialTime": 16005, "trial_type": "mouselab-mdp", "trial_index": 47, "time_elapsed": 4503171, "internal_node_id": "0.0-6.0-1.0-32.0"}}, {"uniqueid": "w72409719:a73217223", "current_trial": 48, "dateTime": 1693485269779, "trialdata": {"revealed_states": [], "clicked_states": ["16", "32", "29", "11", "6", "7", "21", "20", "22", "17", "33"], "num_clicks_accrued": [0, 0, 0, 0, 0, 0, 0, 0, 0, 0, 0, 0, 0], "stateRewards": ["", 2, 4, -3, 16, -58, 30, -35, 11, -60, 47, 27, -2, -1, -7, -16, 23, -70, 68, -10, -65, -43, -34, -2, 1, 7, 9, -63, 34, -31, -8, -12, -86, 59], "withholdReward": false, "trial_id": "mdp_trial_34", "block": "test", "trialIndex": 37, "score": 41.599999999999994, "costs": -15.400000000000002, "simulationMode": [null, null, null, null, null], "rewards": [-2, 1, 7, -8, 59], "path": ["0", "0", "23", "24", "25", "30", "33"], "rt": [24025, 412, 233, 59, 65], "actions": ["left", "left", "left", "down", "left"], "actionTimes": [25591, 26509, 27261, 27837, 28408], "queries": {"click": {"state": {"target": ["16", "32", "29", "11", "6", "7", "21", "20", "22", "17", "33"], "time": [2467, 4516, 6403, 8139, 10163, 12499, 14347, 16251, 17995, 20380, 23211]}, "edge": {"target": [], "time": []}}, "mouseover": {"state": {"target": ["12", "13", "16", "18", "31", "30", "32", "30", "25", "29", "27", "11", "11", "11", "8", "3", "4", "6", "7", "13", "21", "21", "20", "19", "22", "22", "14", "15", "17", "15", "13", "12", "31", "30", "31", "30", "33", "31"], "time": [1865, 1915, 2264, 2832, 2882, 2899, 3215, 5346, 5379, 5879, 6927, 7061, 7294, 7610, 8510, 8576, 8659, 8743, 11291, 12939, 13239, 13555, 14704, 16453, 16486, 16735, 19050, 20066, 20199, 20783, 20899, 20949, 22347, 22397, 22796, 22946, 23046, 24662]}, "edge": {"target": [], "time": []}}, "mouseout": {"state": {"target": ["0", "0", "12", "13", "16", "18", "31", "30", "32", "30", "25", "29", "27", "11", "11", "11", "8", "3", "4", "6", "7", "13", "21", "21", "20", "19", "22", "22", "14", "15", "17", "17", "15", "13", "12", "31", "30", "31", "30", "33", "33", "31", "5", "4", "7"], "time": [965, 1831, 1898, 1948, 2748, 2848, 2898, 2915, 5296, 5363, 5396, 6503, 7011, 7078, 7361, 8476, 8559, 8626, 8710, 10775, 12823, 12972, 13289, 14592, 16436, 16470, 16503, 18019, 19883, 20082, 20387, 20749, 20816, 20916, 21216, 22363, 22613, 22897, 22980, 23335, 24495, 25294, 33337, 33404, 33471]}, "edge": {"target": [], "time": []}}}, "displayed_time": "28.94", "trialTime": 33769, "trial_type": "mouselab-mdp", "trial_index": 48, "time_elapsed": 4537180, "internal_node_id": "0.0-6.0-1.0-33.0"}}, {"uniqueid": "w72409719:a73217223", "current_trial": 49, "dateTime": 1693485292939, "trialdata": {"revealed_states": [], "clicked_states": ["9", "7", "17", "21", "31", "10"], "num_clicks_accrued": [0, 0, 0, 0, 0, 0, 0, 0, 0, 0, 0, 0, 0], "stateRewards": ["", 1, -4, -6, 11, -20, 8, -30, 1, -38, 88, 42, 2, 3, 5, -12, -8, -74, 30, -8, 67, -19, 42, 2, -1, 4, 13, 50, -68, 2, -8, -15, 87, -46], "withholdReward": false, "trial_id": "mdp_trial_35", "block": "test", "trialIndex": 38, "score": 71.6, "costs": -8.4, "simulationMode": [null, null, null, null, null], "rewards": [1, -4, -6, 1, 88], "path": ["0", "0", "1", "2", "3", "8", "10"], "rt": [13164, 88, 225, 507, 116], "actions": ["up", "up", "up", "left", "down"], "actionTimes": [14046, 14646, 15382, 16398, 17038], "queries": {"click": {"state": {"target": ["9", "7", "17", "21", "31", "10"], "time": [1506, 3370, 5306, 7098, 9018, 11842]}, "edge": {"target": [], "time": []}}, "mouseover": {"state": {"target": ["1", "10", "8", "9", "4", "7", "7", "18", "15", "17", "19", "21", "21", "31", "24", "26", "29", "26", "28", "10"], "time": [1002, 1118, 1168, 1285, 1835, 2118, 2351, 3701, 3718, 4117, 5566, 5615, 5999, 8346, 9911, 10111, 10378, 11110, 11176, 11692]}, "edge": {"target": [], "time": []}}, "mouseout": {"state": {"target": ["1", "10", "8", "9", "4", "7", "7", "18", "15", "17", "19", "21", "21", "31", "24", "26", "29", "26", "28", "10", "0", "12"], "time": [1035, 1152, 1251, 1622, 1852, 2135, 3667, 3717, 3750, 5515, 5582, 5749, 7430, 9150, 10012, 10328, 11076, 11159, 11209, 12377, 21817, 22100]}, "edge": {"target": [], "time": []}}}, "displayed_time": "17.55", "trialTime": 22928, "trial_type": "mouselab-mdp", "trial_index": 49, "time_elapsed": 4560340, "internal_node_id": "0.0-6.0-1.0-34.0"}}, {"uniqueid": "w72409719:a73217223", "current_trial": 50, "dateTime": 1693485317458, "trialdata": {"revealed_states": [], "clicked_states": ["6", "5", "21", "33", "31", "27", "9"], "num_clicks_accrued": [0, 0, 0, 0, 0, 0, 0, 0, 0, 0, 0, 0, 0], "stateRewards": ["", -2, 2, -5, 1, 42, -63, -58, -6, 2, 16, 81, -2, 4, 7, -10, 33, 3, -33, -2, -52, -84, -27, 2, -3, -3, 15, -74, -14, -5, -5, -84, 79, -31], "withholdReward": false, "trial_id": "mdp_trial_36", "block": "test", "trialIndex": 39, "score": 28.2, "costs": -9.8, "simulationMode": [null, null, null, null, null], "rewards": [-2, 2, -5, 1, 42], "path": ["0", "0", "1", "2", "3", "4", "5"], "rt": [17901, 140, 629, 156, 167], "actions": ["up", "up", "up", "right", "up"], "actionTimes": [19004, 19657, 20795, 21456, 22132], "queries": {"click": {"state": {"target": ["6", "5", "21", "33", "31", "27", "9"], "time": [3020, 4939, 7708, 9876, 11980, 13884, 16860]}, "edge": {"target": [], "time": []}}, "mouseover": {"state": {"target": ["1", "2", "7", "6", "5", "5", "4", "7", "13", "19", "20", "21", "21", "31", "30", "33", "32", "31", "32", "30", "25", "26", "27", "25", "28", "9", "2", "12"], "time": [1531, 2480, 2514, 2863, 3563, 4097, 5312, 5428, 6893, 6911, 6928, 7192, 7409, 8126, 8226, 8775, 11257, 11739, 12439, 12506, 12572, 12590, 12673, 14853, 16235, 16668, 17268, 17518]}, "edge": {"target": [], "time": []}}, "mouseout": {"state": {"target": ["0", "1", "2", "7", "6", "5", "5", "4", "7", "13", "19", "20", "21", "21", "31", "30", "33", "33", "32", "31", "32", "30", "25", "26", "27", "25", "28", "9", "9", "2", "12"], "time": [898, 1564, 2497, 2530, 3513, 3630, 5245, 5361, 6211, 6910, 6927, 6943, 7209, 8009, 8143, 8642, 10391, 11090, 11472, 12223, 12473, 12556, 12589, 12606, 14287, 16218, 16251, 16988, 17235, 17285, 17551]}, "edge": {"target": [], "time": []}}}, "displayed_time": "22.65", "trialTime": 24297, "trial_type": "mouselab-mdp", "trial_index": 50, "time_elapsed": 4584859, "internal_node_id": "0.0-6.0-1.0-35.0"}}, {"uniqueid": "w72409719:a73217223", "current_trial": 51, "dateTime": 1693485340649, "trialdata": {"revealed_states": [], "clicked_states": ["21", "20", "17"], "num_clicks_accrued": [0, 0, 0, 0, 0, 0, 0, 0, 0, 0, 0, 0, 0], "stateRewards": ["", 2, -3, -2, 14, -4, 85, 46, 15, -28, 41, 31, -1, -1, -1, 5, 62, 79, 57, 12, -73, -64, 86, -1, 1, -3, -5, 68, 11, -32, 8, -80, -21, -56], "withholdReward": false, "trial_id": "mdp_trial_37", "block": "test", "trialIndex": 40, "score": 52.8, "costs": -4.199999999999999, "simulationMode": [null, null, null, null, null], "rewards": [2, -3, -2, 14, 46], "path": ["0", "0", "1", "2", "3", "4", "7"], "rt": [15200, 48, 362, 661, 67], "actions": ["up", "up", "up", "right", "down"], "actionTimes": [17634, 18192, 19088, 20268, 20841], "queries": {"click": {"state": {"target": ["21", "20", "17"], "time": [3724, 7532, 10700]}, "edge": {"target": [], "time": []}}, "mouseover": {"state": {"target": ["21", "20", "17", "15", "18", "23", "31", "32"], "time": [3471, 4337, 8484, 14968, 15277, 15576, 15710, 15926]}, "edge": {"target": [], "time": []}}, "mouseout": {"state": {"target": ["0", "21", "20", "17", "15", "18", "23", "31", "32"], "time": [2954, 3855, 8184, 12463, 15244, 15293, 15610, 15743, 22320]}, "edge": {"target": [], "time": []}}}, "displayed_time": "21.36", "trialTime": 22984, "trial_type": "mouselab-mdp", "trial_index": 51, "time_elapsed": 4608049, "internal_node_id": "0.0-6.0-1.0-36.0"}}, {"uniqueid": "w72409719:a73217223", "current_trial": 52, "dateTime": 1693485357298, "trialdata": {"revealed_states": [], "clicked_states": ["33", "31"], "num_clicks_accrued": [0, 0, 0, 0, 0, 0, 0, 0, 0, 0, 0, 0, 0], "stateRewards": ["", -2, 4, -5, -12, 85, -24, -18, -15, -78, -22, 26, -1, -1, 2, 14, -45, 52, -23, 7, -33, 24, -6, -2, -4, 5, -7, -16, 36, -39, 5, 71, -87, -23], "withholdReward": false, "trial_id": "mdp_trial_38", "block": "test", "trialIndex": 41, "score": 72.2, "costs": -2.8, "simulationMode": [null, null, null, null, null], "rewards": [-2, -4, 5, 5, 71], "path": ["0", "0", "23", "24", "25", "30", "31"], "rt": [6135, 109, 178, 4, 81], "actions": ["left", "left", "left", "down", "right"], "actionTimes": [7303, 7930, 8616, 9124, 9735], "queries": {"click": {"state": {"target": ["33", "31"], "time": [3019, 5155]}, "edge": {"target": [], "time": []}}, "mouseover": {"state": {"target": ["12", "13", "15", "14", "7", "26", "25", "30", "33", "30", "31", "22", "19", "20"], "time": [1425, 1475, 1575, 1792, 2108, 2258, 2391, 2508, 2808, 3825, 4939, 5507, 5525, 5956]}, "edge": {"target": [], "time": []}}, "mouseout": {"state": {"target": ["0", "12", "13", "15", "14", "7", "26", "25", "30", "33", "30", "31", "22", "19", "20"], "time": [1392, 1442, 1492, 1692, 1875, 2125, 2308, 2475, 2774, 3795, 3974, 5457, 5523, 5540, 15030]}, "edge": {"target": [], "time": []}}}, "displayed_time": "15.17", "trialTime": 16440, "trial_type": "mouselab-mdp", "trial_index": 52, "time_elapsed": 4624698, "internal_node_id": "0.0-6.0-1.0-37.0"}}, {"uniqueid": "w72409719:a73217223", "current_trial": 53, "dateTime": 1693485385520, "trialdata": {"revealed_states": [], "clicked_states": ["5", "11", "32", "17", "20", "29", "27", "31", "33"], "num_clicks_accrued": [0, 0, 0, 0, 0, 0, 0, 0, 0, 0, 0, 0, 0], "stateRewards": ["", -2, 4, 3, 5, -61, 4, 30, 1, -47, 83, 10, 1, 4, 7, -14, 19, -74, -83, 6, -2, -2, -65, -1, -2, 4, -11, 12, -1, -68, 11, -38, -28, 66], "withholdReward": false, "trial_id": "mdp_trial_39", "block": "test", "trialIndex": 42, "score": 65.4, "costs": -12.600000000000001, "simulationMode": [null, null, null, null, null], "rewards": [-1, -2, 4, 11, 66], "path": ["0", "0", "23", "24", "25", "30", "33"], "rt": [21637, 297, 182, 43, 60], "actions": ["left", "left", "left", "down", "left"], "actionTimes": [23216, 24036, 24738, 25298, 25881], "queries": {"click": {"state": {"target": ["5", "11", "32", "17", "20", "29", "27", "31", "33"], "time": [2270, 4277, 7078, 9630, 11814, 14158, 16678, 18662, 21149]}, "edge": {"target": [], "time": []}}, "mouseover": {"state": {"target": ["1", "5", "3", "11", "27", "29", "32", "22", "15", "17", "20", "19", "22", "23", "24", "26", "29", "25", "25", "26", "27", "24", "31", "30", "33", "30", "21", "21"], "time": [1824, 2058, 2825, 3242, 4791, 4938, 6836, 9018, 9301, 9451, 11616, 13299, 13664, 13747, 13765, 13864, 14030, 14830, 16146, 16212, 16478, 17195, 17329, 20758, 20825, 21492, 21591, 22157]}, "edge": {"target": [], "time": []}}, "mouseout": {"state": {"target": ["0", "1", "5", "5", "3", "11", "11", "27", "29", "32", "32", "22", "15", "17", "20", "19", "22", "23", "24", "26", "29", "29", "25", "25", "26", "27", "27", "24", "31", "31", "30", "33", "30", "21", "21"], "time": [1778, 1841, 2386, 2608, 2874, 4376, 4657, 4885, 6554, 7203, 7504, 9035, 9351, 10034, 13199, 13497, 13698, 13764, 13797, 13897, 14274, 14564, 15063, 16178, 16245, 16795, 17112, 17278, 19077, 20725, 20791, 21491, 21508, 21608, 27768]}, "edge": {"target": [], "time": []}}}, "displayed_time": "26.39", "trialTime": 28009, "trial_type": "mouselab-mdp", "trial_index": 53, "time_elapsed": 4652921, "internal_node_id": "0.0-6.0-1.0-38.0"}}, {"uniqueid": "w72409719:a73217223", "current_trial": 54, "dateTime": 1693485401971, "trialdata": {"revealed_states": [], "clicked_states": ["5", "32", "21"], "num_clicks_accrued": [0, 0, 0, 0, 0, 0, 0, 0, 0, 0, 0, 0, 0], "stateRewards": ["", -2, 2, 2, -6, 9, 37, 50, -13, -7, -18, -75, -2, -4, 4, 7, 23, -57, -66, -7, -81, -48, -76, 1, 1, -8, 1, 51, -2, 70, 14, 59, 71, -37], "withholdReward": false, "trial_id": "mdp_trial_40", "block": "test", "trialIndex": 43, "score": 74.8, "costs": -4.199999999999999, "simulationMode": [null, null, null, null, null, null], "rewards": [1, 1, -8, 14, 71], "path": ["0", "0", "23", "24", "25", "30", "32"], "rt": [5448, 554, 92, 352, 11, 24], "actions": ["left", "left", "left", "left", "down", "down"], "actionTimes": [6798, 7353, 7974, 8835, 9359, 9905], "queries": {"click": {"state": {"target": ["5", "32", "21"], "time": [2151, 4555, 6335]}, "edge": {"target": [], "time": []}}, "mouseover": {"state": {"target": ["1", "5", "9", "9", "8", "28", "24", "31", "32", "21", "21"], "time": [1486, 2036, 2903, 3486, 4068, 4134, 4167, 4334, 4517, 5134, 5650]}, "edge": {"target": [], "time": []}}, "mouseout": {"state": {"target": ["24", "24", "23", "0", "1", "5", "9", "9", "8", "28", "24", "31", "32", "21", "21", "30"], "time": [703, 1004, 1054, 1453, 1503, 2570, 2920, 4067, 4084, 4151, 4218, 4384, 4568, 5167, 7016, 12145]}, "edge": {"target": [], "time": []}}}, "displayed_time": "15.35", "trialTime": 16230, "trial_type": "mouselab-mdp", "trial_index": 54, "time_elapsed": 4669372, "internal_node_id": "0.0-6.0-1.0-39.0"}}, {"uniqueid": "w72409719:a73217223", "current_trial": 55, "dateTime": 1693485454184, "trialdata": {"rt": 52210, "response": {"Q0": "$-2 to $2", "Q1": "$-16 to $16", "Q2": "$-88 to $88", "Q3": "The cost for clicking on nodes varied between nodes.", "Q4": "Very motivated"}, "question_order": [0, 1, 2, 3, 4], "trial_id": "final_quiz_control", "trial_type": "survey-multi-choice", "trial_index": 55, "time_elapsed": 4721585, "internal_node_id": "0.0-6.0-2.0"}}, {"uniqueid": "w72409719:a73217223", "current_trial": 56, "dateTime": 1693485529175, "trialdata": {"rt": 74986, "response": {"Q0": "Well, if I find the highest positive value about greater than 30, I stop clicking and go towards it", "Q1": "I avoided clicking and revealing too many nodes as it is costly, but I did it until I find a positive amount I am content with", "Q2": "It was good"}, "trial_id": "self_report_control", "trial_type": "survey-text", "trial_index": 56, "time_elapsed": 4796576, "internal_node_id": "0.0-6.0-3.0"}}, {"uniqueid": "w72409719:a73217223", "current_trial": 57, "dateTime": 1693485565047, "trialdata": {"rt": 35870, "response": {"gender": "male", "age": "28", "colorblind": "0", "effort": "0"}, "trial_type": "survey-html-form", "trial_index": 57, "time_elapsed": 4832448, "internal_node_id": "0.0-6.0-4.0"}}, {"uniqueid": "w72409719:a73217223", "current_trial": 58, "dateTime": 1693485597127, "trialdata": {"rt": 32077, "response": {"Q0": "No", "Q1": "No", "Q2": "Would love to be involved in studies like this in the future"}, "trial_type": "survey-text", "trial_index": 58, "time_elapsed": 4864528, "internal_node_id": "0.0-6.0-5.0"}}, {"uniqueid": "w72409719:a73217223", "current_trial": 59, "dateTime": 1693485632960, "trialdata": {"rt": 35830, "stimulus": "<h1>Completion Code Instructions (1/2)</h1>\n<br><br><br><br>\nYou have reached the end of the experiment! The completion code consists of two parts: (1) a code with 2 characters (2) a code with 6 characters. On this page, you will receive the second part of the code. The first part of the completion code will be on the next page.\n<br><br>\nThe second part of your completion code is: <b>EWEK22</b>\n<br><br>\nPlease note this down. Then, press 'Finish HIT' in order to find the first part of your completion code. Once the data has been saved, you will receive this code either in this window or in the original browser window where you started the experiment.\n", "response": 0, "trial_type": "html-button-response", "trial_index": 59, "time_elapsed": 4900360, "internal_node_id": "0.0-6.0-6.0"}}, {"uniqueid": "w72409719:a73217223", "current_trial": 60, "dateTime": 1693485633964, "trialdata": {"success": true, "trial_type": "fullscreen", "trial_index": 60, "time_elapsed": 4901364, "internal_node_id": "0.0-7.0"}}], "questiondata": {"params": {"CODE": "C6DMOQA6", "MIN_TIME": 14, "inspectCost": 1, "startTime": "Thu Aug 31 2023 13:18:51 GMT+0200 (South Africa Standard Time)", "bonusRate": 0.002, "variance": "1_2_4_8_44", "branching": "31123"}, "final_score": 1905.2}, "eventdata": [{"eventtype": "initialized", "value": null, "timestamp": 1693480730930, "interval": 0}, {"eventtype": "window_resize", "value": [1028, 778], "timestamp": 1693480730930, "interval": 0}, {"eventtype": "window_resize", "value": [1028, 778], "timestamp": 1693480731339, "interval": 409}, {"eventtype": "focus", "value": "off", "timestamp": 1693480739195, "interval": 7856}, {"eventtype": "focus", "value": "on", "timestamp": 1693480751628, "interval": 12433}, {"eventtype": "window_resize", "value": [1536, 864], "timestamp": 1693480752722, "interval": 1094}, {"eventtype": "focus", "value": "off", "timestamp": 1693481030342, "interval": 277620}, {"eventtype": "focus", "value": "on", "timestamp": 1693481057012, "interval": 26670}, {"eventtype": "focus", "value": "off", "timestamp": 1693481128619, "interval": 71607}, {"eventtype": "focus", "value": "on", "timestamp": 1693481128619, "interval": 0}, {"eventtype": "window_resize", "value": [1028, 778], "timestamp": 1693481128825, "interval": 206}, {"eventtype": "window_resize", "value": [1536, 806], "timestamp": 1693481133810, "interval": 4985}, {"eventtype": "window_resize", "value": [1028, 778], "timestamp": 1693481135504, "interval": 1694}, {"eventtype": "focus", "value": "off", "timestamp": 1693481155067, "interval": 19563}, {"eventtype": "focus", "value": "on", "timestamp": 1693483288482, "interval": 2133415}, {"eventtype": "focus", "value": "off", "timestamp": 1693483290923, "interval": 2441}, {"eventtype": "focus", "value": "on", "timestamp": 1693483308657, "interval": 17734}, {"eventtype": "focus", "value": "off", "timestamp": 1693483308658, "interval": 1}, {"eventtype": "focus", "value": "on", "timestamp": 1693483308726, "interval": 68}, {"eventtype": "window_resize", "value": [1536, 864], "timestamp": 1693483309774, "interval": 1048}, {"eventtype": "focus", "value": "off", "timestamp": 1693483582027, "interval": 272253}, {"eventtype": "focus", "value": "on", "timestamp": 1693483652602, "interval": 70575}, {"eventtype": "focus", "value": "off", "timestamp": 1693484132323, "interval": 479721}, {"eventtype": "focus", "value": "on", "timestamp": 1693484140680, "interval": 8357}, {"eventtype": "focus", "value": "off", "timestamp": 1693484141009, "interval": 329}, {"eventtype": "focus", "value": "on", "timestamp": 1693484144020, "interval": 3011}, {"eventtype": "focus", "value": "off", "timestamp": 1693484144037, "interval": 17}, {"eventtype": "focus", "value": "on", "timestamp": 1693484162535, "interval": 18498}, {"eventtype": "focus", "value": "off", "timestamp": 1693484213155, "interval": 50620}, {"eventtype": "focus", "value": "on", "timestamp": 1693484213316, "interval": 161}, {"eventtype": "focus", "value": "off", "timestamp": 1693484213326, "interval": 10}, {"eventtype": "focus", "value": "on", "timestamp": 1693484213384, "interval": 58}, {"eventtype": "focus", "value": "off", "timestamp": 1693484213719, "interval": 335}, {"eventtype": "focus", "value": "on", "timestamp": 1693484217470, "interval": 3751}, {"eventtype": "focus", "value": "off", "timestamp": 1693484217475, "interval": 5}, {"eventtype": "focus", "value": "on", "timestamp": 1693484217488, "interval": 13}, {"eventtype": "focus", "value": "off", "timestamp": 1693484217490, "interval": 2}, {"eventtype": "focus", "value": "on", "timestamp": 1693484263397, "interval": 45907}, {"eventtype": "focus", "value": "off", "timestamp": 1693484279795, "interval": 16398}, {"eventtype": "focus", "value": "on", "timestamp": 1693484286439, "interval": 6644}, {"eventtype": "focus", "value": "off", "timestamp": 1693484292075, "interval": 5636}, {"eventtype": "focus", "value": "on", "timestamp": 1693484327508, "interval": 35433}, {"eventtype": "focus", "value": "off", "timestamp": 1693484353538, "interval": 26030}, {"eventtype": "focus", "value": "on", "timestamp": 1693484359085, "interval": 5547}, {"eventtype": "focus", "value": "off", "timestamp": 1693484386979, "interval": 27894}, {"eventtype": "focus", "value": "on", "timestamp": 1693484406334, "interval": 19355}, {"eventtype": "focus", "value": "off", "timestamp": 1693484506467, "interval": 100133}, {"eventtype": "focus", "value": "on", "timestamp": 1693484506592, "interval": 125}, {"eventtype": "focus", "value": "off", "timestamp": 1693484507571, "interval": 979}, {"eventtype": "focus", "value": "on", "timestamp": 1693484507714, "interval": 143}, {"eventtype": "focus", "value": "off", "timestamp": 1693485105871, "interval": 598157}, {"eventtype": "focus", "value": "on", "timestamp": 1693485114099, "interval": 8228}, {"eventtype": "focus", "value": "off", "timestamp": 1693485397203, "interval": 283104}, {"eventtype": "focus", "value": "on", "timestamp": 1693485397401, "interval": 198}, {"eventtype": "window_resize", "value": [1028, 778], "timestamp": 1693485633182, "interval": 235781}], "useragent": "Mozilla/5.0 (Windows NT 10.0; Win64; x64) AppleWebKit/537.36 (KHTML, like Gecko) Chrome/116.0.0.0 Safari/537.36", "mode": "live", "id": "w72409719:a73217223", "status": "user data saved", "Beginhit": "2023-08-31 11:18:48.819239", "Beginexp": "2023-08-31 11:19:13.451728", "Endhit": "2023-08-31 12:40:34.440114", "psiturkStatus": 3, "browser": "<redacted>", "platform": "windows", "language": "en-US", "excludeReason": "exceededTime"}