{"condition": 1, "counterbalance": 0, "assignmentId": "a93920327", "workerId": "w82728863", "hitId": "h24326329", "currenttrial": 56, "bonus": 0, "data": [{"uniqueid": "w82728863:a93920327", "current_trial": 0, "dateTime": 1691160317551, "trialdata": {"success": true, "trial_type": "fullscreen", "trial_index": 0, "time_elapsed": 4086, "internal_node_id": "0.0-0.0"}}, {"uniqueid": "w82728863:a93920327", "current_trial": 1, "dateTime": 1691160326072, "trialdata": {"view_history": [{"page_index": 0, "viewing_time": 8469}], "rt": 8473, "trial_id": "exp_instructions_misaligned", "trial_type": "instructions", "trial_index": 1, "time_elapsed": 12609, "internal_node_id": "0.0-1.0"}}, {"uniqueid": "w82728863:a93920327", "current_trial": 2, "dateTime": 1691160329292, "trialdata": {"success": true, "trial_type": "fullscreen", "trial_index": 2, "time_elapsed": 15830, "internal_node_id": "0.0-2.0-0.0"}}, {"uniqueid": "w82728863:a93920327", "current_trial": 3, "dateTime": 1691160523053, "trialdata": {"view_history": [{"page_index": 0, "viewing_time": 52158}, {"page_index": 1, "viewing_time": 70622}, {"page_index": 2, "viewing_time": 40817}, {"page_index": 3, "viewing_time": 30147}], "rt": 193747, "trial_id": "mouselab_instructions_1_misaligned", "trial_type": "instructions", "trial_index": 3, "time_elapsed": 209590, "internal_node_id": "0.0-2.0-1.0"}}, {"uniqueid": "w82728863:a93920327", "current_trial": 4, "dateTime": 1691160595693, "trialdata": {"revealed_states": [], "clicked_states": ["12", "1", "23", "13", "14", "15", "24", "25", "2", "10", "8", "4", "30", "19"], "num_clicks_accrued": [0, 0, 0, 0, 0, 0, 0, 0, 0, 0, 0, 0, 0], "stateRewards": ["", 10, -10, -10, 10, 10, -10, -10, -10, -10, 10, 10, -10, 10, -10, -10, 10, 10, -10, -10, -10, -10, 10, 10, -10, 10, 10, -10, -10, 10, 10, -10, 10, -10], "withholdReward": false, "trial_id": "practice_1", "block": "test", "trialIndex": 0, "score": -13.5, "costs": -7, "simulationMode": [null, null, null, null, null], "rewards": [-10, 10, -10, -10, 10], "path": ["0", "0", "12", "13", "14", "15", "16"], "rt": [52288, 1215, 255, 102, 36], "actions": ["right", "right", "right", "up", "up"], "actionTimes": [59487, 61305, 62166, 62866, 63592], "queries": {"click": {"state": {"target": ["12", "1", "23", "13", "14", "15", "24", "25", "2", "10", "8", "4", "30", "19"], "time": [9866, 13353, 15087, 23030, 25875, 28440, 31390, 32943, 35976, 37400, 39198, 40606, 43274, 44873]}, "edge": {"target": [], "time": []}}, "mouseover": {"state": {"target": ["12", "23", "1", "23", "1", "7", "7", "13", "14", "15", "14", "15", "16", "24", "25", "26", "2", "10", "8", "4", "7", "24", "30", "22", "19", "19", "17", "12", "12", "1", "1", "12"], "time": [9614, 10421, 10981, 14032, 18940, 19430, 21347, 22499, 23557, 24855, 25618, 26549, 29101, 31138, 32137, 33833, 35232, 37106, 38905, 39790, 40982, 42664, 42982, 43788, 44114, 44706, 51790, 52136, 52734, 54342, 55299, 57867]}, "edge": {"target": [], "time": []}}, "mouseout": {"state": {"target": ["18", "0", "12", "23", "1", "23", "1", "7", "7", "13", "14", "15", "14", "15", "16", "24", "25", "26", "2", "10", "8", "4", "7", "24", "30", "22", "19", "19", "17", "12", "12", "1", "1"], "time": [3008, 9396, 10124, 10822, 13749, 18827, 19031, 19706, 22396, 23251, 24582, 25517, 26521, 28957, 30689, 32006, 33707, 34694, 36987, 38727, 39653, 40954, 42472, 42845, 43637, 44077, 44220, 45343, 52040, 52227, 54248, 54430, 55398]}, "edge": {"target": [], "time": []}}}, "displayed_time": "64.17", "trialTime": 67119, "trial_type": "mouselab-mdp", "trial_index": 4, "time_elapsed": 282228, "internal_node_id": "0.0-2.0-2.0-0.0"}}, {"uniqueid": "w82728863:a93920327", "current_trial": 5, "dateTime": 1691160637799, "trialdata": {"revealed_states": [], "clicked_states": ["12", "15", "19"], "num_clicks_accrued": [0, 0, 0, 0, 0, 0, 0, 0, 0, 0, 0, 0, 0], "stateRewards": ["", -10, 10, 10, -10, 10, -10, -10, 10, -10, 10, 10, 10, -10, 10, 10, -10, 10, 10, -10, -10, -10, 10, -10, 10, -10, -10, -10, 10, -10, 10, 10, 10, -10], "withholdReward": false, "trial_id": "practice_2", "block": "test", "trialIndex": 1, "score": 12, "costs": -1.5, "simulationMode": [null, null, null, null, null], "rewards": [10, -10, 10, 10, -10], "path": ["0", "0", "12", "13", "14", "15", "16"], "rt": [24334, 1601, 382, 368, 36], "actions": ["right", "right", "right", "up", "up"], "actionTimes": [28352, 30538, 31605, 32665, 33370], "queries": {"click": {"state": {"target": ["12", "15", "19"], "time": [7046, 13877, 15710]}, "edge": {"target": [], "time": []}}, "mouseover": {"state": {"target": ["22", "12", "1", "23", "12", "13", "14", "15", "19", "20", "14", "13", "12", "13", "14", "16"], "time": [6397, 6674, 7452, 8070, 11621, 11744, 12154, 13737, 14412, 17641, 18610, 18731, 19081, 19332, 19519, 20004]}, "edge": {"target": [], "time": []}}, "mouseout": {"state": {"target": ["22", "0", "22", "12", "1", "23", "12", "13", "14", "15", "19", "20", "14", "13", "12", "13", "14", "16"], "time": [941, 4126, 6486, 7291, 8036, 11521, 11709, 12049, 13631, 14302, 17547, 17765, 18697, 18821, 19248, 19442, 19715, 20316]}, "edge": {"target": [], "time": []}}}, "displayed_time": "33.99", "trialTime": 37177, "trial_type": "mouselab-mdp", "trial_index": 5, "time_elapsed": 324333, "internal_node_id": "0.0-2.0-2.0-1.0"}}, {"uniqueid": "w82728863:a93920327", "current_trial": 6, "dateTime": 1691160678605, "trialdata": {"view_history": [{"page_index": 0, "viewing_time": 33476}, {"page_index": 1, "viewing_time": 7314}], "rt": 40792, "trial_id": "mouselab_instructions_2_misaligned", "trial_type": "instructions", "trial_index": 6, "time_elapsed": 365143, "internal_node_id": "0.0-2.0-3.0"}}, {"uniqueid": "w82728863:a93920327", "current_trial": 7, "dateTime": 1691160707378, "trialdata": {"rt": 28743, "response": {"Q0": "The cost for clicking on nodes may vary between nodes.", "Q1": "The better I perform the higher my bonus will be.", "Q2": "No, the amount of cash at each node of the web may be different each time.", "Q3": "To get the highest total score.", "Q4": "Only before moving the spider.", "Q5": "3 seconds"}, "question_order": [0, 1, 2, 3, 4, 5], "correct": {"Q0": "The cost for clicking on nodes may vary between nodes.", "Q1": "The better I perform the higher my bonus will be.", "Q2": "No, the amount of cash at each node of the web may be different each time.", "Q3": "To get the highest total score.", "Q4": "Only before moving the spider.", "Q5": "3 seconds"}, "trial_id": "mouselab_quiz_misaligned", "trial_type": "survey-multi-choice", "trial_index": 7, "time_elapsed": 393916, "internal_node_id": "0.0-2.0-4.0"}}, {"uniqueid": "w82728863:a93920327", "current_trial": 8, "dateTime": 1691160716929, "trialdata": {"rt": 9513, "stimulus": "\n<h1> Get ready to start the game! </h1>\n\nThank you for reading the instructions. Get ready start with the 40 rounds of this game.\n<br><br>\nIf you need to take a break, feel free to take one after the end of a round, before continuing to the next one.\n<br><br>\nRemember, the more money the spider gets, the bigger your bonus will be!\n<br><br>\n<div style='text-align: center;'>Press <code>space</code> to begin.</div>\n\n<br><br>\n(If, at any point, the <code>space</code> key does not take you to the next page, click once on the text and try again.)", "response": " ", "trial_id": "mdp_ready", "trial_type": "html-keyboard-response", "trial_index": 8, "time_elapsed": 403466, "internal_node_id": "0.0-4.0-0.0"}}, {"uniqueid": "w82728863:a93920327", "current_trial": 9, "dateTime": 1691160750666, "trialdata": {"revealed_states": [], "clicked_states": ["12", "1", "23", "8", "4"], "num_clicks_accrued": [0, 0, 0, 0, 0, 0, 0, 0, 0, 0, 0, 0, 0], "stateRewards": ["", -1, 2, -6, 6, 43, 78, 78, -2, 55, -29, -17, -2, -4, 1, -15, 13, 7, -79, 8, -28, -68, 36, -1, -3, 3, -16, 84, -18, 87, 10, 32, 13, -81], "withholdReward": false, "trial_id": "mdp_trial_1", "block": "test", "trialIndex": 2, "score": 76.65, "costs": -2.35, "simulationMode": [null, null, null, null, null], "rewards": [-1, 2, -6, 6, 78], "path": ["0", "0", "1", "2", "3", "4", "6"], "rt": [15060, 664, 399, 276, 973], "actions": ["up", "up", "up", "right", "right"], "actionTimes": [19622, 20977, 22001, 22893, 24541], "queries": {"click": {"state": {"target": ["12", "1", "23", "8", "4"], "time": [6942, 8002, 9182, 12223, 13551]}, "edge": {"target": [], "time": []}}, "mouseover": {"state": {"target": ["17", "12", "1", "23", "3", "8", "4"], "time": [5345, 6660, 7498, 8835, 11479, 11922, 12966]}, "edge": {"target": [], "time": []}}, "mouseout": {"state": {"target": ["22", "0", "17", "12", "1", "1", "23", "3", "8", "4", "7"], "time": [75, 5034, 5474, 7198, 8085, 8462, 11340, 11834, 12568, 17513, 26440]}, "edge": {"target": [], "time": []}}}, "displayed_time": "25.18", "trialTime": 29127, "trial_type": "mouselab-mdp", "trial_index": 9, "time_elapsed": 437201, "internal_node_id": "0.0-4.0-1.0-0.0"}}, {"uniqueid": "w82728863:a93920327", "current_trial": 10, "dateTime": 1691160780121, "trialdata": {"revealed_states": [], "clicked_states": ["12", "1", "23", "19", "15"], "num_clicks_accrued": [0, 0, 0, 0, 0, 0, 0, 0, 0, 0, 0, 0, 0], "stateRewards": ["", -1, 1, -2, 5, 73, 15, 61, 8, 7, 38, 76, 2, 2, -4, -6, -6, -26, 43, -5, -45, -85, -35, -2, 1, -4, 15, -10, 69, 72, -11, 84, -49, -38], "withholdReward": false, "trial_id": "mdp_trial_2", "block": "test", "trialIndex": 3, "score": -42.35, "costs": -2.35, "simulationMode": [null, null, null, null, null], "rewards": [2, 2, -4, -5, -35], "path": ["0", "0", "12", "13", "14", "19", "22"], "rt": [11253, 293, 387, 161, 94], "actions": ["right", "right", "right", "down", "left"], "actionTimes": [16142, 17058, 18091, 18894, 19626], "queries": {"click": {"state": {"target": ["12", "1", "23", "19", "15"], "time": [6799, 7777, 8828, 11167, 12152]}, "edge": {"target": [], "time": []}}, "mouseover": {"state": {"target": ["12", "1", "23", "13", "19", "14", "15", "12"], "time": [5045, 7272, 8548, 10385, 10674, 11520, 11932, 15074]}, "edge": {"target": [], "time": []}}, "mouseout": {"state": {"target": ["12", "0", "12", "1", "23", "13", "19", "14", "15", "12"], "time": [1443, 5013, 7067, 8222, 8923, 10472, 11467, 11880, 14969, 21941]}, "edge": {"target": [], "time": []}}}, "displayed_time": "20.48", "trialTime": 25012, "trial_type": "mouselab-mdp", "trial_index": 10, "time_elapsed": 466656, "internal_node_id": "0.0-4.0-1.0-1.0"}}, {"uniqueid": "w82728863:a93920327", "current_trial": 11, "dateTime": 1691160812125, "trialdata": {"revealed_states": [], "clicked_states": ["12", "1", "23", "19", "15", "30", "26"], "num_clicks_accrued": [0, 0, 0, 0, 0, 0, 0, 0, 0, 0, 0, 0, 0], "stateRewards": ["", -1, -2, 8, -6, -79, -6, 87, 9, -5, -66, -38, 2, 2, 5, -6, -82, 74, 85, -8, 67, -30, -15, 1, -2, -2, -2, 87, 64, 49, 7, 2, -38, -9], "withholdReward": false, "trial_id": "mdp_trial_3", "block": "test", "trialIndex": 4, "score": -39.45, "costs": -5.45, "simulationMode": [null, null, null, null, null], "rewards": [1, -2, -2, 7, -38], "path": ["0", "0", "23", "24", "25", "30", "32"], "rt": [12705, 63, 320, 37, 77], "actions": ["left", "left", "left", "down", "down"], "actionTimes": [18644, 19337, 20274, 20907, 21624], "queries": {"click": {"state": {"target": ["12", "1", "23", "19", "15", "30", "26"], "time": [6667, 7674, 8610, 11306, 12935, 14282, 15122]}, "edge": {"target": [], "time": []}}, "mouseover": {"state": {"target": ["12", "1", "23", "12", "19", "14", "15", "18", "30", "25", "26", "28", "23"], "time": [6069, 7097, 8329, 10796, 11163, 11908, 12556, 13668, 14203, 14653, 14836, 16116, 16313]}, "edge": {"target": [], "time": []}}, "mouseout": {"state": {"target": ["14", "0", "12", "1", "23", "12", "19", "14", "15", "18", "30", "25", "26", "28", "23", "18", "15"], "time": [1544, 6042, 7062, 7985, 10029, 10896, 11405, 12317, 13621, 14078, 14605, 14801, 16078, 16285, 23784, 23872, 23976]}, "edge": {"target": [], "time": []}}}, "displayed_time": "22.31", "trialTime": 27407, "trial_type": "mouselab-mdp", "trial_index": 11, "time_elapsed": 498659, "internal_node_id": "0.0-4.0-1.0-2.0"}}, {"uniqueid": "w82728863:a93920327", "current_trial": 12, "dateTime": 1691160852085, "trialdata": {"revealed_states": [], "clicked_states": ["12", "1", "23", "19", "15", "30", "26", "8", "4"], "num_clicks_accrued": [0, 0, 0, 0, 0, 0, 0, 0, 0, 0, 0, 0, 0], "stateRewards": ["", 1, 1, -5, 8, -6, 45, 16, -6, -7, -22, -38, -1, -4, 8, -11, -16, 21, -45, -15, -59, -32, 42, -1, 3, 6, 11, -7, 34, -27, -8, 85, 43, -9], "withholdReward": false, "trial_id": "mdp_trial_4", "block": "test", "trialIndex": 5, "score": 44.45, "costs": -8.55, "simulationMode": [null, null, null, null, null], "rewards": [-1, 3, 6, 11, 34], "path": ["0", "0", "23", "24", "25", "26", "28"], "rt": [14796, 400, 593, 59, 628], "actions": ["left", "left", "left", "up", "right"], "actionTimes": [20438, 21473, 22695, 23456, 24678], "queries": {"click": {"state": {"target": ["12", "1", "23", "19", "15", "30", "26", "8", "4"], "time": [7405, 8486, 9601, 10902, 11810, 13083, 13942, 15323, 16278]}, "edge": {"target": [], "time": []}}, "mouseover": {"state": {"target": ["12", "1", "23", "19", "15", "30", "25", "26", "8", "4", "24", "23"], "time": [6553, 7937, 8963, 10540, 11399, 12899, 13479, 13653, 14666, 15731, 19128, 19481]}, "edge": {"target": [], "time": []}}, "mouseout": {"state": {"target": ["14", "12", "0", "12", "1", "23", "19", "15", "23", "30", "25", "26", "8", "4", "24", "23", "20"], "time": [1735, 1821, 5726, 7796, 8787, 10035, 11010, 11929, 12688, 13448, 13623, 14351, 15649, 18263, 19222, 26611, 34822]}, "edge": {"target": [], "time": []}}}, "displayed_time": "25.52", "trialTime": 35262, "trial_type": "mouselab-mdp", "trial_index": 12, "time_elapsed": 538619, "internal_node_id": "0.0-4.0-1.0-3.0"}}, {"uniqueid": "w82728863:a93920327", "current_trial": 13, "dateTime": 1691160901545, "trialdata": {"revealed_states": [], "clicked_states": ["30", "26", "8", "4", "15", "19", "29", "28", "27"], "num_clicks_accrued": [0, 0, 0, 0, 0, 0, 0, 0, 0, 0, 0, 0, 0], "stateRewards": ["", -2, 2, 8, -6, -25, 3, 87, 2, -62, -2, 74, -2, -1, 2, -1, 79, 49, -37, -14, 5, 67, -9, -1, 2, -2, 5, 15, 38, 32, -14, -38, -38, 30], "withholdReward": false, "trial_id": "mdp_trial_5", "block": "test", "trialIndex": 6, "score": 26.25, "costs": -15.750000000000002, "simulationMode": [null, null, null, null, null], "rewards": [-1, 2, -2, 5, 38], "path": ["0", "0", "23", "24", "25", "26", "28"], "rt": [25250, 34, 1486, 132, 38], "actions": ["left", "left", "left", "up", "right"], "actionTimes": [29664, 30302, 32606, 33343, 34055], "queries": {"click": {"state": {"target": ["30", "26", "8", "4", "15", "19", "29", "28", "27"], "time": [5425, 6277, 7363, 8236, 9358, 10324, 12391, 17413, 21248]}, "edge": {"target": [], "time": []}}, "mouseover": {"state": {"target": ["30", "26", "8", "4", "15", "19", "26", "29", "27", "28", "27", "28", "27"], "time": [4608, 5885, 6822, 7962, 9083, 9856, 12084, 12203, 12834, 14440, 15415, 16870, 18060]}, "edge": {"target": [], "time": []}}, "mouseout": {"state": {"target": ["23", "0", "30", "26", "8", "4", "15", "19", "26", "29", "27", "28", "27", "28", "27", "22"], "time": [611, 4580, 5743, 6793, 7899, 8693, 9826, 11685, 12174, 12808, 14403, 15336, 15996, 17929, 35745, 43363]}, "edge": {"target": [], "time": []}}}, "displayed_time": "34.69", "trialTime": 43683, "trial_type": "mouselab-mdp", "trial_index": 13, "time_elapsed": 588080, "internal_node_id": "0.0-4.0-1.0-4.0"}}, {"uniqueid": "w82728863:a93920327", "current_trial": 14, "dateTime": 1691160942655, "trialdata": {"revealed_states": [], "clicked_states": ["30", "26", "8", "4", "15", "19", "28", "27", "29"], "num_clicks_accrued": [0, 0, 0, 0, 0, 0, 0, 0, 0, 0, 0, 0, 0], "stateRewards": ["", 1, 1, -7, -9, -44, 24, -83, -15, 44, -24, 72, -2, -3, 4, -5, 57, 55, 29, -11, 22, 12, -25, -1, 2, 7, 12, 33, -8, 47, -4, 8, 50, -4], "withholdReward": false, "trial_id": "mdp_trial_6", "block": "test", "trialIndex": 7, "score": 51.25, "costs": -15.750000000000002, "simulationMode": [null, null, null, null, null], "rewards": [-1, 2, 7, 12, 47], "path": ["0", "0", "23", "24", "25", "26", "29"], "rt": [23135, 57, 110, 127, 56], "actions": ["left", "left", "left", "up", "left"], "actionTimes": [28350, 28993, 29742, 30486, 31360], "queries": {"click": {"state": {"target": ["30", "26", "8", "4", "15", "19", "28", "27", "29"], "time": [6242, 7654, 9204, 10500, 12184, 13188, 14791, 18159, 21668]}, "edge": {"target": [], "time": []}}, "mouseover": {"state": {"target": ["30", "25", "26", "8", "3", "4", "15", "19", "28", "27", "29"], "time": [6011, 6950, 7414, 8709, 10118, 10300, 12044, 12832, 14444, 15477, 19218]}, "edge": {"target": [], "time": []}}, "mouseout": {"state": {"target": ["0", "30", "25", "26", "8", "3", "4", "15", "19", "28", "27", "29", "1", "17"], "time": [5323, 6464, 7075, 8567, 10068, 10273, 11729, 12674, 14167, 15233, 18963, 22899, 33106, 33215]}, "edge": {"target": [], "time": []}}}, "displayed_time": "31.99", "trialTime": 35857, "trial_type": "mouselab-mdp", "trial_index": 14, "time_elapsed": 629191, "internal_node_id": "0.0-4.0-1.0-5.0"}}, {"uniqueid": "w82728863:a93920327", "current_trial": 15, "dateTime": 1691160982000, "trialdata": {"revealed_states": [], "clicked_states": ["30", "26", "8", "4", "15", "19", "31", "32", "33"], "num_clicks_accrued": [0, 0, 0, 0, 0, 0, 0, 0, 0, 0, 0, 0, 0], "stateRewards": ["", -2, 3, -1, -9, 44, 48, -37, -3, 71, -39, 87, -1, 3, -4, 4, -21, 59, -15, -8, -1, 28, -38, 2, 4, 4, 8, -85, -72, -63, 14, 58, 63, -46], "withholdReward": false, "trial_id": "mdp_trial_7", "block": "test", "trialIndex": 8, "score": 71.25, "costs": -15.750000000000002, "simulationMode": [null, null, null, null, null], "rewards": [2, 4, 4, 14, 63], "path": ["0", "0", "23", "24", "25", "30", "32"], "rt": [22061, 44, 92, 83, 1062], "actions": ["left", "left", "left", "down", "down"], "actionTimes": [25854, 26537, 27269, 28017, 30031], "queries": {"click": {"state": {"target": ["30", "26", "8", "4", "15", "19", "31", "32", "33"], "time": [5163, 6293, 7574, 8678, 9851, 10718, 12294, 15729, 19265]}, "edge": {"target": [], "time": []}}, "mouseover": {"state": {"target": ["30", "26", "8", "4", "15", "19", "31", "32", "33"], "time": [4937, 5880, 7403, 8498, 9680, 10397, 12002, 13160, 16451]}, "edge": {"target": [], "time": []}}, "mouseout": {"state": {"target": ["0", "30", "26", "8", "4", "15", "19", "31", "32", "33"], "time": [4602, 5350, 7159, 8331, 8750, 10182, 10945, 12981, 16201, 20819]}, "edge": {"target": [], "time": []}}}, "displayed_time": "30.62", "trialTime": 33903, "trial_type": "mouselab-mdp", "trial_index": 15, "time_elapsed": 668536, "internal_node_id": "0.0-4.0-1.0-6.0"}}, {"uniqueid": "w82728863:a93920327", "current_trial": 16, "dateTime": 1691161022091, "trialdata": {"revealed_states": [], "clicked_states": ["30", "26", "8", "4", "15", "19", "10", "11", "9"], "num_clicks_accrued": [0, 0, 0, 0, 0, 0, 0, 0, 0, 0, 0, 0, 0], "stateRewards": ["", 2, -2, 7, -11, -76, -65, -23, 16, -58, 30, 81, 1, 2, 7, 14, 9, 55, -2, 6, 11, -15, 31, -1, -1, -3, 2, 15, 2, 46, 15, 18, 45, -34], "withholdReward": false, "trial_id": "mdp_trial_8", "block": "test", "trialIndex": 9, "score": 88.25, "costs": -15.750000000000002, "simulationMode": [null, null, null, null, null], "rewards": [2, -2, 7, 16, 81], "path": ["0", "0", "1", "2", "3", "8", "11"], "rt": [20718, 265, 108, 681, 42], "actions": ["up", "up", "up", "left", "left"], "actionTimes": [24956, 25857, 26543, 28195, 28882], "queries": {"click": {"state": {"target": ["30", "26", "8", "4", "15", "19", "10", "11", "9"], "time": [5537, 6716, 8242, 9224, 10496, 11647, 13608, 16972, 20713]}, "edge": {"target": [], "time": []}}, "mouseover": {"state": {"target": ["30", "26", "8", "4", "15", "19", "2", "10", "11", "9"], "time": [5306, 6200, 7680, 8406, 10231, 11275, 12817, 13116, 14958, 17988]}, "edge": {"target": [], "time": []}}, "mouseout": {"state": {"target": ["0", "30", "26", "8", "4", "15", "19", "2", "10", "11", "9", "13", "12"], "time": [4980, 6063, 7333, 8379, 9967, 11156, 12688, 13012, 14922, 17163, 30896, 33744, 34042]}, "edge": {"target": [], "time": []}}}, "displayed_time": "29.54", "trialTime": 34699, "trial_type": "mouselab-mdp", "trial_index": 16, "time_elapsed": 708627, "internal_node_id": "0.0-4.0-1.0-7.0"}}, {"uniqueid": "w82728863:a93920327", "current_trial": 17, "dateTime": 1691161054183, "trialdata": {"revealed_states": [], "clicked_states": ["30", "26", "8", "4", "15", "19", "22", "21"], "num_clicks_accrued": [0, 0, 0, 0, 0, 0, 0, 0, 0, 0, 0, 0, 0], "stateRewards": ["", -1, -1, 4, -16, -75, 81, -51, -7, -84, 73, -30, -2, 1, -3, -16, -77, 33, 14, 1, 45, 87, -66, 2, 2, -5, -7, -19, -17, 79, -3, 8, 49, 47], "withholdReward": false, "trial_id": "mdp_trial_9", "block": "test", "trialIndex": 10, "score": 70.4, "costs": -13.600000000000001, "simulationMode": [null, null, null, null, null], "rewards": [-2, 1, -3, 1, 87], "path": ["0", "0", "12", "13", "14", "19", "21"], "rt": [17211, 55, 54, 84, 160], "actions": ["right", "right", "right", "down", "down"], "actionTimes": [21891, 22528, 23177, 23894, 24674], "queries": {"click": {"state": {"target": ["30", "26", "8", "4", "15", "19", "22", "21"], "time": [5844, 7026, 8251, 9405, 10449, 11671, 13623, 17135]}, "edge": {"target": [], "time": []}}, "mouseover": {"state": {"target": ["30", "25", "26", "8", "3", "4", "15", "14", "19", "22", "21", "20"], "time": [5595, 6393, 6683, 7866, 8651, 9229, 10256, 11071, 11386, 13238, 14696, 17878]}, "edge": {"target": [], "time": []}}, "mouseout": {"state": {"target": ["0", "30", "25", "26", "8", "3", "4", "15", "14", "19", "22", "21"], "time": [4808, 6345, 6562, 7736, 8611, 9163, 9555, 11039, 11342, 13138, 14471, 17316]}, "edge": {"target": [], "time": []}}}, "displayed_time": "25.32", "trialTime": 26844, "trial_type": "mouselab-mdp", "trial_index": 17, "time_elapsed": 740718, "internal_node_id": "0.0-4.0-1.0-8.0"}}, {"uniqueid": "w82728863:a93920327", "current_trial": 18, "dateTime": 1691161096156, "trialdata": {"revealed_states": [], "clicked_states": ["30", "26", "8", "4", "15", "19", "28", "27", "29", "33"], "num_clicks_accrued": [0, 0, 0, 0, 0, 0, 0, 0, 0, 0, 0, 0, 0], "stateRewards": ["", -1, 2, -6, 6, -82, -19, -39, -16, -83, 11, -33, -2, -2, 4, -6, -82, -1, -19, -6, -10, -67, -41, -2, 1, -7, 16, -23, -78, -52, 14, 31, -71, 74], "withholdReward": false, "trial_id": "mdp_trial_10", "block": "test", "trialIndex": 11, "score": 62.099999999999994, "costs": -17.900000000000002, "simulationMode": [null, null, null, null, null], "rewards": [-2, 1, -7, 14, 74], "path": ["0", "0", "23", "24", "25", "30", "33"], "rt": [26530, 37, 53, 391, 36], "actions": ["left", "left", "left", "down", "left"], "actionTimes": [31067, 31744, 32545, 33549, 34560], "queries": {"click": {"state": {"target": ["30", "26", "8", "4", "15", "19", "28", "27", "29", "33"], "time": [6187, 7383, 8937, 10366, 12085, 13968, 15931, 19452, 22868, 26819]}, "edge": {"target": [], "time": []}}, "mouseover": {"state": {"target": ["30", "26", "8", "4", "15", "19", "19", "28", "27", "29", "33", "32"], "time": [6091, 6377, 8011, 9736, 11086, 12384, 13687, 14381, 16204, 19954, 26622, 27609]}, "edge": {"target": [], "time": []}}, "mouseout": {"state": {"target": ["0", "30", "26", "8", "4", "15", "19", "19", "28", "27", "29", "33", "32"], "time": [6044, 6349, 7867, 9705, 10803, 12222, 13045, 14204, 16176, 19821, 26328, 27474, 36328]}, "edge": {"target": [], "time": []}}}, "displayed_time": "35.22", "trialTime": 37031, "trial_type": "mouselab-mdp", "trial_index": 18, "time_elapsed": 782691, "internal_node_id": "0.0-4.0-1.0-9.0"}}, {"uniqueid": "w82728863:a93920327", "current_trial": 19, "dateTime": 1691161135862, "trialdata": {"revealed_states": [], "clicked_states": ["30", "26", "8", "4", "15", "19", "33", "32", "31"], "num_clicks_accrued": [0, 0, 0, 0, 0, 0, 0, 0, 0, 0, 0, 0, 0], "stateRewards": ["", -1, -3, 1, -4, -48, -63, -49, -2, -84, -19, 65, 2, -2, -2, -12, -4, 59, 9, 6, 75, 69, -13, -1, -3, -3, -2, -37, -68, -36, 13, 32, 18, -14], "withholdReward": false, "trial_id": "mdp_trial_11", "block": "test", "trialIndex": 12, "score": 22.25, "costs": -15.750000000000002, "simulationMode": [null, null, null, null, null], "rewards": [-1, -3, -3, 13, 32], "path": ["0", "0", "23", "24", "25", "30", "31"], "rt": [19361, 46, 1054, 171, 60], "actions": ["left", "left", "left", "down", "right"], "actionTimes": [23803, 24503, 26463, 27239, 27927], "queries": {"click": {"state": {"target": ["30", "26", "8", "4", "15", "19", "33", "32", "31"], "time": [6096, 6895, 8280, 9601, 10593, 11798, 13034, 16519, 20436]}, "edge": {"target": [], "time": []}}, "mouseover": {"state": {"target": ["30", "26", "8", "3", "4", "15", "14", "19", "33", "32", "31"], "time": [6017, 6533, 7797, 8792, 8969, 10373, 10978, 11350, 12894, 14590, 17105]}, "edge": {"target": [], "time": []}}, "mouseout": {"state": {"target": ["0", "30", "26", "8", "3", "4", "15", "14", "19", "33", "32", "31", "14"], "time": [5983, 6226, 7463, 8754, 8935, 10109, 10924, 11172, 11868, 14561, 16865, 30856, 31224]}, "edge": {"target": [], "time": []}}}, "displayed_time": "28.57", "trialTime": 34560, "trial_type": "mouselab-mdp", "trial_index": 19, "time_elapsed": 822397, "internal_node_id": "0.0-4.0-1.0-10.0"}}, {"uniqueid": "w82728863:a93920327", "current_trial": 20, "dateTime": 1691161167398, "trialdata": {"revealed_states": [], "clicked_states": ["30", "26", "8", "4", "15", "19", "31", "32", "33"], "num_clicks_accrued": [0, 0, 0, 0, 0, 0, 0, 0, 0, 0, 0, 0, 0], "stateRewards": ["", -2, -3, 7, -13, 60, 9, 37, -6, 37, 20, 1, 2, -2, -8, 6, -80, -31, -10, -7, 70, -65, -44, -1, 1, 7, 6, -11, 73, -85, 16, -21, 47, 34], "withholdReward": false, "trial_id": "mdp_trial_12", "block": "test", "trialIndex": 13, "score": 54.25, "costs": -15.750000000000002, "simulationMode": [null, null, null, null, null], "rewards": [-1, 1, 7, 16, 47], "path": ["0", "0", "23", "24", "25", "30", "32"], "rt": [18764, 37, 96, 67, 35], "actions": ["left", "left", "left", "down", "down"], "actionTimes": [22610, 23290, 23974, 24685, 25466], "queries": {"click": {"state": {"target": ["30", "26", "8", "4", "15", "19", "31", "32", "33"], "time": [5258, 6358, 7275, 8274, 9389, 10307, 11840, 15142, 19312]}, "edge": {"target": [], "time": []}}, "mouseover": {"state": {"target": ["30", "30", "25", "26", "8", "3", "4", "18", "15", "15", "14", "19", "31", "32", "33", "30"], "time": [4697, 4993, 5606, 5756, 6803, 7637, 7814, 8786, 8965, 9229, 9757, 9956, 11650, 12656, 15740, 20948]}, "edge": {"target": [], "time": []}}, "mouseout": {"state": {"target": ["0", "30", "30", "25", "26", "8", "3", "4", "18", "15", "15", "14", "19", "31", "32", "33"], "time": [4609, 4792, 5580, 5730, 6572, 7581, 7783, 8623, 8921, 9092, 9713, 9922, 11355, 12548, 15606, 19820]}, "edge": {"target": [], "time": []}}}, "displayed_time": "26.09", "trialTime": 26883, "trial_type": "mouselab-mdp", "trial_index": 20, "time_elapsed": 853933, "internal_node_id": "0.0-4.0-1.0-11.0"}}, {"uniqueid": "w82728863:a93920327", "current_trial": 21, "dateTime": 1691161204398, "trialdata": {"revealed_states": [], "clicked_states": ["30", "26", "8", "4", "15", "19", "20", "21", "22"], "num_clicks_accrued": [0, 0, 0, 0, 0, 0, 0, 0, 0, 0, 0, 0, 0], "stateRewards": ["", -1, 4, -3, 3, 57, -61, 5, -11, 23, -1, 34, -2, -4, -1, -13, 27, 38, -36, 4, -45, 21, 88, 1, -2, -1, 1, -69, -5, -78, -12, -9, 38, -54], "withholdReward": false, "trial_id": "mdp_trial_13", "block": "test", "trialIndex": 14, "score": 69.25, "costs": -15.750000000000002, "simulationMode": [null, null, null, null, null], "rewards": [-2, -4, -1, 4, 88], "path": ["0", "0", "12", "13", "14", "19", "22"], "rt": [21209, 40, 41, 59, 474], "actions": ["right", "right", "right", "down", "left"], "actionTimes": [24851, 25481, 26115, 26867, 28385], "queries": {"click": {"state": {"target": ["30", "26", "8", "4", "15", "19", "20", "21", "22"], "time": [5267, 6393, 7472, 8419, 9558, 10874, 13651, 17188, 21382]}, "edge": {"target": [], "time": []}}, "mouseover": {"state": {"target": ["24", "30", "26", "8", "4", "15", "19", "14", "22", "20", "21", "22"], "time": [4801, 5020, 5820, 7310, 8321, 9126, 10445, 12373, 12806, 13386, 14360, 17798]}, "edge": {"target": [], "time": []}}, "mouseout": {"state": {"target": ["0", "24", "30", "26", "8", "4", "15", "19", "14", "22", "19", "20", "21", "22", "17"], "time": [4667, 4916, 5683, 6757, 8160, 8813, 10271, 10998, 12528, 13225, 13355, 14195, 17434, 30066, 30294]}, "edge": {"target": [], "time": []}}}, "displayed_time": "29.03", "trialTime": 30815, "trial_type": "mouselab-mdp", "trial_index": 21, "time_elapsed": 890933, "internal_node_id": "0.0-4.0-1.0-12.0"}}, {"uniqueid": "w82728863:a93920327", "current_trial": 22, "dateTime": 1691161237518, "trialdata": {"revealed_states": [], "clicked_states": ["30", "26", "8", "4", "15", "19", "22", "21", "20"], "num_clicks_accrued": [0, 0, 0, 0, 0, 0, 0, 0, 0, 0, 0, 0, 0], "stateRewards": ["", 2, -3, -8, 14, -7, -51, 73, 2, 36, 36, -43, -1, 3, -4, 1, 6, 87, -65, 15, 61, -42, -83, -1, 3, -2, -7, 30, -48, 35, 13, 26, 60, 78], "withholdReward": false, "trial_id": "mdp_trial_14", "block": "test", "trialIndex": 15, "score": 58.25, "costs": -15.750000000000002, "simulationMode": [null, null, null, null, null], "rewards": [-1, 3, -4, 15, 61], "path": ["0", "0", "12", "13", "14", "19", "20"], "rt": [20044, 40, 41, 89, 66], "actions": ["right", "right", "right", "down", "right"], "actionTimes": [23254, 23943, 24607, 25318, 25969], "queries": {"click": {"state": {"target": ["30", "26", "8", "4", "15", "19", "22", "21", "20"], "time": [4493, 5619, 6866, 7811, 9275, 10247, 12163, 15708, 19247]}, "edge": {"target": [], "time": []}}, "mouseover": {"state": {"target": ["30", "26", "8", "4", "15", "19", "22", "21", "20"], "time": [4344, 5040, 6662, 7293, 8394, 9518, 11775, 13114, 16304]}, "edge": {"target": [], "time": []}}, "mouseout": {"state": {"target": ["0", "0", "30", "26", "8", "4", "15", "19", "22", "21", "20"], "time": [446, 4227, 4761, 6401, 7136, 8203, 9485, 11658, 13086, 16060, 27551]}, "edge": {"target": [], "time": []}}}, "displayed_time": "26.64", "trialTime": 27954, "trial_type": "mouselab-mdp", "trial_index": 22, "time_elapsed": 924053, "internal_node_id": "0.0-4.0-1.0-13.0"}}, {"uniqueid": "w82728863:a93920327", "current_trial": 23, "dateTime": 1691161271918, "trialdata": {"revealed_states": [], "clicked_states": ["30", "26", "8", "4", "15", "19", "10", "11", "9"], "num_clicks_accrued": [0, 0, 0, 0, 0, 0, 0, 0, 0, 0, 0, 0, 0], "stateRewards": ["", -1, 2, -2, 13, -56, -28, 10, 14, 53, -80, -29, 1, -3, -3, -14, 14, 9, -40, -9, 18, 18, 48, 1, 1, 1, -9, 64, -39, -9, 7, -52, -78, 7], "withholdReward": false, "trial_id": "mdp_trial_15", "block": "test", "trialIndex": 16, "score": 50.25, "costs": -15.750000000000002, "simulationMode": [null, null, null, null, null], "rewards": [-1, 2, -2, 14, 53], "path": ["0", "0", "1", "2", "3", "8", "9"], "rt": [20257, 678, 38, 113, 42], "actions": ["up", "up", "up", "left", "up"], "actionTimes": [23694, 25130, 25836, 26617, 27294], "queries": {"click": {"state": {"target": ["30", "26", "8", "4", "15", "19", "10", "11", "9"], "time": [4668, 5600, 6396, 7353, 9592, 10878, 12416, 15925, 19403]}, "edge": {"target": [], "time": []}}, "mouseover": {"state": {"target": ["30", "25", "26", "8", "4", "15", "15", "14", "19", "10", "11", "9", "5"], "time": [4576, 5050, 5263, 6242, 7092, 8300, 9321, 10322, 10639, 12235, 13307, 16655, 20644]}, "edge": {"target": [], "time": []}}, "mouseout": {"state": {"target": ["12", "0", "30", "25", "26", "8", "4", "15", "15", "14", "19", "10", "11", "9", "5"], "time": [334, 3529, 5017, 5235, 5877, 6792, 7938, 8428, 10288, 10457, 11799, 13276, 16507, 20194, 28613]}, "edge": {"target": [], "time": []}}}, "displayed_time": "27.96", "trialTime": 29342, "trial_type": "mouselab-mdp", "trial_index": 23, "time_elapsed": 958446, "internal_node_id": "0.0-4.0-1.0-14.0"}}, {"uniqueid": "w82728863:a93920327", "current_trial": 24, "dateTime": 1691161297256, "trialdata": {"revealed_states": [], "clicked_states": ["30", "26", "8", "4", "15", "19", "10"], "num_clicks_accrued": [0, 0, 0, 0, 0, 0, 0, 0, 0, 0, 0, 0, 0], "stateRewards": ["", 1, 4, 5, 8, -55, -11, 8, 16, -37, 77, -22, -2, 3, -8, -10, 45, 87, -67, 4, 17, -33, -22, -1, -3, 7, 6, -39, -85, 75, -1, 7, -48, 45], "withholdReward": false, "trial_id": "mdp_trial_16", "block": "test", "trialIndex": 17, "score": 91.55, "costs": -11.450000000000001, "simulationMode": [null, null, null, null, null], "rewards": [1, 4, 5, 16, 77], "path": ["0", "0", "1", "2", "3", "8", "10"], "rt": [12624, 41, 128, 91, 46], "actions": ["up", "up", "up", "left", "down"], "actionTimes": [16167, 16840, 17602, 18324, 18972], "queries": {"click": {"state": {"target": ["30", "26", "8", "4", "15", "19", "10"], "time": [4624, 5358, 6923, 8164, 9335, 10193, 12271]}, "edge": {"target": [], "time": []}}, "mouseover": {"state": {"target": ["30", "26", "8", "4", "15", "14", "19", "2", "10"], "time": [4435, 5141, 6057, 7621, 8584, 9657, 9870, 11575, 11966]}, "edge": {"target": [], "time": []}}, "mouseout": {"state": {"target": ["0", "30", "26", "8", "4", "15", "14", "19", "2"], "time": [738, 5109, 5792, 7439, 8555, 9618, 9823, 11423, 11787]}, "edge": {"target": [], "time": []}}}, "displayed_time": "19.59", "trialTime": 20757, "trial_type": "mouselab-mdp", "trial_index": 24, "time_elapsed": 983794, "internal_node_id": "0.0-4.0-1.0-15.0"}}, {"uniqueid": "w82728863:a93920327", "current_trial": 25, "dateTime": 1691161339331, "trialdata": {"revealed_states": [], "clicked_states": ["30", "26", "8", "4", "15", "19", "10", "11", "9", "20", "21", "22"], "num_clicks_accrued": [0, 0, 0, 0, 0, 0, 0, 0, 0, 0, 0, 0, 0], "stateRewards": ["", -2, -1, 3, -3, 71, -58, -21, 7, -10, -75, -37, 2, 4, -1, -12, -79, -29, -48, 3, -41, -10, -30, -1, -2, 1, -15, 13, 66, 22, -1, -42, -86, -55], "withholdReward": false, "trial_id": "mdp_trial_17", "block": "test", "trialIndex": 18, "score": -24.2, "costs": -22.2, "simulationMode": [null, null, null, null, null], "rewards": [2, 4, -1, 3, -10], "path": ["0", "0", "12", "13", "14", "19", "21"], "rt": [29016, 282, 212, 162, 780], "actions": ["right", "right", "right", "down", "down"], "actionTimes": [32114, 33037, 33872, 34682, 36117], "queries": {"click": {"state": {"target": ["30", "26", "8", "4", "15", "19", "10", "11", "9", "20", "21", "22"], "time": [4452, 5392, 6374, 7120, 8103, 8977, 10557, 14124, 17508, 21055, 24471, 27918]}, "edge": {"target": [], "time": []}}, "mouseover": {"state": {"target": ["24", "30", "26", "8", "4", "15", "19", "2", "10", "11", "9", "18", "14", "20", "21", "22"], "time": [3942, 4171, 5123, 6099, 6722, 7901, 8506, 10009, 10400, 11641, 14485, 18366, 19616, 19880, 21675, 25191]}, "edge": {"target": [], "time": []}}, "mouseout": {"state": {"target": ["1", "0", "24", "30", "26", "8", "4", "15", "19", "2", "10", "11", "9", "18", "14", "20", "21", "21"], "time": [303, 3218, 4047, 4749, 5708, 6684, 7415, 8479, 9505, 10235, 11492, 14279, 18338, 18902, 19850, 21505, 24585, 24934]}, "edge": {"target": [], "time": []}}}, "displayed_time": "36.80", "trialTime": 37696, "trial_type": "mouselab-mdp", "trial_index": 25, "time_elapsed": 1025868, "internal_node_id": "0.0-4.0-1.0-16.0"}}, {"uniqueid": "w82728863:a93920327", "current_trial": 26, "dateTime": 1691161371267, "trialdata": {"revealed_states": [], "clicked_states": ["30", "26", "8", "4", "15", "19", "7", "6"], "num_clicks_accrued": [0, 0, 0, 0, 0, 0, 0, 0, 0, 0, 0, 0, 0], "stateRewards": ["", 2, -4, -4, 13, -80, 62, 13, -11, 57, -13, -44, 1, 4, 3, -4, -29, -88, 15, 16, -58, 68, -45, -1, -3, -1, -9, -44, -86, -19, -7, -36, 59, 66], "withholdReward": false, "trial_id": "mdp_trial_18", "block": "test", "trialIndex": 19, "score": 55.4, "costs": -13.600000000000001, "simulationMode": [null, null, null, null, null], "rewards": [2, -4, -4, 13, 62], "path": ["0", "0", "1", "2", "3", "4", "6"], "rt": [18281, 328, 419, 43, 45], "actions": ["up", "up", "up", "right", "right"], "actionTimes": [21843, 22832, 23879, 24550, 25218], "queries": {"click": {"state": {"target": ["30", "26", "8", "4", "15", "19", "7", "6"], "time": [6092, 7296, 8384, 9138, 10402, 11191, 12717, 17651]}, "edge": {"target": [], "time": []}}, "mouseover": {"state": {"target": ["31", "30", "26", "8", "4", "15", "19", "6", "7", "6", "5"], "time": [4775, 5015, 6885, 8204, 8860, 9789, 10818, 12144, 12483, 13295, 18387]}, "edge": {"target": [], "time": []}}, "mouseout": {"state": {"target": ["22", "0", "31", "30", "26", "8", "4", "15", "19", "6", "7", "6"], "time": [311, 4737, 4897, 6549, 7858, 8711, 9508, 10610, 11665, 12281, 13152, 18118]}, "edge": {"target": [], "time": []}}}, "displayed_time": "25.90", "trialTime": 26403, "trial_type": "mouselab-mdp", "trial_index": 26, "time_elapsed": 1057802, "internal_node_id": "0.0-4.0-1.0-17.0"}}, {"uniqueid": "w82728863:a93920327", "current_trial": 27, "dateTime": 1691161402151, "trialdata": {"revealed_states": [], "clicked_states": ["30", "26", "8", "4", "15", "19", "10"], "num_clicks_accrued": [0, 0, 0, 0, 0, 0, 0, 0, 0, 0, 0, 0, 0], "stateRewards": ["", -2, -3, 1, -7, 39, -67, 16, 5, -20, 73, 66, -1, 4, 5, -3, 23, -68, -87, -8, 3, -3, 17, 1, -4, -2, -13, -32, 34, 61, -5, -11, -18, 12], "withholdReward": false, "trial_id": "mdp_trial_19", "block": "test", "trialIndex": 20, "score": 62.55, "costs": -11.450000000000001, "simulationMode": [null, null, null, null, null], "rewards": [-2, -3, 1, 5, 73], "path": ["0", "0", "1", "2", "3", "8", "10"], "rt": [12818, 52, 99, 44, 49], "actions": ["up", "up", "up", "left", "down"], "actionTimes": [16657, 17305, 18080, 18807, 19510], "queries": {"click": {"state": {"target": ["30", "26", "8", "4", "15", "19", "10"], "time": [5248, 6280, 7113, 7863, 9239, 10280, 12529]}, "edge": {"target": [], "time": []}}, "mouseover": {"state": {"target": ["30", "25", "26", "8", "3", "4", "15", "15", "14", "19", "10", "11"], "time": [5015, 5626, 5941, 6838, 7456, 7695, 8517, 8922, 9606, 9808, 12326, 14009]}, "edge": {"target": [], "time": []}}, "mouseout": {"state": {"target": ["12", "0", "30", "25", "26", "8", "3", "4", "15", "15", "14", "19", "10", "10"], "time": [144, 4654, 5334, 5916, 6584, 7426, 7653, 7998, 8689, 9556, 9775, 11857, 12752, 13766]}, "edge": {"target": [], "time": []}}}, "displayed_time": "20.11", "trialTime": 21042, "trial_type": "mouselab-mdp", "trial_index": 27, "time_elapsed": 1088687, "internal_node_id": "0.0-4.0-1.0-18.0"}}, {"uniqueid": "w82728863:a93920327", "current_trial": 28, "dateTime": 1691161434310, "trialdata": {"revealed_states": [], "clicked_states": ["30", "26", "8", "4", "15", "19", "31", "32"], "num_clicks_accrued": [0, 0, 0, 0, 0, 0, 0, 0, 0, 0, 0, 0, 0], "stateRewards": ["", 2, 4, -5, 7, 81, 35, 6, 11, 14, -72, 42, -1, 2, 3, -7, -77, -44, -40, -15, -85, 51, -32, -2, -1, -5, 7, -74, 47, 52, 16, -49, 48, -46], "withholdReward": false, "trial_id": "mdp_trial_20", "block": "test", "trialIndex": 21, "score": 42.4, "costs": -13.600000000000001, "simulationMode": [null, null, null, null, null], "rewards": [-2, -1, -5, 16, 48], "path": ["0", "0", "23", "24", "25", "30", "32"], "rt": [17274, 103, 214, 63, 51], "actions": ["left", "left", "left", "down", "down"], "actionTimes": [22076, 22804, 23671, 24426, 25092], "queries": {"click": {"state": {"target": ["30", "26", "8", "4", "15", "19", "31", "32"], "time": [6700, 7662, 8926, 9762, 11578, 12727, 14003, 17486]}, "edge": {"target": [], "time": []}}, "mouseover": {"state": {"target": ["30", "26", "8", "4", "14", "15", "14", "19", "31", "32", "33"], "time": [5810, 6896, 8444, 9397, 10978, 11421, 12049, 12636, 13816, 15237, 18890]}, "edge": {"target": [], "time": []}}, "mouseout": {"state": {"target": ["11", "1", "0", "30", "26", "8", "4", "14", "15", "14", "19", "31", "32"], "time": [747, 1092, 5145, 6859, 8302, 9187, 10541, 11321, 12013, 12601, 12932, 15084, 17944]}, "edge": {"target": [], "time": []}}}, "displayed_time": "25.73", "trialTime": 27028, "trial_type": "mouselab-mdp", "trial_index": 28, "time_elapsed": 1120845, "internal_node_id": "0.0-4.0-1.0-19.0"}}, {"uniqueid": "w82728863:a93920327", "current_trial": 29, "dateTime": 1691161463901, "trialdata": {"revealed_states": [], "clicked_states": ["30", "26", "8", "4", "15", "19", "29", "27"], "num_clicks_accrued": [0, 0, 0, 0, 0, 0, 0, 0, 0, 0, 0, 0, 0], "stateRewards": ["", 1, 3, 3, -10, 52, 68, 59, 12, 7, 49, 21, -2, -3, -4, -2, -2, 63, 63, -4, 44, 43, -76, -2, -3, -6, 13, 48, 36, 12, -5, -36, -33, -11], "withholdReward": false, "trial_id": "mdp_trial_21", "block": "test", "trialIndex": 22, "score": 36.4, "costs": -13.600000000000001, "simulationMode": [null, null, null, null, null], "rewards": [-2, -3, -6, 13, 48], "path": ["0", "0", "23", "24", "25", "26", "27"], "rt": [17300, 47, 42, 57, 125], "actions": ["left", "left", "left", "up", "up"], "actionTimes": [20955, 21632, 22309, 22963, 23762], "queries": {"click": {"state": {"target": ["30", "26", "8", "4", "15", "19", "29", "27"], "time": [4964, 6105, 7234, 8123, 9424, 10458, 12892, 16394]}, "edge": {"target": [], "time": []}}, "mouseover": {"state": {"target": ["25", "30", "26", "8", "4", "18", "15", "14", "19", "23", "25", "26", "26", "29", "27", "28"], "time": [3750, 4767, 5668, 6726, 7658, 8529, 9132, 9630, 9934, 10855, 11665, 12192, 12576, 12728, 13833, 16888]}, "edge": {"target": [], "time": []}}, "mouseout": {"state": {"target": ["12", "25", "30", "26", "8", "4", "18", "15", "14", "19", "23", "25", "26", "26", "29", "27"], "time": [594, 4657, 5519, 6492, 7515, 8499, 8697, 9593, 9796, 10539, 11503, 11824, 12301, 12698, 13658, 16860]}, "edge": {"target": [], "time": []}}}, "displayed_time": "24.37", "trialTime": 24968, "trial_type": "mouselab-mdp", "trial_index": 29, "time_elapsed": 1150436, "internal_node_id": "0.0-4.0-1.0-20.0"}}, {"uniqueid": "w82728863:a93920327", "current_trial": 30, "dateTime": 1691161494857, "trialdata": {"revealed_states": [], "clicked_states": ["30", "26", "8", "4", "15", "19", "31", "32", "33"], "num_clicks_accrued": [0, 0, 0, 0, 0, 0, 0, 0, 0, 0, 0, 0, 0], "stateRewards": ["", -2, 3, -5, -7, 66, 43, -60, -4, -70, -75, 4, -1, 2, 2, -13, 54, 11, -40, -1, 77, 32, 15, -2, 3, -8, -9, -35, 83, -27, 6, -74, -34, 44], "withholdReward": false, "trial_id": "mdp_trial_22", "block": "test", "trialIndex": 23, "score": 27.25, "costs": -15.750000000000002, "simulationMode": [null, null, null, null, null], "rewards": [-2, 3, -8, 6, 44], "path": ["0", "0", "23", "24", "25", "30", "33"], "rt": [17294, 139, 55, 45, 61], "actions": ["left", "left", "left", "down", "left"], "actionTimes": [21311, 22113, 22793, 23507, 24196], "queries": {"click": {"state": {"target": ["30", "26", "8", "4", "15", "19", "31", "32", "33"], "time": [5187, 6002, 6888, 7593, 8779, 9498, 10629, 14356, 17893]}, "edge": {"target": [], "time": []}}, "mouseover": {"state": {"target": ["31", "30", "26", "8", "3", "4", "15", "19", "31", "32", "33"], "time": [4125, 4869, 5715, 6606, 7202, 7418, 8485, 9263, 10459, 11026, 14905]}, "edge": {"target": [], "time": []}}, "mouseout": {"state": {"target": ["1", "31", "30", "26", "8", "3", "4", "4", "15", "19", "31", "32", "33"], "time": [923, 4691, 5290, 6293, 7172, 7388, 7692, 8453, 8912, 9801, 10763, 14759, 25870]}, "edge": {"target": [], "time": []}}}, "displayed_time": "24.81", "trialTime": 25876, "trial_type": "mouselab-mdp", "trial_index": 30, "time_elapsed": 1181395, "internal_node_id": "0.0-4.0-1.0-21.0"}}, {"uniqueid": "w82728863:a93920327", "current_trial": 31, "dateTime": 1691161536064, "trialdata": {"revealed_states": [], "clicked_states": ["30", "26", "8", "4", "15", "19", "6", "7"], "num_clicks_accrued": [0, 0, 0, 0, 0, 0, 0, 0, 0, 0, 0, 0, 0], "stateRewards": ["", 2, 3, -1, 16, -78, -11, 46, 2, -20, 79, -67, 2, 3, 2, 11, -83, -42, -58, -11, -67, -22, 55, 2, -1, -1, -16, -83, -82, 23, -11, -29, 13, 13], "withholdReward": false, "trial_id": "mdp_trial_23", "block": "test", "trialIndex": 24, "score": 52.4, "costs": -13.600000000000001, "simulationMode": [null, null, null, null, null], "rewards": [2, 3, -1, 16, 46], "path": ["0", "0", "1", "2", "3", "4", "7"], "rt": [25485, 52, 48, 316, 98], "actions": ["up", "up", "up", "right", "down"], "actionTimes": [29034, 31776, 32676, 33755, 34541], "queries": {"click": {"state": {"target": ["30", "26", "8", "4", "15", "19", "6", "7"], "time": [5264, 6127, 8118, 10429, 12086, 14199, 18253, 24470]}, "edge": {"target": [], "time": []}}, "mouseover": {"state": {"target": ["28", "30", "26", "8", "4", "15", "19", "4", "6", "7", "5"], "time": [3677, 5190, 5469, 7178, 8694, 10905, 12680, 16926, 17987, 21283, 24928]}, "edge": {"target": [], "time": []}}, "mouseout": {"state": {"target": ["0", "28", "30", "26", "8", "4", "15", "19", "4", "6", "7"], "time": [3651, 5158, 5334, 7023, 8631, 10835, 12653, 16594, 17146, 21261, 24753]}, "edge": {"target": [], "time": []}}}, "displayed_time": "35.27", "trialTime": 36179, "trial_type": "mouselab-mdp", "trial_index": 31, "time_elapsed": 1222600, "internal_node_id": "0.0-4.0-1.0-22.0"}}, {"uniqueid": "w82728863:a93920327", "current_trial": 32, "dateTime": 1691161569037, "trialdata": {"revealed_states": [], "clicked_states": ["30", "26", "8", "4", "15", "19", "31", "32", "33"], "num_clicks_accrued": [0, 0, 0, 0, 0, 0, 0, 0, 0, 0, 0, 0, 0], "stateRewards": ["", -2, -3, 4, 1, 33, -53, 15, 9, -12, 61, -6, -2, 4, 6, -11, 47, -43, -7, -11, 46, 23, -28, -1, -1, 3, -10, 11, 76, -76, 10, 18, -38, 87], "withholdReward": false, "trial_id": "mdp_trial_24", "block": "test", "trialIndex": 25, "score": 82.25, "costs": -15.750000000000002, "simulationMode": [null, null, null, null, null], "rewards": [-1, -1, 3, 10, 87], "path": ["0", "0", "23", "24", "25", "30", "33"], "rt": [17956, 48, 559, 62, 49], "actions": ["left", "left", "left", "down", "left"], "actionTimes": [22697, 23361, 24584, 25330, 26031], "queries": {"click": {"state": {"target": ["30", "26", "8", "4", "15", "19", "31", "32", "33"], "time": [5888, 6950, 7984, 8734, 9865, 10692, 12107, 15600, 19210]}, "edge": {"target": [], "time": []}}, "mouseover": {"state": {"target": ["30", "26", "8", "3", "4", "15", "14", "19", "31", "32", "33", "31"], "time": [4865, 6421, 7560, 8310, 8488, 9567, 10102, 10450, 11982, 12994, 16395, 20585]}, "edge": {"target": [], "time": []}}, "mouseout": {"state": {"target": ["5", "3", "2", "1", "0", "30", "26", "8", "3", "4", "15", "14", "19", "31", "32", "33"], "time": [1168, 1471, 1562, 1643, 4841, 6274, 7070, 8267, 8451, 9207, 10075, 10282, 10829, 12791, 16186, 20533]}, "edge": {"target": [], "time": []}}}, "displayed_time": "26.80", "trialTime": 28142, "trial_type": "mouselab-mdp", "trial_index": 32, "time_elapsed": 1255573, "internal_node_id": "0.0-4.0-1.0-23.0"}}, {"uniqueid": "w82728863:a93920327", "current_trial": 33, "dateTime": 1691161600933, "trialdata": {"revealed_states": [], "clicked_states": ["30", "26", "8", "4", "15", "19", "28", "27"], "num_clicks_accrued": [0, 0, 0, 0, 0, 0, 0, 0, 0, 0, 0, 0, 0], "stateRewards": ["", -2, 2, 3, -7, -31, -33, 29, -8, -57, 50, -83, -1, -1, 5, 13, -23, -62, 25, 5, -66, -85, 14, 1, -2, -1, 16, 71, 33, -19, -14, 5, -43, 79], "withholdReward": false, "trial_id": "mdp_trial_25", "block": "test", "trialIndex": 26, "score": 71.4, "costs": -13.600000000000001, "simulationMode": [null, null, null, null, null], "rewards": [1, -2, -1, 16, 71], "path": ["0", "0", "23", "24", "25", "26", "27"], "rt": [17347, 38, 46, 131, 109], "actions": ["left", "left", "left", "up", "up"], "actionTimes": [21843, 22499, 23222, 24031, 24807], "queries": {"click": {"state": {"target": ["30", "26", "8", "4", "15", "19", "28", "27"], "time": [5803, 6574, 7621, 8603, 9449, 10242, 12675, 17955]}, "edge": {"target": [], "time": []}}, "mouseover": {"state": {"target": ["30", "26", "8", "4", "15", "14", "19", "13", "28", "26", "26", "28", "27", "27", "26"], "time": [4816, 6225, 7173, 7957, 9382, 9657, 9903, 11361, 11516, 11847, 12347, 12514, 16829, 17538, 18408]}, "edge": {"target": [], "time": []}}, "mouseout": {"state": {"target": ["0", "30", "26", "8", "4", "15", "14", "19", "13", "28", "26", "26", "28", "27", "27", "26"], "time": [4629, 5941, 7038, 7923, 8762, 9619, 9868, 11331, 11481, 11750, 12198, 12483, 16712, 17307, 18271, 18809]}, "edge": {"target": [], "time": []}}}, "displayed_time": "25.44", "trialTime": 26476, "trial_type": "mouselab-mdp", "trial_index": 33, "time_elapsed": 1287467, "internal_node_id": "0.0-4.0-1.0-24.0"}}, {"uniqueid": "w82728863:a93920327", "current_trial": 34, "dateTime": 1691161637370, "trialdata": {"revealed_states": [], "clicked_states": ["30", "26", "8", "4", "15", "19", "11", "10", "9"], "num_clicks_accrued": [0, 0, 0, 0, 0, 0, 0, 0, 0, 0, 0, 0, 0], "stateRewards": ["", -2, 2, 3, -7, 76, 63, 21, 15, 35, -8, -44, 1, 1, -2, -12, 23, 24, 76, -9, 46, 66, -49, -2, -1, 7, 12, 40, -71, -45, -6, 38, -49, 46], "withholdReward": false, "trial_id": "mdp_trial_26", "block": "test", "trialIndex": 27, "score": 37.25, "costs": -15.750000000000002, "simulationMode": [null, null, null, null, null], "rewards": [-2, 2, 3, 15, 35], "path": ["0", "0", "1", "2", "3", "8", "9"], "rt": [22234, 52, 45, 237, 137], "actions": ["up", "up", "up", "left", "up"], "actionTimes": [25639, 26496, 27287, 28516, 29353], "queries": {"click": {"state": {"target": ["30", "26", "8", "4", "15", "19", "11", "10", "9"], "time": [5618, 5840, 7623, 8506, 9910, 11371, 13368, 17390, 21227]}, "edge": {"target": [], "time": []}}, "mouseover": {"state": {"target": ["31", "30", "26", "8", "4", "15", "19", "26", "8", "11", "9", "10", "9", "28"], "time": [3528, 5099, 5770, 7191, 8098, 9544, 10622, 12268, 12741, 13171, 14311, 15878, 19108, 22257]}, "edge": {"target": [], "time": []}}, "mouseout": {"state": {"target": ["0", "31", "30", "26", "8", "4", "15", "19", "26", "8", "11", "9", "10", "9"], "time": [3504, 5038, 5741, 6975, 7922, 8775, 10545, 11920, 12668, 13055, 14263, 15743, 17807, 21768]}, "edge": {"target": [], "time": []}}}, "displayed_time": "30.23", "trialTime": 30962, "trial_type": "mouselab-mdp", "trial_index": 34, "time_elapsed": 1323907, "internal_node_id": "0.0-4.0-1.0-25.0"}}, {"uniqueid": "w82728863:a93920327", "current_trial": 35, "dateTime": 1691161675608, "trialdata": {"revealed_states": [], "clicked_states": ["30", "26", "8", "4", "15", "19", "32", "33", "31"], "num_clicks_accrued": [0, 0, 0, 0, 0, 0, 0, 0, 0, 0, 0, 0, 0], "stateRewards": ["", 2, -1, 1, 10, -52, 86, -22, -2, -14, -63, 38, 1, 3, 7, -8, 11, -32, -27, 9, -71, 40, -87, -2, -1, 5, -7, 12, 31, -57, 13, 86, -58, 29], "withholdReward": false, "trial_id": "mdp_trial_27", "block": "test", "trialIndex": 28, "score": 85.25, "costs": -15.750000000000002, "simulationMode": [null, null, null, null, null], "rewards": [-2, -1, 5, 13, 86], "path": ["0", "0", "23", "24", "25", "30", "31"], "rt": [19983, 896, 121, 760, 111], "actions": ["left", "left", "left", "down", "right"], "actionTimes": [23182, 24703, 25427, 26878, 27622], "queries": {"click": {"state": {"target": ["30", "26", "8", "4", "15", "19", "32", "33", "31"], "time": [5152, 5989, 6944, 7794, 8935, 9704, 11314, 14797, 19770]}, "edge": {"target": [], "time": []}}, "mouseover": {"state": {"target": ["30", "26", "8", "3", "4", "15", "19", "32", "31", "30", "33", "31"], "time": [5003, 5313, 6648, 7349, 7516, 8365, 9346, 10953, 12394, 13848, 14015, 15703]}, "edge": {"target": [], "time": []}}, "mouseout": {"state": {"target": ["0", "30", "26", "8", "3", "4", "15", "19", "32", "31", "30", "33", "31"], "time": [4947, 5286, 6315, 7036, 7483, 7870, 9312, 10471, 12259, 13814, 13984, 15455, 28903]}, "edge": {"target": [], "time": []}}}, "displayed_time": "28.31", "trialTime": 29903, "trial_type": "mouselab-mdp", "trial_index": 35, "time_elapsed": 1362144, "internal_node_id": "0.0-4.0-1.0-26.0"}}, {"uniqueid": "w82728863:a93920327", "current_trial": 36, "dateTime": 1691161709377, "trialdata": {"revealed_states": [], "clicked_states": ["30", "26", "8", "4", "15", "19", "28", "27"], "num_clicks_accrued": [0, 0, 0, 0, 0, 0, 0, 0, 0, 0, 0, 0, 0], "stateRewards": ["", 1, 1, 4, 11, 83, -66, 18, -16, -23, 5, 25, 1, -3, 1, -12, 18, 24, -86, -11, -64, 36, 40, 2, 1, -6, 13, 55, 29, 72, -2, 81, -72, -41], "withholdReward": false, "trial_id": "mdp_trial_28", "block": "test", "trialIndex": 29, "score": 116.4, "costs": -13.600000000000001, "simulationMode": [null, null, null, null, null, null, null, null, null, null, null, null, null, null], "rewards": [2, 2, 1, 1, -6, -6, 13, 13, 55, 55], "path": ["0", "0", "23", "23", "24", "24", "25", "25", "26", "26", "27", "27"], "rt": [17483, 16984, 24, 108, 92, 24, 103, 80, 19, 317, 307, 135, 76, 95], "actions": ["left", "left", "left", "left", "left", "left", "left", "left", "left", "up", "up", "up", "up", "up"], "actionTimes": [17002, 17037, 17216, 17927, 17970, 18027, 18709, 18744, 18795, 19688, 19734, 19912, 20442, 20632], "queries": {"click": {"state": {"target": ["30", "26", "8", "4", "15", "19", "28", "27"], "time": [1602, 2662, 3883, 4675, 5716, 6820, 8454, 12219]}, "edge": {"target": [], "time": []}}, "mouseover": {"state": {"target": ["31", "30", "26", "8", "3", "4", "15", "14", "19", "28", "27", "29"], "time": [1243, 1413, 2381, 3801, 4082, 4322, 5427, 6108, 6505, 8179, 10210, 12859]}, "edge": {"target": [], "time": []}}, "mouseout": {"state": {"target": ["0", "31", "30", "26", "8", "3", "4", "15", "14", "19", "28", "27"], "time": [1119, 1381, 2015, 3662, 4034, 4297, 5019, 5809, 6352, 7511, 10046, 12708]}, "edge": {"target": [], "time": []}}}, "displayed_time": "21.28", "trialTime": 24060, "trial_type": "mouselab-mdp", "trial_index": 36, "time_elapsed": 1395914, "internal_node_id": "0.0-4.0-1.0-27.0"}}, {"uniqueid": "w82728863:a93920327", "current_trial": 37, "dateTime": 1691161715483, "trialdata": {"revealed_states": [], "clicked_states": ["30", "26", "8", "4", "15", "19", "28", "27"], "num_clicks_accrued": [0, 0, 0, 0, 0, 0, 0, 0, 0, 0, 0, 0, 0], "stateRewards": ["", 1, 1, 4, 11, 83, -66, 18, -16, -23, 5, 25, 1, -3, 1, -12, 18, 24, -86, -11, -64, 36, 40, 2, 1, -6, 13, 55, 29, 72, -2, 81, -72, -41], "withholdReward": false, "trial_id": "mdp_trial_28", "block": "test", "trialIndex": 29, "score": 116.4, "costs": -13.600000000000001, "simulationMode": [null, null, null, null, null, null, null, null, null, null, null, null, null, null], "rewards": [2, 2, 1, 1, -6, -6, 13, 13, 55, 55], "path": ["0", "0", "23", "23", "24", "24", "25", "25", "26", "26", "27", "27"], "rt": [17483, 16984, 24, 108, 92, 24, 103, 80, 19, 317, 307, 135, 76, 95], "actions": ["left", "left", "left", "left", "left", "left", "left", "left", "left", "up", "up", "up", "up", "up"], "actionTimes": [17002, 17037, 17216, 17927, 17970, 18027, 18709, 18744, 18795, 19688, 19734, 19912, 20442, 20632], "queries": {"click": {"state": {"target": ["30", "26", "8", "4", "15", "19", "28", "27"], "time": [1602, 2662, 3883, 4675, 5716, 6820, 8454, 12219]}, "edge": {"target": [], "time": []}}, "mouseover": {"state": {"target": ["31", "30", "26", "8", "3", "4", "15", "14", "19", "28", "27", "29"], "time": [1243, 1413, 2381, 3801, 4082, 4322, 5427, 6108, 6505, 8179, 10210, 12859]}, "edge": {"target": [], "time": []}}, "mouseout": {"state": {"target": ["0", "31", "30", "26", "8", "3", "4", "15", "14", "19", "28", "27"], "time": [1119, 1381, 2015, 3662, 4034, 4297, 5019, 5809, 6352, 7511, 10046, 12708]}, "edge": {"target": [], "time": []}}}, "displayed_time": "21.28", "trialTime": 30168, "trial_type": "mouselab-mdp", "trial_index": 37, "time_elapsed": 1402021, "internal_node_id": "0.0-4.0-1.0-28.0"}}, {"uniqueid": "w82728863:a93920327", "current_trial": 38, "dateTime": 1691161749893, "trialdata": {"revealed_states": [], "clicked_states": ["30", "26", "8", "4", "15", "19", "32", "31", "33"], "num_clicks_accrued": [0, 0, 0, 0, 0, 0, 0, 0, 0, 0, 0, 0, 0], "stateRewards": ["", -1, 1, 8, -3, -24, 11, -65, -6, -77, 48, 44, -2, 1, -2, -7, -55, -35, 33, 8, -28, 19, -53, -1, -1, -5, -5, -70, 10, 44, 8, -58, -70, 51], "withholdReward": false, "trial_id": "mdp_trial_30", "block": "test", "trialIndex": 31, "score": 36.25, "costs": -15.750000000000002, "simulationMode": [null, null, null, null, null], "rewards": [-1, -1, -5, 8, 51], "path": ["0", "0", "23", "24", "25", "30", "33"], "rt": [19556, 50, 76, 397, 43], "actions": ["left", "left", "left", "down", "left"], "actionTimes": [23019, 23704, 24434, 25908, 26718], "queries": {"click": {"state": {"target": ["30", "26", "8", "4", "15", "19", "32", "31", "33"], "time": [4653, 5447, 6474, 7154, 8100, 8948, 10357, 15037, 19054]}, "edge": {"target": [], "time": []}}, "mouseover": {"state": {"target": ["30", "26", "8", "4", "15", "19", "32", "31", "33", "22"], "time": [4431, 5076, 6065, 6968, 7915, 8616, 10060, 13965, 15451, 20108]}, "edge": {"target": [], "time": []}}, "mouseout": {"state": {"target": ["0", "30", "26", "8", "4", "15", "19", "32", "31", "33", "22"], "time": [469, 5046, 5769, 6792, 7441, 8394, 9043, 10680, 15416, 19674, 29100]}, "edge": {"target": [], "time": []}}}, "displayed_time": "27.43", "trialTime": 29297, "trial_type": "mouselab-mdp", "trial_index": 38, "time_elapsed": 1436431, "internal_node_id": "0.0-4.0-1.0-29.0"}}, {"uniqueid": "w82728863:a93920327", "current_trial": 39, "dateTime": 1691161784530, "trialdata": {"revealed_states": [], "clicked_states": ["30", "26", "8", "4", "15", "19", "32", "31", "33"], "num_clicks_accrued": [0, 0, 0, 0, 0, 0, 0, 0, 0, 0, 0, 0, 0], "stateRewards": ["", -2, -1, -3, -1, -78, -6, 2, -1, 22, -88, 32, 2, 2, -7, -8, -51, -17, 54, 2, -44, 54, 75, 2, -2, -8, -15, -29, 12, -67, 15, -1, -47, -47], "withholdReward": false, "trial_id": "mdp_trial_31", "block": "test", "trialIndex": 32, "score": -9.75, "costs": -15.750000000000002, "simulationMode": [null, null, null, null, null], "rewards": [2, -2, -8, 15, -1], "path": ["0", "0", "23", "24", "25", "30", "31"], "rt": [18422, 43, 47, 44, 52], "actions": ["left", "left", "left", "down", "right"], "actionTimes": [23033, 23726, 24378, 25025, 25717], "queries": {"click": {"state": {"target": ["30", "26", "8", "4", "15", "19", "32", "31", "33"], "time": [5876, 6841, 8399, 9296, 10290, 11178, 12569, 16159, 19633]}, "edge": {"target": [], "time": []}}, "mouseover": {"state": {"target": ["30", "26", "8", "4", "15", "19", "19", "32", "31", "33"], "time": [5640, 6611, 7710, 9078, 9777, 10622, 11000, 12268, 13219, 16811]}, "edge": {"target": [], "time": []}}, "mouseout": {"state": {"target": ["30", "26", "8", "4", "15", "19", "19", "32", "31", "33", "31"], "time": [6286, 7317, 8661, 9433, 10590, 10754, 11629, 13064, 16536, 27733, 27858]}, "edge": {"target": [], "time": []}}}, "displayed_time": "26.38", "trialTime": 29763, "trial_type": "mouselab-mdp", "trial_index": 39, "time_elapsed": 1471066, "internal_node_id": "0.0-4.0-1.0-30.0"}}, {"uniqueid": "w82728863:a93920327", "current_trial": 40, "dateTime": 1691161814372, "trialdata": {"revealed_states": [], "clicked_states": ["30", "26", "8", "4", "15", "19", "32"], "num_clicks_accrued": [0, 0, 0, 0, 0, 0, 0, 0, 0, 0, 0, 0, 0], "stateRewards": ["", 1, 4, 7, -16, -84, -6, -46, -12, -7, -49, -26, -1, 2, -4, 2, 22, 37, -64, 1, 88, -13, -10, 1, -4, -2, 5, 2, -10, -34, 9, 66, 55, 38], "withholdReward": false, "trial_id": "mdp_trial_32", "block": "test", "trialIndex": 33, "score": 44.55, "costs": -11.450000000000001, "simulationMode": [null, null, null, null, null, null, null, null, null, null, null, null], "rewards": [1, 1, -4, -4, -2, 9, 55], "path": ["0", "0", "23", "23", "24", "24", "25", "30", "32"], "rt": [12993, 12631, 637, 84, 680, 115, 714, 123, 730, 211, 116, 751], "actions": ["left", "left", "left", "left", "left", "left", "left", "left", "left", "left", "down", "down"], "actionTimes": [12637, 12664, 13327, 13363, 14070, 14096, 14834, 14859, 15616, 15641, 16372, 17718], "queries": {"click": {"state": {"target": ["30", "26", "8", "4", "15", "19", "32"], "time": [2469, 3504, 4702, 5551, 6424, 7210, 8717]}, "edge": {"target": [], "time": []}}, "mouseover": {"state": {"target": ["0", "0", "24", "30", "26", "8", "4", "15", "19", "31", "32", "33"], "time": [969, 1426, 1977, 2254, 3193, 4312, 5053, 6148, 6776, 8154, 8558, 10607]}, "edge": {"target": [], "time": []}}, "mouseout": {"state": {"target": ["0", "0", "0", "24", "30", "26", "8", "4", "15", "19", "31", "32"], "time": [856, 1080, 1822, 2109, 2918, 3964, 4856, 5695, 6505, 8014, 8357, 10464]}, "edge": {"target": [], "time": []}}}, "displayed_time": "18.38", "trialTime": 19578, "trial_type": "mouselab-mdp", "trial_index": 40, "time_elapsed": 1500907, "internal_node_id": "0.0-4.0-1.0-31.0"}}, {"uniqueid": "w82728863:a93920327", "current_trial": 41, "dateTime": 1691161852457, "trialdata": {"revealed_states": [], "clicked_states": ["30", "26", "8", "4", "15", "19", "9", "11", "10", "22"], "num_clicks_accrued": [0, 0, 0, 0, 0, 0, 0, 0, 0, 0, 0, 0, 0], "stateRewards": ["", 2, 3, -2, -8, -8, -41, 74, 15, -23, -80, 1, 1, 3, 3, -15, -63, -78, 67, 13, 75, -41, 86, 2, -2, 6, -3, -8, -49, 50, -6, 83, 74, 80], "withholdReward": false, "trial_id": "mdp_trial_33", "block": "test", "trialIndex": 34, "score": 88.1, "costs": -17.900000000000002, "simulationMode": [null, null, null, null, null], "rewards": [1, 3, 3, 13, 86], "path": ["0", "0", "12", "13", "14", "19", "22"], "rt": [22237, 173, 290, 75, 51], "actions": ["right", "right", "right", "down", "left"], "actionTimes": [27765, 28564, 29596, 30308, 30998], "queries": {"click": {"state": {"target": ["30", "26", "8", "4", "15", "19", "9", "11", "10", "22"], "time": [6506, 7373, 8198, 8846, 9964, 10788, 12943, 16527, 19986, 23575]}, "edge": {"target": [], "time": []}}, "mouseover": {"state": {"target": ["30", "25", "26", "8", "4", "15", "14", "19", "10", "11", "9", "11", "10", "22", "21"], "time": [6324, 6878, 7104, 7993, 8529, 9772, 10142, 10479, 12123, 12377, 12763, 14323, 17073, 21871, 24265]}, "edge": {"target": [], "time": []}}, "mouseout": {"state": {"target": ["24", "23", "30", "25", "26", "8", "4", "15", "14", "19", "10", "11", "9", "11", "10", "22"], "time": [1710, 2009, 6841, 7057, 7697, 8499, 9309, 10100, 10342, 10883, 12245, 12484, 13699, 16885, 21434, 24125]}, "edge": {"target": [], "time": []}}}, "displayed_time": "31.66", "trialTime": 32713, "trial_type": "mouselab-mdp", "trial_index": 41, "time_elapsed": 1538995, "internal_node_id": "0.0-4.0-1.0-32.0"}}, {"uniqueid": "w82728863:a93920327", "current_trial": 42, "dateTime": 1691161883547, "trialdata": {"revealed_states": [], "clicked_states": ["30", "26", "8", "4", "15", "19", "29"], "num_clicks_accrued": [0, 0, 0, 0, 0, 0, 0, 0, 0, 0, 0, 0, 0], "stateRewards": ["", 2, 3, -6, -5, -3, 55, 40, 11, 61, 11, 51, 2, -4, -6, 9, -25, 29, -15, -6, 7, -77, -2, -2, -4, 1, 14, -43, -1, 56, -12, -54, 41, -74], "withholdReward": false, "trial_id": "mdp_trial_34", "block": "test", "trialIndex": 35, "score": 53.55, "costs": -11.450000000000001, "simulationMode": [null, null, null, null, null], "rewards": [-2, -4, 1, 14, 56], "path": ["0", "0", "23", "24", "25", "26", "29"], "rt": [12004, 130, 61, 135, 55], "actions": ["left", "left", "left", "up", "left"], "actionTimes": [15708, 16487, 17199, 18064, 18758], "queries": {"click": {"state": {"target": ["30", "26", "8", "4", "15", "19", "29"], "time": [5037, 6050, 7329, 8056, 9048, 9990, 11578]}, "edge": {"target": [], "time": []}}, "mouseover": {"state": {"target": ["30", "26", "8", "3", "4", "15", "19", "22", "0", "23", "29", "27"], "time": [4800, 5593, 6548, 7535, 7893, 8507, 9618, 10313, 10544, 10792, 11413, 13298]}, "edge": {"target": [], "time": []}}, "mouseout": {"state": {"target": ["0", "30", "26", "8", "3", "4", "15", "19", "22", "0", "23", "29", "27"], "time": [4045, 5245, 6194, 7493, 7738, 8474, 9417, 10280, 10515, 10736, 10940, 13079, 20693]}, "edge": {"target": [], "time": []}}}, "displayed_time": "19.38", "trialTime": 22285, "trial_type": "mouselab-mdp", "trial_index": 42, "time_elapsed": 1570082, "internal_node_id": "0.0-4.0-1.0-33.0"}}, {"uniqueid": "w82728863:a93920327", "current_trial": 43, "dateTime": 1691161921320, "trialdata": {"revealed_states": [], "clicked_states": ["30", "26", "8", "4", "15", "19", "31", "32", "33"], "num_clicks_accrued": [0, 0, 0, 0, 0, 0, 0, 0, 0, 0, 0, 0, 0], "stateRewards": ["", -2, -3, -6, -7, 9, 16, 65, 5, -41, 20, -25, -1, -4, 1, -11, -49, -4, 71, 1, 39, -62, 52, -2, -3, 7, -9, -28, -70, 84, 8, 24, -58, 82], "withholdReward": false, "trial_id": "mdp_trial_35", "block": "test", "trialIndex": 36, "score": 76.25, "costs": -15.750000000000002, "simulationMode": [null, null, null, null, null], "rewards": [-2, -3, 7, 8, 82], "path": ["0", "0", "23", "24", "25", "30", "33"], "rt": [18945, 82, 106, 59, 63], "actions": ["left", "left", "left", "down", "left"], "actionTimes": [22787, 24151, 24892, 25732, 26409], "queries": {"click": {"state": {"target": ["30", "26", "8", "4", "15", "19", "31", "32", "33"], "time": [5744, 6676, 7429, 8210, 9193, 10238, 12165, 15800, 19306]}, "edge": {"target": [], "time": []}}, "mouseover": {"state": {"target": ["30", "25", "26", "8", "4", "15", "14", "19", "31", "32", "33"], "time": [5656, 5922, 6152, 7233, 7907, 8963, 9353, 9885, 12035, 13097, 16318]}, "edge": {"target": [], "time": []}}, "mouseout": {"state": {"target": ["0", "30", "25", "26", "8", "4", "15", "14", "19", "19", "31", "32", "33"], "time": [5620, 5889, 6119, 7017, 7722, 8529, 9321, 9850, 10338, 11149, 12954, 16162, 28170]}, "edge": {"target": [], "time": []}}}, "displayed_time": "27.02", "trialTime": 29368, "trial_type": "mouselab-mdp", "trial_index": 43, "time_elapsed": 1607855, "internal_node_id": "0.0-4.0-1.0-34.0"}}, {"uniqueid": "w82728863:a93920327", "current_trial": 44, "dateTime": 1691161955169, "trialdata": {"revealed_states": [], "clicked_states": ["30", "26", "8", "4", "15", "19", "29", "27", "28"], "num_clicks_accrued": [0, 0, 0, 0, 0, 0, 0, 0, 0, 0, 0, 0, 0], "stateRewards": ["", -1, 1, -6, -1, 80, 23, 2, -11, 73, -81, 59, 1, 3, 5, -1, -26, 28, -3, 16, -59, -13, -50, -2, -2, 2, 15, -50, 86, 17, -4, 37, 35, 44], "withholdReward": false, "trial_id": "mdp_trial_36", "block": "test", "trialIndex": 37, "score": 83.25, "costs": -15.750000000000002, "simulationMode": [null, null, null, null, null], "rewards": [-2, -2, 2, 15, 86], "path": ["0", "0", "23", "24", "25", "26", "28"], "rt": [18419, 85, 48, 110, 80], "actions": ["left", "left", "left", "up", "right"], "actionTimes": [21476, 22158, 22892, 23591, 24332], "queries": {"click": {"state": {"target": ["30", "26", "8", "4", "15", "19", "29", "27", "28"], "time": [4461, 5213, 6288, 7129, 7940, 8855, 10480, 14102, 17563]}, "edge": {"target": [], "time": []}}, "mouseover": {"state": {"target": ["30", "26", "8", "4", "15", "14", "19", "22", "29", "27", "27", "28", "22"], "time": [4380, 4696, 5734, 6735, 7587, 8298, 8582, 9482, 10319, 11456, 12368, 14756, 18359]}, "edge": {"target": [], "time": []}}, "mouseout": {"state": {"target": ["0", "30", "26", "8", "4", "15", "14", "19", "22", "29", "27", "27", "28", "22"], "time": [3268, 4668, 5339, 6596, 7407, 8269, 8557, 9452, 9723, 11302, 11598, 14453, 17760, 25864]}, "edge": {"target": [], "time": []}}}, "displayed_time": "24.96", "trialTime": 26336, "trial_type": "mouselab-mdp", "trial_index": 44, "time_elapsed": 1641704, "internal_node_id": "0.0-4.0-1.0-35.0"}}, {"uniqueid": "w82728863:a93920327", "current_trial": 45, "dateTime": 1691161992726, "trialdata": {"revealed_states": [], "clicked_states": ["30", "26", "8", "4", "15", "19", "32", "31", "33"], "num_clicks_accrued": [0, 0, 0, 0, 0, 0, 0, 0, 0, 0, 0, 0, 0], "stateRewards": ["", -2, -1, -2, -15, 87, 57, 29, -10, 77, -80, -7, 1, -3, 6, 14, -11, 87, -59, 4, -71, 16, -11, 2, 2, -7, 2, -47, 61, 50, 14, -20, 17, 81], "withholdReward": false, "trial_id": "mdp_trial_37", "block": "test", "trialIndex": 38, "score": 76.25, "costs": -15.750000000000002, "simulationMode": [null, null, null, null, null], "rewards": [2, 2, -7, 14, 81], "path": ["0", "0", "23", "24", "25", "30", "33"], "rt": [20540, 441, 51, 53, 140], "actions": ["left", "left", "left", "down", "left"], "actionTimes": [24716, 25949, 26628, 27361, 28112], "queries": {"click": {"state": {"target": ["30", "26", "8", "4", "15", "19", "32", "31", "33"], "time": [5623, 6797, 8345, 9325, 10545, 11949, 13707, 17275, 20806]}, "edge": {"target": [], "time": []}}, "mouseover": {"state": {"target": ["31", "30", "26", "8", "4", "15", "19", "31", "32", "31", "33", "18"], "time": [5058, 5333, 6171, 8101, 8490, 10354, 11106, 13076, 13483, 15756, 18019, 21917]}, "edge": {"target": [], "time": []}}, "mouseout": {"state": {"target": ["0", "31", "30", "26", "8", "4", "15", "19", "31", "32", "31", "33", "18"], "time": [4284, 5187, 5695, 7119, 8466, 9888, 11072, 12623, 13361, 15566, 17645, 21467, 29955]}, "edge": {"target": [], "time": []}}}, "displayed_time": "28.75", "trialTime": 30689, "trial_type": "mouselab-mdp", "trial_index": 45, "time_elapsed": 1679261, "internal_node_id": "0.0-4.0-1.0-36.0"}}, {"uniqueid": "w82728863:a93920327", "current_trial": 46, "dateTime": 1691162018616, "trialdata": {"revealed_states": [], "clicked_states": ["30", "26", "8", "4", "15", "19", "5"], "num_clicks_accrued": [0, 0, 0, 0, 0, 0, 0, 0, 0, 0, 0, 0, 0], "stateRewards": ["", 2, 3, -1, 6, 44, -4, -59, -14, -3, 64, 16, 1, -3, 3, 6, 3, 49, 19, 3, -49, -14, -86, 1, 2, -3, -8, -33, 14, 32, -13, -77, -47, -67], "withholdReward": false, "trial_id": "mdp_trial_38", "block": "test", "trialIndex": 39, "score": 42.55, "costs": -11.450000000000001, "simulationMode": [null, null, null, null, null], "rewards": [2, 3, -1, 6, 44], "path": ["0", "0", "1", "2", "3", "4", "5"], "rt": [11674, 108, 50, 52, 95], "actions": ["up", "up", "up", "right", "up"], "actionTimes": [14578, 15361, 16003, 16792, 17485], "queries": {"click": {"state": {"target": ["30", "26", "8", "4", "15", "19", "5"], "time": [4084, 4955, 5711, 6417, 7243, 8298, 10026]}, "edge": {"target": [], "time": []}}, "mouseover": {"state": {"target": ["30", "26", "8", "3", "4", "18", "15", "19", "13", "5", "6"], "time": [4014, 4669, 5516, 6035, 6222, 6743, 7177, 8069, 8940, 9732, 11006]}, "edge": {"target": [], "time": []}}, "mouseout": {"state": {"target": ["0", "30", "26", "8", "3", "4", "18", "15", "19", "13", "5"], "time": [3031, 4386, 5298, 5998, 6189, 6715, 7033, 7610, 8361, 9088, 10872]}, "edge": {"target": [], "time": []}}}, "displayed_time": "18.16", "trialTime": 19466, "trial_type": "mouselab-mdp", "trial_index": 46, "time_elapsed": 1705154, "internal_node_id": "0.0-4.0-1.0-37.0"}}, {"uniqueid": "w82728863:a93920327", "current_trial": 47, "dateTime": 1691162052889, "trialdata": {"revealed_states": [], "clicked_states": ["30", "26", "8", "4", "15", "19", "32", "31"], "num_clicks_accrued": [0, 0, 0, 0, 0, 0, 0, 0, 0, 0, 0, 0, 0], "stateRewards": ["", -1, 2, 5, -6, 13, -64, -47, 8, -79, -80, -33, 1, 2, -2, -16, 56, -71, -10, 3, 29, 44, 85, -1, 4, 5, 4, -36, -56, 19, 8, 52, -13, -2], "withholdReward": false, "trial_id": "mdp_trial_39", "block": "test", "trialIndex": 40, "score": 54.4, "costs": -13.600000000000001, "simulationMode": [null, null, null, null, null], "rewards": [-1, 4, 5, 8, 52], "path": ["0", "0", "23", "24", "25", "30", "31"], "rt": [18951, 100, 106, 52, 61], "actions": ["left", "left", "left", "down", "right"], "actionTimes": [24195, 24889, 25687, 26387, 27116], "queries": {"click": {"state": {"target": ["30", "26", "8", "4", "15", "19", "32", "31"], "time": [7150, 8324, 10306, 11833, 12861, 14095, 16464, 19896]}, "edge": {"target": [], "time": []}}, "mouseover": {"state": {"target": ["30", "26", "8", "4", "15", "19", "32", "31", "33"], "time": [5921, 7353, 10154, 10895, 12706, 13594, 16282, 16792, 20832]}, "edge": {"target": [], "time": []}}, "mouseout": {"state": {"target": ["0", "30", "26", "8", "4", "15", "19", "32", "31"], "time": [5361, 7263, 8663, 10741, 12327, 13057, 14594, 16766, 20785]}, "edge": {"target": [], "time": []}}}, "displayed_time": "27.77", "trialTime": 28680, "trial_type": "mouselab-mdp", "trial_index": 47, "time_elapsed": 1739424, "internal_node_id": "0.0-4.0-1.0-38.0"}}, {"uniqueid": "w82728863:a93920327", "current_trial": 48, "dateTime": 1691162084033, "trialdata": {"revealed_states": [], "clicked_states": ["30", "26", "8", "4", "15", "19", "10"], "num_clicks_accrued": [0, 0, 0, 0, 0, 0, 0, 0, 0, 0, 0, 0, 0], "stateRewards": ["", 2, -4, 4, 9, 69, 9, -75, 12, -86, 66, 25, -1, 3, 2, -13, -88, -3, 1, 4, -69, 49, -84, 2, -1, 4, 2, -18, -81, -52, -15, -69, -54, 25], "withholdReward": false, "trial_id": "mdp_trial_40", "block": "test", "trialIndex": 41, "score": 68.55, "costs": -11.450000000000001, "simulationMode": [null, null, null, null, null], "rewards": [2, -4, 4, 12, 66], "path": ["0", "0", "1", "2", "3", "8", "10"], "rt": [11162, 52, 60, 59, 86], "actions": ["up", "up", "up", "left", "down"], "actionTimes": [15600, 16239, 16914, 17661, 18374], "queries": {"click": {"state": {"target": ["30", "26", "8", "4", "15", "19", "10"], "time": [5670, 6549, 7499, 8313, 9323, 10136, 11606]}, "edge": {"target": [], "time": []}}, "mouseover": {"state": {"target": ["30", "25", "26", "8", "4", "15", "19", "10", "11"], "time": [5437, 6104, 6277, 7329, 8025, 9051, 9811, 11340, 12126]}, "edge": {"target": [], "time": []}}, "mouseout": {"state": {"target": ["0", "30", "25", "26", "8", "4", "15", "19", "10", "11", "10", "14"], "time": [4572, 6074, 6238, 6979, 7784, 8599, 9633, 10852, 12086, 20274, 20406, 21132]}, "edge": {"target": [], "time": []}}}, "displayed_time": "19.04", "trialTime": 22299, "trial_type": "mouselab-mdp", "trial_index": 48, "time_elapsed": 1770568, "internal_node_id": "0.0-4.0-1.0-39.0"}}, {"uniqueid": "w82728863:a93920327", "current_trial": 49, "dateTime": 1691162120172, "trialdata": {"rt": 36032, "response": {"Q0": "$-2 to $2", "Q1": "$-16 to $16", "Q2": "$-88 to $88", "Q3": "The cost for clicking on nodes varied between nodes.", "Q4": "Very motivated"}, "question_order": [0, 1, 2, 3, 4], "trial_id": "final_quiz_control", "trial_type": "survey-multi-choice", "trial_index": 49, "time_elapsed": 1806708, "internal_node_id": "0.0-4.0-2.0"}}, {"uniqueid": "w82728863:a93920327", "current_trial": 50, "dateTime": 1691162224339, "trialdata": {"rt": 104012, "response": {"Q0": "I realised that I would have to go through a certain node, so needed to find out the monetary value of that node. I then spent more money to find the highest value of a particular node in a certain cluster. ", "Q1": "I soon learned the strategy to getting the best outcome. Once I had established that it was a case of 'rinse and repeat'.", "Q2": "I had no difficulty improving my performance. "}, "trial_id": "self_report_control", "trial_type": "survey-text", "trial_index": 50, "time_elapsed": 1910877, "internal_node_id": "0.0-4.0-3.0"}}, {"uniqueid": "w82728863:a93920327", "current_trial": 51, "dateTime": 1691162262349, "trialdata": {"rt": 37926, "response": {"Q0": "Strongly disagree", "Q1": "Disagree", "Q2": "Disagree", "Q3": "Strongly disagree", "Q4": "Disagree", "Q5": "Disagree", "Q6": "Neither disagree nor agree"}, "question_order": [0, 1, 2, 3, 4, 5, 6], "trial_id": "self_report_2", "trial_type": "survey-multi-choice", "trial_index": 51, "time_elapsed": 1948886, "internal_node_id": "0.0-4.0-4.0"}}, {"uniqueid": "w82728863:a93920327", "current_trial": 52, "dateTime": 1691162279889, "trialdata": {"rt": 17457, "response": {"gender": "male", "age": "50", "colorblind": "0", "effort": "0"}, "trial_type": "survey-html-form", "trial_index": 52, "time_elapsed": 1966427, "internal_node_id": "0.0-4.0-5.0"}}, {"uniqueid": "w82728863:a93920327", "current_trial": 53, "dateTime": 1691162318580, "trialdata": {"rt": 38595, "response": {"Q0": "no", "Q1": "I haven't participated in a HIT game before. ", "Q2": "Great game! "}, "trial_type": "survey-text", "trial_index": 53, "time_elapsed": 2005117, "internal_node_id": "0.0-4.0-6.0"}}, {"uniqueid": "w82728863:a93920327", "current_trial": 54, "dateTime": 1691162323060, "trialdata": {"rt": 4429, "stimulus": "Press 'Finish HIT' in order to reach the completion code. Once the data has been saved, you will receive the code either in this window or in the original browser window where you started the experiment.\n", "response": 0, "trial_type": "html-button-response", "trial_index": 54, "time_elapsed": 2009598, "internal_node_id": "0.0-5.0"}}, {"uniqueid": "w82728863:a93920327", "current_trial": 55, "dateTime": 1691162324098, "trialdata": {"success": true, "trial_type": "fullscreen", "trial_index": 55, "time_elapsed": 2010635, "internal_node_id": "0.0-6.0"}}], "questiondata": {"params": {"CODE": "C6DMOQA6", "MIN_TIME": 14, "inspectCost": 1, "startTime": "Fri Aug 04 2023 15:45:09 GMT+0100 (British Summer Time)", "bonusRate": 0.002, "variance": "1_2_4_8_44", "branching": "31123"}, "final_score": 2074.7}, "eventdata": [{"eventtype": "initialized", "value": null, "timestamp": 1691160302262, "interval": 0}, {"eventtype": "window_resize", "value": [1366, 670], "timestamp": 1691160302263, "interval": 1}, {"eventtype": "window_resize", "value": [1366, 670], "timestamp": 1691160307243, "interval": 4980}, {"eventtype": "window_resize", "value": [1366, 768], "timestamp": 1691160317003, "interval": 9760}, {"eventtype": "window_resize", "value": [1366, 670], "timestamp": 1691162323706, "interval": 2006703}], "useragent": "Mozilla/5.0 (Windows NT 10.0; Win64; x64) AppleWebKit/537.36 (KHTML, like Gecko) Chrome/115.0.0.0 Safari/537.36", "mode": "live", "id": "w82728863:a93920327", "status": "user data saved", "Beginhit": "2023-08-04 14:44:51.049505", "Beginexp": "2023-08-04 14:45:21.028907", "Endhit": "2023-08-04 15:18:50.175954", "psiturkStatus": 3, "browser": "<redacted>", "platform": "windows", "language": "en-GB", "excludeReason": "invalidClickStrats"}