{"condition": 1, "counterbalance": 0, "assignmentId": "a43931613", "workerId": "w93015348", "hitId": "h43744547", "currenttrial": 14, "bonus": 0, "data": [{"uniqueid": "w93015348:a43931613", "current_trial": 0, "dateTime": 1693660132679, "trialdata": {"success": true, "trial_type": "fullscreen", "trial_index": 0, "time_elapsed": 2847, "internal_node_id": "0.0-0.0"}}, {"uniqueid": "w93015348:a43931613", "current_trial": 1, "dateTime": 1693660152249, "trialdata": {"view_history": [{"page_index": 0, "viewing_time": 19564}], "rt": 19564, "trial_id": "exp_instructions_misaligned", "trial_type": "instructions", "trial_index": 1, "time_elapsed": 22417, "internal_node_id": "0.0-1.0"}}, {"uniqueid": "w93015348:a43931613", "current_trial": 2, "dateTime": 1693660280156, "trialdata": {"view_history": [{"page_index": 0, "viewing_time": 61302}, {"page_index": 1, "viewing_time": 46139}, {"page_index": 2, "viewing_time": 11385}, {"page_index": 3, "viewing_time": 9079}], "rt": 127905, "trial_id": "mouselab_instructions_1_misaligned", "trial_type": "instructions", "trial_index": 2, "time_elapsed": 150324, "internal_node_id": "0.0-2.0-1.0"}}, {"uniqueid": "w93015348:a43931613", "current_trial": 3, "dateTime": 1693660310552, "trialdata": {"revealed_states": [], "clicked_states": ["1", "2", "3", "4", "6"], "num_clicks_accrued": [0, 0, 0, 0, 0, 0, 0, 0, 0, 0, 0, 0, 0], "stateRewards": ["", 10, 10, 10, 10, 10, 10, -10, 10, 10, 10, -10, 10, 10, 10, -10, 10, 10, 10, 10, -10, 10, -10, 10, -10, 10, -10, -10, 10, 10, -10, -10, 10, 10], "withholdReward": false, "trial_id": "practice_1", "block": "test", "trialIndex": 0, "score": 51, "costs": -2.5, "simulationMode": [null, null, null, null, null], "rewards": [10, 10, 10, 10, 10], "path": ["0", "0", "1", "2", "3", "4", "6"], "rt": [20142, 209, 173, 281, 328], "actions": ["up", "up", "up", "right", "right"], "actionTimes": [22470, 23171, 23835, 24611, 25442], "queries": {"click": {"state": {"target": ["1", "2", "3", "4", "6"], "time": [6697, 8141, 10460, 11784, 13189]}, "edge": {"target": [], "time": []}}, "mouseover": {"state": {"target": ["1", "2", "3", "4", "6", "18"], "time": [5977, 7493, 9916, 11313, 12716, 18039]}, "edge": {"target": [], "time": []}}, "mouseout": {"state": {"target": ["0", "1", "2", "3", "3", "4", "6", "18"], "time": [5746, 7344, 8247, 10574, 11214, 12683, 14353, 18055]}, "edge": {"target": [], "time": []}}}, "displayed_time": "25.95", "trialTime": 30035, "trial_type": "mouselab-mdp", "trial_index": 3, "time_elapsed": 180719, "internal_node_id": "0.0-2.0-2.0-0.0"}}, {"uniqueid": "w93015348:a43931613", "current_trial": 4, "dateTime": 1693660322984, "trialdata": {"revealed_states": [], "clicked_states": [], "num_clicks_accrued": [0, 0, 0, 0, 0, 0, 0, 0, 0, 0, 0, 0, 0], "stateRewards": ["", 10, 10, -10, -10, 10, 10, 10, -10, 10, -10, -10, 10, 10, 10, -10, 10, -10, -10, 10, 10, 10, 10, 10, 10, 10, 10, -10, 10, -10, 10, -10, -10, 10], "withholdReward": false, "trial_id": "practice_2", "block": "test", "trialIndex": 1, "score": 53.5, "costs": 0, "simulationMode": [null, null, null, null, null], "rewards": [10, 10, 10, 10, 10], "path": ["0", "0", "12", "13", "14", "19", "20"], "rt": [2845, 391, 354, 488, 414], "actions": ["right", "right", "right", "down", "right"], "actionTimes": [4800, 5695, 6543, 7527, 8439], "queries": {"click": {"state": {"target": [], "time": []}, "edge": {"target": [], "time": []}}, "mouseover": {"state": {"target": ["31", "30"], "time": [2134, 2153]}, "edge": {"target": [], "time": []}}, "mouseout": {"state": {"target": ["0", "31", "30"], "time": [2086, 2150, 2167]}, "edge": {"target": [], "time": []}}}, "displayed_time": "8.94", "trialTime": 12216, "trial_type": "mouselab-mdp", "trial_index": 4, "time_elapsed": 193151, "internal_node_id": "0.0-2.0-2.0-1.0"}}, {"uniqueid": "w93015348:a43931613", "current_trial": 5, "dateTime": 1693660352079, "trialdata": {"view_history": [{"page_index": 0, "viewing_time": 14779}, {"page_index": 1, "viewing_time": 14314}], "rt": 29093, "trial_id": "mouselab_instructions_2_misaligned", "trial_type": "instructions", "trial_index": 5, "time_elapsed": 222247, "internal_node_id": "0.0-2.0-3.0"}}, {"uniqueid": "w93015348:a43931613", "current_trial": 6, "dateTime": 1693660390860, "trialdata": {"rt": 38777, "response": {"Q0": "There is no cost for clicking on nodes.", "Q1": "The better I perform the higher my bonus will be.", "Q2": "No, the amount of cash at each node of the web may be different each time.", "Q3": "To get the highest total score.", "Q4": "Only before moving the spider.", "Q5": "3 seconds"}, "question_order": [0, 1, 2, 3, 4, 5], "correct": {"Q0": "The cost for clicking on nodes may vary between nodes.", "Q1": "The better I perform the higher my bonus will be.", "Q2": "No, the amount of cash at each node of the web may be different each time.", "Q3": "To get the highest total score.", "Q4": "Only before moving the spider.", "Q5": "3 seconds"}, "trial_id": "mouselab_quiz_misaligned", "trial_type": "survey-multi-choice", "trial_index": 6, "time_elapsed": 261028, "internal_node_id": "0.0-2.0-4.0"}}, {"uniqueid": "w93015348:a43931613", "current_trial": 7, "dateTime": 1693660400092, "trialdata": {"success": true, "trial_type": "fullscreen", "trial_index": 7, "time_elapsed": 270260, "internal_node_id": "0.0-2.1-0.1-0.1"}}, {"uniqueid": "w93015348:a43931613", "current_trial": 8, "dateTime": 1693660427496, "trialdata": {"view_history": [{"page_index": 0, "viewing_time": 4238}, {"page_index": 1, "viewing_time": 4017}, {"page_index": 2, "viewing_time": 5832}, {"page_index": 3, "viewing_time": 13315}], "rt": 27402, "trial_id": "mouselab_instructions_1_misaligned", "trial_type": "instructions", "trial_index": 8, "time_elapsed": 297664, "internal_node_id": "0.0-2.1-1.1"}}, {"uniqueid": "w93015348:a43931613", "current_trial": 9, "dateTime": 1693660440411, "trialdata": {"revealed_states": [], "clicked_states": ["1", "3", "6"], "num_clicks_accrued": [0, 0, 0, 0, 0, 0, 0, 0, 0, 0, 0, 0, 0], "stateRewards": ["", 10, 10, 10, 10, 10, 10, -10, 10, 10, 10, -10, 10, 10, 10, -10, 10, 10, 10, 10, -10, 10, -10, 10, -10, 10, -10, -10, 10, 10, -10, -10, 10, 10], "withholdReward": false, "trial_id": "practice_1", "block": "test", "trialIndex": 2, "score": 52, "costs": -1.5, "simulationMode": [null, null, null, null, null], "rewards": [10, 10, 10, 10, 10], "path": ["0", "0", "1", "2", "3", "4", "6"], "rt": [5456, 123, 160, 223, 241], "actions": ["up", "up", "up", "right", "right"], "actionTimes": [7886, 8508, 9164, 9893, 10628], "queries": {"click": {"state": {"target": ["1", "3", "6"], "time": [3802, 4824, 6018]}, "edge": {"target": [], "time": []}}, "mouseover": {"state": {"target": ["0", "1", "2", "3", "4", "4", "6", "4", "7"], "time": [3200, 3529, 4063, 4563, 4998, 5213, 5782, 6499, 6631]}, "edge": {"target": [], "time": []}}, "mouseout": {"state": {"target": ["0", "0", "1", "2", "3", "4", "4", "6", "4", "7", "1"], "time": [2932, 3265, 3867, 4463, 4980, 5046, 5564, 6449, 6515, 6665, 7586]}, "edge": {"target": [], "time": []}}}, "displayed_time": "11.12", "trialTime": 12691, "trial_type": "mouselab-mdp", "trial_index": 9, "time_elapsed": 310579, "internal_node_id": "0.0-2.1-2.1-0.1"}}, {"uniqueid": "w93015348:a43931613", "current_trial": 10, "dateTime": 1693660451520, "trialdata": {"revealed_states": [], "clicked_states": [], "num_clicks_accrued": [0, 0, 0, 0, 0, 0, 0, 0, 0, 0, 0, 0, 0], "stateRewards": ["", 10, 10, -10, -10, 10, 10, 10, -10, 10, -10, -10, 10, 10, 10, -10, 10, -10, -10, 10, 10, 10, 10, 10, 10, 10, 10, -10, 10, -10, 10, -10, -10, 10], "withholdReward": false, "trial_id": "practice_2", "block": "test", "trialIndex": 3, "score": 53.5, "costs": 0, "simulationMode": [null, null, null, null, null], "rewards": [10, 10, 10, 10, 10], "path": ["0", "0", "12", "13", "14", "19", "21"], "rt": [709, 203, 228, 502, 259], "actions": ["right", "right", "right", "down", "down"], "actionTimes": [4370, 5065, 5793, 6801, 7561], "queries": {"click": {"state": {"target": [], "time": []}, "edge": {"target": [], "time": []}}, "mouseover": {"state": {"target": [], "time": []}, "edge": {"target": [], "time": []}}, "mouseout": {"state": {"target": ["0", "0"], "time": [3446, 8667]}, "edge": {"target": [], "time": []}}}, "displayed_time": "8.06", "trialTime": 10898, "trial_type": "mouselab-mdp", "trial_index": 10, "time_elapsed": 321687, "internal_node_id": "0.0-2.1-2.1-1.1"}}, {"uniqueid": "w93015348:a43931613", "current_trial": 11, "dateTime": 1693660456429, "trialdata": {"view_history": [{"page_index": 0, "viewing_time": 2601}, {"page_index": 1, "viewing_time": 2306}], "rt": 4907, "trial_id": "mouselab_instructions_2_misaligned", "trial_type": "instructions", "trial_index": 11, "time_elapsed": 326597, "internal_node_id": "0.0-2.1-3.1"}}, {"uniqueid": "w93015348:a43931613", "current_trial": 12, "dateTime": 1693660492623, "trialdata": {"rt": 36192, "response": {"Q0": "There is no cost for clicking on nodes.", "Q1": "The better I perform the higher my bonus will be.", "Q2": "No, the amount of cash at each node of the web may be different each time.", "Q3": "To get the highest total score.", "Q4": "Any time during the round.", "Q5": "3 seconds"}, "question_order": [0, 1, 2, 3, 4, 5], "correct": {"Q0": "The cost for clicking on nodes may vary between nodes.", "Q1": "The better I perform the higher my bonus will be.", "Q2": "No, the amount of cash at each node of the web may be different each time.", "Q3": "To get the highest total score.", "Q4": "Only before moving the spider.", "Q5": "3 seconds"}, "trial_id": "mouselab_quiz_misaligned", "trial_type": "survey-multi-choice", "trial_index": 12, "time_elapsed": 362791, "internal_node_id": "0.0-2.1-4.1"}}, {"uniqueid": "w93015348:a43931613", "current_trial": 13, "dateTime": 1693660496934, "trialdata": {"success": true, "trial_type": "fullscreen", "trial_index": 13, "time_elapsed": 367101, "internal_node_id": "0.0-2.2-0.2-0.2"}}], "questiondata": {"params": {"CODE": "C6DMOQA6", "MIN_TIME": 14, "inspectCost": 1, "startTime": "Sat Sep 02 2023 14:08:49 GMT+0100 (British Summer Time)", "bonusRate": 0.002, "variance": "1_2_4_8_44", "branching": "31123"}}, "eventdata": [{"eventtype": "initialized", "value": null, "timestamp": 1693660128635, "interval": 0}, {"eventtype": "window_resize", "value": [1024, 767], "timestamp": 1693660128635, "interval": 0}, {"eventtype": "window_resize", "value": [1024, 767], "timestamp": 1693660128961, "interval": 326}, {"eventtype": "window_resize", "value": [1920, 1080], "timestamp": 1693660131895, "interval": 2934}, {"eventtype": "focus", "value": "off", "timestamp": 1693660397108, "interval": 265213}, {"eventtype": "focus", "value": "on", "timestamp": 1693660397108, "interval": 0}, {"eventtype": "window_resize", "value": [1024, 767], "timestamp": 1693660397317, "interval": 209}, {"eventtype": "window_resize", "value": [1920, 1080], "timestamp": 1693660399311, "interval": 1994}, {"eventtype": "focus", "value": "off", "timestamp": 1693660494600, "interval": 95289}, {"eventtype": "focus", "value": "on", "timestamp": 1693660494600, "interval": 0}, {"eventtype": "window_resize", "value": [1024, 767], "timestamp": 1693660494807, "interval": 207}, {"eventtype": "window_resize", "value": [1920, 1080], "timestamp": 1693660496153, "interval": 1346}], "useragent": "Mozilla/5.0 (Windows NT 10.0; Win64; x64) AppleWebKit/537.36 (KHTML, like Gecko) Chrome/116.0.0.0 Safari/537.36", "mode": "live", "id": "w93015348:a43931613", "status": "user data saved", "Beginhit": "2023-09-02 13:11:22.606876", "Beginexp": "2023-09-02 13:11:27.749049", "Endhit": null, "psiturkStatus": 2, "browser": "<redacted>", "platform": "windows", "language": "en-GB", "excludeReason": "quizfail"}