{"condition": 1, "counterbalance": 0, "assignmentId": "a11132193", "workerId": "w86751986", "hitId": "h25376871", "currenttrial": 56, "bonus": 0, "data": [{"uniqueid": "w86751986:a11132193", "current_trial": 0, "dateTime": 1691070980650, "trialdata": {"success": true, "trial_type": "fullscreen", "trial_index": 0, "time_elapsed": 18359, "internal_node_id": "0.0-0.0"}}, {"uniqueid": "w86751986:a11132193", "current_trial": 1, "dateTime": 1691070994679, "trialdata": {"view_history": [{"page_index": 0, "viewing_time": 14025}], "rt": 14026, "trial_id": "exp_instructions_misaligned", "trial_type": "instructions", "trial_index": 1, "time_elapsed": 32390, "internal_node_id": "0.0-1.0"}}, {"uniqueid": "w86751986:a11132193", "current_trial": 2, "dateTime": 1691070999102, "trialdata": {"success": true, "trial_type": "fullscreen", "trial_index": 2, "time_elapsed": 36813, "internal_node_id": "0.0-2.0-0.0"}}, {"uniqueid": "w86751986:a11132193", "current_trial": 3, "dateTime": 1691071201408, "trialdata": {"view_history": [{"page_index": 0, "viewing_time": 164453}, {"page_index": 1, "viewing_time": 31982}, {"page_index": 2, "viewing_time": 4108}, {"page_index": 3, "viewing_time": 1760}], "rt": 202304, "trial_id": "mouselab_instructions_1_misaligned", "trial_type": "instructions", "trial_index": 3, "time_elapsed": 239119, "internal_node_id": "0.0-2.0-1.0"}}, {"uniqueid": "w86751986:a11132193", "current_trial": 4, "dateTime": 1691071322747, "trialdata": {"revealed_states": [], "clicked_states": ["3", "18", "26", "23", "13", "14", "24", "15", "19", "25", "31", "2", "1", "4", "6"], "num_clicks_accrued": [0, 0, 0, 0, 0, 0, 0, 0, 0, 0, 0, 0, 0], "stateRewards": ["", 10, -10, -10, -10, 10, -10, -10, -10, 10, -10, 10, 10, 10, -10, 10, -10, -10, -10, 10, -10, 10, -10, -10, 10, -10, -10, 10, 10, -10, -10, -10, -10, 10], "withholdReward": false, "trial_id": "practice_1", "block": "test", "trialIndex": 0, "score": 6, "costs": -7.5, "simulationMode": [null, null, null, null, null], "rewards": [10, 10, -10, 10, -10], "path": ["0", "0", "12", "13", "14", "15", "17"], "rt": [46442, 1929, 541, 533, 494], "actions": ["right", "right", "right", "up", "right"], "actionTimes": [50854, 53318, 54413, 55494, 56541], "queries": {"click": {"state": {"target": ["3", "18", "26", "23", "13", "14", "24", "15", "19", "25", "31", "2", "1", "4", "6"], "time": [6320, 8314, 9721, 11090, 12372, 19149, 20248, 21967, 23431, 25067, 26586, 29354, 30479, 32282, 33646]}, "edge": {"target": [], "time": []}}, "mouseover": {"state": {"target": ["12", "2", "3", "2", "18", "23", "24", "26", "24", "31", "23", "12", "13", "14", "19", "13", "13", "14", "22", "24", "1", "18", "15", "16", "17", "19", "21", "22", "30", "25", "30", "32", "31", "30", "33", "26", "10", "2", "1", "3", "4", "7", "6", "8", "8", "10", "1", "0", "23", "2", "3", "7", "13", "12", "23", "31"], "time": [5047, 5812, 6129, 6682, 7679, 8839, 9077, 9391, 10208, 10415, 10814, 11584, 11672, 12832, 13056, 17579, 18329, 18879, 19561, 20049, 20773, 21331, 21712, 22575, 22861, 23163, 23676, 24346, 24524, 24848, 25288, 25814, 26363, 26827, 27058, 27946, 28829, 29080, 29577, 31119, 31879, 32859, 33479, 34372, 35413, 35546, 37830, 38462, 38880, 40312, 41713, 42212, 42612, 43675, 43731, 44579]}, "edge": {"target": [], "time": []}}, "mouseout": {"state": {"target": ["0", "12", "2", "3", "2", "18", "23", "24", "26", "24", "31", "23", "12", "13", "14", "19", "13", "13", "13", "14", "22", "24", "1", "18", "15", "16", "17", "19", "21", "22", "30", "25", "30", "32", "31", "30", "33", "26", "10", "2", "2", "1", "2", "3", "4", "4", "7", "6", "8", "8", "10", "1", "0", "23", "2", "3", "7", "13", "12", "23", "31", "13", "18", "1", "1"], "time": [5013, 5279, 5946, 6623, 7447, 8719, 8957, 9109, 10147, 10325, 10725, 11465, 11615, 12716, 12861, 14162, 15229, 17979, 18846, 19528, 19592, 20594, 20972, 21679, 22340, 22799, 23058, 23645, 24254, 24377, 24552, 25257, 25783, 26213, 26794, 26887, 27500, 28462, 28962, 29454, 29546, 30608, 30839, 31696, 32410, 32770, 33330, 33889, 34946, 35479, 35962, 38145, 38596, 40063, 40495, 42146, 42247, 43646, 43703, 43762, 47046, 88931, 89096, 89162, 89995]}, "edge": {"target": [], "time": []}}}, "displayed_time": "57.09", "trialTime": 120685, "trial_type": "mouselab-mdp", "trial_index": 4, "time_elapsed": 360457, "internal_node_id": "0.0-2.0-2.0-0.0"}}, {"uniqueid": "w86751986:a11132193", "current_trial": 5, "dateTime": 1691071378719, "trialdata": {"revealed_states": [], "clicked_states": ["12", "1"], "num_clicks_accrued": [0, 0, 0, 0, 0, 0, 0, 0, 0, 0, 0, 0, 0], "stateRewards": ["", 10, 10, -10, 10, 10, -10, 10, -10, -10, -10, -10, -10, -10, -10, -10, 10, -10, -10, -10, 10, -10, 10, 10, 10, 10, -10, -10, -10, -10, 10, 10, 10, -10], "withholdReward": false, "trial_id": "practice_2", "block": "test", "trialIndex": 1, "score": 12.5, "costs": -1, "simulationMode": [null, null, null, null, null], "rewards": [10, 10, -10, 10, -10], "path": ["0", "0", "1", "2", "3", "4", "6"], "rt": [7026, 5702, 714, 236, 150], "actions": ["up", "up", "up", "right", "right"], "actionTimes": [9311, 15567, 16831, 17616, 18311], "queries": {"click": {"state": {"target": ["12", "1"], "time": [4164, 5348]}, "edge": {"target": [], "time": []}}, "mouseover": {"state": {"target": ["12", "1", "2"], "time": [3250, 4935, 5894]}, "edge": {"target": [], "time": []}}, "mouseout": {"state": {"target": ["12", "0", "12", "1", "2", "1", "23", "24", "28", "24", "23", "0", "12", "2", "2", "9", "8", "2", "13", "13"], "time": [681, 1447, 4618, 5746, 7600, 11217, 11401, 11651, 12384, 12567, 12635, 12667, 13417, 13634, 54902, 54951, 55301, 55334, 55400, 55567]}, "edge": {"target": [], "time": []}}}, "displayed_time": "18.86", "trialTime": 55763, "trial_type": "mouselab-mdp", "trial_index": 5, "time_elapsed": 416430, "internal_node_id": "0.0-2.0-2.0-1.0"}}, {"uniqueid": "w86751986:a11132193", "current_trial": 6, "dateTime": 1691071387521, "trialdata": {"view_history": [{"page_index": 0, "viewing_time": 5960}, {"page_index": 1, "viewing_time": 2841}], "rt": 8801, "trial_id": "mouselab_instructions_2_misaligned", "trial_type": "instructions", "trial_index": 6, "time_elapsed": 425232, "internal_node_id": "0.0-2.0-3.0"}}, {"uniqueid": "w86751986:a11132193", "current_trial": 7, "dateTime": 1691071441909, "trialdata": {"rt": 54383, "response": {"Q0": "The cost for clicking on nodes may vary between nodes.", "Q1": "The better I perform the higher my bonus will be.", "Q2": "No, the amount of cash at each node of the web may be different each time.", "Q3": "To get the highest total score.", "Q4": "Only before moving the spider.", "Q5": "3 seconds"}, "question_order": [0, 1, 2, 3, 4, 5], "correct": {"Q0": "The cost for clicking on nodes may vary between nodes.", "Q1": "The better I perform the higher my bonus will be.", "Q2": "No, the amount of cash at each node of the web may be different each time.", "Q3": "To get the highest total score.", "Q4": "Only before moving the spider.", "Q5": "3 seconds"}, "trial_id": "mouselab_quiz_misaligned", "trial_type": "survey-multi-choice", "trial_index": 7, "time_elapsed": 479620, "internal_node_id": "0.0-2.0-4.0"}}, {"uniqueid": "w86751986:a11132193", "current_trial": 8, "dateTime": 1691071480922, "trialdata": {"rt": 39010, "stimulus": "\n<h1> Get ready to start the game! </h1>\n\nThank you for reading the instructions. Get ready start with the 40 rounds of this game.\n<br><br>\nIf you need to take a break, feel free to take one after the end of a round, before continuing to the next one.\n<br><br>\nRemember, the more money the spider gets, the bigger your bonus will be!\n<br><br>\n<div style='text-align: center;'>Press <code>space</code> to begin.</div>\n\n<br><br>\n(If, at any point, the <code>space</code> key does not take you to the next page, click once on the text and try again.)", "response": " ", "trial_id": "mdp_ready", "trial_type": "html-keyboard-response", "trial_index": 8, "time_elapsed": 518633, "internal_node_id": "0.0-4.0-0.0"}}, {"uniqueid": "w86751986:a11132193", "current_trial": 9, "dateTime": 1691071500548, "trialdata": {"revealed_states": [], "clicked_states": [], "num_clicks_accrued": [0, 0, 0, 0, 0, 0, 0, 0, 0, 0, 0, 0, 0], "stateRewards": ["", 2, 4, -3, 16, -58, 30, -35, 11, -60, 47, 27, -2, -1, -7, -16, 23, -70, 68, -10, -65, -43, -34, -2, 1, 7, 9, -63, 34, -31, -8, -12, -86, 59], "withholdReward": false, "trial_id": "mdp_trial_1", "block": "test", "trialIndex": 2, "score": -14, "costs": 0, "simulationMode": [null, null, null, null, null], "rewards": [-2, 1, 7, -8, -12], "path": ["0", "0", "23", "24", "25", "30", "31"], "rt": [1898, 1119, 465, 1542, 499], "actions": ["left", "left", "left", "down", "right"], "actionTimes": [4657, 6312, 7336, 9433, 10489], "queries": {"click": {"state": {"target": [], "time": []}, "edge": {"target": [], "time": []}}, "mouseover": {"state": {"target": ["23"], "time": [4286]}, "edge": {"target": [], "time": []}}, "mouseout": {"state": {"target": ["0", "23"], "time": [3968, 4989]}, "edge": {"target": [], "time": []}}}, "displayed_time": "16.98", "trialTime": 19410, "trial_type": "mouselab-mdp", "trial_index": 9, "time_elapsed": 538259, "internal_node_id": "0.0-4.0-1.0-0.0"}}, {"uniqueid": "w86751986:a11132193", "current_trial": 10, "dateTime": 1691071518886, "trialdata": {"revealed_states": [], "clicked_states": [], "num_clicks_accrued": [0, 0, 0, 0, 0, 0, 0, 0, 0, 0, 0, 0, 0], "stateRewards": ["", -1, -4, -1, -5, -28, -23, -15, -15, -38, 59, -87, 2, 2, -5, 9, -55, -39, -71, -6, 85, -85, -11, -1, -2, 5, -10, 1, 25, 41, -4, 69, -35, 86], "withholdReward": false, "trial_id": "mdp_trial_2", "block": "test", "trialIndex": 3, "score": -39, "costs": 0, "simulationMode": [null, null, null, null, null], "rewards": [-1, -4, -1, -5, -28], "path": ["0", "0", "1", "2", "3", "4", "5"], "rt": [556, 1101, 1965, 544, 81], "actions": ["up", "up", "up", "right", "up"], "actionTimes": [2726, 4383, 6903, 7991, 8624], "queries": {"click": {"state": {"target": [], "time": []}, "edge": {"target": [], "time": []}}, "mouseover": {"state": {"target": [], "time": []}, "edge": {"target": [], "time": []}}, "mouseout": {"state": {"target": ["0", "12", "13", "14", "20", "21", "19", "13", "14", "15", "17", "15"], "time": [12199, 12232, 12298, 12448, 12765, 12932, 13765, 14015, 14115, 14165, 14865, 15032]}, "edge": {"target": [], "time": []}}}, "displayed_time": "16.41", "trialTime": 18128, "trial_type": "mouselab-mdp", "trial_index": 10, "time_elapsed": 556597, "internal_node_id": "0.0-4.0-1.0-1.0"}}, {"uniqueid": "w86751986:a11132193", "current_trial": 11, "dateTime": 1691071538680, "trialdata": {"revealed_states": [], "clicked_states": ["12"], "num_clicks_accrued": [0, 0, 0, 0, 0, 0, 0, 0, 0, 0, 0, 0, 0], "stateRewards": ["", 1, 1, 5, 6, -29, -7, 3, -16, 9, -46, 65, -1, 4, -1, -16, -63, -77, -87, 8, 80, -50, 43, -1, -1, -5, 5, -38, -71, -62, 9, 81, -50, -52], "withholdReward": false, "trial_id": "mdp_trial_3", "block": "test", "trialIndex": 4, "score": 90.25, "costs": 0.25, "simulationMode": [null, null, null, null, null], "rewards": [-1, 4, -1, 8, 80], "path": ["0", "0", "12", "13", "14", "19", "20"], "rt": [2397, 730, 384, 458, 1172], "actions": ["right", "right", "right", "down", "right"], "actionTimes": [5615, 6893, 7830, 8838, 10558], "queries": {"click": {"state": {"target": ["12"], "time": [4564]}, "edge": {"target": [], "time": []}}, "mouseover": {"state": {"target": ["0", "0", "12", "12", "13"], "time": [3359, 3692, 3922, 4141, 5217]}, "edge": {"target": [], "time": []}}, "mouseout": {"state": {"target": ["13", "12", "0", "0", "0", "12", "12", "13", "13"], "time": [689, 772, 2905, 3476, 3893, 3992, 5102, 7546, 15401]}, "edge": {"target": [], "time": []}}}, "displayed_time": "17.45", "trialTime": 19583, "trial_type": "mouselab-mdp", "trial_index": 11, "time_elapsed": 576391, "internal_node_id": "0.0-4.0-1.0-2.0"}}, {"uniqueid": "w86751986:a11132193", "current_trial": 12, "dateTime": 1691071561859, "trialdata": {"revealed_states": [], "clicked_states": ["1"], "num_clicks_accrued": [0, 0, 0, 0, 0, 0, 0, 0, 0, 0, 0, 0, 0], "stateRewards": ["", -2, -3, 1, -14, 48, -49, 67, -1, -35, -48, 3, -2, 1, -4, -5, 86, -84, 39, 1, 48, 41, -42, -1, -4, 2, -7, 18, -86, 17, 7, -9, 57, -69], "withholdReward": false, "trial_id": "mdp_trial_4", "block": "test", "trialIndex": 5, "score": -52.75, "costs": 0.25, "simulationMode": [null, null, null, null, null], "rewards": [-2, -3, 1, -1, -48], "path": ["0", "0", "1", "2", "3", "8", "10"], "rt": [3723, 660, 209, 112, 360], "actions": ["up", "up", "up", "left", "down"], "actionTimes": [5346, 6570, 7306, 7970, 8867], "queries": {"click": {"state": {"target": ["1"], "time": [3976]}, "edge": {"target": [], "time": []}}, "mouseover": {"state": {"target": ["23", "28", "24", "23", "1"], "time": [2380, 2645, 3077, 3562, 3761]}, "edge": {"target": [], "time": []}}, "mouseout": {"state": {"target": ["13", "12", "0", "23", "28", "24", "23", "1"], "time": [808, 1040, 2196, 2428, 3045, 3345, 3595, 5845]}, "edge": {"target": [], "time": []}}}, "displayed_time": "15.90", "trialTime": 22964, "trial_type": "mouselab-mdp", "trial_index": 12, "time_elapsed": 599570, "internal_node_id": "0.0-4.0-1.0-3.0"}}, {"uniqueid": "w86751986:a11132193", "current_trial": 13, "dateTime": 1691071579485, "trialdata": {"revealed_states": [], "clicked_states": [], "num_clicks_accrued": [0, 0, 0, 0, 0, 0, 0, 0, 0, 0, 0, 0, 0], "stateRewards": ["", 1, 1, 1, -3, -7, -1, -41, -10, 20, -72, -63, 1, -4, -2, 2, -66, 30, -84, -2, 49, 23, 71, -1, -4, 4, -12, 67, 5, 18, -16, 88, 56, -5], "withholdReward": false, "trial_id": "mdp_trial_5", "block": "test", "trialIndex": 6, "score": 5, "costs": 0, "simulationMode": [null, null, null, null, null], "rewards": [-1, -4, 4, -12, 18], "path": ["0", "0", "23", "24", "25", "26", "29"], "rt": [2601, 440, 543, 176, 143], "actions": ["left", "left", "left", "up", "left"], "actionTimes": [4298, 5290, 6394, 7138, 7843], "queries": {"click": {"state": {"target": [], "time": []}, "edge": {"target": [], "time": []}}, "mouseover": {"state": {"target": ["0", "13", "18", "13", "12"], "time": [1760, 2442, 2542, 3109, 3177]}, "edge": {"target": [], "time": []}}, "mouseout": {"state": {"target": ["22", "19", "22", "0", "0", "13", "18", "13", "12", "19", "14", "15"], "time": [55, 189, 971, 1404, 1796, 2494, 3060, 3139, 3425, 14028, 14064, 14098]}, "edge": {"target": [], "time": []}}}, "displayed_time": "15.89", "trialTime": 17403, "trial_type": "mouselab-mdp", "trial_index": 13, "time_elapsed": 617196, "internal_node_id": "0.0-4.0-1.0-4.0"}}, {"uniqueid": "w86751986:a11132193", "current_trial": 14, "dateTime": 1691071597279, "trialdata": {"revealed_states": [], "clicked_states": [], "num_clicks_accrued": [0, 0, 0, 0, 0, 0, 0, 0, 0, 0, 0, 0, 0], "stateRewards": ["", -1, -3, 1, -4, -48, -63, -49, -2, -84, -19, 65, 2, -2, -2, -12, -4, 59, 9, 6, 75, 69, -13, -1, -3, -3, -2, -37, -68, -36, 13, 32, 18, -14], "withholdReward": false, "trial_id": "mdp_trial_6", "block": "test", "trialIndex": 7, "score": -9, "costs": 0, "simulationMode": [null, null, null, null, null], "rewards": [2, -2, -2, 6, -13], "path": ["0", "0", "12", "13", "14", "19", "22"], "rt": [2053, 267, 153, 140, 248], "actions": ["right", "right", "right", "down", "left"], "actionTimes": [3968, 4807, 5495, 6183, 6992], "queries": {"click": {"state": {"target": [], "time": []}, "edge": {"target": [], "time": []}}, "mouseover": {"state": {"target": [], "time": []}, "edge": {"target": [], "time": []}}, "mouseout": {"state": {"target": [], "time": []}, "edge": {"target": [], "time": []}}}, "displayed_time": "16.16", "trialTime": 17472, "trial_type": "mouselab-mdp", "trial_index": 14, "time_elapsed": 634989, "internal_node_id": "0.0-4.0-1.0-5.0"}}, {"uniqueid": "w86751986:a11132193", "current_trial": 15, "dateTime": 1691071616696, "trialdata": {"revealed_states": [], "clicked_states": [], "num_clicks_accrued": [0, 0, 0, 0, 0, 0, 0, 0, 0, 0, 0, 0, 0], "stateRewards": ["", 1, -2, -2, 10, -31, -77, 35, 9, -47, 8, 48, -2, 1, -4, -3, -26, -50, 43, -11, 76, -38, 17, 1, -1, 6, 10, 15, -9, 12, -8, 85, 11, -55], "withholdReward": false, "trial_id": "mdp_trial_7", "block": "test", "trialIndex": 8, "score": -24, "costs": 0, "simulationMode": [null, null, null, null, null], "rewards": [1, -2, -2, 10, -31], "path": ["0", "0", "1", "2", "3", "4", "5"], "rt": [1139, 1484, 821, 207, 183], "actions": ["up", "up", "up", "right", "up"], "actionTimes": [4737, 6786, 8170, 8930, 9642], "queries": {"click": {"state": {"target": [], "time": []}, "edge": {"target": [], "time": []}}, "mouseover": {"state": {"target": [], "time": []}, "edge": {"target": [], "time": []}}, "mouseout": {"state": {"target": ["0"], "time": [4105]}, "edge": {"target": [], "time": []}}}, "displayed_time": "17.79", "trialTime": 19211, "trial_type": "mouselab-mdp", "trial_index": 15, "time_elapsed": 654407, "internal_node_id": "0.0-4.0-1.0-6.0"}}, {"uniqueid": "w86751986:a11132193", "current_trial": 16, "dateTime": 1691071634427, "trialdata": {"revealed_states": [], "clicked_states": [], "num_clicks_accrued": [0, 0, 0, 0, 0, 0, 0, 0, 0, 0, 0, 0, 0], "stateRewards": ["", 1, 1, 6, -14, -40, 37, 16, -13, 33, -68, 49, 2, 4, 3, 6, 55, 27, 32, 10, -65, 20, -87, 2, 1, -6, -5, -42, 12, 29, -8, 16, 76, -33], "withholdReward": false, "trial_id": "mdp_trial_8", "block": "test", "trialIndex": 9, "score": -50, "costs": 0, "simulationMode": [null, null, null, null, null], "rewards": [2, 1, -6, -5, -42], "path": ["0", "0", "23", "24", "25", "26", "27"], "rt": [1178, 448, 116, 0, 246], "actions": ["left", "left", "left", "up", "up"], "actionTimes": [3537, 4545, 5225, 5800, 6617], "queries": {"click": {"state": {"target": [], "time": []}, "edge": {"target": [], "time": []}}, "mouseover": {"state": {"target": [], "time": []}, "edge": {"target": [], "time": []}}, "mouseout": {"state": {"target": ["0"], "time": [1746]}, "edge": {"target": [], "time": []}}}, "displayed_time": "16.57", "trialTime": 17515, "trial_type": "mouselab-mdp", "trial_index": 16, "time_elapsed": 672138, "internal_node_id": "0.0-4.0-1.0-7.0"}}, {"uniqueid": "w86751986:a11132193", "current_trial": 17, "dateTime": 1691071655740, "trialdata": {"revealed_states": [], "clicked_states": [], "num_clicks_accrued": [0, 0, 0, 0, 0, 0, 0, 0, 0, 0, 0, 0, 0], "stateRewards": ["", -1, 1, -5, -6, -78, 47, -13, 12, 48, -88, 20, 2, -3, -2, 13, -20, 37, -57, 14, -38, 30, 31, -2, -2, 8, 2, -23, 78, 28, 12, -74, -88, 8], "withholdReward": false, "trial_id": "mdp_trial_9", "block": "test", "trialIndex": 10, "score": -17, "costs": 0, "simulationMode": [null, null, null, null, null], "rewards": [-2, -2, 8, 2, -23], "path": ["0", "0", "23", "24", "25", "26", "27"], "rt": [1892, 298, 26, 81, 303], "actions": ["left", "left", "left", "up", "up"], "actionTimes": [3926, 4775, 5335, 5969, 6831], "queries": {"click": {"state": {"target": [], "time": []}, "edge": {"target": [], "time": []}}, "mouseover": {"state": {"target": [], "time": []}, "edge": {"target": [], "time": []}}, "mouseout": {"state": {"target": ["0"], "time": [1906]}, "edge": {"target": [], "time": []}}}, "displayed_time": "16.25", "trialTime": 21104, "trial_type": "mouselab-mdp", "trial_index": 17, "time_elapsed": 693451, "internal_node_id": "0.0-4.0-1.0-8.0"}}, {"uniqueid": "w86751986:a11132193", "current_trial": 18, "dateTime": 1691071674175, "trialdata": {"revealed_states": [], "clicked_states": [], "num_clicks_accrued": [0, 0, 0, 0, 0, 0, 0, 0, 0, 0, 0, 0, 0], "stateRewards": ["", -2, -3, 4, 1, 33, -53, 15, 9, -12, 61, -6, -2, 4, 6, -11, 47, -43, -7, -11, 46, 23, -28, -1, -1, 3, -10, 11, 76, -76, 10, 18, -38, 87], "withholdReward": false, "trial_id": "mdp_trial_10", "block": "test", "trialIndex": 11, "score": -85, "costs": 0, "simulationMode": [null, null, null, null, null], "rewards": [-1, -1, 3, -10, -76], "path": ["0", "0", "23", "24", "25", "26", "29"], "rt": [1260, 63, 275, 59, 408], "actions": ["left", "left", "left", "up", "left"], "actionTimes": [4201, 4825, 5633, 6249, 7234], "queries": {"click": {"state": {"target": [], "time": []}, "edge": {"target": [], "time": []}}, "mouseover": {"state": {"target": [], "time": []}, "edge": {"target": [], "time": []}}, "mouseout": {"state": {"target": ["0", "1", "10", "27", "10", "2", "0"], "time": [1680, 1730, 1780, 2113, 2164, 2231, 3267]}, "edge": {"target": [], "time": []}}}, "displayed_time": "17.09", "trialTime": 18203, "trial_type": "mouselab-mdp", "trial_index": 18, "time_elapsed": 711886, "internal_node_id": "0.0-4.0-1.0-9.0"}}, {"uniqueid": "w86751986:a11132193", "current_trial": 19, "dateTime": 1691071693152, "trialdata": {"revealed_states": [], "clicked_states": ["1", "13", "23"], "num_clicks_accrued": [0, 0, 0, 0, 0, 0, 0, 0, 0, 0, 0, 0, 0], "stateRewards": ["", -2, -4, 4, -11, -63, -60, -7, 2, -14, 81, -43, -1, -1, -5, 7, 10, 69, 40, 8, -83, 52, 60, 1, 2, 5, -5, 16, 64, 14, -3, 29, 7, -51], "withholdReward": false, "trial_id": "mdp_trial_11", "block": "test", "trialIndex": 12, "score": 12.15, "costs": 0.15000000000000002, "simulationMode": [null, null, null, null, null], "rewards": [1, 2, 5, -3, 7], "path": ["0", "0", "23", "24", "25", "30", "32"], "rt": [7206, 1873, 96, 369, 12], "actions": ["left", "left", "left", "down", "down"], "actionTimes": [10264, 12703, 13336, 14272, 14856], "queries": {"click": {"state": {"target": ["1", "13", "23"], "time": [5261, 7220, 8822]}, "edge": {"target": [], "time": []}}, "mouseover": {"state": {"target": ["12", "0", "23", "1", "2", "3", "2", "1", "12", "13", "12", "0", "23", "24", "23"], "time": [3377, 3794, 4028, 4211, 4461, 4556, 4762, 4827, 6511, 6975, 7762, 7909, 7975, 8232, 8612]}, "edge": {"target": [], "time": []}}, "mouseout": {"state": {"target": ["18", "13", "0", "12", "0", "23", "1", "2", "3", "2", "1", "12", "13", "12", "0", "23", "24", "23", "24"], "time": [2340, 2361, 3127, 3577, 3978, 4145, 4327, 4527, 4586, 4794, 6461, 6594, 7486, 7872, 7942, 8038, 8562, 9895, 12279]}, "edge": {"target": [], "time": []}}}, "displayed_time": "17.45", "trialTime": 18640, "trial_type": "mouselab-mdp", "trial_index": 19, "time_elapsed": 730863, "internal_node_id": "0.0-4.0-1.0-10.0"}}, {"uniqueid": "w86751986:a11132193", "current_trial": 20, "dateTime": 1691071711531, "trialdata": {"revealed_states": [], "clicked_states": ["24", "1"], "num_clicks_accrued": [0, 0, 0, 0, 0, 0, 0, 0, 0, 0, 0, 0, 0], "stateRewards": ["", -2, 1, -7, -8, -37, -76, -87, 11, 30, -63, 80, -1, 4, 2, -1, 42, 17, 52, -3, -75, -80, -68, 2, -3, -5, -15, -48, 82, 24, -7, 5, -22, -71], "withholdReward": false, "trial_id": "mdp_trial_12", "block": "test", "trialIndex": 13, "score": -60.1, "costs": -0.09999999999999998, "simulationMode": [null, null, null, null, null], "rewards": [-2, 1, -7, 11, -63], "path": ["0", "0", "1", "2", "3", "8", "10"], "rt": [3058, 321, 3037, 211, 79], "actions": ["up", "up", "up", "left", "down"], "actionTimes": [5875, 6759, 10354, 11144, 11776], "queries": {"click": {"state": {"target": ["24", "1"], "time": [4071, 5261]}, "edge": {"target": [], "time": []}}, "mouseover": {"state": {"target": ["23", "23", "23", "24", "23", "1"], "time": [3312, 3429, 3662, 3745, 4577, 4993]}, "edge": {"target": [], "time": []}}, "mouseout": {"state": {"target": ["24", "23", "23", "23", "23", "24", "23", "1", "10", "1"], "time": [1725, 1891, 3362, 3496, 3713, 4540, 4853, 7438, 10171, 16442]}, "edge": {"target": [], "time": []}}}, "displayed_time": "17.07", "trialTime": 18137, "trial_type": "mouselab-mdp", "trial_index": 20, "time_elapsed": 749242, "internal_node_id": "0.0-4.0-1.0-11.0"}}, {"uniqueid": "w86751986:a11132193", "current_trial": 21, "dateTime": 1691071728636, "trialdata": {"revealed_states": [], "clicked_states": ["13", "24", "1"], "num_clicks_accrued": [0, 0, 0, 0, 0, 0, 0, 0, 0, 0, 0, 0, 0], "stateRewards": ["", 1, 1, -7, -9, -44, 24, -83, -15, 44, -24, 72, -2, -3, 4, -5, 57, 55, 29, -11, 22, 12, -25, -1, 2, 7, 12, 33, -8, 47, -4, 8, 50, -4], "withholdReward": false, "trial_id": "mdp_trial_13", "block": "test", "trialIndex": 14, "score": -97.45, "costs": -0.44999999999999996, "simulationMode": [null, null, null, null, null], "rewards": [1, 1, -7, -9, -83], "path": ["0", "0", "1", "2", "3", "4", "7"], "rt": [4282, 275, 35, 45, 315], "actions": ["up", "up", "up", "right", "down"], "actionTimes": [5754, 6579, 7179, 7787, 8691], "queries": {"click": {"state": {"target": ["13", "24", "1"], "time": [2538, 3662, 5289]}, "edge": {"target": [], "time": []}}, "mouseover": {"state": {"target": ["12", "13", "13", "12", "0", "23", "24", "23", "1", "2", "1"], "time": [1931, 1994, 2347, 3082, 3176, 3303, 3436, 4321, 4619, 4798, 5114]}, "edge": {"target": [], "time": []}}, "mouseout": {"state": {"target": ["0", "12", "13", "13", "12", "0", "23", "24", "23", "1", "2", "1", "1", "1", "12"], "time": [910, 1964, 2023, 3049, 3144, 3240, 3406, 4205, 4383, 4747, 4981, 5417, 9799, 15281, 15797]}, "edge": {"target": [], "time": []}}}, "displayed_time": "15.88", "trialTime": 16844, "trial_type": "mouselab-mdp", "trial_index": 21, "time_elapsed": 766347, "internal_node_id": "0.0-4.0-1.0-12.0"}}, {"uniqueid": "w86751986:a11132193", "current_trial": 22, "dateTime": 1691071756343, "trialdata": {"revealed_states": [], "clicked_states": [], "num_clicks_accrued": [0, 0, 0, 0, 0, 0, 0, 0, 0, 0, 0, 0, 0], "stateRewards": ["", -2, -1, -6, -14, -55, 78, -13, 11, 14, -71, 59, 2, 2, 6, -6, 9, 38, 14, 7, 85, 11, 68, 1, -4, -1, -3, -63, -85, 9, -2, 63, -86, -10], "withholdReward": false, "trial_id": "mdp_trial_14", "block": "test", "trialIndex": 15, "score": 2, "costs": 0, "simulationMode": [null, null, null, null, null], "rewards": [1, -4, -1, -3, 9], "path": ["0", "0", "23", "24", "25", "26", "29"], "rt": [504, 1225, 91, 610, 170], "actions": ["left", "left", "left", "up", "left"], "actionTimes": [5770, 7530, 8178, 9346, 10074], "queries": {"click": {"state": {"target": [], "time": []}, "edge": {"target": [], "time": []}}, "mouseover": {"state": {"target": [], "time": []}, "edge": {"target": [], "time": []}}, "mouseout": {"state": {"target": ["0", "0"], "time": [5887, 27147]}, "edge": {"target": [], "time": []}}}, "displayed_time": "19.60", "trialTime": 27483, "trial_type": "mouselab-mdp", "trial_index": 22, "time_elapsed": 794053, "internal_node_id": "0.0-4.0-1.0-13.0"}}, {"uniqueid": "w86751986:a11132193", "current_trial": 23, "dateTime": 1691071772601, "trialdata": {"revealed_states": [], "clicked_states": [], "num_clicks_accrued": [0, 0, 0, 0, 0, 0, 0, 0, 0, 0, 0, 0, 0], "stateRewards": ["", 1, 4, 5, -5, 58, -80, 75, 6, 25, -39, 46, 2, -2, 4, 2, 59, 31, -22, -12, -61, 15, 72, 1, -2, -7, 8, 77, 76, -23, -7, 71, -15, -3], "withholdReward": false, "trial_id": "mdp_trial_15", "block": "test", "trialIndex": 16, "score": -69, "costs": 0, "simulationMode": [null, null, null, null, null], "rewards": [2, -2, 4, -12, -61], "path": ["0", "0", "12", "13", "14", "19", "20"], "rt": [2864, 246, 287, 308, 263], "actions": ["right", "right", "right", "down", "right"], "actionTimes": [3833, 4658, 5506, 6370, 7185], "queries": {"click": {"state": {"target": [], "time": []}, "edge": {"target": [], "time": []}}, "mouseover": {"state": {"target": [], "time": []}, "edge": {"target": [], "time": []}}, "mouseout": {"state": {"target": ["1", "0", "0", "12", "13", "14", "19", "20", "19", "22", "22", "21", "19", "19"], "time": [334, 1204, 9154, 9537, 9821, 10104, 10487, 10737, 10853, 11270, 11470, 11971, 12087, 13754]}, "edge": {"target": [], "time": []}}}, "displayed_time": "15.16", "trialTime": 15898, "trial_type": "mouselab-mdp", "trial_index": 23, "time_elapsed": 810312, "internal_node_id": "0.0-4.0-1.0-14.0"}}, {"uniqueid": "w86751986:a11132193", "current_trial": 24, "dateTime": 1691071790506, "trialdata": {"revealed_states": [], "clicked_states": [], "num_clicks_accrued": [0, 0, 0, 0, 0, 0, 0, 0, 0, 0, 0, 0, 0], "stateRewards": ["", 2, 3, -2, -8, -8, -41, 74, 15, -23, -80, 1, 1, 3, 3, -15, -63, -78, 67, 13, 75, -41, 86, 2, -2, 6, -3, -8, -49, 50, -6, 83, 74, 80], "withholdReward": false, "trial_id": "mdp_trial_16", "block": "test", "trialIndex": 17, "score": 19, "costs": 0, "simulationMode": [null, null, null, null, null], "rewards": [2, 3, -2, 15, 1], "path": ["0", "0", "1", "2", "3", "8", "11"], "rt": [693, 250, 434, 76, 300], "actions": ["up", "up", "up", "left", "left"], "actionTimes": [2859, 3643, 4612, 5243, 6100], "queries": {"click": {"state": {"target": [], "time": []}, "edge": {"target": [], "time": []}}, "mouseover": {"state": {"target": [], "time": []}, "edge": {"target": [], "time": []}}, "mouseout": {"state": {"target": ["22", "12", "0", "12"], "time": [1180, 1514, 3168, 14934]}, "edge": {"target": [], "time": []}}}, "displayed_time": "16.35", "trialTime": 17684, "trial_type": "mouselab-mdp", "trial_index": 24, "time_elapsed": 828217, "internal_node_id": "0.0-4.0-1.0-15.0"}}, {"uniqueid": "w86751986:a11132193", "current_trial": 25, "dateTime": 1691071807813, "trialdata": {"revealed_states": [], "clicked_states": [], "num_clicks_accrued": [0, 0, 0, 0, 0, 0, 0, 0, 0, 0, 0, 0, 0], "stateRewards": ["", 1, -4, 6, -3, 40, 76, -51, 5, -24, -63, 44, -2, -2, 8, 1, 76, -85, -58, 10, 59, 20, 11, -2, 3, -3, 3, -82, -10, 54, -7, -57, -6, -32], "withholdReward": false, "trial_id": "mdp_trial_17", "block": "test", "trialIndex": 18, "score": -66, "costs": 0, "simulationMode": [null, null, null, null, null], "rewards": [-2, 3, -3, -7, -57], "path": ["0", "0", "23", "24", "25", "30", "31"], "rt": [1249, 31, 21, 122, 300], "actions": ["left", "left", "left", "down", "right"], "actionTimes": [2839, 3438, 3999, 4687, 5527], "queries": {"click": {"state": {"target": [], "time": []}, "edge": {"target": [], "time": []}}, "mouseover": {"state": {"target": [], "time": []}, "edge": {"target": [], "time": []}}, "mouseout": {"state": {"target": ["0", "22", "19", "19"], "time": [1982, 5670, 10616, 10983]}, "edge": {"target": [], "time": []}}}, "displayed_time": "15.80", "trialTime": 17056, "trial_type": "mouselab-mdp", "trial_index": 25, "time_elapsed": 845524, "internal_node_id": "0.0-4.0-1.0-16.0"}}, {"uniqueid": "w86751986:a11132193", "current_trial": 26, "dateTime": 1691071824686, "trialdata": {"revealed_states": [], "clicked_states": [], "num_clicks_accrued": [0, 0, 0, 0, 0, 0, 0, 0, 0, 0, 0, 0, 0], "stateRewards": ["", -2, 4, -3, -13, 63, -36, 62, 11, 78, 34, -51, 2, -2, 8, -6, -40, -18, 31, 9, 64, 39, 79, 1, 4, -4, 15, -12, 76, 73, -10, -77, 86, -4], "withholdReward": false, "trial_id": "mdp_trial_18", "block": "test", "trialIndex": 19, "score": -41, "costs": 0, "simulationMode": [null, null, null, null, null], "rewards": [-2, 4, -3, 11, -51], "path": ["0", "0", "1", "2", "3", "8", "11"], "rt": [448, 117, 512, 147, 0], "actions": ["up", "up", "up", "left", "left"], "actionTimes": [1886, 2566, 3655, 4358, 4923], "queries": {"click": {"state": {"target": [], "time": []}, "edge": {"target": [], "time": []}}, "mouseover": {"state": {"target": ["0"], "time": [1748]}, "edge": {"target": [], "time": []}}, "mouseout": {"state": {"target": ["0", "0"], "time": [815, 2926]}, "edge": {"target": [], "time": []}}}, "displayed_time": "15.60", "trialTime": 16632, "trial_type": "mouselab-mdp", "trial_index": 26, "time_elapsed": 862397, "internal_node_id": "0.0-4.0-1.0-17.0"}}, {"uniqueid": "w86751986:a11132193", "current_trial": 27, "dateTime": 1691071842561, "trialdata": {"revealed_states": [], "clicked_states": [], "num_clicks_accrued": [0, 0, 0, 0, 0, 0, 0, 0, 0, 0, 0, 0, 0], "stateRewards": ["", 1, 1, -3, 7, 49, 78, 26, -5, 26, 48, -43, -1, -3, 2, -5, 4, -1, -60, 10, -35, 51, 81, -2, 1, -7, -5, -39, -86, -54, 4, -3, 74, 77], "withholdReward": false, "trial_id": "mdp_trial_19", "block": "test", "trialIndex": 20, "score": 32, "costs": 0, "simulationMode": [null, null, null, null, null], "rewards": [1, 1, -3, 7, 26], "path": ["0", "0", "1", "2", "3", "4", "7"], "rt": [981, 294, 95, 308, 0], "actions": ["up", "up", "up", "right", "down"], "actionTimes": [2154, 3010, 3658, 4521, 5079], "queries": {"click": {"state": {"target": [], "time": []}, "edge": {"target": [], "time": []}}, "mouseover": {"state": {"target": ["0"], "time": [1838]}, "edge": {"target": [], "time": []}}, "mouseout": {"state": {"target": ["0", "0", "12"], "time": [801, 2056, 2899]}, "edge": {"target": [], "time": []}}}, "displayed_time": "15.44", "trialTime": 17644, "trial_type": "mouselab-mdp", "trial_index": 27, "time_elapsed": 880272, "internal_node_id": "0.0-4.0-1.0-18.0"}}, {"uniqueid": "w86751986:a11132193", "current_trial": 28, "dateTime": 1691071866291, "trialdata": {"revealed_states": [], "clicked_states": [], "num_clicks_accrued": [0, 0, 0, 0, 0, 0, 0, 0, 0, 0, 0, 0, 0], "stateRewards": ["", 1, 1, 4, 11, 83, -66, 18, -16, -23, 5, 25, 1, -3, 1, -12, 18, 24, -86, -11, -64, 36, 40, 2, 1, -6, 13, 55, 29, 72, -2, 81, -72, -41], "withholdReward": false, "trial_id": "mdp_trial_20", "block": "test", "trialIndex": 21, "score": 28, "costs": 0, "simulationMode": [null, null, null, null, null], "rewards": [1, -3, 1, -11, 40], "path": ["0", "0", "12", "13", "14", "19", "22"], "rt": [1444, 444, 25, 112, 204], "actions": ["right", "right", "right", "down", "left"], "actionTimes": [3286, 4287, 4847, 5519, 6255], "queries": {"click": {"state": {"target": [], "time": []}, "edge": {"target": [], "time": []}}, "mouseover": {"state": {"target": [], "time": []}, "edge": {"target": [], "time": []}}, "mouseout": {"state": {"target": ["0", "0"], "time": [1191, 1574]}, "edge": {"target": [], "time": []}}}, "displayed_time": "16.03", "trialTime": 23497, "trial_type": "mouselab-mdp", "trial_index": 28, "time_elapsed": 904002, "internal_node_id": "0.0-4.0-1.0-19.0"}}, {"uniqueid": "w86751986:a11132193", "current_trial": 29, "dateTime": 1691071884708, "trialdata": {"revealed_states": [], "clicked_states": [], "num_clicks_accrued": [0, 0, 0, 0, 0, 0, 0, 0, 0, 0, 0, 0, 0], "stateRewards": ["", -1, 3, 8, 9, -53, 20, -84, 2, -28, -62, -31, -1, -2, -7, 2, 51, 58, 45, -4, -17, -41, 36, 2, -2, -7, -15, 29, -54, -37, -16, -43, 65, -17], "withholdReward": false, "trial_id": "mdp_trial_21", "block": "test", "trialIndex": 22, "score": -19, "costs": 0, "simulationMode": [null, null, null, null, null], "rewards": [-1, 3, 8, 2, -31], "path": ["0", "0", "1", "2", "3", "8", "11"], "rt": [2090, 154, 407, 231, 601], "actions": ["up", "up", "up", "left", "left"], "actionTimes": [4692, 5404, 6348, 7116, 8277], "queries": {"click": {"state": {"target": [], "time": []}, "edge": {"target": [], "time": []}}, "mouseover": {"state": {"target": ["1"], "time": [4045]}, "edge": {"target": [], "time": []}}, "mouseout": {"state": {"target": ["0", "1", "15", "13", "0", "1"], "time": [876, 1241, 1474, 1541, 2191, 7894]}, "edge": {"target": [], "time": []}}}, "displayed_time": "16.89", "trialTime": 18197, "trial_type": "mouselab-mdp", "trial_index": 29, "time_elapsed": 922419, "internal_node_id": "0.0-4.0-1.0-20.0"}}, {"uniqueid": "w86751986:a11132193", "current_trial": 30, "dateTime": 1691071996577, "trialdata": {"revealed_states": [], "clicked_states": [], "num_clicks_accrued": [0, 0, 0, 0, 0, 0, 0, 0, 0, 0, 0, 0, 0], "stateRewards": ["", -1, -1, 4, -16, -75, 81, -51, -7, -84, 73, -30, -2, 1, -3, -16, -77, 33, 14, 1, 45, 87, -66, 2, 2, -5, -7, -19, -17, 79, -3, 8, 49, 47], "withholdReward": false, "trial_id": "mdp_trial_22", "block": "test", "trialIndex": 23, "score": -27, "costs": 0, "simulationMode": [null, null, null, null, null], "rewards": [2, 2, -5, -7, -19], "path": ["0", "0", "23", "24", "25", "26", "27"], "rt": [792, 157, 586, 192, 345], "actions": ["left", "left", "left", "up", "up"], "actionTimes": [2766, 3478, 4622, 5374, 6279], "queries": {"click": {"state": {"target": [], "time": []}, "edge": {"target": [], "time": []}}, "mouseover": {"state": {"target": [], "time": []}, "edge": {"target": [], "time": []}}, "mouseout": {"state": {"target": ["12", "12", "0", "12", "7", "1", "0"], "time": [9420, 12337, 12921, 14521, 17470, 17538, 17570]}, "edge": {"target": [], "time": []}}}, "displayed_time": "16.20", "trialTime": 111642, "trial_type": "mouselab-mdp", "trial_index": 30, "time_elapsed": 1034288, "internal_node_id": "0.0-4.0-1.0-21.0"}}, {"uniqueid": "w86751986:a11132193", "current_trial": 31, "dateTime": 1691072028652, "trialdata": {"revealed_states": [], "clicked_states": ["12"], "num_clicks_accrued": [0, 0, 0, 0, 0, 0, 0, 0, 0, 0, 0, 0, 0], "stateRewards": ["", -2, 2, -5, -6, 10, -66, -58, -10, -11, -63, -70, -1, -4, -5, 7, 66, -64, -43, -3, 45, -37, 4, -2, -2, -6, -4, -30, 33, 43, 15, -32, -65, -59], "withholdReward": false, "trial_id": "mdp_trial_23", "block": "test", "trialIndex": 24, "score": -45.75, "costs": 0.25, "simulationMode": [null, null, null, null, null], "rewards": [-1, -4, -5, 7, -43], "path": ["0", "0", "12", "13", "14", "15", "18"], "rt": [1660, 1291, 2266, 423, 118], "actions": ["right", "right", "right", "up", "left"], "actionTimes": [3525, 5363, 8163, 9132, 9803], "queries": {"click": {"state": {"target": ["12"], "time": [2645]}, "edge": {"target": [], "time": []}}, "mouseover": {"state": {"target": ["0", "12"], "time": [1915, 2392]}, "edge": {"target": [], "time": []}}, "mouseout": {"state": {"target": ["1", "7", "18", "12", "0", "12", "13", "18", "14", "19", "13", "12", "2"], "time": [855, 887, 987, 1320, 1958, 3811, 4642, 5191, 6941, 10658, 11109, 31541, 31625]}, "edge": {"target": [], "time": []}}}, "displayed_time": "16.10", "trialTime": 31837, "trial_type": "mouselab-mdp", "trial_index": 31, "time_elapsed": 1066363, "internal_node_id": "0.0-4.0-1.0-22.0"}}, {"uniqueid": "w86751986:a11132193", "current_trial": 32, "dateTime": 1691072050686, "trialdata": {"revealed_states": [], "clicked_states": [], "num_clicks_accrued": [0, 0, 0, 0, 0, 0, 0, 0, 0, 0, 0, 0, 0], "stateRewards": ["", 1, -3, -6, -5, 47, 80, -29, 11, -71, 10, -29, -2, 3, -6, 12, 2, -78, -6, 8, 34, -16, -5, -1, 3, 3, -13, 84, -36, -62, -3, -27, 66, 15], "withholdReward": false, "trial_id": "mdp_trial_24", "block": "test", "trialIndex": 25, "score": 34, "costs": 0, "simulationMode": [null, null, null, null, null], "rewards": [1, -3, -6, -5, 47], "path": ["0", "0", "1", "2", "3", "4", "5"], "rt": [1064, 517, 133, 1, 140], "actions": ["up", "up", "up", "right", "up"], "actionTimes": [7082, 8131, 8810, 9369, 10076], "queries": {"click": {"state": {"target": [], "time": []}, "edge": {"target": [], "time": []}}, "mouseover": {"state": {"target": [], "time": []}, "edge": {"target": [], "time": []}}, "mouseout": {"state": {"target": ["0", "12", "13", "22", "22", "19", "21", "22", "13", "13", "19", "21", "21"], "time": [5337, 11091, 11557, 12041, 13277, 13809, 14293, 14409, 14526, 14809, 18393, 20009, 20627]}, "edge": {"target": [], "time": []}}}, "displayed_time": "20.37", "trialTime": 21772, "trial_type": "mouselab-mdp", "trial_index": 32, "time_elapsed": 1088397, "internal_node_id": "0.0-4.0-1.0-23.0"}}, {"uniqueid": "w86751986:a11132193", "current_trial": 33, "dateTime": 1691072068824, "trialdata": {"revealed_states": [], "clicked_states": [], "num_clicks_accrued": [0, 0, 0, 0, 0, 0, 0, 0, 0, 0, 0, 0, 0], "stateRewards": ["", -1, 1, -1, 2, 19, 85, -18, 2, -3, -26, 36, 2, 4, 7, -9, -18, 70, 72, -5, 35, -20, -28, 1, -2, -4, -3, -59, -11, -63, -2, -72, 59, -69], "withholdReward": false, "trial_id": "mdp_trial_25", "block": "test", "trialIndex": 26, "score": -76, "costs": 0, "simulationMode": [null, null, null, null, null], "rewards": [1, -2, -4, -2, -69], "path": ["0", "0", "23", "24", "25", "30", "33"], "rt": [1632, 133, 363, 18, 250], "actions": ["left", "left", "left", "down", "left"], "actionTimes": [3662, 4358, 5294, 5870, 6671], "queries": {"click": {"state": {"target": [], "time": []}, "edge": {"target": [], "time": []}}, "mouseover": {"state": {"target": ["0", "0"], "time": [2130, 3276]}, "edge": {"target": [], "time": []}}, "mouseout": {"state": {"target": ["0", "0", "0", "12", "22"], "time": [2056, 2181, 3397, 7897, 8264]}, "edge": {"target": [], "time": []}}}, "displayed_time": "16.34", "trialTime": 17848, "trial_type": "mouselab-mdp", "trial_index": 33, "time_elapsed": 1106535, "internal_node_id": "0.0-4.0-1.0-24.0"}}, {"uniqueid": "w86751986:a11132193", "current_trial": 34, "dateTime": 1691072088802, "trialdata": {"revealed_states": [], "clicked_states": [], "num_clicks_accrued": [0, 0, 0, 0, 0, 0, 0, 0, 0, 0, 0, 0, 0], "stateRewards": ["", -1, -4, -1, -11, 43, 69, 39, 4, 17, -20, -82, -2, -1, 4, 8, -79, 24, -79, 11, 36, 64, 41, 2, 4, -1, 11, -79, -47, 75, -3, 63, -36, -19], "withholdReward": false, "trial_id": "mdp_trial_26", "block": "test", "trialIndex": 27, "score": 15, "costs": 0, "simulationMode": [null, null, null, null, null], "rewards": [-1, -4, -1, 4, 17], "path": ["0", "0", "1", "2", "3", "8", "9"], "rt": [586, 65, 291, 109, 129], "actions": ["up", "up", "up", "left", "up"], "actionTimes": [3975, 4583, 5432, 6103, 6791], "queries": {"click": {"state": {"target": [], "time": []}, "edge": {"target": [], "time": []}}, "mouseover": {"state": {"target": [], "time": []}, "edge": {"target": [], "time": []}}, "mouseout": {"state": {"target": ["0", "13", "22"], "time": [3516, 8333, 8400]}, "edge": {"target": [], "time": []}}}, "displayed_time": "17.57", "trialTime": 19712, "trial_type": "mouselab-mdp", "trial_index": 34, "time_elapsed": 1126512, "internal_node_id": "0.0-4.0-1.0-25.0"}}, {"uniqueid": "w86751986:a11132193", "current_trial": 35, "dateTime": 1691072112452, "trialdata": {"revealed_states": [], "clicked_states": ["12", "13", "14", "2"], "num_clicks_accrued": [0, 0, 0, 0, 0, 0, 0, 0, 0, 0, 0, 0, 0], "stateRewards": ["", -2, 2, 3, -7, 76, 63, 21, 15, 35, -8, -44, 1, 1, -2, -12, 23, 24, 76, -9, 46, 66, -49, -2, -1, 7, 12, 40, -71, -45, -6, 38, -49, 46], "withholdReward": false, "trial_id": "mdp_trial_27", "block": "test", "trialIndex": 28, "score": 35.6, "costs": -1.4, "simulationMode": [null, null, null, null, null], "rewards": [1, 1, -2, -9, 46], "path": ["0", "0", "12", "13", "14", "19", "20"], "rt": [6805, 0, 15, 88, 317], "actions": ["right", "right", "right", "down", "right"], "actionTimes": [14343, 14885, 15448, 16096, 16944], "queries": {"click": {"state": {"target": ["12", "13", "14", "2"], "time": [8839, 9651, 10260, 13028]}, "edge": {"target": [], "time": []}}, "mouseover": {"state": {"target": ["0", "12", "12", "13", "13", "14", "14", "0", "1", "1", "2", "7"], "time": [8037, 8270, 8621, 9144, 9367, 9824, 10136, 11410, 12153, 12720, 12937, 13614]}, "edge": {"target": [], "time": []}}, "mouseout": {"state": {"target": ["23", "0", "0", "12", "12", "13", "13", "14", "14", "13", "12", "0", "1", "1", "2", "7", "13", "13", "22", "22", "13", "13"], "time": [6917, 7620, 8103, 8371, 9113, 9175, 9790, 9858, 10488, 10710, 11203, 11970, 12437, 12870, 13483, 13734, 17737, 18404, 19387, 19804, 23054, 23221]}, "edge": {"target": [], "time": []}}}, "displayed_time": "21.88", "trialTime": 23384, "trial_type": "mouselab-mdp", "trial_index": 35, "time_elapsed": 1150163, "internal_node_id": "0.0-4.0-1.0-26.0"}}, {"uniqueid": "w86751986:a11132193", "current_trial": 36, "dateTime": 1691072129878, "trialdata": {"revealed_states": [], "clicked_states": ["23", "24", "25", "30", "31"], "num_clicks_accrued": [0, 0, 0, 0, 0, 0, 0, 0, 0, 0, 0, 0, 0], "stateRewards": ["", 2, 4, 7, -6, -76, -81, 2, 5, -66, -3, 36, -2, -4, 6, -2, -69, 4, -49, -6, 67, 38, -67, 2, 1, 1, 6, -68, -21, 52, -16, -16, 6, -70], "withholdReward": false, "trial_id": "mdp_trial_28", "block": "test", "trialIndex": 29, "score": 57.25, "costs": -4.75, "simulationMode": [null, null, null, null, null], "rewards": [2, 1, 1, 6, 52], "path": ["0", "0", "23", "24", "25", "26", "29"], "rt": [7472, 86, 464, 140, 204], "actions": ["left", "left", "left", "up", "left"], "actionTimes": [8457, 9106, 10130, 10802, 11562], "queries": {"click": {"state": {"target": ["23", "24", "25", "30", "31"], "time": [1646, 2179, 3571, 4217, 5049]}, "edge": {"target": [], "time": []}}, "mouseover": {"state": {"target": ["23", "24", "25", "30", "25", "30", "31", "26", "25", "26", "28"], "time": [1390, 1979, 2923, 3160, 3339, 3982, 4791, 6043, 6910, 7192, 8157]}, "edge": {"target": [], "time": []}}, "mouseout": {"state": {"target": ["12", "0", "23", "24", "25", "30", "25", "30", "31", "26", "25", "26", "28", "23", "23"], "time": [136, 1323, 1809, 2664, 3015, 3290, 3759, 4564, 5245, 6767, 7133, 7888, 8307, 13273, 13423]}, "edge": {"target": [], "time": []}}}, "displayed_time": "15.40", "trialTime": 17146, "trial_type": "mouselab-mdp", "trial_index": 36, "time_elapsed": 1167589, "internal_node_id": "0.0-4.0-1.0-27.0"}}, {"uniqueid": "w86751986:a11132193", "current_trial": 37, "dateTime": 1691072146656, "trialdata": {"revealed_states": [], "clicked_states": ["1", "2", "3", "4", "6"], "num_clicks_accrued": [0, 0, 0, 0, 0, 0, 0, 0, 0, 0, 0, 0, 0], "stateRewards": ["", -1, 2, 6, 11, 21, -21, -21, -6, 48, -71, 88, -1, -3, 3, 7, 64, 2, 9, -4, 37, -67, 72, 2, 2, -8, -8, -10, 71, -40, -3, 73, 80, 47], "withholdReward": false, "trial_id": "mdp_trial_29", "block": "test", "trialIndex": 30, "score": -74.75, "costs": -4.75, "simulationMode": [null, null, null, null, null, null], "rewards": [-1, 2, 6, -6, -71], "path": ["0", "0", "1", "2", "3", "8", "10"], "rt": [5881, 330, 1, 180, 178, 435], "actions": ["up", "up", "up", "up", "left", "down"], "actionTimes": [7087, 7435, 8003, 8733, 9469, 10461], "queries": {"click": {"state": {"target": ["1", "2", "3", "4", "6"], "time": [2119, 2872, 3791, 4354, 5237]}, "edge": {"target": [], "time": []}}, "mouseover": {"state": {"target": ["1", "2", "7", "3", "4", "6", "7"], "time": [1676, 2590, 3218, 3588, 4043, 5063, 5743]}, "edge": {"target": [], "time": []}}, "mouseout": {"state": {"target": ["0", "0", "0", "0", "1", "2", "7", "3", "4", "6", "7", "4", "4", "7", "7", "7", "12"], "time": [59, 188, 372, 922, 2277, 3155, 3358, 4012, 4757, 5596, 6299, 6446, 7845, 9197, 11809, 12586, 12859]}, "edge": {"target": [], "time": []}}}, "displayed_time": "15.61", "trialTime": 16509, "trial_type": "mouselab-mdp", "trial_index": 37, "time_elapsed": 1184367, "internal_node_id": "0.0-4.0-1.0-28.0"}}, {"uniqueid": "w86751986:a11132193", "current_trial": 38, "dateTime": 1691072164234, "trialdata": {"revealed_states": [], "clicked_states": ["12", "13", "14", "15", "17"], "num_clicks_accrued": [0, 0, 0, 0, 0, 0, 0, 0, 0, 0, 0, 0, 0], "stateRewards": ["", 2, 3, -3, 12, -43, 81, -82, -15, 58, -7, -75, -1, -1, 3, -5, 50, -25, -8, 4, 66, 65, -66, 2, -4, 2, -1, -10, 10, 37, 11, 88, -37, 8], "withholdReward": false, "trial_id": "mdp_trial_30", "block": "test", "trialIndex": 31, "score": -15.75, "costs": -4.75, "simulationMode": [null, null, null, null, null, null], "rewards": [2, -4, 2, -1, -10], "path": ["0", "0", "23", "24", "25", "26", "27"], "rt": [4678, 1493, 203, 73, 114, 881], "actions": ["left", "left", "left", "left", "up", "up"], "actionTimes": [6351, 7862, 8620, 9228, 9900, 11341], "queries": {"click": {"state": {"target": ["12", "13", "14", "15", "17"], "time": [2334, 2956, 3759, 4459, 5239]}, "edge": {"target": [], "time": []}}, "mouseover": {"state": {"target": ["12", "13", "14", "15", "17", "0"], "time": [2130, 2722, 3636, 4254, 5034, 7271]}, "edge": {"target": [], "time": []}}, "mouseout": {"state": {"target": ["0", "12", "13", "14", "15", "17", "0", "12", "12", "12"], "time": [1426, 2663, 3358, 4155, 4943, 7003, 7386, 11768, 12579, 12813]}, "edge": {"target": [], "time": []}}}, "displayed_time": "16.22", "trialTime": 17308, "trial_type": "mouselab-mdp", "trial_index": 38, "time_elapsed": 1201944, "internal_node_id": "0.0-4.0-1.0-29.0"}}, {"uniqueid": "w86751986:a11132193", "current_trial": 39, "dateTime": 1691072181516, "trialdata": {"revealed_states": [], "clicked_states": ["1", "2", "3", "8", "11"], "num_clicks_accrued": [0, 0, 0, 0, 0, 0, 0, 0, 0, 0, 0, 0, 0], "stateRewards": ["", 2, 4, 7, 7, -79, -2, -21, -5, -53, 47, -21, 1, -3, -1, 7, 83, 7, 84, -7, 80, -37, 69, 2, -4, 5, 2, 4, -20, -30, 7, 71, 44, -81], "withholdReward": false, "trial_id": "mdp_trial_31", "block": "test", "trialIndex": 32, "score": -75.75, "costs": -4.75, "simulationMode": [null, null, null, null, null, null], "rewards": [2, -4, 5, 7, -81], "path": ["0", "0", "23", "24", "25", "30", "33"], "rt": [6573, 356, 140, 330, 6, 87], "actions": ["left", "left", "left", "left", "down", "left"], "actionTimes": [7990, 8366, 9072, 9968, 10536, 11200], "queries": {"click": {"state": {"target": ["1", "2", "3", "8", "11"], "time": [2224, 3267, 4288, 5362, 6406]}, "edge": {"target": [], "time": []}}, "mouseover": {"state": {"target": ["0", "1", "2", "3", "8", "11"], "time": [1491, 1791, 2839, 3812, 5075, 5988]}, "edge": {"target": [], "time": []}}, "mouseout": {"state": {"target": ["0", "1", "2", "3", "8", "11", "10"], "time": [1690, 2559, 3670, 4860, 5956, 7228, 12590]}, "edge": {"target": [], "time": []}}}, "displayed_time": "15.87", "trialTime": 17017, "trial_type": "mouselab-mdp", "trial_index": 39, "time_elapsed": 1219227, "internal_node_id": "0.0-4.0-1.0-30.0"}}, {"uniqueid": "w86751986:a11132193", "current_trial": 40, "dateTime": 1691072198541, "trialdata": {"revealed_states": [], "clicked_states": ["1", "2", "3", "4", "6"], "num_clicks_accrued": [0, 0, 0, 0, 0, 0, 0, 0, 0, 0, 0, 0, 0], "stateRewards": ["", -2, 2, 3, -7, -31, -33, 29, -8, -57, 50, -83, -1, -1, 5, 13, -23, -62, 25, 5, -66, -85, 14, 1, -2, -1, 16, 71, 33, -19, -14, 5, -43, 79], "withholdReward": false, "trial_id": "mdp_trial_32", "block": "test", "trialIndex": 33, "score": -11.75, "costs": -4.75, "simulationMode": [null, null, null, null, null, null], "rewards": [-1, -1, 5, 13, -23], "path": ["0", "0", "12", "13", "14", "15", "16"], "rt": [6578, 949, 580, 318, 90, 107], "actions": ["up", "right", "right", "right", "up", "up"], "actionTimes": [7722, 8691, 9808, 10688, 11336, 11984], "queries": {"click": {"state": {"target": ["1", "2", "3", "4", "6"], "time": [2481, 3575, 4328, 5264, 6156]}, "edge": {"target": [], "time": []}}, "mouseover": {"state": {"target": ["0", "12", "1", "2", "3", "4", "6", "7"], "time": [1469, 2083, 2267, 3376, 4122, 4922, 5892, 7165]}, "edge": {"target": [], "time": []}}, "mouseout": {"state": {"target": ["0", "0", "12", "1", "1", "2", "3", "4", "6", "4", "7", "13", "13", "13", "13", "13", "22", "22"], "time": [1250, 1666, 2150, 2765, 3096, 3916, 4698, 5804, 6595, 6915, 8862, 10389, 12349, 12582, 13115, 13500, 14583, 14816]}, "edge": {"target": [], "time": []}}}, "displayed_time": "15.55", "trialTime": 16752, "trial_type": "mouselab-mdp", "trial_index": 40, "time_elapsed": 1236252, "internal_node_id": "0.0-4.0-1.0-31.0"}}, {"uniqueid": "w86751986:a11132193", "current_trial": 41, "dateTime": 1691072215815, "trialdata": {"revealed_states": [], "clicked_states": ["23", "24", "25", "26", "29"], "num_clicks_accrued": [0, 0, 0, 0, 0, 0, 0, 0, 0, 0, 0, 0, 0], "stateRewards": ["", 2, -2, 7, -11, -76, -65, -23, 16, -58, 30, 81, 1, 2, 7, 14, 9, 55, -2, 6, 11, -15, 31, -1, -1, -3, 2, 15, 2, 46, 15, 18, 45, -34], "withholdReward": false, "trial_id": "mdp_trial_33", "block": "test", "trialIndex": 34, "score": 22.25, "costs": -4.75, "simulationMode": [null, null, null, null, null, null], "rewards": [1, 2, 7, 6, 11], "path": ["0", "0", "12", "13", "14", "19", "20"], "rt": [5239, 279, 192, 399, 16, 381], "actions": ["right", "right", "right", "right", "down", "right"], "actionTimes": [6716, 7013, 7791, 8744, 9319, 10256], "queries": {"click": {"state": {"target": ["23", "24", "25", "26", "29"], "time": [2424, 3098, 3935, 4838, 5826]}, "edge": {"target": [], "time": []}}, "mouseover": {"state": {"target": ["0", "12", "0", "23", "24", "25", "26", "29"], "time": [1582, 1832, 2112, 2199, 2924, 3758, 4608, 5619]}, "edge": {"target": [], "time": []}}, "mouseout": {"state": {"target": ["12", "0", "0", "12", "0", "23", "24", "25", "26", "29", "26", "25"], "time": [962, 1228, 1766, 2083, 2144, 2724, 3443, 4325, 5335, 8912, 11150, 12744]}, "edge": {"target": [], "time": []}}}, "displayed_time": "15.84", "trialTime": 16976, "trial_type": "mouselab-mdp", "trial_index": 41, "time_elapsed": 1253526, "internal_node_id": "0.0-4.0-1.0-32.0"}}, {"uniqueid": "w86751986:a11132193", "current_trial": 42, "dateTime": 1691072390122, "trialdata": {"revealed_states": [], "clicked_states": ["12", "13", "14", "19", "22"], "num_clicks_accrued": [0, 0, 0, 0, 0, 0, 0, 0, 0, 0, 0, 0, 0], "stateRewards": ["", -1, -2, -1, -10, -57, 73, -72, -16, 75, -14, -46, -2, -3, -7, -1, -61, -60, 76, -4, 50, 4, 14, 2, 2, -7, 12, -65, -32, 15, -8, -76, -25, -61], "withholdReward": false, "trial_id": "mdp_trial_34", "block": "test", "trialIndex": 35, "score": -90.75, "costs": -4.75, "simulationMode": [null, null, null, null, null, null], "rewards": [-1, -2, -1, -10, -72], "path": ["0", "0", "1", "2", "3", "4", "7"], "rt": [3833, 329, 236, 466, 574, 91], "actions": ["up", "up", "up", "up", "right", "down"], "actionTimes": [5644, 5990, 6781, 7793, 8929, 9578], "queries": {"click": {"state": {"target": ["12", "13", "14", "19", "22"], "time": [2657, 3223, 3813, 4477, 4928]}, "edge": {"target": [], "time": []}}, "mouseover": {"state": {"target": ["0", "12", "13", "14", "19", "22"], "time": [2035, 2335, 2962, 3663, 4238, 4742]}, "edge": {"target": [], "time": []}}, "mouseout": {"state": {"target": ["24", "23", "0", "12", "13", "14", "14", "19", "22", "22", "12"], "time": [998, 1214, 2134, 2820, 3274, 3895, 4174, 4649, 5035, 10451, 173788]}, "edge": {"target": [], "time": []}}}, "displayed_time": "16.16", "trialTime": 174019, "trial_type": "mouselab-mdp", "trial_index": 42, "time_elapsed": 1427833, "internal_node_id": "0.0-4.0-1.0-33.0"}}, {"uniqueid": "w86751986:a11132193", "current_trial": 43, "dateTime": 1691072406548, "trialdata": {"revealed_states": [], "clicked_states": ["1"], "num_clicks_accrued": [0, 0, 0, 0, 0, 0, 0, 0, 0, 0, 0, 0, 0], "stateRewards": ["", -2, -4, -2, -13, -15, 87, -19, -6, -80, 30, 12, 1, 1, -8, 2, 55, 56, 15, 11, -68, -7, 55, -2, 3, -3, -3, 48, 62, 4, 1, -3, 69, -33], "withholdReward": false, "trial_id": "mdp_trial_35", "block": "test", "trialIndex": 36, "score": -93.75, "costs": 0.25, "simulationMode": [null, null, null, null, null], "rewards": [-2, -4, -2, -6, -80], "path": ["0", "0", "1", "2", "3", "8", "9"], "rt": [2383, 723, 163, 15, 162], "actions": ["up", "up", "up", "left", "up"], "actionTimes": [3300, 4597, 5292, 5869, 6597], "queries": {"click": {"state": {"target": ["1"], "time": [1958]}, "edge": {"target": [], "time": []}}, "mouseover": {"state": {"target": ["1", "1"], "time": [1140, 1622]}, "edge": {"target": [], "time": []}}, "mouseout": {"state": {"target": ["0", "1", "1", "1", "2", "12", "22", "13", "18", "16", "15", "15", "18", "18"], "time": [762, 1207, 2150, 2520, 7389, 7872, 9256, 9306, 9356, 9906, 10005, 10589, 15766, 15908]}, "edge": {"target": [], "time": []}}}, "displayed_time": "15.12", "trialTime": 16165, "trial_type": "mouselab-mdp", "trial_index": 43, "time_elapsed": 1444258, "internal_node_id": "0.0-4.0-1.0-34.0"}}, {"uniqueid": "w86751986:a11132193", "current_trial": 44, "dateTime": 1691072423885, "trialdata": {"revealed_states": [], "clicked_states": ["12", "13", "14", "19", "20"], "num_clicks_accrued": [0, 0, 0, 0, 0, 0, 0, 0, 0, 0, 0, 0, 0], "stateRewards": ["", -1, 3, -4, -14, 78, 67, 2, 13, -32, 28, 39, -2, 1, -4, -4, -4, -42, -86, 11, 64, -29, -32, -1, -4, 2, -7, 5, 68, -61, 2, -21, 85, 50], "withholdReward": false, "trial_id": "mdp_trial_36", "block": "test", "trialIndex": 37, "score": 65.25, "costs": -4.75, "simulationMode": [null, null, null, null, null, null], "rewards": [-2, 1, -4, 11, 64], "path": ["0", "0", "12", "13", "14", "19", "20"], "rt": [4664, 246, 94, 924, 74, 426], "actions": ["right", "right", "right", "right", "down", "right"], "actionTimes": [6137, 6406, 7079, 8561, 9194, 10177], "queries": {"click": {"state": {"target": ["12", "13", "14", "19", "20"], "time": [2020, 2398, 3209, 4029, 4538]}, "edge": {"target": [], "time": []}}, "mouseover": {"state": {"target": ["12", "13", "14", "14", "19", "20", "21"], "time": [1854, 2221, 2685, 3020, 3844, 4369, 4865]}, "edge": {"target": [], "time": []}}, "mouseout": {"state": {"target": ["18", "12", "0", "0", "12", "13", "14", "14", "19", "20", "21", "19", "19"], "time": [216, 465, 782, 1771, 2045, 2604, 2724, 3458, 4262, 4748, 5323, 10692, 11128]}, "edge": {"target": [], "time": []}}}, "displayed_time": "15.87", "trialTime": 17050, "trial_type": "mouselab-mdp", "trial_index": 44, "time_elapsed": 1461596, "internal_node_id": "0.0-4.0-1.0-35.0"}}, {"uniqueid": "w86751986:a11132193", "current_trial": 45, "dateTime": 1691072441551, "trialdata": {"revealed_states": [], "clicked_states": ["23", "24", "25", "26", "30", "32"], "num_clicks_accrued": [0, 0, 0, 0, 0, 0, 0, 0, 0, 0, 0, 0, 0], "stateRewards": ["", 1, -4, -4, 8, 1, -79, 68, -10, -79, 8, -74, -1, -3, -6, 14, 43, 23, 9, 5, -51, 63, 61, -2, 4, 6, -10, 69, -32, 57, 15, -80, -80, -77], "withholdReward": false, "trial_id": "mdp_trial_37", "block": "test", "trialIndex": 38, "score": -60.3, "costs": -6.299999999999999, "simulationMode": [null, null, null, null, null, null], "rewards": [-2, 4, 6, 15, -77], "path": ["0", "0", "23", "24", "25", "30", "33"], "rt": [6595, 1086, 348, 50, 104, 398], "actions": ["left", "left", "left", "left", "down", "left"], "actionTimes": [8118, 9224, 10151, 10759, 11398, 12366], "queries": {"click": {"state": {"target": ["23", "24", "25", "26", "30", "32"], "time": [2575, 3125, 3694, 4445, 6321, 6982]}, "edge": {"target": [], "time": []}}, "mouseover": {"state": {"target": ["23", "24", "25", "26", "27", "27", "30", "32"], "time": [2371, 2903, 3451, 4158, 5092, 5688, 6121, 6751]}, "edge": {"target": [], "time": []}}, "mouseout": {"state": {"target": ["31", "0", "23", "24", "25", "26", "27", "26", "25", "26", "27", "26", "25", "30", "32", "22", "22"], "time": [635, 1101, 2704, 3234, 3859, 4888, 5236, 5298, 5442, 5504, 5838, 5888, 6016, 6691, 7090, 13555, 14438]}, "edge": {"target": [], "time": []}}}, "displayed_time": "15.99", "trialTime": 17351, "trial_type": "mouselab-mdp", "trial_index": 45, "time_elapsed": 1479262, "internal_node_id": "0.0-4.0-1.0-36.0"}}, {"uniqueid": "w86751986:a11132193", "current_trial": 46, "dateTime": 1691072459393, "trialdata": {"revealed_states": [], "clicked_states": ["23", "24", "25", "30", "32"], "num_clicks_accrued": [0, 0, 0, 0, 0, 0, 0, 0, 0, 0, 0, 0, 0], "stateRewards": ["", 1, -3, -4, -11, -56, 61, -47, -16, -28, -9, 69, -2, -3, -4, -8, 40, -86, 59, -4, 80, 27, 54, -1, 3, -1, 8, 67, 23, 50, 6, 83, -43, -29], "withholdReward": false, "trial_id": "mdp_trial_38", "block": "test", "trialIndex": 39, "score": 85.25, "costs": -4.75, "simulationMode": [null, null, null, null, null], "rewards": [-1, 3, -1, 6, 83], "path": ["0", "0", "23", "24", "25", "30", "31"], "rt": [7426, 15, 577, 108, 76], "actions": ["left", "left", "left", "down", "right"], "actionTimes": [8932, 9484, 10597, 11261, 11900], "queries": {"click": {"state": {"target": ["23", "24", "25", "30", "32"], "time": [2252, 2839, 4096, 4767, 5550]}, "edge": {"target": [], "time": []}}, "mouseover": {"state": {"target": ["23", "24", "25", "30", "32", "31", "33", "25", "26"], "time": [1994, 2657, 3698, 4371, 5318, 6124, 7214, 7419, 7514]}, "edge": {"target": [], "time": []}}, "mouseout": {"state": {"target": ["0", "23", "24", "25", "25", "30", "30", "32", "31", "30", "33", "25", "26", "24", "23", "23"], "time": [1961, 2500, 2976, 4197, 4312, 4877, 5058, 5919, 6983, 7045, 7357, 7451, 8077, 12268, 12961, 13444]}, "edge": {"target": [], "time": []}}}, "displayed_time": "16.17", "trialTime": 17532, "trial_type": "mouselab-mdp", "trial_index": 46, "time_elapsed": 1497104, "internal_node_id": "0.0-4.0-1.0-37.0"}}, {"uniqueid": "w86751986:a11132193", "current_trial": 47, "dateTime": 1691072476363, "trialdata": {"revealed_states": [], "clicked_states": ["1", "2", "3", "4", "6"], "num_clicks_accrued": [0, 0, 0, 0, 0, 0, 0, 0, 0, 0, 0, 0, 0], "stateRewards": ["", 2, 3, -1, 16, -78, -11, 46, 2, -20, 79, -67, 2, 3, 2, 11, -83, -42, -58, -11, -67, -22, 55, 2, -1, -1, -16, -83, -82, 23, -11, -29, 13, 13], "withholdReward": false, "trial_id": "mdp_trial_39", "block": "test", "trialIndex": 40, "score": 61.25, "costs": -4.75, "simulationMode": [null, null, null, null, null, null], "rewards": [2, 3, -1, 16, 46], "path": ["0", "0", "1", "2", "3", "4", "7"], "rt": [6131, 853, 129, 34, 42, 121], "actions": ["up", "up", "up", "up", "right", "down"], "actionTimes": [7218, 8089, 8774, 9366, 9966, 10646], "queries": {"click": {"state": {"target": ["1", "2", "3", "4", "6"], "time": [1785, 2528, 3536, 4432, 5254]}, "edge": {"target": [], "time": []}}, "mouseover": {"state": {"target": ["1", "2", "3", "4", "6", "7"], "time": [1662, 2294, 3026, 4004, 4996, 5999]}, "edge": {"target": [], "time": []}}, "mouseout": {"state": {"target": ["0", "1", "2", "3", "4", "6", "7", "12", "12", "12", "12", "12"], "time": [792, 2082, 2933, 3669, 4936, 5704, 7702, 12745, 13011, 16095, 16295, 16544]}, "edge": {"target": [], "time": []}}}, "displayed_time": "15.56", "trialTime": 16687, "trial_type": "mouselab-mdp", "trial_index": 47, "time_elapsed": 1514074, "internal_node_id": "0.0-4.0-1.0-38.0"}}, {"uniqueid": "w86751986:a11132193", "current_trial": 48, "dateTime": 1691072494909, "trialdata": {"revealed_states": [], "clicked_states": ["1", "2", "3", "8", "11"], "num_clicks_accrued": [0, 0, 0, 0, 0, 0, 0, 0, 0, 0, 0, 0, 0], "stateRewards": ["", -2, -1, 3, -3, 71, -58, -21, 7, -10, -75, -37, 2, 4, -1, -12, -79, -29, -48, 3, -41, -10, -30, -1, -2, 1, -15, 13, 66, 22, -1, -42, -86, -55], "withholdReward": false, "trial_id": "mdp_trial_40", "block": "test", "trialIndex": 41, "score": -40.75, "costs": -4.75, "simulationMode": [null, null, null, null, null], "rewards": [2, 4, -1, -12, -29], "path": ["0", "0", "12", "13", "14", "15", "17"], "rt": [7701, 296, 115, 18, 0], "actions": ["right", "right", "right", "up", "right"], "actionTimes": [8899, 9754, 10427, 11011, 11565], "queries": {"click": {"state": {"target": ["1", "2", "3", "8", "11"], "time": [1882, 2668, 3456, 4093, 5240]}, "edge": {"target": [], "time": []}}, "mouseover": {"state": {"target": ["1", "2", "3", "8", "11", "2"], "time": [1696, 2433, 3198, 3804, 4685, 6859]}, "edge": {"target": [], "time": []}}, "mouseout": {"state": {"target": ["12", "0", "1", "2", "3", "8", "11", "8", "3", "2", "1", "1", "1"], "time": [610, 942, 2204, 3008, 3772, 4206, 5861, 5982, 6242, 7771, 13543, 13747, 14514]}, "edge": {"target": [], "time": []}}}, "displayed_time": "15.64", "trialTime": 18268, "trial_type": "mouselab-mdp", "trial_index": 48, "time_elapsed": 1532620, "internal_node_id": "0.0-4.0-1.0-39.0"}}, {"uniqueid": "w86751986:a11132193", "current_trial": 49, "dateTime": 1691072538077, "trialdata": {"rt": 43165, "response": {"Q0": "$-2 to $2", "Q1": "$-16 to $16", "Q2": "$-88 to $88", "Q3": "The cost for clicking on nodes varied between nodes.", "Q4": "Slightly unmotivated"}, "question_order": [0, 1, 2, 3, 4], "trial_id": "final_quiz_control", "trial_type": "survey-multi-choice", "trial_index": 49, "time_elapsed": 1575787, "internal_node_id": "0.0-4.0-2.0"}}, {"uniqueid": "w86751986:a11132193", "current_trial": 50, "dateTime": 1691072613605, "trialdata": {"rt": 75518, "response": {"Q0": "Honestly I could not figure the game out so I did not have any strategy", "Q1": "Nothing to improve", "Q2": "It was very confusing and difficult to figure out. I did not discover any pattern"}, "trial_id": "self_report_control", "trial_type": "survey-text", "trial_index": 50, "time_elapsed": 1651315, "internal_node_id": "0.0-4.0-3.0"}}, {"uniqueid": "w86751986:a11132193", "current_trial": 51, "dateTime": 1691072650548, "trialdata": {"rt": 36942, "response": {"Q0": "Strongly agree", "Q1": "Agree", "Q2": "Neither disagree nor agree", "Q3": "Strongly agree", "Q4": "Strongly disagree", "Q5": "Strongly agree", "Q6": "Strongly disagree"}, "question_order": [0, 1, 2, 3, 4, 5, 6], "trial_id": "self_report_2", "trial_type": "survey-multi-choice", "trial_index": 51, "time_elapsed": 1688259, "internal_node_id": "0.0-4.0-4.0"}}, {"uniqueid": "w86751986:a11132193", "current_trial": 52, "dateTime": 1691072678526, "trialdata": {"rt": 27973, "response": {"gender": "male", "age": "24", "colorblind": "0", "effort": "0"}, "trial_type": "survey-html-form", "trial_index": 52, "time_elapsed": 1716237, "internal_node_id": "0.0-4.0-5.0"}}, {"uniqueid": "w86751986:a11132193", "current_trial": 53, "dateTime": 1691072725434, "trialdata": {"rt": 46904, "response": {"Q0": "Which pattern the game followed.", "Q1": "No I had never participated before", "Q2": "No thanks"}, "trial_type": "survey-text", "trial_index": 53, "time_elapsed": 1763145, "internal_node_id": "0.0-4.0-6.0"}}, {"uniqueid": "w86751986:a11132193", "current_trial": 54, "dateTime": 1691072727352, "trialdata": {"rt": 1916, "stimulus": "Press 'Finish HIT' in order to reach the completion code. Once the data has been saved, you will receive the code either in this window or in the original browser window where you started the experiment.\n", "response": 0, "trial_type": "html-button-response", "trial_index": 54, "time_elapsed": 1765063, "internal_node_id": "0.0-5.0"}}, {"uniqueid": "w86751986:a11132193", "current_trial": 55, "dateTime": 1691072728357, "trialdata": {"success": true, "trial_type": "fullscreen", "trial_index": 55, "time_elapsed": 1766068, "internal_node_id": "0.0-6.0"}}], "questiondata": {"params": {"CODE": "C6DMOQA6", "MIN_TIME": 14, "inspectCost": 1, "startTime": "Thu Aug 03 2023 15:55:59 GMT+0200 (South Africa Standard Time)", "bonusRate": 0.002, "variance": "1_2_4_8_44", "branching": "31123"}, "final_score": -691.35}, "eventdata": [{"eventtype": "initialized", "value": null, "timestamp": 1691070958903, "interval": 0}, {"eventtype": "window_resize", "value": [1920, 1016], "timestamp": 1691070958903, "interval": 0}, {"eventtype": "focus", "value": "on", "timestamp": 1691070959244, "interval": 341}, {"eventtype": "window_resize", "value": [1920, 1016], "timestamp": 1691070959455, "interval": 211}, {"eventtype": "focus", "value": "off", "timestamp": 1691070968461, "interval": 9006}, {"eventtype": "focus", "value": "on", "timestamp": 1691070978004, "interval": 9543}, {"eventtype": "window_resize", "value": [1920, 1080], "timestamp": 1691070980074, "interval": 2070}, {"eventtype": "window_resize", "value": [1920, 1016], "timestamp": 1691072727915, "interval": 1747841}], "useragent": "Mozilla/5.0 (Windows NT 10.0; Win64; x64; rv:109.0) Gecko/20100101 Firefox/115.0", "mode": "live", "id": "w86751986:a11132193", "status": "user data saved", "Beginhit": "2023-08-03 13:50:54.636351", "Beginexp": "2023-08-03 13:52:51.979801", "Endhit": "2023-08-03 14:22:02.311603", "psiturkStatus": 3, "browser": "<redacted>", "platform": "windows", "language": "en-US"}