{"condition": 0, "counterbalance": 0, "assignmentId": "a17902962", "workerId": "w73521969", "hitId": "h67789752", "currenttrial": 61, "bonus": 0, "data": [{"uniqueid": "w73521969:a17902962", "current_trial": 0, "dateTime": 1693580301511, "trialdata": {"success": true, "trial_type": "fullscreen", "trial_index": 0, "time_elapsed": 5975, "internal_node_id": "0.0-0.0"}}, {"uniqueid": "w73521969:a17902962", "current_trial": 1, "dateTime": 1693580313684, "trialdata": {"view_history": [{"page_index": 0, "viewing_time": 12170}], "rt": 12170, "trial_id": "exp_instructions_control", "trial_type": "instructions", "trial_index": 1, "time_elapsed": 18148, "internal_node_id": "0.0-1.0"}}, {"uniqueid": "w73521969:a17902962", "current_trial": 2, "dateTime": 1693580470646, "trialdata": {"view_history": [{"page_index": 0, "viewing_time": 47063}, {"page_index": 1, "viewing_time": 61962}, {"page_index": 2, "viewing_time": 17562}, {"page_index": 3, "viewing_time": 30373}], "rt": 156960, "trial_id": "mouselab_instructions_1_control", "trial_type": "instructions", "trial_index": 2, "time_elapsed": 175110, "internal_node_id": "0.0-2.0-1.0"}}, {"uniqueid": "w73521969:a17902962", "current_trial": 3, "dateTime": 1693580481793, "trialdata": {"revealed_states": [], "clicked_states": [], "num_clicks_accrued": [0, 0, 0, 0, 0, 0, 0, 0, 0, 0, 0, 0, 0], "stateRewards": ["", 10, 10, -10, 10, -10, -10, 10, 10, -10, -10, -10, 10, -10, 10, 10, -10, 10, -10, -10, 10, -10, -10, -10, -10, -10, 10, -10, 10, -10, 10, -10, 10, 10], "withholdReward": false, "trial_id": "practice_1", "block": "test", "trialIndex": 0, "score": 13.5, "costs": 0, "simulationMode": [null, null, null, null, null], "rewards": [10, 10, -10, 10, -10], "path": ["0", "0", "1", "2", "3", "4", "5"], "rt": [581, 525, 891, 128, 121], "actions": ["up", "up", "up", "right", "up"], "actionTimes": [3627, 4663, 6064, 6723, 7373], "queries": {"click": {"state": {"target": [], "time": []}, "edge": {"target": [], "time": []}}, "mouseover": {"state": {"target": [], "time": []}, "edge": {"target": [], "time": []}}, "mouseout": {"state": {"target": ["0"], "time": [3102]}, "edge": {"target": [], "time": []}}}, "displayed_time": "7.91", "trialTime": 10803, "trial_type": "mouselab-mdp", "trial_index": 3, "time_elapsed": 186257, "internal_node_id": "0.0-2.0-2.0-0.0"}}, {"uniqueid": "w73521969:a17902962", "current_trial": 4, "dateTime": 1693580489855, "trialdata": {"revealed_states": [], "clicked_states": [], "num_clicks_accrued": [0, 0, 0, 0, 0, 0, 0, 0, 0, 0, 0, 0, 0], "stateRewards": ["", -10, 10, 10, 10, -10, -10, 10, -10, 10, 10, 10, -10, 10, 10, 10, 10, 10, -10, -10, -10, -10, -10, -10, 10, -10, 10, 10, -10, 10, 10, -10, -10, -10], "withholdReward": false, "trial_id": "practice_2", "block": "test", "trialIndex": 1, "score": 13.5, "costs": 0, "simulationMode": [null, null, null, null, null], "rewards": [-10, 10, -10, 10, 10], "path": ["0", "0", "23", "24", "25", "26", "27"], "rt": [865, 71, 426, 129, 210], "actions": ["left", "left", "left", "up", "up"], "actionTimes": [2563, 3166, 4125, 4801, 5543], "queries": {"click": {"state": {"target": [], "time": []}, "edge": {"target": [], "time": []}}, "mouseover": {"state": {"target": [], "time": []}, "edge": {"target": [], "time": []}}, "mouseout": {"state": {"target": ["0"], "time": [1926]}, "edge": {"target": [], "time": []}}}, "displayed_time": "6.08", "trialTime": 7847, "trial_type": "mouselab-mdp", "trial_index": 4, "time_elapsed": 194318, "internal_node_id": "0.0-2.0-2.0-1.0"}}, {"uniqueid": "w73521969:a17902962", "current_trial": 5, "dateTime": 1693580519311, "trialdata": {"view_history": [{"page_index": 0, "viewing_time": 23070}, {"page_index": 1, "viewing_time": 6386}], "rt": 29456, "trial_id": "mouselab_instructions_2_control", "trial_type": "instructions", "trial_index": 5, "time_elapsed": 223775, "internal_node_id": "0.0-2.0-3.0"}}, {"uniqueid": "w73521969:a17902962", "current_trial": 6, "dateTime": 1693580559221, "trialdata": {"rt": 39907, "response": {"Q0": "The cost for clicking on nodes may vary between nodes.", "Q1": "The better I perform the higher my bonus will be.", "Q2": "No, the amount of cash at each node of the web may be different each time.", "Q3": "To get the highest total score.", "Q4": "Only after moving the spider.", "Q5": "3 seconds"}, "question_order": [0, 1, 2, 3, 4, 5], "correct": {"Q0": "The cost for clicking on nodes may vary between nodes.", "Q1": "The better I perform the higher my bonus will be.", "Q2": "No, the amount of cash at each node of the web may be different each time.", "Q3": "To get the highest total score.", "Q4": "Only before moving the spider.", "Q5": "3 seconds"}, "trial_id": "mouselab_quiz_control", "trial_type": "survey-multi-choice", "trial_index": 6, "time_elapsed": 263685, "internal_node_id": "0.0-2.0-4.0"}}, {"uniqueid": "w73521969:a17902962", "current_trial": 7, "dateTime": 1693580564741, "trialdata": {"success": true, "trial_type": "fullscreen", "trial_index": 7, "time_elapsed": 269205, "internal_node_id": "0.0-2.1-0.1-0.1"}}, {"uniqueid": "w73521969:a17902962", "current_trial": 8, "dateTime": 1693580648841, "trialdata": {"view_history": [{"page_index": 0, "viewing_time": 27984}, {"page_index": 1, "viewing_time": 51909}, {"page_index": 2, "viewing_time": 1803}, {"page_index": 3, "viewing_time": 2402}], "rt": 84098, "trial_id": "mouselab_instructions_1_control", "trial_type": "instructions", "trial_index": 8, "time_elapsed": 353305, "internal_node_id": "0.0-2.1-1.1"}}, {"uniqueid": "w73521969:a17902962", "current_trial": 9, "dateTime": 1693580656276, "trialdata": {"revealed_states": [], "clicked_states": [], "num_clicks_accrued": [0, 0, 0, 0, 0, 0, 0, 0, 0, 0, 0, 0, 0], "stateRewards": ["", 10, 10, -10, 10, -10, -10, 10, 10, -10, -10, -10, 10, -10, 10, 10, -10, 10, -10, -10, 10, -10, -10, -10, -10, -10, 10, -10, 10, -10, 10, -10, 10, 10], "withholdReward": false, "trial_id": "practice_1", "block": "test", "trialIndex": 2, "score": 33.5, "costs": 0, "simulationMode": [null, null, null, null, null], "rewards": [10, -10, 10, 10, 10], "path": ["0", "0", "12", "13", "14", "15", "17"], "rt": [983, 203, 148, 139, 101], "actions": ["right", "right", "right", "up", "right"], "actionTimes": [2558, 3282, 3962, 4624, 5248], "queries": {"click": {"state": {"target": [], "time": []}, "edge": {"target": [], "time": []}}, "mouseover": {"state": {"target": [], "time": []}, "edge": {"target": [], "time": []}}, "mouseout": {"state": {"target": ["12", "0"], "time": [491, 1808]}, "edge": {"target": [], "time": []}}}, "displayed_time": "5.77", "trialTime": 7218, "trial_type": "mouselab-mdp", "trial_index": 9, "time_elapsed": 360740, "internal_node_id": "0.0-2.1-2.1-0.1"}}, {"uniqueid": "w73521969:a17902962", "current_trial": 10, "dateTime": 1693580662944, "trialdata": {"revealed_states": [], "clicked_states": [], "num_clicks_accrued": [0, 0, 0, 0, 0, 0, 0, 0, 0, 0, 0, 0, 0], "stateRewards": ["", -10, 10, 10, 10, -10, -10, 10, -10, 10, 10, 10, -10, 10, 10, 10, 10, 10, -10, -10, -10, -10, -10, -10, 10, -10, 10, 10, -10, 10, 10, -10, -10, -10], "withholdReward": false, "trial_id": "practice_2", "block": "test", "trialIndex": 3, "score": 13.5, "costs": 0, "simulationMode": [null, null, null, null, null], "rewards": [-10, 10, 10, 10, -10], "path": ["0", "0", "1", "2", "3", "4", "5"], "rt": [1128, 136, 354, 89, 105], "actions": ["up", "up", "up", "right", "up"], "actionTimes": [2214, 2877, 3758, 4370, 4993], "queries": {"click": {"state": {"target": [], "time": []}, "edge": {"target": [], "time": []}}, "mouseover": {"state": {"target": [], "time": []}, "edge": {"target": [], "time": []}}, "mouseout": {"state": {"target": ["0", "0"], "time": [514, 5602]}, "edge": {"target": [], "time": []}}}, "displayed_time": "5.51", "trialTime": 6452, "trial_type": "mouselab-mdp", "trial_index": 10, "time_elapsed": 367408, "internal_node_id": "0.0-2.1-2.1-1.1"}}, {"uniqueid": "w73521969:a17902962", "current_trial": 11, "dateTime": 1693580667417, "trialdata": {"view_history": [{"page_index": 0, "viewing_time": 2383}, {"page_index": 1, "viewing_time": 2088}], "rt": 4471, "trial_id": "mouselab_instructions_2_control", "trial_type": "instructions", "trial_index": 11, "time_elapsed": 371881, "internal_node_id": "0.0-2.1-3.1"}}, {"uniqueid": "w73521969:a17902962", "current_trial": 12, "dateTime": 1693580697861, "trialdata": {"rt": 30442, "response": {"Q0": "The cost for clicking on nodes may vary between nodes.", "Q1": "The better I perform the higher my bonus will be.", "Q2": "No, the amount of cash at each node of the web may be different each time.", "Q3": "To get the highest total score.", "Q4": "Only before moving the spider.", "Q5": "3 seconds"}, "question_order": [0, 1, 2, 3, 4, 5], "correct": {"Q0": "The cost for clicking on nodes may vary between nodes.", "Q1": "The better I perform the higher my bonus will be.", "Q2": "No, the amount of cash at each node of the web may be different each time.", "Q3": "To get the highest total score.", "Q4": "Only before moving the spider.", "Q5": "3 seconds"}, "trial_id": "mouselab_quiz_control", "trial_type": "survey-multi-choice", "trial_index": 12, "time_elapsed": 402325, "internal_node_id": "0.0-2.1-4.1"}}, {"uniqueid": "w73521969:a17902962", "current_trial": 13, "dateTime": 1693580703487, "trialdata": {"rt": 5623, "response": {"Q0": "No"}, "question_order": [0], "trial_id": "repeat_check", "trial_type": "survey-multi-choice", "trial_index": 13, "time_elapsed": 407951, "internal_node_id": "0.0-4.0-0.0"}}, {"uniqueid": "w73521969:a17902962", "current_trial": 14, "dateTime": 1693580716576, "trialdata": {"rt": 13086, "stimulus": "\n<h1> Get ready to start the game! </h1>\n\nThank you for reading the instructions. Get ready start with the 40 rounds of this game.\n<br><br>\nIf you need to take a break, feel free to take one after the end of a round, before continuing to the next one.\n<br><br>\nRemember, the more money the spider gets, the bigger your bonus will be!\n<br><br>\n<div style='text-align: center;'>Press <code>space</code> to begin.</div>\n\n<br><br>\n(If, at any point, the <code>space</code> key does not take you to the next page, click once on the text and try again.)", "response": " ", "trial_id": "mdp_ready", "trial_type": "html-keyboard-response", "trial_index": 14, "time_elapsed": 421039, "internal_node_id": "0.0-6.0-0.0"}}, {"uniqueid": "w73521969:a17902962", "current_trial": 15, "dateTime": 1693580756584, "trialdata": {"revealed_states": [], "clicked_states": [], "num_clicks_accrued": [0, 0, 0, 0, 0, 0, 0, 0, 0, 0, 0, 0, 0], "stateRewards": ["", -2, 1, -7, -8, -37, -76, -87, 11, 30, -63, 80, -1, 4, 2, -1, 42, 17, 52, -3, -75, -80, -68, 2, -3, -5, -15, -48, 82, 24, -7, 5, -22, -71], "withholdReward": false, "trial_id": "mdp_trial_1", "block": "test", "trialIndex": 4, "score": -8, "costs": 0, "simulationMode": [null, null, null, null, null], "rewards": [2, -3, -5, -7, 5], "path": ["0", "0", "23", "24", "25", "30", "31"], "rt": [611, 28, 346, 430, 761], "actions": ["left", "left", "left", "down", "right"], "actionTimes": [2599, 3149, 4002, 4946, 6231], "queries": {"click": {"state": {"target": [], "time": []}, "edge": {"target": [], "time": []}}, "mouseover": {"state": {"target": ["0", "12"], "time": [2123, 2257]}, "edge": {"target": [], "time": []}}, "mouseout": {"state": {"target": ["23", "0", "0", "12"], "time": [722, 1055, 2173, 2307]}, "edge": {"target": [], "time": []}}}, "displayed_time": "16.64", "trialTime": 39789, "trial_type": "mouselab-mdp", "trial_index": 15, "time_elapsed": 461048, "internal_node_id": "0.0-6.0-1.0-0.0"}}, {"uniqueid": "w73521969:a17902962", "current_trial": 16, "dateTime": 1693580777252, "trialdata": {"revealed_states": [], "clicked_states": [], "num_clicks_accrued": [0, 0, 0, 0, 0, 0, 0, 0, 0, 0, 0, 0, 0], "stateRewards": ["", -2, -1, -2, -15, 87, 57, 29, -10, 77, -80, -7, 1, -3, 6, 14, -11, 87, -59, 4, -71, 16, -11, 2, 2, -7, 2, -47, 61, 50, 14, -20, 17, 81], "withholdReward": false, "trial_id": "mdp_trial_2", "block": "test", "trialIndex": 5, "score": 62, "costs": 0, "simulationMode": [null, null, null, null, null], "rewards": [-2, -1, -2, -10, 77], "path": ["0", "0", "1", "2", "3", "8", "9"], "rt": [690, 137, 768, 43, 101], "actions": ["up", "up", "up", "left", "up"], "actionTimes": [1482, 2142, 3431, 4012, 4630], "queries": {"click": {"state": {"target": [], "time": []}, "edge": {"target": [], "time": []}}, "mouseover": {"state": {"target": ["0"], "time": [990]}, "edge": {"target": [], "time": []}}, "mouseout": {"state": {"target": ["0", "0"], "time": [522, 1040]}, "edge": {"target": [], "time": []}}}, "displayed_time": "15.31", "trialTime": 20451, "trial_type": "mouselab-mdp", "trial_index": 16, "time_elapsed": 481716, "internal_node_id": "0.0-6.0-1.0-1.0"}}, {"uniqueid": "w73521969:a17902962", "current_trial": 17, "dateTime": 1693580798385, "trialdata": {"revealed_states": [], "clicked_states": [], "num_clicks_accrued": [0, 0, 0, 0, 0, 0, 0, 0, 0, 0, 0, 0, 0], "stateRewards": ["", -1, -4, 8, 8, -68, 47, 24, -7, -61, 49, -69, -1, -1, 8, -7, 42, 1, -45, -11, 10, -63, -6, 1, 4, 6, -16, 79, -37, -58, -12, 81, 18, -53], "withholdReward": false, "trial_id": "mdp_trial_3", "block": "test", "trialIndex": 6, "score": -11, "costs": 0, "simulationMode": [null, null, null, null, null], "rewards": [-1, -1, 8, -11, -6], "path": ["0", "0", "12", "13", "14", "19", "22"], "rt": [945, 550, 391, 238, 443], "actions": ["right", "right", "right", "down", "left"], "actionTimes": [2891, 3962, 4905, 5656, 6632], "queries": {"click": {"state": {"target": [], "time": []}, "edge": {"target": [], "time": []}}, "mouseover": {"state": {"target": [], "time": []}, "edge": {"target": [], "time": []}}, "mouseout": {"state": {"target": [], "time": []}, "edge": {"target": [], "time": []}}}, "displayed_time": "16.29", "trialTime": 20897, "trial_type": "mouselab-mdp", "trial_index": 17, "time_elapsed": 502849, "internal_node_id": "0.0-6.0-1.0-2.0"}}, {"uniqueid": "w73521969:a17902962", "current_trial": 18, "dateTime": 1693580817575, "trialdata": {"revealed_states": [], "clicked_states": [], "num_clicks_accrued": [0, 0, 0, 0, 0, 0, 0, 0, 0, 0, 0, 0, 0], "stateRewards": ["", -1, 3, 1, -11, -22, -36, 19, -5, -70, -52, 50, -2, -4, 4, -2, -41, -83, 29, -2, 22, 10, -6, -2, 3, -2, 14, 54, 44, 77, -9, -65, -37, -40], "withholdReward": false, "trial_id": "mdp_trial_4", "block": "test", "trialIndex": 7, "score": 11, "costs": 0, "simulationMode": [null, null, null, null, null], "rewards": [-1, 3, 1, -11, 19], "path": ["0", "0", "1", "2", "3", "4", "7"], "rt": [1783, 1316, 1722, 131, 460], "actions": ["up", "up", "up", "right", "down"], "actionTimes": [2990, 4853, 7097, 7773, 8750], "queries": {"click": {"state": {"target": [], "time": []}, "edge": {"target": [], "time": []}}, "mouseover": {"state": {"target": [], "time": []}, "edge": {"target": [], "time": []}}, "mouseout": {"state": {"target": [], "time": []}, "edge": {"target": [], "time": []}}}, "displayed_time": "15.41", "trialTime": 18963, "trial_type": "mouselab-mdp", "trial_index": 18, "time_elapsed": 522039, "internal_node_id": "0.0-6.0-1.0-3.0"}}, {"uniqueid": "w73521969:a17902962", "current_trial": 19, "dateTime": 1693580836951, "trialdata": {"revealed_states": [], "clicked_states": [], "num_clicks_accrued": [0, 0, 0, 0, 0, 0, 0, 0, 0, 0, 0, 0, 0], "stateRewards": ["", 2, -2, -8, 9, -20, 55, -58, 14, 42, 2, 36, 1, -3, -5, 5, -58, 57, 60, 16, 57, 30, -70, -2, 1, 3, 10, 59, 23, 77, -13, -26, 88, -72], "withholdReward": false, "trial_id": "mdp_trial_5", "block": "test", "trialIndex": 8, "score": -37, "costs": 0, "simulationMode": [null, null, null, null, null], "rewards": [-2, 1, 3, -13, -26], "path": ["0", "0", "23", "24", "25", "30", "31"], "rt": [2026, 532, 1363, 358, 387], "actions": ["left", "left", "left", "down", "right"], "actionTimes": [3489, 4559, 6445, 7317, 8228], "queries": {"click": {"state": {"target": [], "time": []}, "edge": {"target": [], "time": []}}, "mouseover": {"state": {"target": [], "time": []}, "edge": {"target": [], "time": []}}, "mouseout": {"state": {"target": [], "time": []}, "edge": {"target": [], "time": []}}}, "displayed_time": "15.69", "trialTime": 19159, "trial_type": "mouselab-mdp", "trial_index": 19, "time_elapsed": 541415, "internal_node_id": "0.0-6.0-1.0-4.0"}}, {"uniqueid": "w73521969:a17902962", "current_trial": 20, "dateTime": 1693580857302, "trialdata": {"revealed_states": [], "clicked_states": [], "num_clicks_accrued": [0, 0, 0, 0, 0, 0, 0, 0, 0, 0, 0, 0, 0], "stateRewards": ["", 1, 1, -7, -9, -44, 24, -83, -15, 44, -24, 72, -2, -3, 4, -5, 57, 55, 29, -11, 22, 12, -25, -1, 2, 7, 12, 33, -8, 47, -4, 8, 50, -4], "withholdReward": false, "trial_id": "mdp_trial_6", "block": "test", "trialIndex": 9, "score": 10, "costs": 0, "simulationMode": [null, null, null, null, null], "rewards": [-2, -3, 4, -11, 22], "path": ["0", "0", "12", "13", "14", "19", "20"], "rt": [1015, 401, 504, 254, 787], "actions": ["right", "right", "right", "down", "right"], "actionTimes": [2658, 3585, 4610, 5405, 6718], "queries": {"click": {"state": {"target": [], "time": []}, "edge": {"target": [], "time": []}}, "mouseover": {"state": {"target": [], "time": []}, "edge": {"target": [], "time": []}}, "mouseout": {"state": {"target": [], "time": []}, "edge": {"target": [], "time": []}}}, "displayed_time": "16.34", "trialTime": 20133, "trial_type": "mouselab-mdp", "trial_index": 20, "time_elapsed": 561766, "internal_node_id": "0.0-6.0-1.0-5.0"}}, {"uniqueid": "w73521969:a17902962", "current_trial": 21, "dateTime": 1693580880951, "trialdata": {"revealed_states": [], "clicked_states": [], "num_clicks_accrued": [0, 0, 0, 0, 0, 0, 0, 0, 0, 0, 0, 0, 0], "stateRewards": ["", 2, -3, -2, 14, -4, 85, 46, 15, -28, 41, 31, -1, -1, -1, 5, 62, 79, 57, 12, -73, -64, 86, -1, 1, -3, -5, 68, 11, -32, 8, -80, -21, -56], "withholdReward": false, "trial_id": "mdp_trial_7", "block": "test", "trialIndex": 10, "score": 60, "costs": 0, "simulationMode": [null, null, null, null, null], "rewards": [-1, 1, -3, -5, 68], "path": ["0", "0", "23", "24", "25", "26", "27"], "rt": [2930, 507, 525, 282, 366], "actions": ["left", "left", "left", "up", "up"], "actionTimes": [8369, 9412, 10476, 11295, 12181], "queries": {"click": {"state": {"target": [], "time": []}, "edge": {"target": [], "time": []}}, "mouseover": {"state": {"target": ["0", "28", "27"], "time": [5445, 6155, 6505]}, "edge": {"target": [], "time": []}}, "mouseout": {"state": {"target": ["0", "23", "0", "23", "0", "28"], "time": [2219, 3653, 4402, 4819, 6025, 6221]}, "edge": {"target": [], "time": []}}}, "displayed_time": "19.90", "trialTime": 23424, "trial_type": "mouselab-mdp", "trial_index": 21, "time_elapsed": 585415, "internal_node_id": "0.0-6.0-1.0-6.0"}}, {"uniqueid": "w73521969:a17902962", "current_trial": 22, "dateTime": 1693580902566, "trialdata": {"revealed_states": [], "clicked_states": [], "num_clicks_accrued": [0, 0, 0, 0, 0, 0, 0, 0, 0, 0, 0, 0, 0], "stateRewards": ["", -2, -1, -6, -14, -55, 78, -13, 11, 14, -71, 59, 2, 2, 6, -6, 9, 38, 14, 7, 85, 11, 68, 1, -4, -1, -3, -63, -85, 9, -2, 63, -86, -10], "withholdReward": false, "trial_id": "mdp_trial_8", "block": "test", "trialIndex": 11, "score": 61, "costs": 0, "simulationMode": [null, null, null, null, null], "rewards": [-2, -1, -6, 11, 59], "path": ["0", "0", "1", "2", "3", "8", "11"], "rt": [844, 521, 353, 494, 363], "actions": ["up", "up", "up", "left", "left"], "actionTimes": [3101, 4147, 5016, 6028, 6913], "queries": {"click": {"state": {"target": [], "time": []}, "edge": {"target": [], "time": []}}, "mouseover": {"state": {"target": [], "time": []}, "edge": {"target": [], "time": []}}, "mouseout": {"state": {"target": ["27", "28", "0", "0"], "time": [924, 1041, 1307, 1808]}, "edge": {"target": [], "time": []}}}, "displayed_time": "16.67", "trialTime": 21391, "trial_type": "mouselab-mdp", "trial_index": 22, "time_elapsed": 607030, "internal_node_id": "0.0-6.0-1.0-7.0"}}, {"uniqueid": "w73521969:a17902962", "current_trial": 23, "dateTime": 1693580921998, "trialdata": {"revealed_states": [], "clicked_states": [], "num_clicks_accrued": [0, 0, 0, 0, 0, 0, 0, 0, 0, 0, 0, 0, 0], "stateRewards": ["", -2, 3, -5, -7, 66, 43, -60, -4, -70, -75, 4, -1, 2, 2, -13, 54, 11, -40, -1, 77, 32, 15, -2, 3, -8, -9, -35, 83, -27, 6, -74, -34, 44], "withholdReward": false, "trial_id": "mdp_trial_9", "block": "test", "trialIndex": 12, "score": -50, "costs": 0, "simulationMode": [null, null, null, null, null], "rewards": [-1, 2, 2, -13, -40], "path": ["0", "0", "12", "13", "14", "15", "18"], "rt": [1587, 283, 256, 136, 305], "actions": ["right", "right", "right", "up", "left"], "actionTimes": [3097, 3914, 4689, 5349, 6196], "queries": {"click": {"state": {"target": [], "time": []}, "edge": {"target": [], "time": []}}, "mouseover": {"state": {"target": [], "time": []}, "edge": {"target": [], "time": []}}, "mouseout": {"state": {"target": ["0"], "time": [1366]}, "edge": {"target": [], "time": []}}}, "displayed_time": "15.94", "trialTime": 19200, "trial_type": "mouselab-mdp", "trial_index": 23, "time_elapsed": 626461, "internal_node_id": "0.0-6.0-1.0-8.0"}}, {"uniqueid": "w73521969:a17902962", "current_trial": 24, "dateTime": 1693580940839, "trialdata": {"revealed_states": [], "clicked_states": [], "num_clicks_accrued": [0, 0, 0, 0, 0, 0, 0, 0, 0, 0, 0, 0, 0], "stateRewards": ["", -2, 2, -5, 1, 42, -63, -58, -6, 2, 16, 81, -2, 4, 7, -10, 33, 3, -33, -2, -52, -84, -27, 2, -3, -3, 15, -74, -14, -5, -5, -84, 79, -31], "withholdReward": false, "trial_id": "mdp_trial_10", "block": "test", "trialIndex": 13, "score": -63, "costs": 0, "simulationMode": [null, null, null, null, null], "rewards": [2, -3, -3, 15, -74], "path": ["0", "0", "23", "24", "25", "26", "27"], "rt": [876, 1092, 481, 241, 277], "actions": ["left", "left", "left", "up", "up"], "actionTimes": [1895, 3518, 4530, 5291, 6097], "queries": {"click": {"state": {"target": [], "time": []}, "edge": {"target": [], "time": []}}, "mouseover": {"state": {"target": [], "time": []}, "edge": {"target": [], "time": []}}, "mouseout": {"state": {"target": ["0"], "time": [878]}, "edge": {"target": [], "time": []}}}, "displayed_time": "15.35", "trialTime": 18604, "trial_type": "mouselab-mdp", "trial_index": 24, "time_elapsed": 645303, "internal_node_id": "0.0-6.0-1.0-9.0"}}, {"uniqueid": "w73521969:a17902962", "current_trial": 25, "dateTime": 1693580960250, "trialdata": {"revealed_states": [], "clicked_states": [], "num_clicks_accrued": [0, 0, 0, 0, 0, 0, 0, 0, 0, 0, 0, 0, 0], "stateRewards": ["", -1, -3, -5, -14, -13, -47, 79, 8, -60, -64, 41, -1, 2, 3, 13, -46, 61, -79, -11, -64, -65, 23, 1, -2, 6, -14, 46, 32, 21, 7, 75, -66, 15], "withholdReward": false, "trial_id": "mdp_trial_11", "block": "test", "trialIndex": 14, "score": -65, "costs": 0, "simulationMode": [null, null, null, null, null], "rewards": [-1, -3, -5, 8, -64], "path": ["0", "0", "1", "2", "3", "8", "10"], "rt": [894, 306, 649, 572, 223], "actions": ["up", "up", "up", "left", "down"], "actionTimes": [1855, 2693, 3889, 4998, 5757], "queries": {"click": {"state": {"target": [], "time": []}, "edge": {"target": [], "time": []}}, "mouseover": {"state": {"target": [], "time": []}, "edge": {"target": [], "time": []}}, "mouseout": {"state": {"target": ["0"], "time": [822]}, "edge": {"target": [], "time": []}}}, "displayed_time": "15.52", "trialTime": 19182, "trial_type": "mouselab-mdp", "trial_index": 25, "time_elapsed": 664714, "internal_node_id": "0.0-6.0-1.0-10.0"}}, {"uniqueid": "w73521969:a17902962", "current_trial": 26, "dateTime": 1693580978987, "trialdata": {"revealed_states": [], "clicked_states": [], "num_clicks_accrued": [0, 0, 0, 0, 0, 0, 0, 0, 0, 0, 0, 0, 0], "stateRewards": ["", -1, 1, -6, -1, 80, 23, 2, -11, 73, -81, 59, 1, 3, 5, -1, -26, 28, -3, 16, -59, -13, -50, -2, -2, 2, 15, -50, 86, 17, -4, 37, 35, 44], "withholdReward": false, "trial_id": "mdp_trial_12", "block": "test", "trialIndex": 15, "score": 29, "costs": 0, "simulationMode": [null, null, null, null, null], "rewards": [-2, -2, 2, -4, 35], "path": ["0", "0", "23", "24", "25", "30", "32"], "rt": [1062, 180, 458, 250, 191], "actions": ["left", "left", "left", "down", "down"], "actionTimes": [1908, 2628, 3624, 4394, 5104], "queries": {"click": {"state": {"target": [], "time": []}, "edge": {"target": [], "time": []}}, "mouseover": {"state": {"target": [], "time": []}, "edge": {"target": [], "time": []}}, "mouseout": {"state": {"target": ["0"], "time": [705]}, "edge": {"target": [], "time": []}}}, "displayed_time": "15.49", "trialTime": 18495, "trial_type": "mouselab-mdp", "trial_index": 26, "time_elapsed": 683451, "internal_node_id": "0.0-6.0-1.0-11.0"}}, {"uniqueid": "w73521969:a17902962", "current_trial": 27, "dateTime": 1693580998348, "trialdata": {"revealed_states": [], "clicked_states": [], "num_clicks_accrued": [0, 0, 0, 0, 0, 0, 0, 0, 0, 0, 0, 0, 0], "stateRewards": ["", 2, -3, -8, 14, -7, -51, 73, 2, 36, 36, -43, -1, 3, -4, 1, 6, 87, -65, 15, 61, -42, -83, -1, 3, -2, -7, 30, -48, 35, 13, 26, 60, 78], "withholdReward": false, "trial_id": "mdp_trial_13", "block": "test", "trialIndex": 16, "score": -46, "costs": 0, "simulationMode": [null, null, null, null, null], "rewards": [2, -3, -8, 14, -51], "path": ["0", "0", "1", "2", "3", "4", "6"], "rt": [819, 56, 369, 462, 266], "actions": ["up", "up", "up", "right", "right"], "actionTimes": [1994, 2586, 3478, 4468, 5262], "queries": {"click": {"state": {"target": [], "time": []}, "edge": {"target": [], "time": []}}, "mouseover": {"state": {"target": [], "time": []}, "edge": {"target": [], "time": []}}, "mouseout": {"state": {"target": ["0"], "time": [1028]}, "edge": {"target": [], "time": []}}}, "displayed_time": "15.55", "trialTime": 19115, "trial_type": "mouselab-mdp", "trial_index": 27, "time_elapsed": 702811, "internal_node_id": "0.0-6.0-1.0-12.0"}}, {"uniqueid": "w73521969:a17902962", "current_trial": 28, "dateTime": 1693581017123, "trialdata": {"revealed_states": [], "clicked_states": [], "num_clicks_accrued": [0, 0, 0, 0, 0, 0, 0, 0, 0, 0, 0, 0, 0], "stateRewards": ["", -2, -4, -2, 10, -8, -15, -47, 7, -84, 53, 5, -1, 2, -7, 3, 83, 31, 47, -1, 30, -8, 69, 2, -4, -1, 8, -7, 12, -8, -8, -13, 30, -84], "withholdReward": false, "trial_id": "mdp_trial_14", "block": "test", "trialIndex": 17, "score": 52, "costs": 0, "simulationMode": [null, null, null, null, null], "rewards": [-2, -4, -2, 7, 53], "path": ["0", "0", "1", "2", "3", "8", "10"], "rt": [1126, 757, 1385, 1114, 326], "actions": ["up", "up", "up", "left", "down"], "actionTimes": [1824, 3105, 5022, 6666, 7516], "queries": {"click": {"state": {"target": [], "time": []}, "edge": {"target": [], "time": []}}, "mouseover": {"state": {"target": [], "time": []}, "edge": {"target": [], "time": []}}, "mouseout": {"state": {"target": ["0"], "time": [549]}, "edge": {"target": [], "time": []}}}, "displayed_time": "15.13", "trialTime": 18528, "trial_type": "mouselab-mdp", "trial_index": 28, "time_elapsed": 721587, "internal_node_id": "0.0-6.0-1.0-13.0"}}, {"uniqueid": "w73521969:a17902962", "current_trial": 29, "dateTime": 1693581035633, "trialdata": {"revealed_states": [], "clicked_states": [], "num_clicks_accrued": [0, 0, 0, 0, 0, 0, 0, 0, 0, 0, 0, 0, 0], "stateRewards": ["", 2, -4, 1, -12, -59, -53, -74, 16, -88, -66, 66, 1, -2, 8, -9, -14, 22, 25, -1, -39, 47, -14, -1, -1, -2, 1, -4, 52, -26, 15, -7, 46, 43], "withholdReward": false, "trial_id": "mdp_trial_15", "block": "test", "trialIndex": 18, "score": -72, "costs": 0, "simulationMode": [null, null, null, null, null], "rewards": [2, -4, 1, -12, -59], "path": ["0", "0", "1", "2", "3", "4", "5"], "rt": [908, 163, 269, 756, 660], "actions": ["up", "up", "up", "right", "up"], "actionTimes": [1901, 2591, 3385, 4688, 5891], "queries": {"click": {"state": {"target": [], "time": []}, "edge": {"target": [], "time": []}}, "mouseover": {"state": {"target": [], "time": []}, "edge": {"target": [], "time": []}}, "mouseout": {"state": {"target": ["0"], "time": [850]}, "edge": {"target": [], "time": []}}}, "displayed_time": "15.52", "trialTime": 18262, "trial_type": "mouselab-mdp", "trial_index": 29, "time_elapsed": 740096, "internal_node_id": "0.0-6.0-1.0-14.0"}}, {"uniqueid": "w73521969:a17902962", "current_trial": 30, "dateTime": 1693581056179, "trialdata": {"revealed_states": [], "clicked_states": [], "num_clicks_accrued": [0, 0, 0, 0, 0, 0, 0, 0, 0, 0, 0, 0, 0], "stateRewards": ["", -1, 1, -2, 5, 73, 15, 61, 8, 7, 38, 76, 2, 2, -4, -6, -6, -26, 43, -5, -45, -85, -35, -2, 1, -4, 15, -10, 69, 72, -11, 84, -49, -38], "withholdReward": false, "trial_id": "mdp_trial_16", "block": "test", "trialIndex": 19, "score": -90, "costs": 0, "simulationMode": [null, null, null, null, null], "rewards": [2, 2, -4, -5, -85], "path": ["0", "0", "12", "13", "14", "19", "21"], "rt": [867, 130, 591, 52, 104], "actions": ["right", "right", "right", "down", "down"], "actionTimes": [1934, 2586, 3697, 4279, 4903], "queries": {"click": {"state": {"target": [], "time": []}, "edge": {"target": [], "time": []}}, "mouseover": {"state": {"target": [], "time": []}, "edge": {"target": [], "time": []}}, "mouseout": {"state": {"target": ["0"], "time": [922]}, "edge": {"target": [], "time": []}}}, "displayed_time": "15.41", "trialTime": 20316, "trial_type": "mouselab-mdp", "trial_index": 30, "time_elapsed": 760643, "internal_node_id": "0.0-6.0-1.0-15.0"}}, {"uniqueid": "w73521969:a17902962", "current_trial": 31, "dateTime": 1693581076031, "trialdata": {"revealed_states": [], "clicked_states": [], "num_clicks_accrued": [0, 0, 0, 0, 0, 0, 0, 0, 0, 0, 0, 0, 0], "stateRewards": ["", 2, 4, -3, 16, -58, 30, -35, 11, -60, 47, 27, -2, -1, -7, -16, 23, -70, 68, -10, -65, -43, -34, -2, 1, 7, 9, -63, 34, -31, -8, -12, -86, 59], "withholdReward": false, "trial_id": "mdp_trial_17", "block": "test", "trialIndex": 20, "score": -16, "costs": 0, "simulationMode": [null, null, null, null, null], "rewards": [-2, 1, 7, 9, -31], "path": ["0", "0", "23", "24", "25", "26", "29"], "rt": [841, 209, 600, 258, 299], "actions": ["left", "left", "left", "up", "left"], "actionTimes": [2805, 3536, 4676, 5465, 6298], "queries": {"click": {"state": {"target": [], "time": []}, "edge": {"target": [], "time": []}}, "mouseover": {"state": {"target": [], "time": []}, "edge": {"target": [], "time": []}}, "mouseout": {"state": {"target": ["0"], "time": [1812]}, "edge": {"target": [], "time": []}}}, "displayed_time": "16.32", "trialTime": 19599, "trial_type": "mouselab-mdp", "trial_index": 31, "time_elapsed": 780495, "internal_node_id": "0.0-6.0-1.0-16.0"}}, {"uniqueid": "w73521969:a17902962", "current_trial": 32, "dateTime": 1693581095070, "trialdata": {"revealed_states": [], "clicked_states": [], "num_clicks_accrued": [0, 0, 0, 0, 0, 0, 0, 0, 0, 0, 0, 0, 0], "stateRewards": ["", -1, 2, 5, -6, 13, -64, -47, 8, -79, -80, -33, 1, 2, -2, -16, 56, -71, -10, 3, 29, 44, 85, -1, 4, 5, 4, -36, -56, 19, 8, 52, -13, -2], "withholdReward": false, "trial_id": "mdp_trial_18", "block": "test", "trialIndex": 21, "score": -66, "costs": 0, "simulationMode": [null, null, null, null, null], "rewards": [-1, 2, 5, 8, -80], "path": ["0", "0", "1", "2", "3", "8", "10"], "rt": [1810, 654, 1186, 171, 1013], "actions": ["up", "up", "up", "left", "down"], "actionTimes": [3140, 4326, 6036, 6729, 8258], "queries": {"click": {"state": {"target": [], "time": []}, "edge": {"target": [], "time": []}}, "mouseover": {"state": {"target": [], "time": []}, "edge": {"target": [], "time": []}}, "mouseout": {"state": {"target": ["0"], "time": [1178]}, "edge": {"target": [], "time": []}}}, "displayed_time": "15.73", "trialTime": 18789, "trial_type": "mouselab-mdp", "trial_index": 32, "time_elapsed": 799534, "internal_node_id": "0.0-6.0-1.0-17.0"}}, {"uniqueid": "w73521969:a17902962", "current_trial": 33, "dateTime": 1693581113645, "trialdata": {"revealed_states": [], "clicked_states": [], "num_clicks_accrued": [0, 0, 0, 0, 0, 0, 0, 0, 0, 0, 0, 0, 0], "stateRewards": ["", 1, 1, -2, 7, -31, -6, 76, 1, -36, -16, -53, 2, 1, 7, 13, -47, -10, 47, -7, 72, 46, -56, -2, -2, -2, 11, -80, 44, 38, 16, 67, 85, -78], "withholdReward": false, "trial_id": "mdp_trial_19", "block": "test", "trialIndex": 22, "score": -24, "costs": 0, "simulationMode": [null, null, null, null, null], "rewards": [2, 1, 7, 13, -47], "path": ["0", "0", "12", "13", "14", "15", "16"], "rt": [892, 166, 154, 136, 210], "actions": ["right", "right", "right", "up", "up"], "actionTimes": [1909, 2601, 3274, 3941, 4676], "queries": {"click": {"state": {"target": [], "time": []}, "edge": {"target": [], "time": []}}, "mouseover": {"state": {"target": [], "time": []}, "edge": {"target": [], "time": []}}, "mouseout": {"state": {"target": ["0"], "time": [867]}, "edge": {"target": [], "time": []}}}, "displayed_time": "15.32", "trialTime": 18314, "trial_type": "mouselab-mdp", "trial_index": 33, "time_elapsed": 818109, "internal_node_id": "0.0-6.0-1.0-18.0"}}, {"uniqueid": "w73521969:a17902962", "current_trial": 34, "dateTime": 1693581132846, "trialdata": {"revealed_states": [], "clicked_states": ["19"], "num_clicks_accrued": [0, 0, 0, 0, 0, 0, 0, 0, 0, 0, 0, 0, 0], "stateRewards": ["", -2, -3, -7, 7, -54, -69, -4, -14, -77, 22, 40, -2, -1, 5, 6, -35, 50, -60, 10, -28, 75, 57, 1, -4, -2, 2, 68, 34, -18, 12, 3, -21, -43], "withholdReward": false, "trial_id": "mdp_trial_20", "block": "test", "trialIndex": 23, "score": 8.6, "costs": -1.4, "simulationMode": [null, null, null, null, null], "rewards": [1, -4, -2, 12, 3], "path": ["0", "0", "23", "24", "25", "30", "31"], "rt": [2601, 478, 589, 171, 539], "actions": ["left", "left", "left", "down", "right"], "actionTimes": [3085, 4093, 5215, 5902, 6971], "queries": {"click": {"state": {"target": ["19"], "time": [1232]}, "edge": {"target": [], "time": []}}, "mouseover": {"state": {"target": ["0", "19"], "time": [705, 822]}, "edge": {"target": [], "time": []}}, "mouseout": {"state": {"target": ["0", "0"], "time": [341, 729]}, "edge": {"target": [], "time": []}}}, "displayed_time": "14.99", "trialTime": 18951, "trial_type": "mouselab-mdp", "trial_index": 34, "time_elapsed": 837309, "internal_node_id": "0.0-6.0-1.0-19.0"}}, {"uniqueid": "w73521969:a17902962", "current_trial": 35, "dateTime": 1693581151820, "trialdata": {"revealed_states": [], "clicked_states": [], "num_clicks_accrued": [0, 0, 0, 0, 0, 0, 0, 0, 0, 0, 0, 0, 0], "stateRewards": ["", -1, 3, 1, -7, 56, 76, 57, 3, 11, -9, 14, 1, -2, 2, 8, -77, -3, 79, -5, 88, 24, -66, -2, -1, 7, -7, -30, 14, -76, 11, -36, 28, -6], "withholdReward": false, "trial_id": "mdp_trial_21", "block": "test", "trialIndex": 24, "score": 11, "costs": 0, "simulationMode": [null, null, null, null, null], "rewards": [-2, -1, 7, -7, 14], "path": ["0", "0", "23", "24", "25", "26", "28"], "rt": [1372, 271, 508, 43, 404], "actions": ["left", "left", "left", "up", "right"], "actionTimes": [3370, 4164, 5196, 5758, 6693], "queries": {"click": {"state": {"target": [], "time": []}, "edge": {"target": [], "time": []}}, "mouseover": {"state": {"target": [], "time": []}, "edge": {"target": [], "time": []}}, "mouseout": {"state": {"target": ["19", "22", "12"], "time": [496, 612, 696]}, "edge": {"target": [], "time": []}}}, "displayed_time": "16.39", "trialTime": 18697, "trial_type": "mouselab-mdp", "trial_index": 35, "time_elapsed": 856284, "internal_node_id": "0.0-6.0-1.0-20.0"}}, {"uniqueid": "w73521969:a17902962", "current_trial": 36, "dateTime": 1693581169416, "trialdata": {"revealed_states": [], "clicked_states": [], "num_clicks_accrued": [0, 0, 0, 0, 0, 0, 0, 0, 0, 0, 0, 0, 0], "stateRewards": ["", 1, -1, -7, -7, -22, 15, -13, 13, 26, -32, 38, -1, 1, -7, -4, 16, -62, 86, 12, -54, 56, 64, -2, -1, 6, 14, -57, 37, 62, -6, -25, 50, -70], "withholdReward": false, "trial_id": "mdp_trial_22", "block": "test", "trialIndex": 25, "score": 1, "costs": 0, "simulationMode": [null, null, null, null, null], "rewards": [1, -1, -7, -7, 15], "path": ["0", "0", "1", "2", "3", "4", "6"], "rt": [732, 83, 535, 498, 260], "actions": ["up", "up", "up", "right", "right"], "actionTimes": [1197, 1816, 2884, 3917, 4700], "queries": {"click": {"state": {"target": [], "time": []}, "edge": {"target": [], "time": []}}, "mouseover": {"state": {"target": [], "time": []}, "edge": {"target": [], "time": []}}, "mouseout": {"state": {"target": ["0"], "time": [307]}, "edge": {"target": [], "time": []}}}, "displayed_time": "14.57", "trialTime": 17333, "trial_type": "mouselab-mdp", "trial_index": 36, "time_elapsed": 873880, "internal_node_id": "0.0-6.0-1.0-21.0"}}, {"uniqueid": "w73521969:a17902962", "current_trial": 37, "dateTime": 1693581193783, "trialdata": {"revealed_states": [], "clicked_states": [], "num_clicks_accrued": [0, 0, 0, 0, 0, 0, 0, 0, 0, 0, 0, 0, 0], "stateRewards": ["", 2, 3, 6, -5, -74, -53, 17, -12, 46, 44, 18, -2, 4, 1, -8, 22, -23, -49, 9, -45, 55, 81, 1, -1, -7, -16, -83, -71, -45, 2, 51, 82, 61], "withholdReward": false, "trial_id": "mdp_trial_23", "block": "test", "trialIndex": 26, "score": -28, "costs": 0, "simulationMode": [null, null, null, null, null], "rewards": [-2, 4, 1, -8, -23], "path": ["0", "0", "12", "13", "14", "15", "17"], "rt": [719, 55, 78, 51, 27], "actions": ["right", "right", "right", "up", "right"], "actionTimes": [1920, 2498, 3107, 3690, 4258], "queries": {"click": {"state": {"target": [], "time": []}, "edge": {"target": [], "time": []}}, "mouseover": {"state": {"target": [], "time": []}, "edge": {"target": [], "time": []}}, "mouseout": {"state": {"target": ["0"], "time": [1053]}, "edge": {"target": [], "time": []}}}, "displayed_time": "15.66", "trialTime": 24108, "trial_type": "mouselab-mdp", "trial_index": 37, "time_elapsed": 898247, "internal_node_id": "0.0-6.0-1.0-22.0"}}, {"uniqueid": "w73521969:a17902962", "current_trial": 38, "dateTime": 1693581211694, "trialdata": {"revealed_states": [], "clicked_states": [], "num_clicks_accrued": [0, 0, 0, 0, 0, 0, 0, 0, 0, 0, 0, 0, 0], "stateRewards": ["", 1, 4, 7, -16, -84, -6, -46, -12, -7, -49, -26, -1, 2, -4, 2, 22, 37, -64, 1, 88, -13, -10, 1, -4, -2, 5, 2, -10, -34, 9, 66, 55, 38], "withholdReward": false, "trial_id": "mdp_trial_24", "block": "test", "trialIndex": 27, "score": 42, "costs": 0, "simulationMode": [null, null, null, null, null], "rewards": [1, -4, -2, 9, 38], "path": ["0", "0", "23", "24", "25", "30", "33"], "rt": [879, 93, 787, 90, 806], "actions": ["left", "left", "left", "down", "left"], "actionTimes": [1610, 2228, 3545, 4177, 5506], "queries": {"click": {"state": {"target": [], "time": []}, "edge": {"target": [], "time": []}}, "mouseover": {"state": {"target": [], "time": []}, "edge": {"target": [], "time": []}}, "mouseout": {"state": {"target": ["0"], "time": [333]}, "edge": {"target": [], "time": []}}}, "displayed_time": "15.24", "trialTime": 17647, "trial_type": "mouselab-mdp", "trial_index": 38, "time_elapsed": 916158, "internal_node_id": "0.0-6.0-1.0-23.0"}}, {"uniqueid": "w73521969:a17902962", "current_trial": 39, "dateTime": 1693581229433, "trialdata": {"revealed_states": [], "clicked_states": [], "num_clicks_accrued": [0, 0, 0, 0, 0, 0, 0, 0, 0, 0, 0, 0, 0], "stateRewards": ["", 2, 3, 8, 14, 69, -27, 17, 2, -71, -65, -10, 2, -3, 7, 8, 65, -10, 65, -12, 73, -12, 13, -2, -2, 6, 10, -79, -69, -18, 10, -85, 67, 74], "withholdReward": false, "trial_id": "mdp_trial_25", "block": "test", "trialIndex": 28, "score": -18, "costs": 0, "simulationMode": [null, null, null, null, null], "rewards": [2, -3, 7, -12, -12], "path": ["0", "0", "12", "13", "14", "19", "21"], "rt": [1179, 102, 168, 95, 236], "actions": ["right", "right", "right", "down", "down"], "actionTimes": [1621, 2242, 2958, 3598, 4356], "queries": {"click": {"state": {"target": [], "time": []}, "edge": {"target": [], "time": []}}, "mouseover": {"state": {"target": [], "time": []}, "edge": {"target": [], "time": []}}, "mouseout": {"state": {"target": [], "time": []}, "edge": {"target": [], "time": []}}}, "displayed_time": "14.98", "trialTime": 17474, "trial_type": "mouselab-mdp", "trial_index": 39, "time_elapsed": 933897, "internal_node_id": "0.0-6.0-1.0-24.0"}}, {"uniqueid": "w73521969:a17902962", "current_trial": 40, "dateTime": 1693581252689, "trialdata": {"revealed_states": [], "clicked_states": ["30"], "num_clicks_accrued": [0, 0, 0, 0, 0, 0, 0, 0, 0, 0, 0, 0, 0], "stateRewards": ["", 1, 1, 1, 15, -76, 52, -32, 14, -57, 37, 49, 1, -4, -3, 6, 83, -76, 25, 9, 36, -1, -17, -1, 4, 4, -2, -22, -21, 58, -15, -57, 49, -24], "withholdReward": false, "trial_id": "mdp_trial_26", "block": "test", "trialIndex": 29, "score": -17.4, "costs": -1.4, "simulationMode": [null, null, null, null, null], "rewards": [-1, 4, 4, -2, -21], "path": ["0", "0", "23", "24", "25", "26", "28"], "rt": [4471, 188, 359, 137, 38], "actions": ["left", "left", "left", "up", "right"], "actionTimes": [6305, 7026, 7924, 8592, 9171], "queries": {"click": {"state": {"target": ["30"], "time": [2777]}, "edge": {"target": [], "time": []}}, "mouseover": {"state": {"target": ["24", "30", "31", "24"], "time": [2163, 2500, 3328, 3808]}, "edge": {"target": [], "time": []}}, "mouseout": {"state": {"target": ["0", "24", "30", "31", "24", "24"], "time": [1582, 2217, 3183, 3488, 4702, 22604]}, "edge": {"target": [], "time": []}}}, "displayed_time": "16.37", "trialTime": 22988, "trial_type": "mouselab-mdp", "trial_index": 40, "time_elapsed": 957152, "internal_node_id": "0.0-6.0-1.0-25.0"}}, {"uniqueid": "w73521969:a17902962", "current_trial": 41, "dateTime": 1693581269264, "trialdata": {"revealed_states": [], "clicked_states": [], "num_clicks_accrued": [0, 0, 0, 0, 0, 0, 0, 0, 0, 0, 0, 0, 0], "stateRewards": ["", 1, 1, 5, 6, -29, -7, 3, -16, 9, -46, 65, -1, 4, -1, -16, -63, -77, -87, 8, 80, -50, 43, -1, -1, -5, 5, -38, -71, -62, 9, 81, -50, -52], "withholdReward": false, "trial_id": "mdp_trial_27", "block": "test", "trialIndex": 30, "score": 6, "costs": 0, "simulationMode": [null, null, null, null, null], "rewards": [1, 1, 5, 6, -7], "path": ["0", "0", "1", "2", "3", "4", "6"], "rt": [954, 169, 246, 35, 92], "actions": ["up", "up", "up", "right", "right"], "actionTimes": [1896, 2604, 3382, 3942, 4555], "queries": {"click": {"state": {"target": [], "time": []}, "edge": {"target": [], "time": []}}, "mouseover": {"state": {"target": [], "time": []}, "edge": {"target": [], "time": []}}, "mouseout": {"state": {"target": [], "time": []}, "edge": {"target": [], "time": []}}}, "displayed_time": "15.22", "trialTime": 16263, "trial_type": "mouselab-mdp", "trial_index": 41, "time_elapsed": 973728, "internal_node_id": "0.0-6.0-1.0-26.0"}}, {"uniqueid": "w73521969:a17902962", "current_trial": 42, "dateTime": 1693581298253, "trialdata": {"revealed_states": [], "clicked_states": [], "num_clicks_accrued": [0, 0, 0, 0, 0, 0, 0, 0, 0, 0, 0, 0, 0], "stateRewards": ["", 2, 1, -3, 7, 46, 11, -36, 16, 71, 5, 1, 2, -2, -8, -3, -4, 6, 55, 7, 68, -54, 2, 1, 1, 6, -6, 42, -4, -84, -11, -65, 63, 25], "withholdReward": false, "trial_id": "mdp_trial_28", "block": "test", "trialIndex": 31, "score": -5, "costs": 0, "simulationMode": [null, null, null, null, null], "rewards": [2, -2, -8, -3, 6], "path": ["0", "0", "12", "13", "14", "15", "17"], "rt": [1419, 757, 363, 197, 205], "actions": ["right", "right", "right", "up", "right"], "actionTimes": [1857, 3136, 4021, 4751, 5487], "queries": {"click": {"state": {"target": [], "time": []}, "edge": {"target": [], "time": []}}, "mouseover": {"state": {"target": [], "time": []}, "edge": {"target": [], "time": []}}, "mouseout": {"state": {"target": [], "time": []}, "edge": {"target": [], "time": []}}}, "displayed_time": "14.65", "trialTime": 28702, "trial_type": "mouselab-mdp", "trial_index": 42, "time_elapsed": 1002717, "internal_node_id": "0.0-6.0-1.0-27.0"}}, {"uniqueid": "w73521969:a17902962", "current_trial": 43, "dateTime": 1693581314919, "trialdata": {"revealed_states": [], "clicked_states": [], "num_clicks_accrued": [0, 0, 0, 0, 0, 0, 0, 0, 0, 0, 0, 0, 0], "stateRewards": ["", 2, -1, -3, 16, -3, -16, -62, -1, 13, -26, 43, -1, 4, 3, -9, -54, -37, -3, -12, -71, -68, -57, 1, -3, 2, -9, 2, -2, -9, -11, 84, -52, 55], "withholdReward": false, "trial_id": "mdp_trial_29", "block": "test", "trialIndex": 32, "score": -29, "costs": 0, "simulationMode": [null, null, null, null, null], "rewards": [2, -1, -3, -1, -26], "path": ["0", "0", "1", "2", "3", "8", "10"], "rt": [1346, 266, 417, 103, 395], "actions": ["up", "up", "up", "left", "down"], "actionTimes": [1872, 2661, 3601, 4252, 5194], "queries": {"click": {"state": {"target": [], "time": []}, "edge": {"target": [], "time": []}}, "mouseover": {"state": {"target": [], "time": []}, "edge": {"target": [], "time": []}}, "mouseout": {"state": {"target": [], "time": []}, "edge": {"target": [], "time": []}}}, "displayed_time": "14.95", "trialTime": 16349, "trial_type": "mouselab-mdp", "trial_index": 43, "time_elapsed": 1019383, "internal_node_id": "0.0-6.0-1.0-28.0"}}, {"uniqueid": "w73521969:a17902962", "current_trial": 44, "dateTime": 1693581334991, "trialdata": {"revealed_states": [], "clicked_states": [], "num_clicks_accrued": [0, 0, 0, 0, 0, 0, 0, 0, 0, 0, 0, 0, 0], "stateRewards": ["", 1, 4, -4, 14, 35, 51, 19, -13, 54, 78, -74, -2, -1, -3, 13, -11, -42, -73, -15, -24, -3, -69, 2, -1, 5, 16, -27, 73, 58, 9, -60, 5, -60], "withholdReward": false, "trial_id": "mdp_trial_30", "block": "test", "trialIndex": 33, "score": 50, "costs": 0, "simulationMode": [null, null, null, null, null], "rewards": [1, 4, -4, 14, 35], "path": ["0", "0", "1", "2", "3", "4", "5"], "rt": [3041, 458, 499, 412, 278], "actions": ["up", "up", "up", "right", "up"], "actionTimes": [4559, 5532, 6576, 7504, 8327], "queries": {"click": {"state": {"target": [], "time": []}, "edge": {"target": [], "time": []}}, "mouseover": {"state": {"target": [], "time": []}, "edge": {"target": [], "time": []}}, "mouseout": {"state": {"target": [], "time": []}, "edge": {"target": [], "time": []}}}, "displayed_time": "15.92", "trialTime": 19784, "trial_type": "mouselab-mdp", "trial_index": 44, "time_elapsed": 1039455, "internal_node_id": "0.0-6.0-1.0-29.0"}}, {"uniqueid": "w73521969:a17902962", "current_trial": 45, "dateTime": 1693581351920, "trialdata": {"revealed_states": [], "clicked_states": [], "num_clicks_accrued": [0, 0, 0, 0, 0, 0, 0, 0, 0, 0, 0, 0, 0], "stateRewards": ["", 1, 1, -6, -2, 7, 77, 3, 16, -16, 66, 31, -1, 3, -8, -6, 33, -50, -48, 7, -60, -66, 36, 2, -3, 3, -7, -12, -61, -79, -4, 8, 74, -70], "withholdReward": false, "trial_id": "mdp_trial_31", "block": "test", "trialIndex": 34, "score": -60, "costs": 0, "simulationMode": [null, null, null, null, null], "rewards": [-1, 3, -8, -6, -48], "path": ["0", "0", "12", "13", "14", "15", "18"], "rt": [883, 214, 235, 244, 182], "actions": ["right", "right", "right", "up", "left"], "actionTimes": [1490, 2223, 2975, 3735, 4435], "queries": {"click": {"state": {"target": [], "time": []}, "edge": {"target": [], "time": []}}, "mouseover": {"state": {"target": [], "time": []}, "edge": {"target": [], "time": []}}, "mouseout": {"state": {"target": [], "time": []}, "edge": {"target": [], "time": []}}}, "displayed_time": "15.07", "trialTime": 16640, "trial_type": "mouselab-mdp", "trial_index": 45, "time_elapsed": 1056384, "internal_node_id": "0.0-6.0-1.0-30.0"}}, {"uniqueid": "w73521969:a17902962", "current_trial": 46, "dateTime": 1693581368117, "trialdata": {"revealed_states": [], "clicked_states": [], "num_clicks_accrued": [0, 0, 0, 0, 0, 0, 0, 0, 0, 0, 0, 0, 0], "stateRewards": ["", 1, 1, -3, 7, 49, 78, 26, -5, 26, 48, -43, -1, -3, 2, -5, 4, -1, -60, 10, -35, 51, 81, -2, 1, -7, -5, -39, -86, -54, 4, -3, 74, 77], "withholdReward": false, "trial_id": "mdp_trial_32", "block": "test", "trialIndex": 35, "score": -49, "costs": 0, "simulationMode": [null, null, null, null, null], "rewards": [1, 1, -3, -5, -43], "path": ["0", "0", "1", "2", "3", "8", "11"], "rt": [724, 93, 130, 635, 98], "actions": ["up", "up", "up", "left", "left"], "actionTimes": [1172, 1788, 2435, 3586, 4227], "queries": {"click": {"state": {"target": [], "time": []}, "edge": {"target": [], "time": []}}, "mouseover": {"state": {"target": [], "time": []}, "edge": {"target": [], "time": []}}, "mouseout": {"state": {"target": [], "time": []}, "edge": {"target": [], "time": []}}}, "displayed_time": "14.85", "trialTime": 15906, "trial_type": "mouselab-mdp", "trial_index": 46, "time_elapsed": 1072581, "internal_node_id": "0.0-6.0-1.0-31.0"}}, {"uniqueid": "w73521969:a17902962", "current_trial": 47, "dateTime": 1693581385747, "trialdata": {"revealed_states": [], "clicked_states": ["14"], "num_clicks_accrued": [0, 0, 0, 0, 0, 0, 0, 0, 0, 0, 0, 0, 0], "stateRewards": ["", -1, 1, -5, -6, -78, 47, -13, 12, 48, -88, 20, 2, -3, -2, 13, -20, 37, -57, 14, -38, 30, 31, -2, -2, 8, 2, -23, 78, 28, 12, -74, -88, 8], "withholdReward": false, "trial_id": "mdp_trial_33", "block": "test", "trialIndex": 36, "score": 32.6, "costs": -1.4, "simulationMode": [null, null, null, null, null], "rewards": [-2, -2, 8, 2, 28], "path": ["0", "0", "23", "24", "25", "26", "29"], "rt": [5447, 311, 158, 29, 482], "actions": ["left", "left", "left", "up", "left"], "actionTimes": [6284, 7143, 7815, 8359, 9342], "queries": {"click": {"state": {"target": ["14"], "time": [4004]}, "edge": {"target": [], "time": []}}, "mouseover": {"state": {"target": ["12", "13", "18", "14", "14"], "time": [1746, 1821, 2313, 3648, 3782]}, "edge": {"target": [], "time": []}}, "mouseout": {"state": {"target": ["0", "12", "13", "18", "14", "14"], "time": [1696, 1796, 1863, 3098, 3672, 4290]}, "edge": {"target": [], "time": []}}}, "displayed_time": "15.75", "trialTime": 17354, "trial_type": "mouselab-mdp", "trial_index": 47, "time_elapsed": 1090211, "internal_node_id": "0.0-6.0-1.0-32.0"}}, {"uniqueid": "w73521969:a17902962", "current_trial": 48, "dateTime": 1693581405131, "trialdata": {"revealed_states": [], "clicked_states": [], "num_clicks_accrued": [0, 0, 0, 0, 0, 0, 0, 0, 0, 0, 0, 0, 0], "stateRewards": ["", -2, 2, -1, -6, 22, 6, 6, -5, 70, -42, 65, 1, 3, 5, -6, -67, -9, 3, 14, 7, -62, -13, -2, 4, 1, 16, 42, -21, -52, -8, 32, 53, 81], "withholdReward": false, "trial_id": "mdp_trial_34", "block": "test", "trialIndex": 37, "score": 27, "costs": 0, "simulationMode": [null, null, null, null, null], "rewards": [-2, 4, 1, -8, 32], "path": ["0", "0", "23", "24", "25", "30", "31"], "rt": [1135, 75, 219, 67, 133], "actions": ["left", "left", "left", "down", "right"], "actionTimes": [2583, 3207, 3940, 4523, 5199], "queries": {"click": {"state": {"target": [], "time": []}, "edge": {"target": [], "time": []}}, "mouseover": {"state": {"target": [], "time": []}, "edge": {"target": [], "time": []}}, "mouseout": {"state": {"target": ["0"], "time": [1232]}, "edge": {"target": [], "time": []}}}, "displayed_time": "15.83", "trialTime": 19107, "trial_type": "mouselab-mdp", "trial_index": 48, "time_elapsed": 1109595, "internal_node_id": "0.0-6.0-1.0-33.0"}}, {"uniqueid": "w73521969:a17902962", "current_trial": 49, "dateTime": 1693581425579, "trialdata": {"revealed_states": [], "clicked_states": [], "num_clicks_accrued": [0, 0, 0, 0, 0, 0, 0, 0, 0, 0, 0, 0, 0], "stateRewards": ["", 2, -4, 4, 9, 69, 9, -75, 12, -86, 66, 25, -1, 3, 2, -13, -88, -3, 1, 4, -69, 49, -84, 2, -1, 4, 2, -18, -81, -52, -15, -69, -54, 25], "withholdReward": false, "trial_id": "mdp_trial_35", "block": "test", "trialIndex": 38, "score": 15, "costs": 0, "simulationMode": [null, null, null, null, null], "rewards": [2, -1, 4, -15, 25], "path": ["0", "0", "23", "24", "25", "30", "33"], "rt": [803, 109, 143, 120, 212], "actions": ["left", "left", "left", "down", "left"], "actionTimes": [1683, 2321, 2985, 3626, 4357], "queries": {"click": {"state": {"target": [], "time": []}, "edge": {"target": [], "time": []}}, "mouseover": {"state": {"target": [], "time": []}, "edge": {"target": [], "time": []}}, "mouseout": {"state": {"target": [], "time": []}, "edge": {"target": [], "time": []}}}, "displayed_time": "15.42", "trialTime": 20139, "trial_type": "mouselab-mdp", "trial_index": 49, "time_elapsed": 1130043, "internal_node_id": "0.0-6.0-1.0-34.0"}}, {"uniqueid": "w73521969:a17902962", "current_trial": 50, "dateTime": 1693581442784, "trialdata": {"revealed_states": [], "clicked_states": [], "num_clicks_accrued": [0, 0, 0, 0, 0, 0, 0, 0, 0, 0, 0, 0, 0], "stateRewards": ["", -2, -1, -1, 5, -54, -87, 35, 2, -8, 20, -22, 1, 3, 6, 13, -75, -32, -55, -3, 56, 62, -22, -1, -4, -1, -7, -51, 84, 70, 7, -15, 5, 55], "withholdReward": false, "trial_id": "mdp_trial_36", "block": "test", "trialIndex": 39, "score": 36, "costs": 0, "simulationMode": [null, null, null, null, null], "rewards": [-2, -1, -1, 5, 35], "path": ["0", "0", "1", "2", "3", "4", "7"], "rt": [1266, 74, 88, 106, 122], "actions": ["up", "up", "up", "right", "down"], "actionTimes": [1826, 2417, 3053, 3677, 4315], "queries": {"click": {"state": {"target": [], "time": []}, "edge": {"target": [], "time": []}}, "mouseover": {"state": {"target": [], "time": []}, "edge": {"target": [], "time": []}}, "mouseout": {"state": {"target": ["0", "0"], "time": [393, 16865]}, "edge": {"target": [], "time": []}}}, "displayed_time": "14.98", "trialTime": 16920, "trial_type": "mouselab-mdp", "trial_index": 50, "time_elapsed": 1147248, "internal_node_id": "0.0-6.0-1.0-35.0"}}, {"uniqueid": "w73521969:a17902962", "current_trial": 51, "dateTime": 1693581463970, "trialdata": {"revealed_states": [], "clicked_states": [], "num_clicks_accrued": [0, 0, 0, 0, 0, 0, 0, 0, 0, 0, 0, 0, 0], "stateRewards": ["", 1, 1, 4, 11, 83, -66, 18, -16, -23, 5, 25, 1, -3, 1, -12, 18, 24, -86, -11, -64, 36, 40, 2, 1, -6, 13, 55, 29, 72, -2, 81, -72, -41], "withholdReward": false, "trial_id": "mdp_trial_37", "block": "test", "trialIndex": 40, "score": -5, "costs": 0, "simulationMode": [null, null, null, null, null], "rewards": [1, 1, 4, -16, 5], "path": ["0", "0", "1", "2", "3", "8", "10"], "rt": [896, 144, 205, 131, 158], "actions": ["up", "up", "up", "left", "down"], "actionTimes": [1752, 2414, 3136, 3788, 4464], "queries": {"click": {"state": {"target": [], "time": []}, "edge": {"target": [], "time": []}}, "mouseover": {"state": {"target": [], "time": []}, "edge": {"target": [], "time": []}}, "mouseout": {"state": {"target": [], "time": []}, "edge": {"target": [], "time": []}}}, "displayed_time": "15.29", "trialTime": 20847, "trial_type": "mouselab-mdp", "trial_index": 51, "time_elapsed": 1168434, "internal_node_id": "0.0-6.0-1.0-36.0"}}, {"uniqueid": "w73521969:a17902962", "current_trial": 52, "dateTime": 1693581480380, "trialdata": {"revealed_states": [], "clicked_states": [], "num_clicks_accrued": [0, 0, 0, 0, 0, 0, 0, 0, 0, 0, 0, 0, 0], "stateRewards": ["", 1, 1, -3, 2, 22, -25, -11, -5, 50, 49, 3, 1, -1, 8, 14, -85, -30, 57, -6, -39, -16, 59, -2, -1, 5, 5, 59, -16, 8, 4, 67, 56, -9], "withholdReward": false, "trial_id": "mdp_trial_38", "block": "test", "trialIndex": 41, "score": -14, "costs": 0, "simulationMode": [null, null, null, null, null], "rewards": [1, -1, 8, -6, -16], "path": ["0", "0", "12", "13", "14", "19", "21"], "rt": [709, 200, 157, 123, 205], "actions": ["right", "right", "right", "down", "down"], "actionTimes": [1323, 2050, 2722, 3395, 4117], "queries": {"click": {"state": {"target": [], "time": []}, "edge": {"target": [], "time": []}}, "mouseover": {"state": {"target": [], "time": []}, "edge": {"target": [], "time": []}}, "mouseout": {"state": {"target": ["0"], "time": [14249]}, "edge": {"target": [], "time": []}}}, "displayed_time": "15.11", "trialTime": 16115, "trial_type": "mouselab-mdp", "trial_index": 52, "time_elapsed": 1184844, "internal_node_id": "0.0-6.0-1.0-37.0"}}, {"uniqueid": "w73521969:a17902962", "current_trial": 53, "dateTime": 1693581500663, "trialdata": {"revealed_states": [], "clicked_states": [], "num_clicks_accrued": [0, 0, 0, 0, 0, 0, 0, 0, 0, 0, 0, 0, 0], "stateRewards": ["", 1, -1, 1, 13, 31, -56, 72, 2, 41, 5, 63, -2, -3, -2, 3, -71, -26, 52, 13, -31, 24, -67, 2, -2, 5, 4, 66, 43, 72, 9, 86, -26, 44], "withholdReward": false, "trial_id": "mdp_trial_39", "block": "test", "trialIndex": 42, "score": -12, "costs": 0, "simulationMode": [null, null, null, null, null], "rewards": [2, -2, 5, 9, -26], "path": ["0", "0", "23", "24", "25", "30", "32"], "rt": [1636, 68, 137, 79, 179], "actions": ["left", "left", "left", "down", "down"], "actionTimes": [2412, 3010, 3662, 4259, 4960], "queries": {"click": {"state": {"target": [], "time": []}, "edge": {"target": [], "time": []}}, "mouseover": {"state": {"target": [], "time": []}, "edge": {"target": [], "time": []}}, "mouseout": {"state": {"target": ["0"], "time": [1924]}, "edge": {"target": [], "time": []}}}, "displayed_time": "15.37", "trialTime": 19982, "trial_type": "mouselab-mdp", "trial_index": 53, "time_elapsed": 1205127, "internal_node_id": "0.0-6.0-1.0-38.0"}}, {"uniqueid": "w73521969:a17902962", "current_trial": 54, "dateTime": 1693581529909, "trialdata": {"revealed_states": [], "clicked_states": [], "num_clicks_accrued": [0, 0, 0, 0, 0, 0, 0, 0, 0, 0, 0, 0, 0], "stateRewards": ["", -1, 1, 3, -8, -23, -15, -14, -11, -23, 58, 68, 1, 3, 5, 12, -17, -41, -7, -10, -4, 82, 10, 1, 4, -4, 11, 73, 55, -55, -1, -86, -86, 54], "withholdReward": false, "trial_id": "mdp_trial_40", "block": "test", "trialIndex": 43, "score": -28, "costs": 0, "simulationMode": [null, null, null, null, null], "rewards": [-1, 1, 3, -8, -23], "path": ["0", "0", "1", "2", "3", "4", "5"], "rt": [762, 151, 113, 77, 56], "actions": ["up", "up", "up", "right", "up"], "actionTimes": [1633, 2303, 2938, 3537, 4137], "queries": {"click": {"state": {"target": [], "time": []}, "edge": {"target": [], "time": []}}, "mouseover": {"state": {"target": [], "time": []}, "edge": {"target": [], "time": []}}, "mouseout": {"state": {"target": [], "time": []}, "edge": {"target": [], "time": []}}}, "displayed_time": "15.11", "trialTime": 28922, "trial_type": "mouselab-mdp", "trial_index": 54, "time_elapsed": 1234373, "internal_node_id": "0.0-6.0-1.0-39.0"}}, {"uniqueid": "w73521969:a17902962", "current_trial": 55, "dateTime": 1693581601986, "trialdata": {"rt": 72073, "response": {"Q0": "$-2 to $2", "Q1": "$-16 to $16", "Q2": "$-16 to $16", "Q3": "The cost was always $1.4.", "Q4": "Very motivated"}, "question_order": [0, 1, 2, 3, 4], "trial_id": "final_quiz_control", "trial_type": "survey-multi-choice", "trial_index": 55, "time_elapsed": 1306450, "internal_node_id": "0.0-6.0-2.0"}}, {"uniqueid": "w73521969:a17902962", "current_trial": 56, "dateTime": 1693581675715, "trialdata": {"rt": 73721, "response": {"Q0": "I did not use a strategy, I changed my route everytime. I avoided wasting money on seeing the value of the nodes. ", "Q1": "No, I think my performance got worse. ", "Q2": "Difficult, becuase results changed everytime it was not possible to form a winning method. "}, "trial_id": "self_report_control", "trial_type": "survey-text", "trial_index": 56, "time_elapsed": 1380178, "internal_node_id": "0.0-6.0-3.0"}}, {"uniqueid": "w73521969:a17902962", "current_trial": 57, "dateTime": 1693581697678, "trialdata": {"rt": 21961, "response": {"gender": "female", "age": "29", "colorblind": "0", "effort": "0"}, "trial_type": "survey-html-form", "trial_index": 57, "time_elapsed": 1402142, "internal_node_id": "0.0-6.0-4.0"}}, {"uniqueid": "w73521969:a17902962", "current_trial": 58, "dateTime": 1693581717956, "trialdata": {"rt": 20274, "response": {"Q0": "N/A", "Q1": "N/A", "Q2": "N/A"}, "trial_type": "survey-text", "trial_index": 58, "time_elapsed": 1422420, "internal_node_id": "0.0-6.0-5.0"}}, {"uniqueid": "w73521969:a17902962", "current_trial": 59, "dateTime": 1693581754158, "trialdata": {"rt": 36200, "stimulus": "<h1>Completion Code Instructions (1/2)</h1>\n<br><br><br><br>\nYou have reached the end of the experiment! The completion code consists of two parts: (1) a code with 2 characters (2) a code with 6 characters. On this page, you will receive the second part of the code. The first part of the completion code will be on the next page.\n<br><br>\nThe second part of your completion code is: <b>EWEK22</b>\n<br><br>\nPlease note this down. Then, press 'Next' in order to find the first part of your completion code. Once the data has been saved, you will receive this code either in this window or in the original browser window where you started the experiment.\n <br><br>\n<h2 style='color: red;'>Note: this is <strong>NOT</strong> the full completion code. Copy this down and click 'Next' to get the full completion code on the next page.</h2>", "response": 0, "trial_type": "html-button-response", "trial_index": 59, "time_elapsed": 1458622, "internal_node_id": "0.0-6.0-6.0"}}, {"uniqueid": "w73521969:a17902962", "current_trial": 60, "dateTime": 1693581755172, "trialdata": {"success": true, "trial_type": "fullscreen", "trial_index": 60, "time_elapsed": 1459636, "internal_node_id": "0.0-7.0"}}], "questiondata": {"params": {"CODE": "C6DMOQA6", "MIN_TIME": 14, "inspectCost": 1, "startTime": "Fri Sep 01 2023 15:58:14 GMT+0100 (British Summer Time)", "bonusRate": 0.002, "variance": "1_2_4_8_44", "branching": "31123"}, "final_score": -299.2}, "eventdata": [{"eventtype": "initialized", "value": null, "timestamp": 1693580294529, "interval": 0}, {"eventtype": "window_resize", "value": [1024, 768], "timestamp": 1693580294529, "interval": 0}, {"eventtype": "focus", "value": "on", "timestamp": 1693580294648, "interval": 119}, {"eventtype": "window_resize", "value": [1024, 768], "timestamp": 1693580294855, "interval": 207}, {"eventtype": "window_resize", "value": [1920, 976], "timestamp": 1693580299850, "interval": 4995}, {"eventtype": "window_resize", "value": [1920, 1080], "timestamp": 1693580300874, "interval": 1024}, {"eventtype": "focus", "value": "off", "timestamp": 1693580562005, "interval": 261131}, {"eventtype": "focus", "value": "on", "timestamp": 1693580562006, "interval": 1}, {"eventtype": "window_resize", "value": [1920, 976], "timestamp": 1693581754597, "interval": 1192591}], "useragent": "Mozilla/5.0 (Windows NT 10.0; Win64; x64; rv:109.0) Gecko/20100101 Firefox/117.0", "mode": "live", "id": "w73521969:a17902962", "status": "user data saved", "Beginhit": "2023-09-01 14:58:13.23378", "Beginexp": "2023-09-01 14:58:21.586473", "Endhit": "2023-09-01 15:22:35.892011", "psiturkStatus": 3, "browser": "<redacted>", "platform": "windows", "language": "en-GB"}