{"condition": 0, "counterbalance": 0, "assignmentId": "a74901776", "workerId": "w34044210", "hitId": "h37315323", "currenttrial": 28, "bonus": 0, "data": [{"uniqueid": "w34044210:a74901776", "current_trial": 0, "dateTime": 1693660320919, "trialdata": {"success": true, "trial_type": "fullscreen", "trial_index": 0, "time_elapsed": 7034, "internal_node_id": "0.0-0.0"}}, {"uniqueid": "w34044210:a74901776", "current_trial": 1, "dateTime": 1693660328647, "trialdata": {"view_history": [{"page_index": 0, "viewing_time": 7713}], "rt": 7715, "trial_id": "exp_instructions_control", "trial_type": "instructions", "trial_index": 1, "time_elapsed": 14762, "internal_node_id": "0.0-1.0"}}, {"uniqueid": "w34044210:a74901776", "current_trial": 2, "dateTime": 1693660609213, "trialdata": {"view_history": [{"page_index": 0, "viewing_time": 104155}, {"page_index": 1, "viewing_time": 84547}, {"page_index": 2, "viewing_time": 40865}, {"page_index": 3, "viewing_time": 50994}], "rt": 280561, "trial_id": "mouselab_instructions_1_control", "trial_type": "instructions", "trial_index": 2, "time_elapsed": 295329, "internal_node_id": "0.0-2.0-1.0"}}, {"uniqueid": "w34044210:a74901776", "current_trial": 3, "dateTime": 1693660647575, "trialdata": {"revealed_states": [], "clicked_states": ["23", "24", "25"], "num_clicks_accrued": [0, 0, 0, 0, 0, 0, 0, 0, 0, 0, 0, 0, 0], "stateRewards": ["", -10, 10, 10, 10, -10, -10, 10, -10, -10, 10, -10, -10, -10, -10, 10, -10, -10, 10, 10, -10, -10, -10, 10, 10, 10, -10, 10, 10, 10, 10, -10, 10, -10], "withholdReward": false, "trial_id": "practice_1", "block": "test", "trialIndex": 0, "score": 32, "costs": -1.5, "simulationMode": [null, null, null, null, null], "rewards": [10, 10, 10, -10, 10], "path": ["0", "0", "23", "24", "25", "26", "27"], "rt": [13791, 147, 252, 1800, 907], "actions": ["left", "left", "left", "up", "up"], "actionTimes": [19386, 20136, 20947, 23284, 24750], "queries": {"click": {"state": {"target": ["23", "24", "25"], "time": [9564, 12453, 14203]}, "edge": {"target": [], "time": []}}, "mouseover": {"state": {"target": ["23", "24", "25"], "time": [8929, 11693, 13774]}, "edge": {"target": [], "time": []}}, "mouseout": {"state": {"target": ["23", "0", "23", "24", "25"], "time": [2377, 6477, 11561, 13250, 15355]}, "edge": {"target": [], "time": []}}}, "displayed_time": "25.32", "trialTime": 36488, "trial_type": "mouselab-mdp", "trial_index": 3, "time_elapsed": 333690, "internal_node_id": "0.0-2.0-2.0-0.0"}}, {"uniqueid": "w34044210:a74901776", "current_trial": 4, "dateTime": 1693660671026, "trialdata": {"revealed_states": [], "clicked_states": [], "num_clicks_accrued": [0, 0, 0, 0, 0, 0, 0, 0, 0, 0, 0, 0, 0], "stateRewards": ["", -10, -10, 10, -10, 10, -10, 10, -10, -10, 10, -10, 10, -10, -10, -10, 10, -10, -10, 10, -10, -10, -10, -10, 10, 10, -10, 10, 10, 10, -10, -10, -10, 10], "withholdReward": false, "trial_id": "practice_2", "block": "test", "trialIndex": 1, "score": 13.5, "costs": 0, "simulationMode": [null, null, null, null, null], "rewards": [-10, 10, 10, -10, 10], "path": ["0", "0", "23", "24", "25", "26", "27"], "rt": [3717, 553, 35, 798, 644], "actions": ["left", "left", "left", "up", "up"], "actionTimes": [9629, 10750, 11375, 12717, 13933], "queries": {"click": {"state": {"target": [], "time": []}, "edge": {"target": [], "time": []}}, "mouseover": {"state": {"target": [], "time": []}, "edge": {"target": [], "time": []}}, "mouseout": {"state": {"target": ["0", "0"], "time": [4105, 4450]}, "edge": {"target": [], "time": []}}}, "displayed_time": "14.50", "trialTime": 22114, "trial_type": "mouselab-mdp", "trial_index": 4, "time_elapsed": 357141, "internal_node_id": "0.0-2.0-2.0-1.0"}}, {"uniqueid": "w34044210:a74901776", "current_trial": 5, "dateTime": 1693660699410, "trialdata": {"view_history": [{"page_index": 0, "viewing_time": 19855}, {"page_index": 1, "viewing_time": 8521}], "rt": 28377, "trial_id": "mouselab_instructions_2_control", "trial_type": "instructions", "trial_index": 5, "time_elapsed": 385526, "internal_node_id": "0.0-2.0-3.0"}}, {"uniqueid": "w34044210:a74901776", "current_trial": 6, "dateTime": 1693660831248, "trialdata": {"rt": 131793, "response": {"Q0": "The cost for clicking on nodes may vary between nodes.", "Q1": "The better I perform the higher my bonus will be.", "Q2": "No, the amount of cash at each node of the web may be different each time.", "Q3": "To get the highest total score.", "Q4": "Only after moving the spider.", "Q5": "3 seconds"}, "question_order": [0, 1, 2, 3, 4, 5], "correct": {"Q0": "The cost for clicking on nodes may vary between nodes.", "Q1": "The better I perform the higher my bonus will be.", "Q2": "No, the amount of cash at each node of the web may be different each time.", "Q3": "To get the highest total score.", "Q4": "Only before moving the spider.", "Q5": "3 seconds"}, "trial_id": "mouselab_quiz_control", "trial_type": "survey-multi-choice", "trial_index": 6, "time_elapsed": 517364, "internal_node_id": "0.0-2.0-4.0"}}, {"uniqueid": "w34044210:a74901776", "current_trial": 7, "dateTime": 1693660845702, "trialdata": {"success": true, "trial_type": "fullscreen", "trial_index": 7, "time_elapsed": 531818, "internal_node_id": "0.0-2.1-0.1-0.1"}}, {"uniqueid": "w34044210:a74901776", "current_trial": 8, "dateTime": 1693660876630, "trialdata": {"view_history": [{"page_index": 0, "viewing_time": 6323}, {"page_index": 1, "viewing_time": 5584}, {"page_index": 2, "viewing_time": 12792}, {"page_index": 3, "viewing_time": 6224}], "rt": 30924, "trial_id": "mouselab_instructions_1_control", "trial_type": "instructions", "trial_index": 8, "time_elapsed": 562746, "internal_node_id": "0.0-2.1-1.1"}}, {"uniqueid": "w34044210:a74901776", "current_trial": 9, "dateTime": 1693660892617, "trialdata": {"revealed_states": [], "clicked_states": [], "num_clicks_accrued": [0, 0, 0, 0, 0, 0, 0, 0, 0, 0, 0, 0, 0], "stateRewards": ["", -10, 10, 10, 10, -10, -10, 10, -10, -10, 10, -10, -10, -10, -10, 10, -10, -10, 10, 10, -10, -10, -10, 10, 10, 10, -10, 10, 10, 10, 10, -10, 10, -10], "withholdReward": false, "trial_id": "practice_1", "block": "test", "trialIndex": 2, "score": 33.5, "costs": 0, "simulationMode": [null, null, null, null, null], "rewards": [10, 10, 10, -10, 10], "path": ["0", "0", "23", "24", "25", "26", "27"], "rt": [4200, 123, 67, 1169, 36], "actions": ["left", "left", "left", "up", "up"], "actionTimes": [8134, 8833, 9476, 11210, 11809], "queries": {"click": {"state": {"target": [], "time": []}, "edge": {"target": [], "time": []}}, "mouseover": {"state": {"target": [], "time": []}, "edge": {"target": [], "time": []}}, "mouseout": {"state": {"target": ["0"], "time": [4665]}, "edge": {"target": [], "time": []}}}, "displayed_time": "12.37", "trialTime": 14608, "trial_type": "mouselab-mdp", "trial_index": 9, "time_elapsed": 578732, "internal_node_id": "0.0-2.1-2.1-0.1"}}, {"uniqueid": "w34044210:a74901776", "current_trial": 10, "dateTime": 1693660904013, "trialdata": {"revealed_states": [], "clicked_states": [], "num_clicks_accrued": [0, 0, 0, 0, 0, 0, 0, 0, 0, 0, 0, 0, 0], "stateRewards": ["", -10, -10, 10, -10, 10, -10, 10, -10, -10, 10, -10, 10, -10, -10, -10, 10, -10, -10, 10, -10, -10, -10, -10, 10, 10, -10, 10, 10, 10, -10, -10, -10, 10], "withholdReward": false, "trial_id": "practice_2", "block": "test", "trialIndex": 3, "score": 13.5, "costs": 0, "simulationMode": [null, null, null, null, null], "rewards": [-10, 10, 10, -10, 10], "path": ["0", "0", "23", "24", "25", "26", "27"], "rt": [74, 435, 516, 495, 170], "actions": ["left", "left", "left", "up", "up"], "actionTimes": [4320, 4831, 5922, 6977, 7695], "queries": {"click": {"state": {"target": [], "time": []}, "edge": {"target": [], "time": []}}, "mouseover": {"state": {"target": [], "time": []}, "edge": {"target": [], "time": []}}, "mouseout": {"state": {"target": ["0"], "time": [4317]}, "edge": {"target": [], "time": []}}}, "displayed_time": "8.28", "trialTime": 10055, "trial_type": "mouselab-mdp", "trial_index": 10, "time_elapsed": 590128, "internal_node_id": "0.0-2.1-2.1-1.1"}}, {"uniqueid": "w34044210:a74901776", "current_trial": 11, "dateTime": 1693660923064, "trialdata": {"view_history": [{"page_index": 0, "viewing_time": 16358}, {"page_index": 1, "viewing_time": 2687}], "rt": 19046, "trial_id": "mouselab_instructions_2_control", "trial_type": "instructions", "trial_index": 11, "time_elapsed": 609180, "internal_node_id": "0.0-2.1-3.1"}}, {"uniqueid": "w34044210:a74901776", "current_trial": 12, "dateTime": 1693661057734, "trialdata": {"rt": 134663, "response": {"Q0": "The cost for clicking on nodes may vary between nodes.", "Q1": "The better I perform the higher my bonus will be.", "Q2": "No, the amount of cash at each node of the web may be different each time.", "Q3": "To get the highest total score.", "Q4": "Any time during the round.", "Q5": "3 seconds"}, "question_order": [0, 1, 2, 3, 4, 5], "correct": {"Q0": "The cost for clicking on nodes may vary between nodes.", "Q1": "The better I perform the higher my bonus will be.", "Q2": "No, the amount of cash at each node of the web may be different each time.", "Q3": "To get the highest total score.", "Q4": "Only before moving the spider.", "Q5": "3 seconds"}, "trial_id": "mouselab_quiz_control", "trial_type": "survey-multi-choice", "trial_index": 12, "time_elapsed": 743850, "internal_node_id": "0.0-2.1-4.1"}}, {"uniqueid": "w34044210:a74901776", "current_trial": 13, "dateTime": 1693661065265, "trialdata": {"success": true, "trial_type": "fullscreen", "trial_index": 13, "time_elapsed": 751381, "internal_node_id": "0.0-2.2-0.2-0.2"}}, {"uniqueid": "w34044210:a74901776", "current_trial": 14, "dateTime": 1693661114966, "trialdata": {"view_history": [{"page_index": 0, "viewing_time": 14615}, {"page_index": 1, "viewing_time": 31433}, {"page_index": 2, "viewing_time": 2256}, {"page_index": 3, "viewing_time": 1392}], "rt": 49697, "trial_id": "mouselab_instructions_1_control", "trial_type": "instructions", "trial_index": 14, "time_elapsed": 801082, "internal_node_id": "0.0-2.2-1.2"}}, {"uniqueid": "w34044210:a74901776", "current_trial": 15, "dateTime": 1693661128759, "trialdata": {"revealed_states": [], "clicked_states": [], "num_clicks_accrued": [0, 0, 0, 0, 0, 0, 0, 0, 0, 0, 0, 0, 0], "stateRewards": ["", -10, 10, 10, 10, -10, -10, 10, -10, -10, 10, -10, -10, -10, -10, 10, -10, -10, 10, 10, -10, -10, -10, 10, 10, 10, -10, 10, 10, 10, 10, -10, 10, -10], "withholdReward": false, "trial_id": "practice_1", "block": "test", "trialIndex": 4, "score": 33.5, "costs": 0, "simulationMode": [null, null, null, null, null], "rewards": [10, 10, 10, -10, 10], "path": ["0", "0", "23", "24", "25", "26", "27"], "rt": [2289, 61, 164, 114, 107], "actions": ["left", "left", "left", "up", "up"], "actionTimes": [7450, 8045, 8741, 9425, 10076], "queries": {"click": {"state": {"target": [], "time": []}, "edge": {"target": [], "time": []}}, "mouseover": {"state": {"target": [], "time": []}, "edge": {"target": [], "time": []}}, "mouseout": {"state": {"target": ["23", "23", "0", "12", "0"], "time": [1133, 1864, 2787, 3037, 4008]}, "edge": {"target": [], "time": []}}}, "displayed_time": "10.67", "trialTime": 12089, "trial_type": "mouselab-mdp", "trial_index": 15, "time_elapsed": 814874, "internal_node_id": "0.0-2.2-2.2-0.2"}}, {"uniqueid": "w34044210:a74901776", "current_trial": 16, "dateTime": 1693661140630, "trialdata": {"revealed_states": [], "clicked_states": [], "num_clicks_accrued": [0, 0, 0, 0, 0, 0, 0, 0, 0, 0, 0, 0, 0], "stateRewards": ["", -10, -10, 10, -10, 10, -10, 10, -10, -10, 10, -10, 10, -10, -10, -10, 10, -10, -10, 10, -10, -10, -10, -10, 10, 10, -10, 10, 10, 10, -10, -10, -10, 10], "withholdReward": false, "trial_id": "practice_2", "block": "test", "trialIndex": 5, "score": 13.5, "costs": 0, "simulationMode": [null, null, null, null, null], "rewards": [-10, 10, 10, -10, 10], "path": ["0", "0", "23", "24", "25", "26", "27"], "rt": [70, 408, 54, 295, 132], "actions": ["left", "left", "left", "up", "up"], "actionTimes": [5120, 5620, 6222, 7122, 7833], "queries": {"click": {"state": {"target": [], "time": []}, "edge": {"target": [], "time": []}}, "mouseover": {"state": {"target": [], "time": []}, "edge": {"target": [], "time": []}}, "mouseout": {"state": {"target": ["0", "0", "0", "23"], "time": [3091, 5843, 9159, 9406]}, "edge": {"target": [], "time": []}}}, "displayed_time": "8.40", "trialTime": 10183, "trial_type": "mouselab-mdp", "trial_index": 16, "time_elapsed": 826745, "internal_node_id": "0.0-2.2-2.2-1.2"}}, {"uniqueid": "w34044210:a74901776", "current_trial": 17, "dateTime": 1693661152455, "trialdata": {"view_history": [{"page_index": 0, "viewing_time": 9419}, {"page_index": 1, "viewing_time": 2400}], "rt": 11820, "trial_id": "mouselab_instructions_2_control", "trial_type": "instructions", "trial_index": 17, "time_elapsed": 838571, "internal_node_id": "0.0-2.2-3.2"}}, {"uniqueid": "w34044210:a74901776", "current_trial": 18, "dateTime": 1693661186010, "trialdata": {"rt": 33547, "response": {"Q0": "The cost for clicking on nodes may vary between nodes.", "Q1": "The better I perform the higher my bonus will be.", "Q2": "No, the amount of cash at each node of the web may be different each time.", "Q3": "To get the highest total score.", "Q4": "Any time during the round.", "Q5": "3 seconds"}, "question_order": [0, 1, 2, 3, 4, 5], "correct": {"Q0": "The cost for clicking on nodes may vary between nodes.", "Q1": "The better I perform the higher my bonus will be.", "Q2": "No, the amount of cash at each node of the web may be different each time.", "Q3": "To get the highest total score.", "Q4": "Only before moving the spider.", "Q5": "3 seconds"}, "trial_id": "mouselab_quiz_control", "trial_type": "survey-multi-choice", "trial_index": 18, "time_elapsed": 872126, "internal_node_id": "0.0-2.2-4.2"}}, {"uniqueid": "w34044210:a74901776", "current_trial": 19, "dateTime": 1693661197738, "trialdata": {"success": true, "trial_type": "fullscreen", "trial_index": 19, "time_elapsed": 883854, "internal_node_id": "0.0-2.3-0.3-0.3"}}, {"uniqueid": "w34044210:a74901776", "current_trial": 20, "dateTime": 1693661242426, "trialdata": {"view_history": [{"page_index": 0, "viewing_time": 7794}, {"page_index": 1, "viewing_time": 19592}, {"page_index": 2, "viewing_time": 3688}, {"page_index": 3, "viewing_time": 13608}], "rt": 44683, "trial_id": "mouselab_instructions_1_control", "trial_type": "instructions", "trial_index": 20, "time_elapsed": 928542, "internal_node_id": "0.0-2.3-1.3"}}, {"uniqueid": "w34044210:a74901776", "current_trial": 21, "dateTime": 1693661260952, "trialdata": {"revealed_states": [], "clicked_states": ["25", "26"], "num_clicks_accrued": [0, 0, 0, 0, 0, 0, 0, 0, 0, 0, 0, 0, 0], "stateRewards": ["", -10, 10, 10, 10, -10, -10, 10, -10, -10, 10, -10, -10, -10, -10, 10, -10, -10, 10, 10, -10, -10, -10, 10, 10, 10, -10, 10, 10, 10, 10, -10, 10, -10], "withholdReward": false, "trial_id": "practice_1", "block": "test", "trialIndex": 6, "score": 32.5, "costs": -1, "simulationMode": [null, null, null, null, null], "rewards": [10, 10, 10, -10, 10], "path": ["0", "0", "23", "24", "25", "26", "27"], "rt": [6841, 98, 100, 195, 38], "actions": ["left", "left", "left", "up", "up"], "actionTimes": [12149, 12825, 13577, 14261, 14884], "queries": {"click": {"state": {"target": ["25", "26"], "time": [7305, 9367]}, "edge": {"target": [], "time": []}}, "mouseover": {"state": {"target": ["23", "24", "25", "26", "28"], "time": [6595, 6659, 6946, 8695, 10745]}, "edge": {"target": [], "time": []}}, "mouseout": {"state": {"target": ["24", "0", "23", "24", "25", "26"], "time": [3328, 4044, 6651, 6710, 8595, 10627]}, "edge": {"target": [], "time": []}}}, "displayed_time": "15.45", "trialTime": 16783, "trial_type": "mouselab-mdp", "trial_index": 21, "time_elapsed": 947067, "internal_node_id": "0.0-2.3-2.3-0.3"}}, {"uniqueid": "w34044210:a74901776", "current_trial": 22, "dateTime": 1693661275498, "trialdata": {"revealed_states": [], "clicked_states": [], "num_clicks_accrued": [0, 0, 0, 0, 0, 0, 0, 0, 0, 0, 0, 0, 0], "stateRewards": ["", -10, -10, 10, -10, 10, -10, 10, -10, -10, 10, -10, 10, -10, -10, -10, 10, -10, -10, 10, -10, -10, -10, -10, 10, 10, -10, 10, 10, 10, -10, -10, -10, 10], "withholdReward": false, "trial_id": "practice_2", "block": "test", "trialIndex": 7, "score": 13.5, "costs": 0, "simulationMode": [null, null, null, null, null], "rewards": [-10, 10, 10, -10, 10], "path": ["0", "0", "23", "24", "25", "26", "27"], "rt": [85, 64, 1164, 153, 74], "actions": ["left", "left", "left", "up", "up"], "actionTimes": [6666, 6820, 8657, 9385, 10013], "queries": {"click": {"state": {"target": [], "time": []}, "edge": {"target": [], "time": []}}, "mouseover": {"state": {"target": [], "time": []}, "edge": {"target": [], "time": []}}, "mouseout": {"state": {"target": ["28", "0"], "time": [5002, 6662]}, "edge": {"target": [], "time": []}}}, "displayed_time": "10.87", "trialTime": 12876, "trial_type": "mouselab-mdp", "trial_index": 22, "time_elapsed": 961613, "internal_node_id": "0.0-2.3-2.3-1.3"}}, {"uniqueid": "w34044210:a74901776", "current_trial": 23, "dateTime": 1693661289876, "trialdata": {"view_history": [{"page_index": 0, "viewing_time": 12356}, {"page_index": 1, "viewing_time": 2015}], "rt": 14372, "trial_id": "mouselab_instructions_2_control", "trial_type": "instructions", "trial_index": 23, "time_elapsed": 975992, "internal_node_id": "0.0-2.3-3.3"}}, {"uniqueid": "w34044210:a74901776", "current_trial": 24, "dateTime": 1693661461251, "trialdata": {"rt": 171367, "response": {"Q0": "The cost for clicking on nodes may vary between nodes.", "Q1": "I will receive a $1 bonus if I perform well, otherwise I will receive no bonus.", "Q2": "No, the amount of cash at each node of the web may be different each time.", "Q3": "To get the highest total score.", "Q4": "Any time during the round.", "Q5": "3 seconds"}, "question_order": [0, 1, 2, 3, 4, 5], "correct": {"Q0": "The cost for clicking on nodes may vary between nodes.", "Q1": "The better I perform the higher my bonus will be.", "Q2": "No, the amount of cash at each node of the web may be different each time.", "Q3": "To get the highest total score.", "Q4": "Only before moving the spider.", "Q5": "3 seconds"}, "trial_id": "mouselab_quiz_control", "trial_type": "survey-multi-choice", "trial_index": 24, "time_elapsed": 1147367, "internal_node_id": "0.0-2.3-4.3"}}, {"uniqueid": "w34044210:a74901776", "current_trial": 25, "dateTime": 1693661579992, "trialdata": {"rt": 118536, "response": {"Q0": "i thought i answered the questions correctly but obviously misread them some how.", "Q1": "64", "Q2": "Male", "Q3": "no", "Q4": ""}, "trial_id": "finish_fail", "trial_type": "survey-text", "trial_index": 25, "time_elapsed": 1266108, "internal_node_id": "0.0-3.0-0.0"}}, {"uniqueid": "w34044210:a74901776", "current_trial": 26, "dateTime": 1693661613813, "trialdata": {"rt": 33797, "stimulus": "<h1>Completion Code Instructions (1/2)</h1>\n<br><br><br><br>\nYou have reached the end of the experiment! The completion code consists of two parts: (1) a code with 2 characters (2) a code with 6 characters. On this page, you will receive the second part of the code. The first part of the completion code will be on the next page.\n<br><br>\nThe second part of your completion code is: <b>AYIWIP</b>\n<br><br>\nPlease note this down. Then, press 'Next' in order to find the first part of your completion code. Once the data has been saved, you will receive this code either in this window or in the original browser window where you started the experiment.\n <br><br>\n<h2 style='color: red;'>Note: this is <strong>NOT</strong> the full completion code. Copy this down and click 'Next' to get the full completion code on the next page.</h2>", "response": 0, "trial_type": "html-button-response", "trial_index": 26, "time_elapsed": 1299928, "internal_node_id": "0.0-3.0-1.0"}}, {"uniqueid": "w34044210:a74901776", "current_trial": 27, "dateTime": 1693661614823, "trialdata": {"success": true, "trial_type": "fullscreen", "trial_index": 27, "time_elapsed": 1300939, "internal_node_id": "0.0-7.0"}}], "questiondata": {"params": {"CODE": "C6DMOQA6", "MIN_TIME": 14, "inspectCost": 1, "startTime": "Sat Sep 02 2023 14:11:52 GMT+0100 (British Summer Time)", "bonusRate": 0.002, "variance": "1_2_4_8_44", "branching": "31123"}, "final_score": 0}, "eventdata": [{"eventtype": "initialized", "value": null, "timestamp": 1693660312105, "interval": 0}, {"eventtype": "window_resize", "value": [1024, 686], "timestamp": 1693660312105, "interval": 0}, {"eventtype": "window_resize", "value": [1024, 686], "timestamp": 1693660312506, "interval": 401}, {"eventtype": "window_resize", "value": [1280, 702], "timestamp": 1693660316999, "interval": 4493}, {"eventtype": "window_resize", "value": [1280, 800], "timestamp": 1693660320230, "interval": 3231}, {"eventtype": "focus", "value": "off", "timestamp": 1693660842562, "interval": 522332}, {"eventtype": "focus", "value": "on", "timestamp": 1693660842563, "interval": 1}, {"eventtype": "window_resize", "value": [1280, 702], "timestamp": 1693660842789, "interval": 226}, {"eventtype": "window_resize", "value": [1280, 800], "timestamp": 1693660844937, "interval": 2148}, {"eventtype": "focus", "value": "off", "timestamp": 1693661059976, "interval": 215039}, {"eventtype": "focus", "value": "on", "timestamp": 1693661059977, "interval": 1}, {"eventtype": "window_resize", "value": [1280, 702], "timestamp": 1693661060242, "interval": 265}, {"eventtype": "window_resize", "value": [1280, 800], "timestamp": 1693661064497, "interval": 4255}, {"eventtype": "focus", "value": "off", "timestamp": 1693661194908, "interval": 130411}, {"eventtype": "focus", "value": "on", "timestamp": 1693661194910, "interval": 2}, {"eventtype": "window_resize", "value": [1280, 702], "timestamp": 1693661195138, "interval": 228}, {"eventtype": "window_resize", "value": [1280, 800], "timestamp": 1693661196970, "interval": 1832}, {"eventtype": "window_resize", "value": [1280, 702], "timestamp": 1693661434489, "interval": 237519}, {"eventtype": "focus", "value": "off", "timestamp": 1693661573132, "interval": 138643}, {"eventtype": "focus", "value": "on", "timestamp": 1693661573180, "interval": 48}], "useragent": "Mozilla/5.0 (Windows NT 10.0; Win64; x64) AppleWebKit/537.36 (KHTML, like Gecko) Chrome/116.0.0.0 Safari/537.36", "mode": "live", "id": "w34044210:a74901776", "status": "user data saved", "Beginhit": "2023-09-02 13:11:51.39249", "Beginexp": "2023-09-02 13:12:02.3679", "Endhit": "2023-09-02 13:33:36.732267", "psiturkStatus": 3, "browser": "<redacted>", "platform": "windows", "language": "en-GB", "excludeReason": "quizfail"}