{"condition": 1, "counterbalance": 0, "assignmentId": "a86520298", "workerId": "w21420348", "hitId": "h96104500", "currenttrial": 56, "bonus": 0, "data": [{"uniqueid": "w21420348:a86520298", "current_trial": 0, "dateTime": 1693580271254, "trialdata": {"success": true, "trial_type": "fullscreen", "trial_index": 0, "time_elapsed": 18008, "internal_node_id": "0.0-0.0"}}, {"uniqueid": "w21420348:a86520298", "current_trial": 1, "dateTime": 1693580303064, "trialdata": {"view_history": [{"page_index": 0, "viewing_time": 31791}], "rt": 31792, "trial_id": "exp_instructions_misaligned", "trial_type": "instructions", "trial_index": 1, "time_elapsed": 49817, "internal_node_id": "0.0-1.0"}}, {"uniqueid": "w21420348:a86520298", "current_trial": 2, "dateTime": 1693580690762, "trialdata": {"view_history": [{"page_index": 0, "viewing_time": 164014}, {"page_index": 1, "viewing_time": 154482}, {"page_index": 2, "viewing_time": 7483}, {"page_index": 1, "viewing_time": 1180}, {"page_index": 2, "viewing_time": 30117}, {"page_index": 3, "viewing_time": 30401}], "rt": 387677, "trial_id": "mouselab_instructions_1_misaligned", "trial_type": "instructions", "trial_index": 2, "time_elapsed": 437516, "internal_node_id": "0.0-2.0-1.0"}}, {"uniqueid": "w21420348:a86520298", "current_trial": 3, "dateTime": 1693580727558, "trialdata": {"revealed_states": [], "clicked_states": [], "num_clicks_accrued": [0, 0, 0, 0, 0, 0, 0, 0, 0, 0, 0, 0, 0], "stateRewards": ["", -10, -10, -10, -10, -10, 10, 10, -10, 10, -10, 10, -10, 10, 10, -10, -10, 10, -10, 10, -10, 10, -10, 10, 10, 10, -10, -10, -10, -10, -10, 10, 10, -10], "withholdReward": false, "trial_id": "practice_1", "block": "test", "trialIndex": 0, "score": -6.5, "costs": 0, "simulationMode": [null, null, null, null, null, null, null, null, null, null, null, null], "rewards": [-10, -10, 10, 10, 10, -10, -10], "path": ["0", "0", "12", "12", "13", "13", "14", "15", "16"], "rt": [6114, 2439, 1481, 914, 770, 248, 5061, 4515, 1225, 702, 2487, 122], "actions": ["right", "right", "right", "right", "right", "right", "right", "right", "right", "right", "up", "up"], "actionTimes": [2454, 2467, 3966, 3971, 4779, 4786, 9872, 9880, 11130, 11139, 14198, 14879], "queries": {"click": {"state": {"target": [], "time": []}, "edge": {"target": [], "time": []}}, "mouseover": {"state": {"target": ["0"], "time": [null]}, "edge": {"target": [], "time": []}}, "mouseout": {"state": {"target": ["0", "0", "0"], "time": [null, 43, 6033]}, "edge": {"target": [], "time": []}}}, "displayed_time": "15.44", "trialTime": 27699, "trial_type": "mouselab-mdp", "trial_index": 3, "time_elapsed": 474312, "internal_node_id": "0.0-2.0-2.0-0.0"}}, {"uniqueid": "w21420348:a86520298", "current_trial": 4, "dateTime": 1693580756657, "trialdata": {"revealed_states": [], "clicked_states": [], "num_clicks_accrued": [0, 0, 0, 0, 0, 0, 0, 0, 0, 0, 0, 0, 0], "stateRewards": ["", -10, 10, -10, 10, 10, 10, -10, -10, -10, 10, -10, -10, -10, 10, -10, -10, 10, 10, -10, -10, -10, 10, -10, 10, -10, 10, 10, -10, -10, -10, 10, -10, -10], "withholdReward": false, "trial_id": "practice_2", "block": "test", "trialIndex": 1, "score": -26.5, "costs": 0, "simulationMode": [null, null, null, null, null], "rewards": [-10, 10, -10, -10, -10], "path": ["0", "0", "1", "2", "3", "8", "9"], "rt": [8943, 437, 1512, 497, 3076], "actions": ["up", "up", "up", "left", "up"], "actionTimes": [13319, 14317, 16407, 17472, 21139], "queries": {"click": {"state": {"target": [], "time": []}, "edge": {"target": [], "time": []}}, "mouseover": {"state": {"target": [], "time": []}, "edge": {"target": [], "time": []}}, "mouseout": {"state": {"target": ["13", "12", "0"], "time": [3156, 3205, 3509]}, "edge": {"target": [], "time": []}}}, "displayed_time": "21.70", "trialTime": 28332, "trial_type": "mouselab-mdp", "trial_index": 4, "time_elapsed": 503410, "internal_node_id": "0.0-2.0-2.0-1.0"}}, {"uniqueid": "w21420348:a86520298", "current_trial": 5, "dateTime": 1693580799504, "trialdata": {"view_history": [{"page_index": 0, "viewing_time": 27995}, {"page_index": 1, "viewing_time": 14841}], "rt": 42837, "trial_id": "mouselab_instructions_2_misaligned", "trial_type": "instructions", "trial_index": 5, "time_elapsed": 546258, "internal_node_id": "0.0-2.0-3.0"}}, {"uniqueid": "w21420348:a86520298", "current_trial": 6, "dateTime": 1693580869658, "trialdata": {"rt": 70131, "response": {"Q0": "The cost for clicking on nodes may vary between nodes.", "Q1": "The better I perform the higher my bonus will be.", "Q2": "No, the amount of cash at each node of the web may be different each time.", "Q3": "To get the highest total score.", "Q4": "Only before moving the spider.", "Q5": "3 seconds"}, "question_order": [0, 1, 2, 3, 4, 5], "correct": {"Q0": "The cost for clicking on nodes may vary between nodes.", "Q1": "The better I perform the higher my bonus will be.", "Q2": "No, the amount of cash at each node of the web may be different each time.", "Q3": "To get the highest total score.", "Q4": "Only before moving the spider.", "Q5": "3 seconds"}, "trial_id": "mouselab_quiz_misaligned", "trial_type": "survey-multi-choice", "trial_index": 6, "time_elapsed": 616412, "internal_node_id": "0.0-2.0-4.0"}}, {"uniqueid": "w21420348:a86520298", "current_trial": 7, "dateTime": 1693580878014, "trialdata": {"rt": 8338, "response": {"Q0": "No"}, "question_order": [0], "trial_id": "repeat_check", "trial_type": "survey-multi-choice", "trial_index": 7, "time_elapsed": 624768, "internal_node_id": "0.0-4.0-0.0"}}, {"uniqueid": "w21420348:a86520298", "current_trial": 8, "dateTime": 1693580895893, "trialdata": {"rt": 17853, "stimulus": "\n<h1> Get ready to start the game! </h1>\n\nThank you for reading the instructions. Get ready start with the 40 rounds of this game.\n<br><br>\nIf you need to take a break, feel free to take one after the end of a round, before continuing to the next one.\n<br><br>\nRemember, the more money the spider gets, the bigger your bonus will be!\n<br><br>\n<div style='text-align: center;'>Press <code>space</code> to begin.</div>\n\n<br><br>\n(If, at any point, the <code>space</code> key does not take you to the next page, click once on the text and try again.)", "response": " ", "trial_id": "mdp_ready", "trial_type": "html-keyboard-response", "trial_index": 8, "time_elapsed": 642647, "internal_node_id": "0.0-6.0-0.0"}}, {"uniqueid": "w21420348:a86520298", "current_trial": 9, "dateTime": 1693580927179, "trialdata": {"revealed_states": [], "clicked_states": [], "num_clicks_accrued": [0, 0, 0, 0, 0, 0, 0, 0, 0, 0, 0, 0, 0], "stateRewards": ["", 1, -4, -6, -1, -21, 17, -72, 10, 77, 67, -46, -1, 4, -2, 14, -66, -49, -45, -15, -52, 23, -67, 2, -2, -2, 15, -3, 45, -64, 5, -44, 83, 61], "withholdReward": false, "trial_id": "mdp_trial_1", "block": "test", "trialIndex": 2, "score": -51, "costs": 0, "simulationMode": [null, null, null, null, null], "rewards": [-1, 4, -2, 14, -66], "path": ["0", "0", "12", "13", "14", "15", "16"], "rt": [4862, 4339, 338, 1741, 129], "actions": ["right", "right", "right", "up", "up"], "actionTimes": [9812, 14729, 15639, 17897, 18585], "queries": {"click": {"state": {"target": [], "time": []}, "edge": {"target": [], "time": []}}, "mouseover": {"state": {"target": [], "time": []}, "edge": {"target": [], "time": []}}, "mouseout": {"state": {"target": ["0", "0", "0", "11"], "time": [1933, 3859, 21153, 21886]}, "edge": {"target": [], "time": []}}}, "displayed_time": "19.44", "trialTime": 30539, "trial_type": "mouselab-mdp", "trial_index": 9, "time_elapsed": 673933, "internal_node_id": "0.0-6.0-1.0-0.0"}}, {"uniqueid": "w21420348:a86520298", "current_trial": 10, "dateTime": 1693580949206, "trialdata": {"revealed_states": [], "clicked_states": [], "num_clicks_accrued": [0, 0, 0, 0, 0, 0, 0, 0, 0, 0, 0, 0, 0], "stateRewards": ["", -1, 2, -2, 13, -56, -28, 10, 14, 53, -80, -29, 1, -3, -3, -14, 14, 9, -40, -9, 18, 18, 48, 1, 1, 1, -9, 64, -39, -9, 7, -52, -78, 7], "withholdReward": false, "trial_id": "mdp_trial_2", "block": "test", "trialIndex": 3, "score": 66, "costs": 0, "simulationMode": [null, null, null, null, null], "rewards": [-1, 2, -2, 14, 53], "path": ["0", "0", "1", "2", "3", "8", "9"], "rt": [5018, 287, 3119, 174, 1328], "actions": ["up", "up", "up", "left", "up"], "actionTimes": [7588, 8452, 12140, 12895, 14766], "queries": {"click": {"state": {"target": [], "time": []}, "edge": {"target": [], "time": []}}, "mouseover": {"state": {"target": [], "time": []}, "edge": {"target": [], "time": []}}, "mouseout": {"state": {"target": ["11", "10", "0"], "time": [798, 885, 1226]}, "edge": {"target": [], "time": []}}}, "displayed_time": "17.59", "trialTime": 21112, "trial_type": "mouselab-mdp", "trial_index": 10, "time_elapsed": 695959, "internal_node_id": "0.0-6.0-1.0-1.0"}}, {"uniqueid": "w21420348:a86520298", "current_trial": 11, "dateTime": 1693580970428, "trialdata": {"revealed_states": [], "clicked_states": [], "num_clicks_accrued": [0, 0, 0, 0, 0, 0, 0, 0, 0, 0, 0, 0, 0], "stateRewards": ["", -1, 4, 3, 12, -27, 34, -33, 3, -63, 1, 6, 2, 2, -6, -11, -77, -85, 68, -6, 51, 81, -60, -2, -2, 1, 15, 20, 15, 68, -10, -14, 6, -4], "withholdReward": false, "trial_id": "mdp_trial_3", "block": "test", "trialIndex": 4, "score": -9, "costs": 0, "simulationMode": [null, null, null, null, null], "rewards": [-1, 4, 3, 12, -27], "path": ["0", "0", "1", "2", "3", "4", "5"], "rt": [4569, 450, 572, 722, 231], "actions": ["up", "up", "up", "right", "up"], "actionTimes": [6275, 7292, 8424, 9724, 10536], "queries": {"click": {"state": {"target": [], "time": []}, "edge": {"target": [], "time": []}}, "mouseover": {"state": {"target": [], "time": []}, "edge": {"target": [], "time": []}}, "mouseout": {"state": {"target": [], "time": []}, "edge": {"target": [], "time": []}}}, "displayed_time": "16.29", "trialTime": 20097, "trial_type": "mouselab-mdp", "trial_index": 11, "time_elapsed": 717181, "internal_node_id": "0.0-6.0-1.0-2.0"}}, {"uniqueid": "w21420348:a86520298", "current_trial": 12, "dateTime": 1693581000578, "trialdata": {"revealed_states": [], "clicked_states": [], "num_clicks_accrued": [0, 0, 0, 0, 0, 0, 0, 0, 0, 0, 0, 0, 0], "stateRewards": ["", -1, -3, -7, -7, -76, 30, -49, 11, -70, 56, 2, 1, 4, -3, -14, -59, -83, -25, -9, -21, -67, -73, -2, 4, 4, -9, -11, -32, 60, 9, -87, 22, -64], "withholdReward": false, "trial_id": "mdp_trial_4", "block": "test", "trialIndex": 5, "score": -14, "costs": 0, "simulationMode": [null, null, null, null, null], "rewards": [-2, 4, 4, -9, -11], "path": ["0", "0", "23", "24", "25", "26", "27"], "rt": [7375, 133, 455, 1503, 165], "actions": ["left", "left", "left", "up", "up"], "actionTimes": [16588, 17277, 18286, 20335, 21086], "queries": {"click": {"state": {"target": [], "time": []}, "edge": {"target": [], "time": []}}, "mouseover": {"state": {"target": [], "time": []}, "edge": {"target": [], "time": []}}, "mouseout": {"state": {"target": ["0", "0"], "time": [113, 4901]}, "edge": {"target": [], "time": []}}}, "displayed_time": "23.86", "trialTime": 29103, "trial_type": "mouselab-mdp", "trial_index": 12, "time_elapsed": 747331, "internal_node_id": "0.0-6.0-1.0-3.0"}}, {"uniqueid": "w21420348:a86520298", "current_trial": 13, "dateTime": 1693581022329, "trialdata": {"revealed_states": [], "clicked_states": [], "num_clicks_accrued": [0, 0, 0, 0, 0, 0, 0, 0, 0, 0, 0, 0, 0], "stateRewards": ["", -1, 3, -4, -14, 78, 67, 2, 13, -32, 28, 39, -2, 1, -4, -4, -4, -42, -86, 11, 64, -29, -32, -1, -4, 2, -7, 5, 68, -61, 2, -21, 85, 50], "withholdReward": false, "trial_id": "mdp_trial_5", "block": "test", "trialIndex": 6, "score": 51, "costs": 0, "simulationMode": [null, null, null, null, null], "rewards": [-1, 3, -4, -14, 67], "path": ["0", "0", "1", "2", "3", "4", "6"], "rt": [6152, 179, 670, 2091, 639], "actions": ["up", "up", "up", "right", "right"], "actionTimes": [8139, 8865, 10059, 12703, 13899], "queries": {"click": {"state": {"target": [], "time": []}, "edge": {"target": [], "time": []}}, "mouseover": {"state": {"target": ["0"], "time": [2821]}, "edge": {"target": [], "time": []}}, "mouseout": {"state": {"target": ["0", "0"], "time": [2222, 19570]}, "edge": {"target": [], "time": []}}}, "displayed_time": "17.20", "trialTime": 20978, "trial_type": "mouselab-mdp", "trial_index": 13, "time_elapsed": 769082, "internal_node_id": "0.0-6.0-1.0-4.0"}}, {"uniqueid": "w21420348:a86520298", "current_trial": 14, "dateTime": 1693581048285, "trialdata": {"revealed_states": [], "clicked_states": [], "num_clicks_accrued": [0, 0, 0, 0, 0, 0, 0, 0, 0, 0, 0, 0, 0], "stateRewards": ["", -1, -1, 7, -15, -43, -21, -84, -9, -45, -66, 2, 1, -2, 2, 8, -27, 44, -52, -5, -84, 11, 53, 1, 4, -4, 16, 83, -82, -15, -16, 68, -43, 81], "withholdReward": false, "trial_id": "mdp_trial_6", "block": "test", "trialIndex": 7, "score": -18, "costs": 0, "simulationMode": [null, null, null, null, null], "rewards": [1, -2, 2, 8, -27], "path": ["0", "0", "12", "13", "14", "15", "16"], "rt": [7209, 370, 142, 1827, 77], "actions": ["right", "right", "right", "up", "up"], "actionTimes": [9831, 10738, 11413, 13789, 14415], "queries": {"click": {"state": {"target": [], "time": []}, "edge": {"target": [], "time": []}}, "mouseover": {"state": {"target": [], "time": []}, "edge": {"target": [], "time": []}}, "mouseout": {"state": {"target": [], "time": []}, "edge": {"target": [], "time": []}}}, "displayed_time": "17.17", "trialTime": 25199, "trial_type": "mouselab-mdp", "trial_index": 14, "time_elapsed": 795039, "internal_node_id": "0.0-6.0-1.0-5.0"}}, {"uniqueid": "w21420348:a86520298", "current_trial": 15, "dateTime": 1693581093883, "trialdata": {"revealed_states": [], "clicked_states": [], "num_clicks_accrued": [0, 0, 0, 0, 0, 0, 0, 0, 0, 0, 0, 0, 0], "stateRewards": ["", 2, -1, 8, -2, -16, 69, -39, -7, -13, -27, -86, 2, -2, 2, 13, -34, -16, -20, -5, 19, 81, 32, -2, -1, 2, -14, 20, 80, 58, 4, 70, 12, 73], "withholdReward": false, "trial_id": "mdp_trial_7", "block": "test", "trialIndex": 8, "score": -84, "costs": 0, "simulationMode": [null, null, null, null, null], "rewards": [2, -1, 8, -7, -86], "path": ["0", "0", "1", "2", "3", "8", "11"], "rt": [9202, 58, 77, 590, 61], "actions": ["up", "up", "up", "left", "left"], "actionTimes": [36884, 37477, 38106, 39246, 39820], "queries": {"click": {"state": {"target": [], "time": []}, "edge": {"target": [], "time": []}}, "mouseover": {"state": {"target": ["12", "0"], "time": [31989, 34488]}, "edge": {"target": [], "time": []}}, "mouseout": {"state": {"target": ["0", "0", "0", "0", "12", "0"], "time": [12250, 17851, 18291, 31573, 34341, 35332]}, "edge": {"target": [], "time": []}}}, "displayed_time": "42.08", "trialTime": 44501, "trial_type": "mouselab-mdp", "trial_index": 15, "time_elapsed": 840636, "internal_node_id": "0.0-6.0-1.0-6.0"}}, {"uniqueid": "w21420348:a86520298", "current_trial": 16, "dateTime": 1693581118424, "trialdata": {"revealed_states": [], "clicked_states": [], "num_clicks_accrued": [0, 0, 0, 0, 0, 0, 0, 0, 0, 0, 0, 0, 0], "stateRewards": ["", -2, -4, -2, -13, -15, 87, -19, -6, -80, 30, 12, 1, 1, -8, 2, 55, 56, 15, 11, -68, -7, 55, -2, 3, -3, -3, 48, 62, 4, 1, -3, 69, -33], "withholdReward": false, "trial_id": "mdp_trial_8", "block": "test", "trialIndex": 9, "score": 51, "costs": 0, "simulationMode": [null, null, null, null, null], "rewards": [1, 1, -8, 2, 55], "path": ["0", "0", "12", "13", "14", "15", "16"], "rt": [6278, 250, 519, 1489, 91], "actions": ["right", "right", "right", "up", "up"], "actionTimes": [10171, 10984, 12041, 14112, 14759], "queries": {"click": {"state": {"target": [], "time": []}, "edge": {"target": [], "time": []}}, "mouseover": {"state": {"target": ["1", "1"], "time": [6218, 6313]}, "edge": {"target": [], "time": []}}, "mouseout": {"state": {"target": ["0", "0", "22", "31", "23", "23", "1", "12", "12", "0", "0", "1", "1", "0", "23", "0"], "time": [183, 307, 672, 892, 1005, 1288, 1337, 1522, 1743, 2053, 5950, 6251, 8531, 20649, 21099, 21275]}, "edge": {"target": [], "time": []}}}, "displayed_time": "18.56", "trialTime": 23455, "trial_type": "mouselab-mdp", "trial_index": 16, "time_elapsed": 865177, "internal_node_id": "0.0-6.0-1.0-7.0"}}, {"uniqueid": "w21420348:a86520298", "current_trial": 17, "dateTime": 1693581167720, "trialdata": {"revealed_states": [], "clicked_states": ["1"], "num_clicks_accrued": [0, 0, 0, 0, 0, 0, 0, 0, 0, 0, 0, 0, 0], "stateRewards": ["", 2, -1, 5, 8, 75, -35, -77, 1, -9, -81, -58, 1, 2, -7, 5, 77, -16, 19, 16, -10, -18, 40, -2, 3, 7, -5, 64, 1, -62, 10, 27, 10, 65], "withholdReward": false, "trial_id": "mdp_trial_9", "block": "test", "trialIndex": 10, "score": -1.75, "costs": 0.25, "simulationMode": [null, null, null, null, null], "rewards": [2, -1, 5, 1, -9], "path": ["0", "0", "1", "2", "3", "8", "9"], "rt": [4717, 705, 247, 771, 1424], "actions": ["up", "up", "up", "left", "up"], "actionTimes": [29877, 31126, 31973, 33335, 35335], "queries": {"click": {"state": {"target": ["1"], "time": [27157]}, "edge": {"target": [], "time": []}}, "mouseover": {"state": {"target": ["1"], "time": [26377]}, "edge": {"target": [], "time": []}}, "mouseout": {"state": {"target": ["0", "23", "1", "0", "23", "0"], "time": [7570, 7719, 7834, 7940, 8240, 26323]}, "edge": {"target": [], "time": []}}}, "displayed_time": "40.12", "trialTime": 48502, "trial_type": "mouselab-mdp", "trial_index": 17, "time_elapsed": 914474, "internal_node_id": "0.0-6.0-1.0-8.0"}}, {"uniqueid": "w21420348:a86520298", "current_trial": 18, "dateTime": 1693581197875, "trialdata": {"revealed_states": [], "clicked_states": ["12"], "num_clicks_accrued": [0, 0, 0, 0, 0, 0, 0, 0, 0, 0, 0, 0, 0], "stateRewards": ["", -2, -3, -5, 8, 27, 11, 43, -6, -24, -87, 69, -2, 1, 1, 9, 19, 48, -37, 9, -14, 45, 62, 1, 2, 1, 16, -81, -41, 22, 4, -6, -63, 47], "withholdReward": false, "trial_id": "mdp_trial_10", "block": "test", "trialIndex": 11, "score": -60.75, "costs": 0.25, "simulationMode": [null, null, null, null, null], "rewards": [1, 2, 1, 16, -81], "path": ["0", "0", "23", "24", "25", "26", "27"], "rt": [6213, 511, 285, 809, 112], "actions": ["left", "left", "left", "up", "up"], "actionTimes": [13677, 14739, 15595, 16964, 17677], "queries": {"click": {"state": {"target": ["12"], "time": [9085]}, "edge": {"target": [], "time": []}}, "mouseover": {"state": {"target": ["12", "0", "23"], "time": [8276, 11311, 11598]}, "edge": {"target": [], "time": []}}, "mouseout": {"state": {"target": ["1", "0", "12", "0"], "time": [2348, 8226, 11275, 11462]}, "edge": {"target": [], "time": []}}}, "displayed_time": "21.93", "trialTime": 29390, "trial_type": "mouselab-mdp", "trial_index": 18, "time_elapsed": 944628, "internal_node_id": "0.0-6.0-1.0-9.0"}}, {"uniqueid": "w21420348:a86520298", "current_trial": 19, "dateTime": 1693581247201, "trialdata": {"revealed_states": [], "clicked_states": [], "num_clicks_accrued": [0, 0, 0, 0, 0, 0, 0, 0, 0, 0, 0, 0, 0], "stateRewards": ["", 1, 4, -8, -5, -15, -7, 21, 13, -30, 40, -65, 1, 1, 5, -14, 35, 27, -38, -11, 36, -58, -47, -2, 4, -3, 13, -16, -49, 22, 15, -56, -44, -10], "withholdReward": false, "trial_id": "mdp_trial_11", "block": "test", "trialIndex": 12, "score": -55, "costs": 0, "simulationMode": [null, null, null, null, null], "rewards": [1, 4, -8, 13, -65], "path": ["0", "0", "1", "2", "3", "8", "11"], "rt": [6844, 119, 487, 969, 236], "actions": ["up", "up", "up", "left", "left"], "actionTimes": [20210, 20894, 21980, 23511, 24294], "queries": {"click": {"state": {"target": [], "time": []}, "edge": {"target": [], "time": []}}, "mouseover": {"state": {"target": ["23", "0", "1"], "time": [16474, 18502, 18857]}, "edge": {"target": [], "time": []}}, "mouseout": {"state": {"target": ["23", "0", "23", "0", "1"], "time": [12143, 16428, 18443, 18592, 40533]}, "edge": {"target": [], "time": []}}}, "displayed_time": "28.20", "trialTime": 48550, "trial_type": "mouselab-mdp", "trial_index": 19, "time_elapsed": 993954, "internal_node_id": "0.0-6.0-1.0-10.0"}}, {"uniqueid": "w21420348:a86520298", "current_trial": 20, "dateTime": 1693581291125, "trialdata": {"revealed_states": [], "clicked_states": ["12"], "num_clicks_accrued": [0, 0, 0, 0, 0, 0, 0, 0, 0, 0, 0, 0, 0], "stateRewards": ["", 2, 3, 8, 11, 25, -80, 6, -4, -56, 84, -23, -2, -4, -3, 4, -51, -9, -61, -15, -64, 67, -35, 1, -1, -7, -6, 83, 59, -15, 12, -79, 56, 41], "withholdReward": false, "trial_id": "mdp_trial_12", "block": "test", "trialIndex": 13, "score": 43.25, "costs": 0.25, "simulationMode": [null, null, null, null, null], "rewards": [-2, -4, -3, -15, 67], "path": ["0", "0", "12", "13", "14", "19", "21"], "rt": [4542, 480, 751, 588, 74], "actions": ["right", "right", "right", "down", "down"], "actionTimes": [30018, 31107, 32436, 33599, 34213], "queries": {"click": {"state": {"target": ["12"], "time": [27447]}, "edge": {"target": [], "time": []}}, "mouseover": {"state": {"target": ["12"], "time": [26784]}, "edge": {"target": [], "time": []}}, "mouseout": {"state": {"target": ["1", "0"], "time": [2209, 26727]}, "edge": {"target": [], "time": []}}}, "displayed_time": "40.01", "trialTime": 43140, "trial_type": "mouselab-mdp", "trial_index": 20, "time_elapsed": 1037878, "internal_node_id": "0.0-6.0-1.0-11.0"}}, {"uniqueid": "w21420348:a86520298", "current_trial": 21, "dateTime": 1693581315103, "trialdata": {"revealed_states": [], "clicked_states": ["23"], "num_clicks_accrued": [0, 0, 0, 0, 0, 0, 0, 0, 0, 0, 0, 0, 0], "stateRewards": ["", 1, 2, 7, 13, 88, -71, 27, 3, 60, 5, -53, -2, 2, -6, -1, -30, 79, 47, -4, -14, 46, 68, 1, 1, 8, 10, -14, 86, 48, -11, -67, -44, 5], "withholdReward": false, "trial_id": "mdp_trial_13", "block": "test", "trialIndex": 14, "score": -44.75, "costs": 0.25, "simulationMode": [null, null, null, null, null], "rewards": [1, 1, 8, -11, -44], "path": ["0", "0", "23", "24", "25", "30", "32"], "rt": [4327, 180, 348, 580, 426], "actions": ["left", "left", "left", "down", "down"], "actionTimes": [8539, 9305, 10223, 11378, 12357], "queries": {"click": {"state": {"target": ["23"], "time": [6126]}, "edge": {"target": [], "time": []}}, "mouseover": {"state": {"target": ["23"], "time": [5457]}, "edge": {"target": [], "time": []}}, "mouseout": {"state": {"target": ["12", "0"], "time": [821, 5331]}, "edge": {"target": [], "time": []}}}, "displayed_time": "18.69", "trialTime": 23210, "trial_type": "mouselab-mdp", "trial_index": 21, "time_elapsed": 1061857, "internal_node_id": "0.0-6.0-1.0-12.0"}}, {"uniqueid": "w21420348:a86520298", "current_trial": 22, "dateTime": 1693581346512, "trialdata": {"revealed_states": [], "clicked_states": ["1"], "num_clicks_accrued": [0, 0, 0, 0, 0, 0, 0, 0, 0, 0, 0, 0, 0], "stateRewards": ["", 1, 2, 2, -15, -84, 28, -26, 13, 31, 86, 30, -2, 1, -1, -8, 66, -40, -1, -10, -32, 57, -17, 1, 2, -2, 9, -23, 77, 85, 12, -32, -62, -35], "withholdReward": false, "trial_id": "mdp_trial_14", "block": "test", "trialIndex": 15, "score": 49.25, "costs": 0.25, "simulationMode": [null, null, null, null, null], "rewards": [1, 2, 2, 13, 31], "path": ["0", "0", "1", "2", "3", "8", "9"], "rt": [4029, 1301, 170, 837, 1554], "actions": ["up", "up", "up", "left", "up"], "actionTimes": [13057, 14883, 15627, 17004, 19128], "queries": {"click": {"state": {"target": ["1"], "time": [11283]}, "edge": {"target": [], "time": []}}, "mouseover": {"state": {"target": ["1"], "time": [10882]}, "edge": {"target": [], "time": []}}, "mouseout": {"state": {"target": ["23", "0", "0"], "time": [1103, 1360, 10591]}, "edge": {"target": [], "time": []}}}, "displayed_time": "23.55", "trialTime": 30635, "trial_type": "mouselab-mdp", "trial_index": 22, "time_elapsed": 1093265, "internal_node_id": "0.0-6.0-1.0-13.0"}}, {"uniqueid": "w21420348:a86520298", "current_trial": 23, "dateTime": 1693581373811, "trialdata": {"revealed_states": [], "clicked_states": ["12"], "num_clicks_accrued": [0, 0, 0, 0, 0, 0, 0, 0, 0, 0, 0, 0, 0], "stateRewards": ["", -2, 3, -1, 2, -72, 63, 20, -1, 62, -66, 39, -2, 3, -6, 14, 22, 47, 1, 8, -49, -1, -41, 2, 2, -6, -16, -64, -60, -34, 16, 54, 22, -7], "withholdReward": false, "trial_id": "mdp_trial_15", "block": "test", "trialIndex": 16, "score": 65.25, "costs": 0.25, "simulationMode": [null, null, null, null, null], "rewards": [-2, 3, -1, 2, 63], "path": ["0", "0", "1", "2", "3", "4", "6"], "rt": [6696, 191, 165, 882, 57], "actions": ["up", "up", "up", "right", "right"], "actionTimes": [14604, 15342, 16091, 17541, 18146], "queries": {"click": {"state": {"target": ["12"], "time": [9916]}, "edge": {"target": [], "time": []}}, "mouseover": {"state": {"target": ["12", "0", "23"], "time": [9347, 11326, 11535]}, "edge": {"target": [], "time": []}}, "mouseout": {"state": {"target": ["1", "0", "12", "0"], "time": [1537, 9269, 11271, 11429]}, "edge": {"target": [], "time": []}}}, "displayed_time": "22.62", "trialTime": 26516, "trial_type": "mouselab-mdp", "trial_index": 23, "time_elapsed": 1120564, "internal_node_id": "0.0-6.0-1.0-14.0"}}, {"uniqueid": "w21420348:a86520298", "current_trial": 24, "dateTime": 1693581408842, "trialdata": {"revealed_states": [], "clicked_states": ["12"], "num_clicks_accrued": [0, 0, 0, 0, 0, 0, 0, 0, 0, 0, 0, 0, 0], "stateRewards": ["", 1, 2, -3, -6, 50, -7, 7, -7, -80, 21, -1, 2, 2, 4, -1, 33, 84, 1, 14, -53, 81, 6, -2, -2, -3, -9, -87, -38, -59, -5, -74, -3, -71], "withholdReward": false, "trial_id": "mdp_trial_16", "block": "test", "trialIndex": 17, "score": 91.25, "costs": 0.25, "simulationMode": [null, null, null, null, null], "rewards": [2, 2, 4, -1, 84], "path": ["0", "0", "12", "13", "14", "15", "17"], "rt": [3877, 266, 879, 1530, 1264], "actions": ["right", "right", "right", "up", "right"], "actionTimes": [19237, 20039, 21433, 23533, 25349], "queries": {"click": {"state": {"target": ["12"], "time": [17161]}, "edge": {"target": [], "time": []}}, "mouseover": {"state": {"target": ["0", "12"], "time": [16169, 16668]}, "edge": {"target": [], "time": []}}, "mouseout": {"state": {"target": ["23", "0", "0", "0"], "time": [942, 10321, 14530, 16455]}, "edge": {"target": [], "time": []}}}, "displayed_time": "29.90", "trialTime": 34217, "trial_type": "mouselab-mdp", "trial_index": 24, "time_elapsed": 1155596, "internal_node_id": "0.0-6.0-1.0-15.0"}}, {"uniqueid": "w21420348:a86520298", "current_trial": 25, "dateTime": 1693581430043, "trialdata": {"revealed_states": [], "clicked_states": ["23"], "num_clicks_accrued": [0, 0, 0, 0, 0, 0, 0, 0, 0, 0, 0, 0, 0], "stateRewards": ["", -1, 3, 2, 9, 41, 4, -46, -12, -54, -87, -25, 2, 3, -1, 11, -77, 12, -33, -9, -32, 35, 72, 1, 3, -7, 4, 37, 65, -73, 6, 77, -43, 8], "withholdReward": false, "trial_id": "mdp_trial_17", "block": "test", "trialIndex": 18, "score": -71.75, "costs": 0.25, "simulationMode": [null, null, null, null, null], "rewards": [1, 3, -7, 4, -73], "path": ["0", "0", "23", "24", "25", "26", "29"], "rt": [3503, 358, 462, 1430, 405], "actions": ["left", "left", "left", "up", "left"], "actionTimes": [7092, 7976, 8964, 10957, 11939], "queries": {"click": {"state": {"target": ["23"], "time": [5054]}, "edge": {"target": [], "time": []}}, "mouseover": {"state": {"target": ["23"], "time": [4675]}, "edge": {"target": [], "time": []}}, "mouseout": {"state": {"target": ["12", "0", "23"], "time": [869, 4513, 5288]}, "edge": {"target": [], "time": []}}}, "displayed_time": "17.79", "trialTime": 20453, "trial_type": "mouselab-mdp", "trial_index": 25, "time_elapsed": 1176797, "internal_node_id": "0.0-6.0-1.0-16.0"}}, {"uniqueid": "w21420348:a86520298", "current_trial": 26, "dateTime": 1693581450375, "trialdata": {"revealed_states": [], "clicked_states": ["12"], "num_clicks_accrued": [0, 0, 0, 0, 0, 0, 0, 0, 0, 0, 0, 0, 0], "stateRewards": ["", 2, 3, 6, -5, -74, -53, 17, -12, 46, 44, 18, -2, 4, 1, -8, 22, -23, -49, 9, -45, 55, 81, 1, -1, -7, -16, -83, -71, -45, 2, 51, 82, 61], "withholdReward": false, "trial_id": "mdp_trial_18", "block": "test", "trialIndex": 19, "score": -93.75, "costs": 0.25, "simulationMode": [null, null, null, null, null], "rewards": [1, -1, -7, -16, -71], "path": ["0", "0", "23", "24", "25", "26", "28"], "rt": [5004, 56, 901, 588, 423], "actions": ["left", "left", "left", "up", "right"], "actionTimes": [8285, 8873, 10295, 11398, 12395], "queries": {"click": {"state": {"target": ["12"], "time": [5590]}, "edge": {"target": [], "time": []}}, "mouseover": {"state": {"target": ["12", "0", "23"], "time": [5062, 6737, 7024]}, "edge": {"target": [], "time": []}}, "mouseout": {"state": {"target": ["23", "0", "12", "0"], "time": [2139, 4910, 5792, 6843]}, "edge": {"target": [], "time": []}}}, "displayed_time": "18.17", "trialTime": 19573, "trial_type": "mouselab-mdp", "trial_index": 26, "time_elapsed": 1197129, "internal_node_id": "0.0-6.0-1.0-17.0"}}, {"uniqueid": "w21420348:a86520298", "current_trial": 27, "dateTime": 1693581469487, "trialdata": {"revealed_states": [], "clicked_states": ["1"], "num_clicks_accrued": [0, 0, 0, 0, 0, 0, 0, 0, 0, 0, 0, 0, 0], "stateRewards": ["", 1, 1, -7, -9, -44, 24, -83, -15, 44, -24, 72, -2, -3, 4, -5, 57, 55, 29, -11, 22, 12, -25, -1, 2, 7, 12, 33, -8, 47, -4, 8, 50, -4], "withholdReward": false, "trial_id": "mdp_trial_19", "block": "test", "trialIndex": 20, "score": 52.25, "costs": 0.25, "simulationMode": [null, null, null, null, null], "rewards": [1, 1, -7, -15, 72], "path": ["0", "0", "1", "2", "3", "8", "11"], "rt": [3285, 748, 488, 743, 275], "actions": ["up", "up", "up", "left", "left"], "actionTimes": [5162, 6440, 7482, 8812, 9645], "queries": {"click": {"state": {"target": ["1"], "time": [3623]}, "edge": {"target": [], "time": []}}, "mouseover": {"state": {"target": ["1", "1"], "time": [2893, 3213]}, "edge": {"target": [], "time": []}}, "mouseout": {"state": {"target": ["23", "0", "1"], "time": [898, 2802, 2966]}, "edge": {"target": [], "time": []}}}, "displayed_time": "16.56", "trialTime": 17761, "trial_type": "mouselab-mdp", "trial_index": 27, "time_elapsed": 1216240, "internal_node_id": "0.0-6.0-1.0-18.0"}}, {"uniqueid": "w21420348:a86520298", "current_trial": 28, "dateTime": 1693581497053, "trialdata": {"revealed_states": [], "clicked_states": ["1"], "num_clicks_accrued": [0, 0, 0, 0, 0, 0, 0, 0, 0, 0, 0, 0, 0], "stateRewards": ["", -2, -1, -4, -15, -14, -67, 32, -3, -59, 63, 31, 2, -1, -7, -15, 71, -66, -27, -3, -54, -39, 72, 2, 1, 1, -13, 77, -40, 35, -9, 35, 75, 57], "withholdReward": false, "trial_id": "mdp_trial_20", "block": "test", "trialIndex": 21, "score": 63.25, "costs": 0.25, "simulationMode": [null, null, null, null, null], "rewards": [2, -1, -7, -3, 72], "path": ["0", "0", "12", "13", "14", "19", "22"], "rt": [4687, 163, 745, 189, 1378], "actions": ["right", "right", "right", "down", "left"], "actionTimes": [12937, 13677, 14977, 15745, 17660], "queries": {"click": {"state": {"target": ["1"], "time": [10817]}, "edge": {"target": [], "time": []}}, "mouseover": {"state": {"target": ["1", "12"], "time": [10387, 11907]}, "edge": {"target": [], "time": []}}, "mouseout": {"state": {"target": ["1", "0", "1", "12"], "time": [1394, 7437, 11682, 23998]}, "edge": {"target": [], "time": []}}}, "displayed_time": "22.76", "trialTime": 26722, "trial_type": "mouselab-mdp", "trial_index": 28, "time_elapsed": 1243806, "internal_node_id": "0.0-6.0-1.0-19.0"}}, {"uniqueid": "w21420348:a86520298", "current_trial": 29, "dateTime": 1693581517857, "trialdata": {"revealed_states": [], "clicked_states": [], "num_clicks_accrued": [0, 0, 0, 0, 0, 0, 0, 0, 0, 0, 0, 0, 0], "stateRewards": ["", -2, 4, -3, -13, 63, -36, 62, 11, 78, 34, -51, 2, -2, 8, -6, -40, -18, 31, 9, 64, 39, 79, 1, 4, -4, 15, -12, 76, 73, -10, -77, 86, -4], "withholdReward": false, "trial_id": "mdp_trial_21", "block": "test", "trialIndex": 22, "score": 77, "costs": 0, "simulationMode": [null, null, null, null, null], "rewards": [1, 4, -4, -10, 86], "path": ["0", "0", "23", "24", "25", "30", "32"], "rt": [5181, 152, 450, 756, 68], "actions": ["left", "left", "left", "down", "down"], "actionTimes": [7540, 8215, 9204, 10510, 11131], "queries": {"click": {"state": {"target": [], "time": []}, "edge": {"target": [], "time": []}}, "mouseover": {"state": {"target": ["23"], "time": [5287]}, "edge": {"target": [], "time": []}}, "mouseout": {"state": {"target": ["0"], "time": [5220]}, "edge": {"target": [], "time": []}}}, "displayed_time": "16.94", "trialTime": 20040, "trial_type": "mouselab-mdp", "trial_index": 29, "time_elapsed": 1264611, "internal_node_id": "0.0-6.0-1.0-20.0"}}, {"uniqueid": "w21420348:a86520298", "current_trial": 30, "dateTime": 1693581537277, "trialdata": {"revealed_states": [], "clicked_states": ["1"], "num_clicks_accrued": [0, 0, 0, 0, 0, 0, 0, 0, 0, 0, 0, 0, 0], "stateRewards": ["", -1, -2, 8, -6, -79, -6, 87, 9, -5, -66, -38, 2, 2, 5, -6, -82, 74, 85, -8, 67, -30, -15, 1, -2, -2, -2, 87, 64, 49, 7, 2, -38, -9], "withholdReward": false, "trial_id": "mdp_trial_22", "block": "test", "trialIndex": 23, "score": 88.25, "costs": 0.25, "simulationMode": [null, null, null, null, null], "rewards": [2, 2, 5, -6, 85], "path": ["0", "0", "12", "13", "14", "15", "18"], "rt": [3535, 220, 160, 772, 559], "actions": ["right", "right", "right", "up", "left"], "actionTimes": [5971, 6767, 7469, 8777, 9886], "queries": {"click": {"state": {"target": ["1"], "time": [3858]}, "edge": {"target": [], "time": []}}, "mouseover": {"state": {"target": ["1", "12"], "time": [3350, 5028]}, "edge": {"target": [], "time": []}}, "mouseout": {"state": {"target": ["23", "0", "1", "12", "0", "12", "12", "12", "13"], "time": [1388, 1615, 4880, 15449, 16467, 16537, 16776, 17076, 17133]}, "edge": {"target": [], "time": []}}}, "displayed_time": "16.84", "trialTime": 18654, "trial_type": "mouselab-mdp", "trial_index": 30, "time_elapsed": 1284031, "internal_node_id": "0.0-6.0-1.0-21.0"}}, {"uniqueid": "w21420348:a86520298", "current_trial": 31, "dateTime": 1693581557560, "trialdata": {"revealed_states": [], "clicked_states": ["23"], "num_clicks_accrued": [0, 0, 0, 0, 0, 0, 0, 0, 0, 0, 0, 0, 0], "stateRewards": ["", 2, -2, -3, 10, -4, -1, -11, -8, -9, -36, -78, 2, 1, 7, -7, 44, -1, -31, -1, 26, 47, 83, 2, -4, -4, -6, -52, -76, -81, -1, -59, 45, 67], "withholdReward": false, "trial_id": "mdp_trial_23", "block": "test", "trialIndex": 24, "score": 60.25, "costs": 0.25, "simulationMode": [null, null, null, null, null], "rewards": [2, -4, -4, -1, 67], "path": ["0", "0", "23", "24", "25", "30", "33"], "rt": [3321, 148, 212, 630, 1647], "actions": ["left", "left", "left", "down", "left"], "actionTimes": [5286, 6367, 7149, 8326, 10550], "queries": {"click": {"state": {"target": ["23"], "time": [3345]}, "edge": {"target": [], "time": []}}, "mouseover": {"state": {"target": ["23"], "time": [2915]}, "edge": {"target": [], "time": []}}, "mouseout": {"state": {"target": ["0"], "time": [2866]}, "edge": {"target": [], "time": []}}}, "displayed_time": "16.89", "trialTime": 19303, "trial_type": "mouselab-mdp", "trial_index": 31, "time_elapsed": 1304312, "internal_node_id": "0.0-6.0-1.0-22.0"}}, {"uniqueid": "w21420348:a86520298", "current_trial": 32, "dateTime": 1693581578785, "trialdata": {"revealed_states": [], "clicked_states": ["1"], "num_clicks_accrued": [0, 0, 0, 0, 0, 0, 0, 0, 0, 0, 0, 0, 0], "stateRewards": ["", 2, -3, -5, 5, 11, -9, -33, 6, 67, 6, -30, -1, -2, -6, 13, 55, 13, 72, -14, 75, 21, -66, -2, -4, 6, 15, -1, -35, 60, 2, 51, -73, 12], "withholdReward": false, "trial_id": "mdp_trial_24", "block": "test", "trialIndex": 25, "score": -33.75, "costs": 0.25, "simulationMode": [null, null, null, null, null], "rewards": [2, -3, -5, 5, -33], "path": ["0", "0", "1", "2", "3", "4", "7"], "rt": [4601, 86, 18, 1296, 478], "actions": ["up", "up", "up", "right", "down"], "actionTimes": [6728, 7382, 8593, 10440, 11476], "queries": {"click": {"state": {"target": ["1"], "time": [4846]}, "edge": {"target": [], "time": []}}, "mouseover": {"state": {"target": ["1"], "time": [4357]}, "edge": {"target": [], "time": []}}, "mouseout": {"state": {"target": ["23", "0"], "time": [448, 935]}, "edge": {"target": [], "time": []}}}, "displayed_time": "17.23", "trialTime": 19544, "trial_type": "mouselab-mdp", "trial_index": 32, "time_elapsed": 1325538, "internal_node_id": "0.0-6.0-1.0-23.0"}}, {"uniqueid": "w21420348:a86520298", "current_trial": 33, "dateTime": 1693581627887, "trialdata": {"revealed_states": [], "clicked_states": ["12"], "num_clicks_accrued": [0, 0, 0, 0, 0, 0, 0, 0, 0, 0, 0, 0, 0], "stateRewards": ["", -2, -4, -8, 8, 63, -50, -19, -7, -17, -31, 31, 1, 3, -5, 12, -35, -63, -29, -4, -17, -75, -79, -2, -3, -2, 8, -3, -85, 10, -2, -82, -82, 56], "withholdReward": false, "trial_id": "mdp_trial_25", "block": "test", "trialIndex": 26, "score": -79.75, "costs": 0.25, "simulationMode": [null, null, null, null, null], "rewards": [1, 3, -5, -4, -75], "path": ["0", "0", "12", "13", "14", "19", "21"], "rt": [3129, 292, 215, 1597, 706], "actions": ["right", "right", "right", "down", "down"], "actionTimes": [35028, 35925, 36684, 38828, 40133], "queries": {"click": {"state": {"target": ["12"], "time": [33408]}, "edge": {"target": [], "time": []}}, "mouseover": {"state": {"target": ["0", "12"], "time": [32759, 32976]}, "edge": {"target": [], "time": []}}, "mouseout": {"state": {"target": ["1", "0", "0", "0", "0", "0"], "time": [1035, 13256, 14868, 19326, 31969, 32930]}, "edge": {"target": [], "time": []}}}, "displayed_time": "46.68", "trialTime": 48271, "trial_type": "mouselab-mdp", "trial_index": 33, "time_elapsed": 1374640, "internal_node_id": "0.0-6.0-1.0-24.0"}}, {"uniqueid": "w21420348:a86520298", "current_trial": 34, "dateTime": 1693581709875, "trialdata": {"revealed_states": [], "clicked_states": ["12"], "num_clicks_accrued": [0, 0, 0, 0, 0, 0, 0, 0, 0, 0, 0, 0, 0], "stateRewards": ["", 1, -1, 4, 5, -32, 18, 20, 6, -88, -74, 9, -2, 1, -2, -14, 34, -77, -38, -1, 80, -36, 73, 2, 3, -8, 10, -48, -73, -71, -11, -22, 20, 54], "withholdReward": false, "trial_id": "mdp_trial_26", "block": "test", "trialIndex": 27, "score": -65.75, "costs": 0.25, "simulationMode": [null, null, null, null, null], "rewards": [2, 3, -8, 10, -73], "path": ["0", "0", "23", "24", "25", "26", "28"], "rt": [6747, 361, 553, 1000, 793], "actions": ["left", "left", "left", "up", "right"], "actionTimes": [71865, 72784, 73926, 75511, 76844], "queries": {"click": {"state": {"target": ["12"], "time": [67844]}, "edge": {"target": [], "time": []}}, "mouseover": {"state": {"target": ["12", "0", "23"], "time": [67534, 69294, 69675]}, "edge": {"target": [], "time": []}}, "mouseout": {"state": {"target": ["12", "0", "0", "0", "0", "0", "0", "0", "0", "0", "0", "0", "0", "0", "0", "0", "12", "0"], "time": [667, 731, 1138, 4318, 7781, 10027, 20710, 23763, 32201, 37185, 41200, 43169, 51771, 54521, 57958, 66768, 69237, 69452]}, "edge": {"target": [], "time": []}}}, "displayed_time": "79.91", "trialTime": 81181, "trial_type": "mouselab-mdp", "trial_index": 34, "time_elapsed": 1456626, "internal_node_id": "0.0-6.0-1.0-25.0"}}, {"uniqueid": "w21420348:a86520298", "current_trial": 35, "dateTime": 1693581728086, "trialdata": {"revealed_states": [], "clicked_states": ["1"], "num_clicks_accrued": [0, 0, 0, 0, 0, 0, 0, 0, 0, 0, 0, 0, 0], "stateRewards": ["", -1, -3, -7, -4, -85, -70, 79, 8, 84, -66, 42, 2, -2, -3, -16, -54, -66, 68, -3, 21, -14, 7, -2, -1, -3, -8, 75, 80, 86, -7, -84, 73, -16], "withholdReward": false, "trial_id": "mdp_trial_27", "block": "test", "trialIndex": 28, "score": 60.25, "costs": 0.25, "simulationMode": [null, null, null, null, null], "rewards": [-2, -1, -3, -7, 73], "path": ["0", "0", "23", "24", "25", "30", "32"], "rt": [4554, 53, 420, 645, 433], "actions": ["left", "left", "left", "down", "down"], "actionTimes": [6079, 6679, 7611, 8828, 9833], "queries": {"click": {"state": {"target": ["1"], "time": [3277]}, "edge": {"target": [], "time": []}}, "mouseover": {"state": {"target": ["1", "0"], "time": [2696, 4377]}, "edge": {"target": [], "time": []}}, "mouseout": {"state": {"target": ["23", "0", "1"], "time": [457, 2550, 4178]}, "edge": {"target": [], "time": []}}}, "displayed_time": "16.49", "trialTime": 17401, "trial_type": "mouselab-mdp", "trial_index": 35, "time_elapsed": 1474838, "internal_node_id": "0.0-6.0-1.0-26.0"}}, {"uniqueid": "w21420348:a86520298", "current_trial": 36, "dateTime": 1693581746151, "trialdata": {"revealed_states": [], "clicked_states": ["12"], "num_clicks_accrued": [0, 0, 0, 0, 0, 0, 0, 0, 0, 0, 0, 0, 0], "stateRewards": ["", -2, -1, -2, -15, 87, 57, 29, -10, 77, -80, -7, 1, -3, 6, 14, -11, 87, -59, 4, -71, 16, -11, 2, 2, -7, 2, -47, 61, 50, 14, -20, 17, 81], "withholdReward": false, "trial_id": "mdp_trial_28", "block": "test", "trialIndex": 29, "score": 24.25, "costs": 0.25, "simulationMode": [null, null, null, null, null], "rewards": [1, -3, 6, 4, 16], "path": ["0", "0", "12", "13", "14", "19", "21"], "rt": [2974, 68, 899, 826, 192], "actions": ["right", "right", "right", "down", "down"], "actionTimes": [4391, 5017, 6436, 7840, 8562], "queries": {"click": {"state": {"target": ["12"], "time": [2928]}, "edge": {"target": [], "time": []}}, "mouseover": {"state": {"target": ["12"], "time": [2261]}, "edge": {"target": [], "time": []}}, "mouseout": {"state": {"target": ["0"], "time": [2221]}, "edge": {"target": [], "time": []}}}, "displayed_time": "16.15", "trialTime": 17268, "trial_type": "mouselab-mdp", "trial_index": 36, "time_elapsed": 1492905, "internal_node_id": "0.0-6.0-1.0-27.0"}}, {"uniqueid": "w21420348:a86520298", "current_trial": 37, "dateTime": 1693581766100, "trialdata": {"revealed_states": [], "clicked_states": ["1", "23"], "num_clicks_accrued": [0, 0, 0, 0, 0, 0, 0, 0, 0, 0, 0, 0, 0], "stateRewards": ["", -2, 1, -8, 12, -65, -79, 16, 7, -80, -17, -45, -2, 2, -5, -2, -85, 23, -4, -7, 48, 27, -76, 2, 3, 5, 2, 43, 71, -13, 7, -49, 59, -31], "withholdReward": false, "trial_id": "mdp_trial_29", "block": "test", "trialIndex": 30, "score": 55.5, "costs": 0.5, "simulationMode": [null, null, null, null, null], "rewards": [2, 3, 5, 2, 43], "path": ["0", "0", "23", "24", "25", "26", "27"], "rt": [5403, 59, 379, 777, 809], "actions": ["left", "left", "left", "up", "up"], "actionTimes": [8817, 9427, 10382, 11729, 13108], "queries": {"click": {"state": {"target": ["1", "23"], "time": [4908, 7656]}, "edge": {"target": [], "time": []}}, "mouseover": {"state": {"target": ["1", "23"], "time": [4351, 5991]}, "edge": {"target": [], "time": []}}, "mouseout": {"state": {"target": ["12", "0", "1"], "time": [1018, 4216, 5726]}, "edge": {"target": [], "time": []}}}, "displayed_time": "18.47", "trialTime": 19147, "trial_type": "mouselab-mdp", "trial_index": 37, "time_elapsed": 1512853, "internal_node_id": "0.0-6.0-1.0-28.0"}}, {"uniqueid": "w21420348:a86520298", "current_trial": 38, "dateTime": 1693581785086, "trialdata": {"revealed_states": [], "clicked_states": ["23"], "num_clicks_accrued": [0, 0, 0, 0, 0, 0, 0, 0, 0, 0, 0, 0, 0], "stateRewards": ["", 1, -1, 1, 13, 31, -56, 72, 2, 41, 5, 63, -2, -3, -2, 3, -71, -26, 52, 13, -31, 24, -67, 2, -2, 5, 4, 66, 43, 72, 9, 86, -26, 44], "withholdReward": false, "trial_id": "mdp_trial_30", "block": "test", "trialIndex": 31, "score": -11.75, "costs": 0.25, "simulationMode": [null, null, null, null, null], "rewards": [2, -2, 5, 9, -26], "path": ["0", "0", "23", "24", "25", "30", "32"], "rt": [3168, 41, 414, 895, 272], "actions": ["left", "left", "left", "down", "down"], "actionTimes": [4671, 5281, 6262, 7690, 8508], "queries": {"click": {"state": {"target": ["23"], "time": [2976]}, "edge": {"target": [], "time": []}}, "mouseover": {"state": {"target": ["0", "1", "23", "1"], "time": [2090, 2310, 2513, 3444]}, "edge": {"target": [], "time": []}}, "mouseout": {"state": {"target": ["23", "0", "0", "1", "23", "1"], "time": [16, 739, 2189, 2377, 3228, 3829]}, "edge": {"target": [], "time": []}}}, "displayed_time": "16.20", "trialTime": 17927, "trial_type": "mouselab-mdp", "trial_index": 38, "time_elapsed": 1531839, "internal_node_id": "0.0-6.0-1.0-29.0"}}, {"uniqueid": "w21420348:a86520298", "current_trial": 39, "dateTime": 1693581812078, "trialdata": {"revealed_states": [], "clicked_states": ["23"], "num_clicks_accrued": [0, 0, 0, 0, 0, 0, 0, 0, 0, 0, 0, 0, 0], "stateRewards": ["", 2, 3, -3, 12, -43, 81, -82, -15, 58, -7, -75, -1, -1, 3, -5, 50, -25, -8, 4, 66, 65, -66, 2, -4, 2, -1, -10, 10, 37, 11, 88, -37, 8], "withholdReward": false, "trial_id": "mdp_trial_31", "block": "test", "trialIndex": 32, "score": 99.25, "costs": 0.25, "simulationMode": [null, null, null, null, null], "rewards": [2, -4, 2, 11, 88], "path": ["0", "0", "23", "24", "25", "30", "31"], "rt": [3383, 75, 533, 520, 1111], "actions": ["left", "left", "left", "down", "right"], "actionTimes": [13098, 13723, 14815, 15911, 17595], "queries": {"click": {"state": {"target": ["23"], "time": [11337]}, "edge": {"target": [], "time": []}}, "mouseover": {"state": {"target": ["23"], "time": [10755]}, "edge": {"target": [], "time": []}}, "mouseout": {"state": {"target": ["23", "0"], "time": [742, 8442]}, "edge": {"target": [], "time": []}}}, "displayed_time": "24.43", "trialTime": 26230, "trial_type": "mouselab-mdp", "trial_index": 39, "time_elapsed": 1558831, "internal_node_id": "0.0-6.0-1.0-30.0"}}, {"uniqueid": "w21420348:a86520298", "current_trial": 40, "dateTime": 1693581832891, "trialdata": {"revealed_states": [], "clicked_states": ["23"], "num_clicks_accrued": [0, 0, 0, 0, 0, 0, 0, 0, 0, 0, 0, 0, 0], "stateRewards": ["", -1, 1, -1, 2, 19, 85, -18, 2, -3, -26, 36, 2, 4, 7, -9, -18, 70, 72, -5, 35, -20, -28, 1, -2, -4, -3, -59, -11, -63, -2, -72, 59, -69], "withholdReward": false, "trial_id": "mdp_trial_32", "block": "test", "trialIndex": 33, "score": -18.75, "costs": 0.25, "simulationMode": [null, null, null, null, null], "rewards": [1, -2, -4, -3, -11], "path": ["0", "0", "23", "24", "25", "26", "28"], "rt": [3187, 92, 397, 612, 472], "actions": ["left", "left", "left", "up", "right"], "actionTimes": [7379, 8044, 8973, 10141, 11174], "queries": {"click": {"state": {"target": ["23"], "time": [5791]}, "edge": {"target": [], "time": []}}, "mouseover": {"state": {"target": ["0", "23"], "time": [4385, 5031]}, "edge": {"target": [], "time": []}}, "mouseout": {"state": {"target": ["23", "0"], "time": [2551, 4960]}, "edge": {"target": [], "time": []}}}, "displayed_time": "18.88", "trialTime": 19618, "trial_type": "mouselab-mdp", "trial_index": 40, "time_elapsed": 1579644, "internal_node_id": "0.0-6.0-1.0-31.0"}}, {"uniqueid": "w21420348:a86520298", "current_trial": 41, "dateTime": 1693581851898, "trialdata": {"revealed_states": [], "clicked_states": ["12"], "num_clicks_accrued": [0, 0, 0, 0, 0, 0, 0, 0, 0, 0, 0, 0, 0], "stateRewards": ["", 2, -1, -4, -13, 74, 77, 3, 2, -43, -2, -11, 2, 3, 7, 11, -26, -29, -33, -3, -3, -13, -3, 1, 3, -7, 14, -59, 33, 9, -5, 34, 79, 68], "withholdReward": false, "trial_id": "mdp_trial_33", "block": "test", "trialIndex": 34, "score": -9.75, "costs": 0.25, "simulationMode": [null, null, null, null, null], "rewards": [2, 3, 7, 11, -33], "path": ["0", "0", "12", "13", "14", "15", "18"], "rt": [2509, 116, 402, 679, 745], "actions": ["right", "right", "right", "up", "left"], "actionTimes": [4662, 5346, 6291, 7506, 8820], "queries": {"click": {"state": {"target": ["12"], "time": [3395]}, "edge": {"target": [], "time": []}}, "mouseover": {"state": {"target": ["0", "0", "12"], "time": [2580, 2893, 2997]}, "edge": {"target": [], "time": []}}, "mouseout": {"state": {"target": ["23", "0", "0"], "time": [1201, 2805, 2951]}, "edge": {"target": [], "time": []}}}, "displayed_time": "16.73", "trialTime": 18151, "trial_type": "mouselab-mdp", "trial_index": 41, "time_elapsed": 1598652, "internal_node_id": "0.0-6.0-1.0-32.0"}}, {"uniqueid": "w21420348:a86520298", "current_trial": 42, "dateTime": 1693581871319, "trialdata": {"revealed_states": [], "clicked_states": ["12", "23"], "num_clicks_accrued": [0, 0, 0, 0, 0, 0, 0, 0, 0, 0, 0, 0, 0], "stateRewards": ["", -2, 2, 3, -7, -31, -33, 29, -8, -57, 50, -83, -1, -1, 5, 13, -23, -62, 25, 5, -66, -85, 14, 1, -2, -1, 16, 71, 33, -19, -14, 5, -43, 79], "withholdReward": false, "trial_id": "mdp_trial_34", "block": "test", "trialIndex": 35, "score": -58.5, "costs": 0.5, "simulationMode": [null, null, null, null, null], "rewards": [1, -2, -1, -14, -43], "path": ["0", "0", "23", "24", "25", "30", "32"], "rt": [4791, 49, 405, 817, 303], "actions": ["left", "left", "left", "down", "down"], "actionTimes": [6682, 7262, 8238, 9627, 10489], "queries": {"click": {"state": {"target": ["12", "23"], "time": [3071, 5449]}, "edge": {"target": [], "time": []}}, "mouseover": {"state": {"target": ["12", "23"], "time": [2651, 4284]}, "edge": {"target": [], "time": []}}, "mouseout": {"state": {"target": ["12", "13", "22", "0", "12"], "time": [14, 83, 444, 2044, 4079]}, "edge": {"target": [], "time": []}}}, "displayed_time": "16.95", "trialTime": 18476, "trial_type": "mouselab-mdp", "trial_index": 42, "time_elapsed": 1618073, "internal_node_id": "0.0-6.0-1.0-33.0"}}, {"uniqueid": "w21420348:a86520298", "current_trial": 43, "dateTime": 1693581891028, "trialdata": {"revealed_states": [], "clicked_states": ["23", "12"], "num_clicks_accrued": [0, 0, 0, 0, 0, 0, 0, 0, 0, 0, 0, 0, 0], "stateRewards": ["", -1, 3, -7, 16, -32, -74, -48, 2, 10, 15, -30, 1, 1, -2, 10, 12, -83, 67, 13, -66, 47, 65, -2, 4, 2, -14, -8, -57, 24, 9, 65, 12, 46], "withholdReward": false, "trial_id": "mdp_trial_35", "block": "test", "trialIndex": 36, "score": -72.5, "costs": 0.5, "simulationMode": [null, null, null, null, null], "rewards": [1, 1, -2, 10, -83], "path": ["0", "0", "12", "13", "14", "15", "17"], "rt": [4072, 163, 252, 660, 983], "actions": ["right", "right", "right", "up", "right"], "actionTimes": [5822, 6554, 7391, 8624, 10159], "queries": {"click": {"state": {"target": ["23", "12"], "time": [3032, 4401]}, "edge": {"target": [], "time": []}}, "mouseover": {"state": {"target": ["23", "23", "0", "12"], "time": [2322, 2684, 3884, 3982]}, "edge": {"target": [], "time": []}}, "mouseout": {"state": {"target": ["23", "0", "23", "23", "0"], "time": [665, 2283, 2397, 3848, 3968]}, "edge": {"target": [], "time": []}}}, "displayed_time": "16.52", "trialTime": 18907, "trial_type": "mouselab-mdp", "trial_index": 43, "time_elapsed": 1637781, "internal_node_id": "0.0-6.0-1.0-34.0"}}, {"uniqueid": "w21420348:a86520298", "current_trial": 44, "dateTime": 1693581911587, "trialdata": {"revealed_states": [], "clicked_states": ["23"], "num_clicks_accrued": [0, 0, 0, 0, 0, 0, 0, 0, 0, 0, 0, 0, 0], "stateRewards": ["", -2, -1, -6, -14, -55, 78, -13, 11, 14, -71, 59, 2, 2, 6, -6, 9, 38, 14, 7, 85, 11, 68, 1, -4, -1, -3, -63, -85, 9, -2, 63, -86, -10], "withholdReward": false, "trial_id": "mdp_trial_36", "block": "test", "trialIndex": 37, "score": 57.25, "costs": 0.25, "simulationMode": [null, null, null, null, null], "rewards": [1, -4, -1, -2, 63], "path": ["0", "0", "23", "24", "25", "30", "31"], "rt": [4117, 388, 750, 697, 1342], "actions": ["left", "left", "left", "down", "right"], "actionTimes": [6975, 8068, 9345, 10621, 12523], "queries": {"click": {"state": {"target": ["23"], "time": [5174]}, "edge": {"target": [], "time": []}}, "mouseover": {"state": {"target": ["23", "1"], "time": [4216, 5735]}, "edge": {"target": [], "time": []}}, "mouseout": {"state": {"target": ["12", "0", "23", "1"], "time": [1599, 4193, 5617, 6082]}, "edge": {"target": [], "time": []}}}, "displayed_time": "17.32", "trialTime": 19641, "trial_type": "mouselab-mdp", "trial_index": 44, "time_elapsed": 1658341, "internal_node_id": "0.0-6.0-1.0-35.0"}}, {"uniqueid": "w21420348:a86520298", "current_trial": 45, "dateTime": 1693581930768, "trialdata": {"revealed_states": [], "clicked_states": ["1"], "num_clicks_accrued": [0, 0, 0, 0, 0, 0, 0, 0, 0, 0, 0, 0, 0], "stateRewards": ["", 2, -1, 1, 10, -52, 86, -22, -2, -14, -63, 38, 1, 3, 7, -8, 11, -32, -27, 9, -71, 40, -87, -2, -1, 5, -7, 12, 31, -57, 13, 86, -58, 29], "withholdReward": false, "trial_id": "mdp_trial_37", "block": "test", "trialIndex": 38, "score": -9.75, "costs": 0.25, "simulationMode": [null, null, null, null, null], "rewards": [2, -1, 1, 10, -22], "path": ["0", "0", "1", "2", "3", "4", "7"], "rt": [2741, 48, 48, 1326, 725], "actions": ["up", "up", "up", "right", "down"], "actionTimes": [5013, 5638, 6247, 8100, 9380], "queries": {"click": {"state": {"target": ["1"], "time": [3676]}, "edge": {"target": [], "time": []}}, "mouseover": {"state": {"target": ["1"], "time": [3255]}, "edge": {"target": [], "time": []}}, "mouseout": {"state": {"target": ["23", "0"], "time": [1149, 3113]}, "edge": {"target": [], "time": []}}}, "displayed_time": "16.83", "trialTime": 18111, "trial_type": "mouselab-mdp", "trial_index": 45, "time_elapsed": 1677522, "internal_node_id": "0.0-6.0-1.0-36.0"}}, {"uniqueid": "w21420348:a86520298", "current_trial": 46, "dateTime": 1693581951377, "trialdata": {"revealed_states": [], "clicked_states": ["1", "12"], "num_clicks_accrued": [0, 0, 0, 0, 0, 0, 0, 0, 0, 0, 0, 0, 0], "stateRewards": ["", -2, -3, 7, -13, 60, 9, 37, -6, 37, 20, 1, 2, -2, -8, 6, -80, -31, -10, -7, 70, -65, -44, -1, 1, 7, 6, -11, 73, -85, 16, -21, 47, 34], "withholdReward": false, "trial_id": "mdp_trial_38", "block": "test", "trialIndex": 39, "score": -58.5, "costs": 0.5, "simulationMode": [null, null, null, null, null], "rewards": [2, -2, -8, -7, -44], "path": ["0", "0", "12", "13", "14", "19", "22"], "rt": [4914, 89, 278, 474, 748], "actions": ["right", "right", "right", "down", "left"], "actionTimes": [6525, 7172, 8001, 9015, 10320], "queries": {"click": {"state": {"target": ["1", "12"], "time": [2737, 5117]}, "edge": {"target": [], "time": []}}, "mouseover": {"state": {"target": ["1", "12"], "time": [2614, 4790]}, "edge": {"target": [], "time": []}}, "mouseout": {"state": {"target": ["1", "1"], "time": [78, 4455]}, "edge": {"target": [], "time": []}}}, "displayed_time": "17.86", "trialTime": 19186, "trial_type": "mouselab-mdp", "trial_index": 46, "time_elapsed": 1698131, "internal_node_id": "0.0-6.0-1.0-37.0"}}, {"uniqueid": "w21420348:a86520298", "current_trial": 47, "dateTime": 1693581970174, "trialdata": {"revealed_states": [], "clicked_states": ["12"], "num_clicks_accrued": [0, 0, 0, 0, 0, 0, 0, 0, 0, 0, 0, 0, 0], "stateRewards": ["", 2, 4, 7, 7, -79, -2, -21, -5, -53, 47, -21, 1, -3, -1, 7, 83, 7, 84, -7, 80, -37, 69, 2, -4, 5, 2, 4, -20, -30, 7, 71, 44, -81], "withholdReward": false, "trial_id": "mdp_trial_39", "block": "test", "trialIndex": 40, "score": -46.75, "costs": 0.25, "simulationMode": [null, null, null, null, null], "rewards": [1, -3, -1, -7, -37], "path": ["0", "0", "12", "13", "14", "19", "21"], "rt": [3305, 583, 257, 657, 61], "actions": ["right", "right", "right", "down", "down"], "actionTimes": [5152, 6284, 7090, 8265, 8920], "queries": {"click": {"state": {"target": ["12"], "time": [3309]}, "edge": {"target": [], "time": []}}, "mouseover": {"state": {"target": ["12"], "time": [2548]}, "edge": {"target": [], "time": []}}, "mouseout": {"state": {"target": ["12", "0", "12", "12"], "time": [752, 2472, 4126, 4356]}, "edge": {"target": [], "time": []}}}, "displayed_time": "16.86", "trialTime": 18031, "trial_type": "mouselab-mdp", "trial_index": 47, "time_elapsed": 1716927, "internal_node_id": "0.0-6.0-1.0-38.0"}}, {"uniqueid": "w21420348:a86520298", "current_trial": 48, "dateTime": 1693582023675, "trialdata": {"revealed_states": [], "clicked_states": ["12", "23", "1"], "num_clicks_accrued": [0, 0, 0, 0, 0, 0, 0, 0, 0, 0, 0, 0, 0], "stateRewards": ["", 1, -1, -7, -7, -22, 15, -13, 13, 26, -32, 38, -1, 1, -7, -4, 16, -62, 86, 12, -54, 56, 64, -2, -1, 6, 14, -57, 37, 62, -6, -25, 50, -70], "withholdReward": false, "trial_id": "mdp_trial_40", "block": "test", "trialIndex": 41, "score": 44.75, "costs": 0.75, "simulationMode": [null, null, null, null, null], "rewards": [1, -1, -7, 13, 38], "path": ["0", "0", "1", "2", "3", "8", "11"], "rt": [5563, 163, 440, 672, 1416], "actions": ["up", "up", "up", "left", "left"], "actionTimes": [38774, 39478, 40461, 41698, 43687], "queries": {"click": {"state": {"target": ["12", "23", "1"], "time": [34782, 36189, 37698]}, "edge": {"target": [], "time": []}}, "mouseover": {"state": {"target": ["12", "0", "23", "1"], "time": [34524, 35512, 35734, 37044]}, "edge": {"target": [], "time": []}}, "mouseout": {"state": {"target": ["0", "0", "0", "0", "0", "0", "0", "0", "12", "0", "23", "1", "0", "0"], "time": [623, 6049, 8333, 11006, 15863, 27057, 29325, 34203, 35497, 35625, 36917, 49664, 50269, 50707]}, "edge": {"target": [], "time": []}}}, "displayed_time": "48.04", "trialTime": 52689, "trial_type": "mouselab-mdp", "trial_index": 48, "time_elapsed": 1770428, "internal_node_id": "0.0-6.0-1.0-39.0"}}, {"uniqueid": "w21420348:a86520298", "current_trial": 49, "dateTime": 1693582091004, "trialdata": {"rt": 67265, "response": {"Q0": "$-88 to $88", "Q1": "$-16 to $16", "Q2": "$-32 to $32", "Q3": "The cost for clicking on nodes varied between nodes.", "Q4": "Very unmotivated"}, "question_order": [0, 1, 2, 3, 4], "trial_id": "final_quiz_control", "trial_type": "survey-multi-choice", "trial_index": 49, "time_elapsed": 1837749, "internal_node_id": "0.0-6.0-2.0"}}, {"uniqueid": "w21420348:a86520298", "current_trial": 50, "dateTime": 1693582379335, "trialdata": {"rt": 288216, "response": {"Q0": "After pressing on the node for guidance i was mostly using my intuition and mostly i would be right,also being fast really helps with moving the arrows.", "Q1": "In the begging i wasn't following the guidance after pressing the node and realized that after following the direction,it got better.", "Q2": "it was not difficult however my focus span is very bad,the more i could focus the more i did better."}, "trial_id": "self_report_control", "trial_type": "survey-text", "trial_index": 50, "time_elapsed": 2126088, "internal_node_id": "0.0-6.0-3.0"}}, {"uniqueid": "w21420348:a86520298", "current_trial": 51, "dateTime": 1693582466908, "trialdata": {"rt": 87539, "response": {"Q0": "Disagree", "Q1": "Neither disagree nor agree", "Q2": "Agree", "Q3": "Agree", "Q4": "Disagree", "Q5": "Neither disagree nor agree", "Q6": "Disagree"}, "question_order": [0, 1, 2, 3, 4, 5, 6], "trial_id": "self_report_2", "trial_type": "survey-multi-choice", "trial_index": 51, "time_elapsed": 2213662, "internal_node_id": "0.0-6.0-4.0"}}, {"uniqueid": "w21420348:a86520298", "current_trial": 52, "dateTime": 1693582517162, "trialdata": {"rt": 50234, "response": {"gender": "female", "age": "-31", "colorblind": "0", "effort": "0"}, "trial_type": "survey-html-form", "trial_index": 52, "time_elapsed": 2263916, "internal_node_id": "0.0-6.0-5.0"}}, {"uniqueid": "w21420348:a86520298", "current_trial": 53, "dateTime": 1693582579116, "trialdata": {"rt": 61905, "response": {"Q0": "No", "Q1": "No i really don't remember.", "Q2": "N/a"}, "trial_type": "survey-text", "trial_index": 53, "time_elapsed": 2325870, "internal_node_id": "0.0-6.0-6.0"}}, {"uniqueid": "w21420348:a86520298", "current_trial": 54, "dateTime": 1693582641011, "trialdata": {"rt": 61859, "stimulus": "<h1>Completion Code Instructions (1/2)</h1>\n<br><br><br><br>\nYou have reached the end of the experiment! The completion code consists of two parts: (1) a code with 2 characters (2) a code with 6 characters. On this page, you will receive the second part of the code. The first part of the completion code will be on the next page.\n<br><br>\nThe second part of your completion code is: <b>EWEK22</b>\n<br><br>\nPlease note this down. Then, press 'Next' in order to find the first part of your completion code. Once the data has been saved, you will receive this code either in this window or in the original browser window where you started the experiment.\n <br><br>\n<h2 style='color: red;'>Note: this is <strong>NOT</strong> the full completion code. Copy this down and click 'Next' to get the full completion code on the next page.</h2>", "response": 0, "trial_type": "html-button-response", "trial_index": 54, "time_elapsed": 2387763, "internal_node_id": "0.0-6.0-7.0"}}, {"uniqueid": "w21420348:a86520298", "current_trial": 55, "dateTime": 1693582642040, "trialdata": {"success": true, "trial_type": "fullscreen", "trial_index": 55, "time_elapsed": 2388793, "internal_node_id": "0.0-7.0"}}], "questiondata": {"params": {"CODE": "C6DMOQA6", "MIN_TIME": 14, "inspectCost": 1, "startTime": "Fri Sep 01 2023 16:57:15 GMT+0200 (South Africa Standard Time)", "bonusRate": 0.002, "variance": "1_2_4_8_44", "branching": "31123"}, "final_score": 130}, "eventdata": [{"eventtype": "initialized", "value": null, "timestamp": 1693580234136, "interval": 0}, {"eventtype": "window_resize", "value": [1024, 640], "timestamp": 1693580234136, "interval": 0}, {"eventtype": "focus", "value": "on", "timestamp": 1693580234855, "interval": 719}, {"eventtype": "window_resize", "value": [1024, 640], "timestamp": 1693580235042, "interval": 187}, {"eventtype": "window_resize", "value": [1366, 768], "timestamp": 1693580270694, "interval": 35652}, {"eventtype": "focus", "value": "off", "timestamp": 1693580916058, "interval": 645364}, {"eventtype": "focus", "value": "on", "timestamp": 1693580919354, "interval": 3296}, {"eventtype": "window_resize", "value": [1024, 640], "timestamp": 1693582641744, "interval": 1722390}], "useragent": "Mozilla/5.0 (Windows NT 10.0; Win64; x64; rv:109.0) Gecko/20100101 Firefox/116.0", "mode": "live", "id": "w21420348:a86520298", "status": "user data saved", "Beginhit": "2023-09-01 14:57:05.272779", "Beginexp": "2023-09-01 14:57:53.866923", "Endhit": "2023-09-01 15:37:29.328241", "psiturkStatus": 3, "browser": "<redacted>", "platform": "windows", "language": "en-US"}