{"condition": 1, "counterbalance": 0, "assignmentId": "a82567249", "workerId": "w58843141", "hitId": "h14510046", "currenttrial": 56, "bonus": 0, "data": [{"uniqueid": "w58843141:a82567249", "current_trial": 0, "dateTime": 1693564317978, "trialdata": {"success": true, "trial_type": "fullscreen", "trial_index": 0, "time_elapsed": 3231, "internal_node_id": "0.0-0.0"}}, {"uniqueid": "w58843141:a82567249", "current_trial": 1, "dateTime": 1693564344592, "trialdata": {"view_history": [{"page_index": 0, "viewing_time": 26609}], "rt": 26610, "trial_id": "exp_instructions_misaligned", "trial_type": "instructions", "trial_index": 1, "time_elapsed": 29845, "internal_node_id": "0.0-1.0"}}, {"uniqueid": "w58843141:a82567249", "current_trial": 2, "dateTime": 1693564544717, "trialdata": {"view_history": [{"page_index": 0, "viewing_time": 90914}, {"page_index": 1, "viewing_time": 54443}, {"page_index": 2, "viewing_time": 21511}, {"page_index": 3, "viewing_time": 33256}], "rt": 200124, "trial_id": "mouselab_instructions_1_misaligned", "trial_type": "instructions", "trial_index": 2, "time_elapsed": 229970, "internal_node_id": "0.0-2.0-1.0"}}, {"uniqueid": "w58843141:a82567249", "current_trial": 3, "dateTime": 1693564567549, "trialdata": {"revealed_states": [], "clicked_states": [], "num_clicks_accrued": [0, 0, 0, 0, 0, 0, 0, 0, 0, 0, 0, 0, 0], "stateRewards": ["", -10, 10, 10, -10, -10, -10, -10, -10, -10, -10, 10, -10, -10, -10, 10, 10, 10, -10, -10, -10, -10, 10, 10, -10, -10, -10, -10, -10, -10, -10, 10, 10, 10], "withholdReward": false, "trial_id": "practice_1", "block": "test", "trialIndex": 0, "score": -46.5, "costs": 0, "simulationMode": [null, null, null, null, null], "rewards": [-10, -10, -10, -10, -10], "path": ["0", "0", "12", "13", "14", "19", "21"], "rt": [2510, 1322, 1044, 728, 408], "actions": ["right", "right", "right", "down", "down"], "actionTimes": [5940, 7772, 9327, 10561, 11475], "queries": {"click": {"state": {"target": [], "time": []}, "edge": {"target": [], "time": []}}, "mouseover": {"state": {"target": ["12"], "time": [4616]}, "edge": {"target": [], "time": []}}, "mouseout": {"state": {"target": ["0"], "time": [1282]}, "edge": {"target": [], "time": []}}}, "displayed_time": "11.97", "trialTime": 22205, "trial_type": "mouselab-mdp", "trial_index": 3, "time_elapsed": 252802, "internal_node_id": "0.0-2.0-2.0-0.0"}}, {"uniqueid": "w58843141:a82567249", "current_trial": 4, "dateTime": 1693564591354, "trialdata": {"revealed_states": [], "clicked_states": [], "num_clicks_accrued": [0, 0, 0, 0, 0, 0, 0, 0, 0, 0, 0, 0, 0], "stateRewards": ["", -10, 10, 10, -10, -10, -10, 10, 10, 10, 10, 10, 10, -10, -10, -10, -10, 10, 10, 10, -10, -10, -10, 10, -10, 10, 10, -10, -10, -10, -10, -10, -10, -10], "withholdReward": false, "trial_id": "practice_2", "block": "test", "trialIndex": 1, "score": -6.5, "costs": 0, "simulationMode": [null, null, null, null, null], "rewards": [10, -10, 10, -10, -10], "path": ["0", "0", "23", "24", "25", "30", "32"], "rt": [4720, 596, 3780, 767, 440], "actions": ["left", "left", "left", "down", "down"], "actionTimes": [9731, 10832, 15133, 16419, 17375], "queries": {"click": {"state": {"target": [], "time": []}, "edge": {"target": [], "time": []}}, "mouseover": {"state": {"target": ["0", "23", "24"], "time": [5969, 6018, 6102]}, "edge": {"target": [], "time": []}}, "mouseout": {"state": {"target": ["12", "0", "0", "23", "24", "30"], "time": [4318, 4686, 5985, 6051, 12018, 20601]}, "edge": {"target": [], "time": []}}}, "displayed_time": "17.87", "trialTime": 23715, "trial_type": "mouselab-mdp", "trial_index": 4, "time_elapsed": 276607, "internal_node_id": "0.0-2.0-2.0-1.0"}}, {"uniqueid": "w58843141:a82567249", "current_trial": 5, "dateTime": 1693564613169, "trialdata": {"view_history": [{"page_index": 0, "viewing_time": 12240}, {"page_index": 1, "viewing_time": 9572}], "rt": 21813, "trial_id": "mouselab_instructions_2_misaligned", "trial_type": "instructions", "trial_index": 5, "time_elapsed": 298421, "internal_node_id": "0.0-2.0-3.0"}}, {"uniqueid": "w58843141:a82567249", "current_trial": 6, "dateTime": 1693564659908, "trialdata": {"rt": 46734, "response": {"Q0": "The cost for clicking on nodes may vary between nodes.", "Q1": "The better I perform the higher my bonus will be.", "Q2": "No, the amount of cash at each node of the web may be different each time.", "Q3": "To get the highest total score.", "Q4": "Only before moving the spider.", "Q5": "3 seconds"}, "question_order": [0, 1, 2, 3, 4, 5], "correct": {"Q0": "The cost for clicking on nodes may vary between nodes.", "Q1": "The better I perform the higher my bonus will be.", "Q2": "No, the amount of cash at each node of the web may be different each time.", "Q3": "To get the highest total score.", "Q4": "Only before moving the spider.", "Q5": "3 seconds"}, "trial_id": "mouselab_quiz_misaligned", "trial_type": "survey-multi-choice", "trial_index": 6, "time_elapsed": 345161, "internal_node_id": "0.0-2.0-4.0"}}, {"uniqueid": "w58843141:a82567249", "current_trial": 7, "dateTime": 1693564669570, "trialdata": {"rt": 9657, "response": {"Q0": "No"}, "question_order": [0], "trial_id": "repeat_check", "trial_type": "survey-multi-choice", "trial_index": 7, "time_elapsed": 354822, "internal_node_id": "0.0-4.0-0.0"}}, {"uniqueid": "w58843141:a82567249", "current_trial": 8, "dateTime": 1693564697291, "trialdata": {"rt": 27716, "stimulus": "\n<h1> Get ready to start the game! </h1>\n\nThank you for reading the instructions. Get ready start with the 40 rounds of this game.\n<br><br>\nIf you need to take a break, feel free to take one after the end of a round, before continuing to the next one.\n<br><br>\nRemember, the more money the spider gets, the bigger your bonus will be!\n<br><br>\n<div style='text-align: center;'>Press <code>space</code> to begin.</div>\n\n<br><br>\n(If, at any point, the <code>space</code> key does not take you to the next page, click once on the text and try again.)", "response": " ", "trial_id": "mdp_ready", "trial_type": "html-keyboard-response", "trial_index": 8, "time_elapsed": 382544, "internal_node_id": "0.0-6.0-0.0"}}, {"uniqueid": "w58843141:a82567249", "current_trial": 9, "dateTime": 1693564715959, "trialdata": {"revealed_states": [], "clicked_states": [], "num_clicks_accrued": [0, 0, 0, 0, 0, 0, 0, 0, 0, 0, 0, 0, 0], "stateRewards": ["", 2, 4, 7, 7, -79, -2, -21, -5, -53, 47, -21, 1, -3, -1, 7, 83, 7, 84, -7, 80, -37, 69, 2, -4, 5, 2, 4, -20, -30, 7, 71, 44, -81], "withholdReward": false, "trial_id": "mdp_trial_1", "block": "test", "trialIndex": 2, "score": -45, "costs": 0, "simulationMode": [null, null, null, null, null], "rewards": [2, 4, 7, -5, -53], "path": ["0", "0", "1", "2", "3", "8", "9"], "rt": [2463, 300, 704, 1126, 796], "actions": ["up", "up", "up", "left", "up"], "actionTimes": [4496, 5301, 6505, 8126, 9413], "queries": {"click": {"state": {"target": [], "time": []}, "edge": {"target": [], "time": []}}, "mouseover": {"state": {"target": ["1", "2"], "time": [2766, 3217]}, "edge": {"target": [], "time": []}}, "mouseout": {"state": {"target": ["2", "1", "1", "2", "14", "18", "1", "7", "28", "23", "0", "12"], "time": [1266, 1516, 2799, 11066, 11382, 11768, 12483, 13166, 17532, 17616, 17699, 17749]}, "edge": {"target": [], "time": []}}}, "displayed_time": "16.04", "trialTime": 18555, "trial_type": "mouselab-mdp", "trial_index": 9, "time_elapsed": 401211, "internal_node_id": "0.0-6.0-1.0-0.0"}}, {"uniqueid": "w58843141:a82567249", "current_trial": 10, "dateTime": 1693564733650, "trialdata": {"revealed_states": [], "clicked_states": [], "num_clicks_accrued": [0, 0, 0, 0, 0, 0, 0, 0, 0, 0, 0, 0, 0], "stateRewards": ["", 1, 4, -4, 14, 35, 51, 19, -13, 54, 78, -74, -2, -1, -3, 13, -11, -42, -73, -15, -24, -3, -69, 2, -1, 5, 16, -27, 73, 58, 9, -60, 5, -60], "withholdReward": false, "trial_id": "mdp_trial_2", "block": "test", "trialIndex": 3, "score": 80, "costs": 0, "simulationMode": [null, null, null, null, null], "rewards": [2, -1, 5, 16, 58], "path": ["0", "0", "23", "24", "25", "26", "29"], "rt": [1792, 510, 404, 584, 1082], "actions": ["left", "left", "left", "up", "left"], "actionTimes": [3544, 4547, 5457, 6536, 8119], "queries": {"click": {"state": {"target": [], "time": []}, "edge": {"target": [], "time": []}}, "mouseover": {"state": {"target": ["23"], "time": [2669]}, "edge": {"target": [], "time": []}}, "mouseout": {"state": {"target": ["0", "23", "23", "0"], "time": [1452, 2920, 16902, 16952]}, "edge": {"target": [], "time": []}}}, "displayed_time": "15.76", "trialTime": 17583, "trial_type": "mouselab-mdp", "trial_index": 10, "time_elapsed": 418902, "internal_node_id": "0.0-6.0-1.0-1.0"}}, {"uniqueid": "w58843141:a82567249", "current_trial": 11, "dateTime": 1693564752464, "trialdata": {"revealed_states": [], "clicked_states": [], "num_clicks_accrued": [0, 0, 0, 0, 0, 0, 0, 0, 0, 0, 0, 0, 0], "stateRewards": ["", 1, -1, 8, -3, 38, 85, -20, -4, 8, 23, 73, 2, -4, 6, -13, 44, 7, -28, -11, -77, 45, -69, 1, -1, -7, -11, 75, -51, -87, 7, 36, -53, -26], "withholdReward": false, "trial_id": "mdp_trial_3", "block": "test", "trialIndex": 4, "score": -37, "costs": 0, "simulationMode": [null, null, null, null, null], "rewards": [2, -4, 6, -13, -28], "path": ["0", "0", "12", "13", "14", "15", "18"], "rt": [1956, 189, 736, 375, 278], "actions": ["right", "right", "right", "up", "left"], "actionTimes": [4454, 5140, 6370, 7243, 8012], "queries": {"click": {"state": {"target": [], "time": []}, "edge": {"target": [], "time": []}}, "mouseover": {"state": {"target": [], "time": []}, "edge": {"target": [], "time": []}}, "mouseout": {"state": {"target": ["0", "0", "23", "24", "25", "24", "23", "0"], "time": [1883, 17367, 17399, 17500, 17800, 17816, 17834, 17900]}, "edge": {"target": [], "time": []}}}, "displayed_time": "16.50", "trialTime": 18712, "trial_type": "mouselab-mdp", "trial_index": 11, "time_elapsed": 437716, "internal_node_id": "0.0-6.0-1.0-2.0"}}, {"uniqueid": "w58843141:a82567249", "current_trial": 12, "dateTime": 1693564772111, "trialdata": {"revealed_states": [], "clicked_states": [], "num_clicks_accrued": [0, 0, 0, 0, 0, 0, 0, 0, 0, 0, 0, 0, 0], "stateRewards": ["", 2, 3, 6, -12, -29, 12, 87, 4, 35, -30, 67, 2, 3, -5, -9, 44, 69, -8, 1, 45, -8, 28, -2, -1, -8, 11, -12, -5, 81, 9, 87, 82, 88], "withholdReward": false, "trial_id": "mdp_trial_4", "block": "test", "trialIndex": 5, "score": -15, "costs": 0, "simulationMode": [null, null, null, null, null], "rewards": [2, 3, 6, 4, -30], "path": ["0", "0", "1", "2", "3", "8", "10"], "rt": [2259, 209, 403, 493, 315], "actions": ["up", "up", "up", "left", "down"], "actionTimes": [5319, 6041, 6951, 7942, 8748], "queries": {"click": {"state": {"target": [], "time": []}, "edge": {"target": [], "time": []}}, "mouseover": {"state": {"target": [], "time": []}, "edge": {"target": [], "time": []}}, "mouseout": {"state": {"target": ["0", "7", "1", "0", "0"], "time": [1165, 1267, 1598, 1698, 10148]}, "edge": {"target": [], "time": []}}}, "displayed_time": "17.06", "trialTime": 19509, "trial_type": "mouselab-mdp", "trial_index": 12, "time_elapsed": 457364, "internal_node_id": "0.0-6.0-1.0-3.0"}}, {"uniqueid": "w58843141:a82567249", "current_trial": 13, "dateTime": 1693564789822, "trialdata": {"revealed_states": [], "clicked_states": [], "num_clicks_accrued": [0, 0, 0, 0, 0, 0, 0, 0, 0, 0, 0, 0, 0], "stateRewards": ["", 1, -4, -6, -1, -21, 17, -72, 10, 77, 67, -46, -1, 4, -2, 14, -66, -49, -45, -15, -52, 23, -67, 2, -2, -2, 15, -3, 45, -64, 5, -44, 83, 61], "withholdReward": false, "trial_id": "mdp_trial_5", "block": "test", "trialIndex": 6, "score": -66, "costs": 0, "simulationMode": [null, null, null, null, null], "rewards": [-1, 4, -2, -15, -52], "path": ["0", "0", "12", "13", "14", "19", "20"], "rt": [2878, 620, 391, 664, 323], "actions": ["right", "right", "right", "down", "right"], "actionTimes": [4330, 5446, 6335, 7490, 8315], "queries": {"click": {"state": {"target": [], "time": []}, "edge": {"target": [], "time": []}}, "mouseover": {"state": {"target": [], "time": []}, "edge": {"target": [], "time": []}}, "mouseout": {"state": {"target": ["0", "0", "23"], "time": [875, 16374, 17042]}, "edge": {"target": [], "time": []}}}, "displayed_time": "15.45", "trialTime": 17582, "trial_type": "mouselab-mdp", "trial_index": 13, "time_elapsed": 475075, "internal_node_id": "0.0-6.0-1.0-4.0"}}, {"uniqueid": "w58843141:a82567249", "current_trial": 14, "dateTime": 1693564806753, "trialdata": {"revealed_states": [], "clicked_states": [], "num_clicks_accrued": [0, 0, 0, 0, 0, 0, 0, 0, 0, 0, 0, 0, 0], "stateRewards": ["", 2, 4, 4, 9, -88, -10, 44, 16, -54, 64, 78, 1, 2, 5, 16, 80, 36, 7, -4, 9, -47, -70, -1, -3, 6, -16, 11, 80, 28, 8, -1, 34, -17], "withholdReward": false, "trial_id": "mdp_trial_6", "block": "test", "trialIndex": 7, "score": 44, "costs": 0, "simulationMode": [null, null, null, null, null], "rewards": [-1, -3, 6, 8, 34], "path": ["0", "0", "23", "24", "25", "30", "32"], "rt": [916, 78, 136, 400, 43], "actions": ["left", "left", "left", "down", "down"], "actionTimes": [2206, 2785, 3426, 4343, 4883], "queries": {"click": {"state": {"target": [], "time": []}, "edge": {"target": [], "time": []}}, "mouseover": {"state": {"target": [], "time": []}, "edge": {"target": [], "time": []}}, "mouseout": {"state": {"target": ["0"], "time": [16256]}, "edge": {"target": [], "time": []}}}, "displayed_time": "15.29", "trialTime": 16811, "trial_type": "mouselab-mdp", "trial_index": 14, "time_elapsed": 492006, "internal_node_id": "0.0-6.0-1.0-5.0"}}, {"uniqueid": "w58843141:a82567249", "current_trial": 15, "dateTime": 1693564823708, "trialdata": {"revealed_states": [], "clicked_states": [], "num_clicks_accrued": [0, 0, 0, 0, 0, 0, 0, 0, 0, 0, 0, 0, 0], "stateRewards": ["", -1, 1, -6, -1, 80, 23, 2, -11, 73, -81, 59, 1, 3, 5, -1, -26, 28, -3, 16, -59, -13, -50, -2, -2, 2, 15, -50, 86, 17, -4, 37, 35, 44], "withholdReward": false, "trial_id": "mdp_trial_7", "block": "test", "trialIndex": 8, "score": 99, "costs": 0, "simulationMode": [null, null, null, null, null], "rewards": [-2, -2, 2, 15, 86], "path": ["0", "0", "23", "24", "25", "26", "28"], "rt": [2597, 89, 388, 454, 579], "actions": ["left", "left", "left", "up", "right"], "actionTimes": [3947, 4537, 5436, 6385, 7460], "queries": {"click": {"state": {"target": [], "time": []}, "edge": {"target": [], "time": []}}, "mouseover": {"state": {"target": ["23"], "time": [2264]}, "edge": {"target": [], "time": []}}, "mouseout": {"state": {"target": ["12", "23"], "time": [714, 16397]}, "edge": {"target": [], "time": []}}}, "displayed_time": "15.35", "trialTime": 16823, "trial_type": "mouselab-mdp", "trial_index": 15, "time_elapsed": 508960, "internal_node_id": "0.0-6.0-1.0-6.0"}}, {"uniqueid": "w58843141:a82567249", "current_trial": 16, "dateTime": 1693564841785, "trialdata": {"revealed_states": [], "clicked_states": [], "num_clicks_accrued": [0, 0, 0, 0, 0, 0, 0, 0, 0, 0, 0, 0, 0], "stateRewards": ["", 1, -2, -8, -13, 4, 34, -84, -4, -49, 88, -70, -1, 3, -4, 10, -77, 13, -34, 15, -21, -16, 27, 1, -2, 8, -8, -6, 38, -26, 6, -15, 66, -3], "withholdReward": false, "trial_id": "mdp_trial_8", "block": "test", "trialIndex": 9, "score": 21, "costs": 0, "simulationMode": [null, null, null, null, null], "rewards": [-1, 3, -4, 10, 13], "path": ["0", "0", "12", "13", "14", "15", "17"], "rt": [1520, 737, 373, 492, 9], "actions": ["right", "right", "right", "up", "right"], "actionTimes": [4388, 5616, 6485, 7471, 7971], "queries": {"click": {"state": {"target": [], "time": []}, "edge": {"target": [], "time": []}}, "mouseover": {"state": {"target": [], "time": []}, "edge": {"target": [], "time": []}}, "mouseout": {"state": {"target": [], "time": []}, "edge": {"target": [], "time": []}}}, "displayed_time": "16.88", "trialTime": 17948, "trial_type": "mouselab-mdp", "trial_index": 16, "time_elapsed": 527037, "internal_node_id": "0.0-6.0-1.0-7.0"}}, {"uniqueid": "w58843141:a82567249", "current_trial": 17, "dateTime": 1693564860078, "trialdata": {"revealed_states": [], "clicked_states": [], "num_clicks_accrued": [0, 0, 0, 0, 0, 0, 0, 0, 0, 0, 0, 0, 0], "stateRewards": ["", 1, 1, 5, 6, -29, -7, 3, -16, 9, -46, 65, -1, 4, -1, -16, -63, -77, -87, 8, 80, -50, 43, -1, -1, -5, 5, -38, -71, -62, 9, 81, -50, -52], "withholdReward": false, "trial_id": "mdp_trial_9", "block": "test", "trialIndex": 10, "score": 16, "costs": 0, "simulationMode": [null, null, null, null, null], "rewards": [1, 1, 5, 6, 3], "path": ["0", "0", "1", "2", "3", "4", "7"], "rt": [1503, 382, 378, 610, 507], "actions": ["up", "up", "up", "right", "down"], "actionTimes": [4386, 5287, 6166, 7265, 8262], "queries": {"click": {"state": {"target": [], "time": []}, "edge": {"target": [], "time": []}}, "mouseover": {"state": {"target": [], "time": []}, "edge": {"target": [], "time": []}}, "mouseout": {"state": {"target": [], "time": []}, "edge": {"target": [], "time": []}}}, "displayed_time": "16.89", "trialTime": 18171, "trial_type": "mouselab-mdp", "trial_index": 17, "time_elapsed": 545331, "internal_node_id": "0.0-6.0-1.0-8.0"}}, {"uniqueid": "w58843141:a82567249", "current_trial": 18, "dateTime": 1693564877261, "trialdata": {"revealed_states": [], "clicked_states": [], "num_clicks_accrued": [0, 0, 0, 0, 0, 0, 0, 0, 0, 0, 0, 0, 0], "stateRewards": ["", -1, -3, -5, -14, -13, -47, 79, 8, -60, -64, 41, -1, 2, 3, 13, -46, 61, -79, -11, -64, -65, 23, 1, -2, 6, -14, 46, 32, 21, 7, 75, -66, 15], "withholdReward": false, "trial_id": "mdp_trial_10", "block": "test", "trialIndex": 11, "score": -61, "costs": 0, "simulationMode": [null, null, null, null, null], "rewards": [-1, -3, -5, 8, -60], "path": ["0", "0", "1", "2", "3", "8", "9"], "rt": [1201, 81, 335, 513, 295], "actions": ["up", "up", "up", "left", "up"], "actionTimes": [2679, 3272, 4109, 5121, 5903], "queries": {"click": {"state": {"target": [], "time": []}, "edge": {"target": [], "time": []}}, "mouseover": {"state": {"target": [], "time": []}, "edge": {"target": [], "time": []}}, "mouseout": {"state": {"target": ["0"], "time": [879]}, "edge": {"target": [], "time": []}}}, "displayed_time": "15.48", "trialTime": 17058, "trial_type": "mouselab-mdp", "trial_index": 18, "time_elapsed": 562514, "internal_node_id": "0.0-6.0-1.0-9.0"}}, {"uniqueid": "w58843141:a82567249", "current_trial": 19, "dateTime": 1693564894245, "trialdata": {"revealed_states": [], "clicked_states": [], "num_clicks_accrued": [0, 0, 0, 0, 0, 0, 0, 0, 0, 0, 0, 0, 0], "stateRewards": ["", -2, 1, -7, -8, -37, -76, -87, 11, 30, -63, 80, -1, 4, 2, -1, 42, 17, 52, -3, -75, -80, -68, 2, -3, -5, -15, -48, 82, 24, -7, 5, -22, -71], "withholdReward": false, "trial_id": "mdp_trial_11", "block": "test", "trialIndex": 12, "score": -66, "costs": 0, "simulationMode": [null, null, null, null, null], "rewards": [-1, 4, 2, -3, -68], "path": ["0", "0", "12", "13", "14", "19", "22"], "rt": [1075, 9, 314, 247, 197], "actions": ["right", "right", "right", "down", "left"], "actionTimes": [2950, 3448, 4270, 5019, 5719], "queries": {"click": {"state": {"target": [], "time": []}, "edge": {"target": [], "time": []}}, "mouseover": {"state": {"target": [], "time": []}, "edge": {"target": [], "time": []}}, "mouseout": {"state": {"target": ["0", "0", "0"], "time": [1785, 9305, 9588]}, "edge": {"target": [], "time": []}}}, "displayed_time": "15.88", "trialTime": 16855, "trial_type": "mouselab-mdp", "trial_index": 19, "time_elapsed": 579497, "internal_node_id": "0.0-6.0-1.0-10.0"}}, {"uniqueid": "w58843141:a82567249", "current_trial": 20, "dateTime": 1693564912133, "trialdata": {"revealed_states": [], "clicked_states": [], "num_clicks_accrued": [0, 0, 0, 0, 0, 0, 0, 0, 0, 0, 0, 0, 0], "stateRewards": ["", 1, 1, 1, 15, -76, 52, -32, 14, -57, 37, 49, 1, -4, -3, 6, 83, -76, 25, 9, 36, -1, -17, -1, 4, 4, -2, -22, -21, 58, -15, -57, 49, -24], "withholdReward": false, "trial_id": "mdp_trial_12", "block": "test", "trialIndex": 13, "score": -17, "costs": 0, "simulationMode": [null, null, null, null, null], "rewards": [-1, 4, 4, -2, -22], "path": ["0", "0", "23", "24", "25", "26", "27"], "rt": [1516, 447, 442, 519, 494], "actions": ["left", "left", "left", "up", "up"], "actionTimes": [4070, 5015, 5959, 6970, 7961], "queries": {"click": {"state": {"target": [], "time": []}, "edge": {"target": [], "time": []}}, "mouseover": {"state": {"target": [], "time": []}, "edge": {"target": [], "time": []}}, "mouseout": {"state": {"target": ["0"], "time": [9434]}, "edge": {"target": [], "time": []}}}, "displayed_time": "16.56", "trialTime": 17758, "trial_type": "mouselab-mdp", "trial_index": 20, "time_elapsed": 597385, "internal_node_id": "0.0-6.0-1.0-11.0"}}, {"uniqueid": "w58843141:a82567249", "current_trial": 21, "dateTime": 1693564929371, "trialdata": {"revealed_states": [], "clicked_states": [], "num_clicks_accrued": [0, 0, 0, 0, 0, 0, 0, 0, 0, 0, 0, 0, 0], "stateRewards": ["", 1, -4, 6, -3, 40, 76, -51, 5, -24, -63, 44, -2, -2, 8, 1, 76, -85, -58, 10, 59, 20, 11, -2, 3, -3, 3, -82, -10, 54, -7, -57, -6, -32], "withholdReward": false, "trial_id": "mdp_trial_13", "block": "test", "trialIndex": 14, "score": -81, "costs": 0, "simulationMode": [null, null, null, null, null], "rewards": [-2, 3, -3, 3, -82], "path": ["0", "0", "23", "24", "25", "26", "27"], "rt": [831, 190, 432, 575, 413], "actions": ["left", "left", "left", "up", "up"], "actionTimes": [2497, 3185, 4128, 5204, 6109], "queries": {"click": {"state": {"target": [], "time": []}, "edge": {"target": [], "time": []}}, "mouseover": {"state": {"target": [], "time": []}, "edge": {"target": [], "time": []}}, "mouseout": {"state": {"target": ["0", "0"], "time": [1212, 16695]}, "edge": {"target": [], "time": []}}}, "displayed_time": "15.67", "trialTime": 17108, "trial_type": "mouselab-mdp", "trial_index": 21, "time_elapsed": 614624, "internal_node_id": "0.0-6.0-1.0-12.0"}}, {"uniqueid": "w58843141:a82567249", "current_trial": 22, "dateTime": 1693564946745, "trialdata": {"revealed_states": [], "clicked_states": [], "num_clicks_accrued": [0, 0, 0, 0, 0, 0, 0, 0, 0, 0, 0, 0, 0], "stateRewards": ["", -2, -3, 8, 14, -73, 73, 84, -12, -2, -50, -17, 2, 1, -2, -9, -44, -27, -33, 16, -63, -47, -66, -2, 1, 4, -5, -33, -11, 50, 9, 38, -79, 31], "withholdReward": false, "trial_id": "mdp_trial_14", "block": "test", "trialIndex": 15, "score": -11, "costs": 0, "simulationMode": [null, null, null, null, null], "rewards": [-2, -3, 8, -12, -2], "path": ["0", "0", "1", "2", "3", "8", "9"], "rt": [1398, 167, 263, 209, 1164], "actions": ["up", "up", "up", "left", "up"], "actionTimes": [3630, 4286, 5048, 5763, 7417], "queries": {"click": {"state": {"target": [], "time": []}, "edge": {"target": [], "time": []}}, "mouseover": {"state": {"target": [], "time": []}, "edge": {"target": [], "time": []}}, "mouseout": {"state": {"target": ["1", "2", "1"], "time": [1103, 1385, 1552]}, "edge": {"target": [], "time": []}}}, "displayed_time": "16.23", "trialTime": 17240, "trial_type": "mouselab-mdp", "trial_index": 22, "time_elapsed": 631998, "internal_node_id": "0.0-6.0-1.0-13.0"}}, {"uniqueid": "w58843141:a82567249", "current_trial": 23, "dateTime": 1693564963255, "trialdata": {"revealed_states": [], "clicked_states": [], "num_clicks_accrued": [0, 0, 0, 0, 0, 0, 0, 0, 0, 0, 0, 0, 0], "stateRewards": ["", 1, 1, 1, -3, -7, -1, -41, -10, 20, -72, -63, 1, -4, -2, 2, -66, 30, -84, -2, 49, 23, 71, -1, -4, 4, -12, 67, 5, 18, -16, 88, 56, -5], "withholdReward": false, "trial_id": "mdp_trial_15", "block": "test", "trialIndex": 16, "score": -69, "costs": 0, "simulationMode": [null, null, null, null, null], "rewards": [1, -4, -2, 2, -66], "path": ["0", "0", "12", "13", "14", "15", "16"], "rt": [1122, 176, 146, 487, 467], "actions": ["right", "right", "right", "up", "up"], "actionTimes": [2260, 2932, 3585, 4560, 5523], "queries": {"click": {"state": {"target": [], "time": []}, "edge": {"target": [], "time": []}}, "mouseover": {"state": {"target": [], "time": []}, "edge": {"target": [], "time": []}}, "mouseout": {"state": {"target": ["0", "1", "0"], "time": [543, 688, 15988]}, "edge": {"target": [], "time": []}}}, "displayed_time": "15.14", "trialTime": 16385, "trial_type": "mouselab-mdp", "trial_index": 23, "time_elapsed": 648507, "internal_node_id": "0.0-6.0-1.0-14.0"}}, {"uniqueid": "w58843141:a82567249", "current_trial": 24, "dateTime": 1693564982428, "trialdata": {"revealed_states": [], "clicked_states": [], "num_clicks_accrued": [0, 0, 0, 0, 0, 0, 0, 0, 0, 0, 0, 0, 0], "stateRewards": ["", 1, 1, -7, -9, -44, 24, -83, -15, 44, -24, 72, -2, -3, 4, -5, 57, 55, 29, -11, 22, 12, -25, -1, 2, 7, 12, 33, -8, 47, -4, 8, 50, -4], "withholdReward": false, "trial_id": "mdp_trial_16", "block": "test", "trialIndex": 17, "score": 54, "costs": 0, "simulationMode": [null, null, null, null, null], "rewards": [-1, 2, 7, -4, 50], "path": ["0", "0", "23", "24", "25", "30", "32"], "rt": [1380, 225, 243, 546, 301], "actions": ["left", "left", "left", "down", "down"], "actionTimes": [3429, 4158, 4894, 5929, 6718], "queries": {"click": {"state": {"target": [], "time": []}, "edge": {"target": [], "time": []}}, "mouseover": {"state": {"target": [], "time": []}, "edge": {"target": [], "time": []}}, "mouseout": {"state": {"target": ["1", "0", "0"], "time": [1150, 17083, 17717]}, "edge": {"target": [], "time": []}}}, "displayed_time": "16.05", "trialTime": 19038, "trial_type": "mouselab-mdp", "trial_index": 24, "time_elapsed": 667680, "internal_node_id": "0.0-6.0-1.0-15.0"}}, {"uniqueid": "w58843141:a82567249", "current_trial": 25, "dateTime": 1693564999811, "trialdata": {"revealed_states": [], "clicked_states": [], "num_clicks_accrued": [0, 0, 0, 0, 0, 0, 0, 0, 0, 0, 0, 0, 0], "stateRewards": ["", -1, -3, -7, -4, -85, -70, 79, 8, 84, -66, 42, 2, -2, -3, -16, -54, -66, 68, -3, 21, -14, 7, -2, -1, -3, -8, 75, 80, 86, -7, -84, 73, -16], "withholdReward": false, "trial_id": "mdp_trial_17", "block": "test", "trialIndex": 18, "score": -97, "costs": 0, "simulationMode": [null, null, null, null, null], "rewards": [-2, -1, -3, -7, -84], "path": ["0", "0", "23", "24", "25", "30", "31"], "rt": [1711, 901, 360, 579, 278], "actions": ["left", "left", "left", "down", "right"], "actionTimes": [3482, 4881, 5740, 6810, 7592], "queries": {"click": {"state": {"target": [], "time": []}, "edge": {"target": [], "time": []}}, "mouseover": {"state": {"target": ["0", "23"], "time": [2513, 2763]}, "edge": {"target": [], "time": []}}, "mouseout": {"state": {"target": ["0", "0"], "time": [1063, 2680]}, "edge": {"target": [], "time": []}}}, "displayed_time": "15.77", "trialTime": 17251, "trial_type": "mouselab-mdp", "trial_index": 25, "time_elapsed": 685063, "internal_node_id": "0.0-6.0-1.0-16.0"}}, {"uniqueid": "w58843141:a82567249", "current_trial": 26, "dateTime": 1693565019040, "trialdata": {"revealed_states": [], "clicked_states": [], "num_clicks_accrued": [0, 0, 0, 0, 0, 0, 0, 0, 0, 0, 0, 0, 0], "stateRewards": ["", 2, 4, 7, -6, -76, -81, 2, 5, -66, -3, 36, -2, -4, 6, -2, -69, 4, -49, -6, 67, 38, -67, 2, 1, 1, 6, -68, -21, 52, -16, -16, 6, -70], "withholdReward": false, "trial_id": "mdp_trial_18", "block": "test", "trialIndex": 19, "score": 15, "costs": 0, "simulationMode": [null, null, null, null, null], "rewards": [2, 4, 7, 5, -3], "path": ["0", "0", "1", "2", "3", "8", "10"], "rt": [1178, 592, 321, 220, 62], "actions": ["up", "up", "up", "left", "down"], "actionTimes": [5194, 6278, 7090, 7805, 8365], "queries": {"click": {"state": {"target": [], "time": []}, "edge": {"target": [], "time": []}}, "mouseover": {"state": {"target": [], "time": []}, "edge": {"target": [], "time": []}}, "mouseout": {"state": {"target": ["23", "23", "0"], "time": [null, 734, 1985]}, "edge": {"target": [], "time": []}}}, "displayed_time": "18.02", "trialTime": 19087, "trial_type": "mouselab-mdp", "trial_index": 26, "time_elapsed": 704292, "internal_node_id": "0.0-6.0-1.0-17.0"}}, {"uniqueid": "w58843141:a82567249", "current_trial": 27, "dateTime": 1693565036606, "trialdata": {"revealed_states": [], "clicked_states": [], "num_clicks_accrued": [0, 0, 0, 0, 0, 0, 0, 0, 0, 0, 0, 0, 0], "stateRewards": ["", -1, -2, 4, 9, 10, -75, 39, 16, -43, 88, -19, -1, 1, 2, 4, -31, 10, 73, 12, 41, -64, -81, -2, 2, -6, 1, -81, -1, -26, 3, -59, -3, -20], "withholdReward": false, "trial_id": "mdp_trial_19", "block": "test", "trialIndex": 20, "score": 20, "costs": 0, "simulationMode": [null, null, null, null, null], "rewards": [-1, -2, 4, 9, 10], "path": ["0", "0", "1", "2", "3", "4", "5"], "rt": [1466, 361, 619, 106, 1059], "actions": ["up", "up", "up", "right", "up"], "actionTimes": [2653, 3520, 4645, 5248, 6802], "queries": {"click": {"state": {"target": [], "time": []}, "edge": {"target": [], "time": []}}, "mouseover": {"state": {"target": [], "time": []}, "edge": {"target": [], "time": []}}, "mouseout": {"state": {"target": ["0", "0", "0"], "time": [null, 554, 658]}, "edge": {"target": [], "time": []}}}, "displayed_time": "15.19", "trialTime": 17427, "trial_type": "mouselab-mdp", "trial_index": 27, "time_elapsed": 721858, "internal_node_id": "0.0-6.0-1.0-18.0"}}, {"uniqueid": "w58843141:a82567249", "current_trial": 28, "dateTime": 1693565053414, "trialdata": {"revealed_states": [], "clicked_states": [], "num_clicks_accrued": [0, 0, 0, 0, 0, 0, 0, 0, 0, 0, 0, 0, 0], "stateRewards": ["", -2, 3, -1, 2, -72, 63, 20, -1, 62, -66, 39, -2, 3, -6, 14, 22, 47, 1, 8, -49, -1, -41, 2, 2, -6, -16, -64, -60, -34, 16, 54, 22, -7], "withholdReward": false, "trial_id": "mdp_trial_20", "block": "test", "trialIndex": 21, "score": 56, "costs": 0, "simulationMode": [null, null, null, null, null], "rewards": [-2, 3, -6, 14, 47], "path": ["0", "0", "12", "13", "14", "15", "17"], "rt": [1104, 247, 287, 294, 172], "actions": ["right", "right", "right", "up", "right"], "actionTimes": [2164, 2903, 3693, 4483, 5144], "queries": {"click": {"state": {"target": [], "time": []}, "edge": {"target": [], "time": []}}, "mouseover": {"state": {"target": [], "time": []}, "edge": {"target": [], "time": []}}, "mouseout": {"state": {"target": [], "time": []}, "edge": {"target": [], "time": []}}}, "displayed_time": "15.06", "trialTime": 16665, "trial_type": "mouselab-mdp", "trial_index": 28, "time_elapsed": 738666, "internal_node_id": "0.0-6.0-1.0-19.0"}}, {"uniqueid": "w58843141:a82567249", "current_trial": 29, "dateTime": 1693565069908, "trialdata": {"revealed_states": [], "clicked_states": [], "num_clicks_accrued": [0, 0, 0, 0, 0, 0, 0, 0, 0, 0, 0, 0, 0], "stateRewards": ["", -1, 1, 3, -8, -23, -15, -14, -11, -23, 58, 68, 1, 3, 5, 12, -17, -41, -7, -10, -4, 82, 10, 1, 4, -4, 11, 73, 55, -55, -1, -86, -86, 54], "withholdReward": false, "trial_id": "mdp_trial_21", "block": "test", "trialIndex": 22, "score": -43, "costs": 0, "simulationMode": [null, null, null, null, null], "rewards": [1, 4, -4, 11, -55], "path": ["0", "0", "23", "24", "25", "26", "29"], "rt": [1115, 590, 1012, 237, 34], "actions": ["left", "left", "left", "up", "left"], "actionTimes": [2156, 3262, 4767, 5509, 6060], "queries": {"click": {"state": {"target": [], "time": []}, "edge": {"target": [], "time": []}}, "mouseover": {"state": {"target": [], "time": []}, "edge": {"target": [], "time": []}}, "mouseout": {"state": {"target": ["0", "12", "22", "21"], "time": [15622, 15771, 15838, 15904]}, "edge": {"target": [], "time": []}}}, "displayed_time": "15.04", "trialTime": 16344, "trial_type": "mouselab-mdp", "trial_index": 29, "time_elapsed": 755161, "internal_node_id": "0.0-6.0-1.0-20.0"}}, {"uniqueid": "w58843141:a82567249", "current_trial": 30, "dateTime": 1693565086554, "trialdata": {"revealed_states": [], "clicked_states": [], "num_clicks_accrued": [0, 0, 0, 0, 0, 0, 0, 0, 0, 0, 0, 0, 0], "stateRewards": ["", -2, 2, 2, -6, 9, 37, 50, -13, -7, -18, -75, -2, -4, 4, 7, 23, -57, -66, -7, -81, -48, -76, 1, 1, -8, 1, 51, -2, 70, 14, 59, 71, -37], "withholdReward": false, "trial_id": "mdp_trial_22", "block": "test", "trialIndex": 23, "score": -90, "costs": 0, "simulationMode": [null, null, null, null, null], "rewards": [-2, -4, 4, -7, -81], "path": ["0", "0", "12", "13", "14", "19", "20"], "rt": [1400, 103, 298, 124, 472], "actions": ["right", "right", "right", "down", "right"], "actionTimes": [2813, 3404, 4199, 4841, 5807], "queries": {"click": {"state": {"target": [], "time": []}, "edge": {"target": [], "time": []}}, "mouseover": {"state": {"target": [], "time": []}, "edge": {"target": [], "time": []}}, "mouseout": {"state": {"target": [], "time": []}, "edge": {"target": [], "time": []}}}, "displayed_time": "15.41", "trialTime": 16502, "trial_type": "mouselab-mdp", "trial_index": 30, "time_elapsed": 771806, "internal_node_id": "0.0-6.0-1.0-21.0"}}, {"uniqueid": "w58843141:a82567249", "current_trial": 31, "dateTime": 1693565103569, "trialdata": {"revealed_states": [], "clicked_states": [], "num_clicks_accrued": [0, 0, 0, 0, 0, 0, 0, 0, 0, 0, 0, 0, 0], "stateRewards": ["", 1, 2, 8, -2, 23, -69, -18, -16, 54, -21, 71, -1, -4, 7, 11, 43, -6, 88, 6, -55, 72, 43, 1, -3, -2, -1, 68, -31, -54, 4, -8, 25, -2], "withholdReward": false, "trial_id": "mdp_trial_23", "block": "test", "trialIndex": 24, "score": -9, "costs": 0, "simulationMode": [null, null, null, null, null], "rewards": [1, 2, 8, -2, -18], "path": ["0", "0", "1", "2", "3", "4", "7"], "rt": [1815, 50, 44, 398, 336], "actions": ["up", "up", "up", "right", "down"], "actionTimes": [3590, 4138, 4681, 5585, 6425], "queries": {"click": {"state": {"target": [], "time": []}, "edge": {"target": [], "time": []}}, "mouseover": {"state": {"target": [], "time": []}, "edge": {"target": [], "time": []}}, "mouseout": {"state": {"target": [], "time": []}, "edge": {"target": [], "time": []}}}, "displayed_time": "15.78", "trialTime": 16871, "trial_type": "mouselab-mdp", "trial_index": 31, "time_elapsed": 788822, "internal_node_id": "0.0-6.0-1.0-22.0"}}, {"uniqueid": "w58843141:a82567249", "current_trial": 32, "dateTime": 1693565131479, "trialdata": {"revealed_states": [], "clicked_states": ["26", "29", "32", "9", "17", "21"], "num_clicks_accrued": [0, 0, 0, 0, 0, 0, 0, 0, 0, 0, 0, 0, 0], "stateRewards": ["", -2, 3, -1, -9, 44, 48, -37, -3, 71, -39, 87, -1, 3, -4, 4, -21, 59, -15, -8, -1, 28, -38, 2, 4, 4, 8, -85, -72, -63, 14, 58, 63, -46], "withholdReward": false, "trial_id": "mdp_trial_24", "block": "test", "trialIndex": 25, "score": 55.7, "costs": -12.3, "simulationMode": [null, null, null, null, null, null], "rewards": [-2, 3, -1, -3, 71], "path": ["0", "0", "1", "2", "3", "8", "9"], "rt": [17874, 2400, 120, 370, 74, 646], "actions": ["up", "up", "up", "up", "left", "up"], "actionTimes": [19075, 21478, 22093, 22960, 23548, 24686], "queries": {"click": {"state": {"target": ["26", "29", "32", "9", "17", "21"], "time": [2481, 3564, 6928, 10183, 13414, 16417]}, "edge": {"target": [], "time": []}}, "mouseover": {"state": {"target": ["23", "28", "26", "29", "27", "26", "25", "30", "32", "24", "10", "8", "9", "5", "6", "18", "15", "17", "17", "14", "19", "21", "22", "12", "1", "1", "0"], "time": [1807, 1940, 2174, 3240, 4273, 6108, 6141, 6240, 6607, 7507, 7641, 7706, 8256, 11106, 11473, 11675, 12006, 12090, 12323, 14556, 14839, 15123, 17156, 17306, 17723, 18056, 20406]}, "edge": {"target": [], "time": []}}, "mouseout": {"state": {"target": ["0", "23", "28", "26", "29", "27", "26", "25", "30", "32", "24", "10", "8", "9", "5", "6", "18", "15", "17", "17", "14", "19", "21", "22", "12", "1", "1", "0"], "time": [1757, 1857, 2040, 2698, 4174, 6107, 6124, 6157, 6357, 7143, 7557, 7673, 7723, 11040, 11140, 11540, 11989, 12040, 12107, 14490, 14756, 15056, 17123, 17206, 17422, 17823, 20306, 26939]}, "edge": {"target": [], "time": []}}}, "displayed_time": "25.17", "trialTime": 27768, "trial_type": "mouselab-mdp", "trial_index": 32, "time_elapsed": 816731, "internal_node_id": "0.0-6.0-1.0-23.0"}}, {"uniqueid": "w58843141:a82567249", "current_trial": 33, "dateTime": 1693565157651, "trialdata": {"revealed_states": [], "clicked_states": ["17", "29", "21", "16"], "num_clicks_accrued": [0, 0, 0, 0, 0, 0, 0, 0, 0, 0, 0, 0, 0], "stateRewards": ["", 2, -3, 5, 11, -79, 54, 11, -9, -78, 33, 22, -2, -1, 2, 14, 43, 34, 1, 10, 49, -65, 39, -1, 1, -1, 3, -16, -2, 11, 2, 12, 48, -65], "withholdReward": false, "trial_id": "mdp_trial_25", "block": "test", "trialIndex": 26, "score": 47.4, "costs": -8.6, "simulationMode": [null, null, null, null, null], "rewards": [-2, -1, 2, 14, 43], "path": ["0", "0", "12", "13", "14", "15", "16"], "rt": [17871, 346, 333, 425, 318], "actions": ["right", "right", "right", "up", "up"], "actionTimes": [20028, 20888, 21709, 22634, 23460], "queries": {"click": {"state": {"target": ["17", "29", "21", "16"], "time": [3305, 8299, 13265, 16126]}, "edge": {"target": [], "time": []}}, "mouseover": {"state": {"target": ["17", "20", "19", "22", "28", "26", "29", "33", "30", "31", "22", "19", "19", "21", "16", "17", "15", "18", "12"], "time": [2893, 4076, 6975, 7110, 7510, 7592, 7860, 9542, 11858, 11942, 12458, 12491, 12792, 12959, 15493, 17225, 17979, 18024, 18291]}, "edge": {"target": [], "time": []}}, "mouseout": {"state": {"target": ["0", "17", "20", "19", "22", "28", "26", "29", "33", "30", "31", "22", "19", "19", "21", "16", "17", "15", "18", "12", "12"], "time": [1877, 3843, 6943, 7092, 7126, 7559, 7642, 9076, 11826, 11892, 12391, 12476, 12542, 12859, 14742, 16958, 17977, 18008, 18075, 18508, 25525]}, "edge": {"target": [], "time": []}}}, "displayed_time": "23.96", "trialTime": 26028, "trial_type": "mouselab-mdp", "trial_index": 33, "time_elapsed": 842904, "internal_node_id": "0.0-6.0-1.0-24.0"}}, {"uniqueid": "w58843141:a82567249", "current_trial": 34, "dateTime": 1693565178977, "trialdata": {"revealed_states": [], "clicked_states": ["27", "17", "20"], "num_clicks_accrued": [0, 0, 0, 0, 0, 0, 0, 0, 0, 0, 0, 0, 0], "stateRewards": ["", -2, 3, -5, -7, 66, 43, -60, -4, -70, -75, 4, -1, 2, 2, -13, 54, 11, -40, -1, 77, 32, 15, -2, 3, -8, -9, -35, 83, -27, 6, -74, -34, 44], "withholdReward": false, "trial_id": "mdp_trial_26", "block": "test", "trialIndex": 27, "score": 72.55, "costs": -6.449999999999999, "simulationMode": [null, null, null, null, null], "rewards": [-1, 2, 2, -1, 77], "path": ["0", "0", "12", "13", "14", "19", "20"], "rt": [14370, 124, 224, 209, 128], "actions": ["right", "right", "right", "down", "right"], "actionTimes": [16308, 16925, 17657, 18359, 18978], "queries": {"click": {"state": {"target": ["27", "17", "20"], "time": [3711, 8172, 12052]}, "edge": {"target": [], "time": []}}, "mouseover": {"state": {"target": ["23", "24", "26", "27", "27", "10", "2", "15", "17", "17", "20", "21", "19", "18", "4", "7"], "time": [2683, 2750, 2900, 2950, 3454, 4450, 4484, 4933, 5016, 7816, 8983, 13016, 14417, 14483, 15066, 15382]}, "edge": {"target": [], "time": []}}, "mouseout": {"state": {"target": ["0", "1", "23", "24", "26", "27", "27", "10", "2", "15", "17", "17", "20", "21", "19", "18", "4", "7", "1", "28", "26"], "time": [1167, 1483, 2700, 2833, 2933, 3017, 4367, 4467, 4516, 4966, 7649, 8766, 12666, 14416, 14433, 14499, 15349, 15433, 20516, 20565, 20599]}, "edge": {"target": [], "time": []}}}, "displayed_time": "19.47", "trialTime": 21196, "trial_type": "mouselab-mdp", "trial_index": 34, "time_elapsed": 864230, "internal_node_id": "0.0-6.0-1.0-25.0"}}, {"uniqueid": "w58843141:a82567249", "current_trial": 35, "dateTime": 1693565207262, "trialdata": {"revealed_states": [], "clicked_states": ["9", "5", "7", "6"], "num_clicks_accrued": [0, 0, 0, 0, 0, 0, 0, 0, 0, 0, 0, 0, 0], "stateRewards": ["", -2, -4, -2, -13, -15, 87, -19, -6, -80, 30, 12, 1, 1, -8, 2, 55, 56, 15, 11, -68, -7, 55, -2, 3, -3, -3, 48, 62, 4, 1, -3, 69, -33], "withholdReward": false, "trial_id": "mdp_trial_27", "block": "test", "trialIndex": 28, "score": 57.4, "costs": -8.6, "simulationMode": [null, null, null, null, null], "rewards": [-2, -4, -2, -13, 87], "path": ["0", "0", "1", "2", "3", "4", "6"], "rt": [18733, 22, 357, 915, 463], "actions": ["up", "up", "up", "right", "right"], "actionTimes": [21789, 22303, 23188, 24613, 25578], "queries": {"click": {"state": {"target": ["9", "5", "7", "6"], "time": [4232, 8215, 12622, 17369]}, "edge": {"target": [], "time": []}}, "mouseover": {"state": {"target": ["1", "2", "9", "5", "16", "7", "6", "4", "3", "4", "6", "6", "2", "10", "26", "29", "26", "28"], "time": [3481, 3530, 3815, 4864, 9313, 10064, 13713, 15930, 16480, 16647, 16730, 16947, 18330, 18347, 18447, 18846, 20830, 20896]}, "edge": {"target": [], "time": []}}, "mouseout": {"state": {"target": ["33", "32", "0", "1", "2", "9", "5", "16", "7", "6", "4", "3", "4", "6", "6", "6", "7", "2", "10", "26", "29", "26", "28", "23"], "time": [831, 864, 2664, 3497, 3581, 4764, 8830, 9347, 13447, 15913, 16439, 16631, 16680, 16797, 17580, 18230, 18314, 18346, 18380, 18781, 20813, 20846, 20913, 27013]}, "edge": {"target": [], "time": []}}}, "displayed_time": "26.10", "trialTime": 28163, "trial_type": "mouselab-mdp", "trial_index": 35, "time_elapsed": 892514, "internal_node_id": "0.0-6.0-1.0-26.0"}}, {"uniqueid": "w58843141:a82567249", "current_trial": 36, "dateTime": 1693565231381, "trialdata": {"revealed_states": [], "clicked_states": ["29", "17", "9"], "num_clicks_accrued": [0, 0, 0, 0, 0, 0, 0, 0, 0, 0, 0, 0, 0], "stateRewards": ["", 2, 1, -3, 7, 46, 11, -36, 16, 71, 5, 1, 2, -2, -8, -3, -4, 6, 55, 7, 68, -54, 2, 1, 1, 6, -6, 42, -4, -84, -11, -65, 63, 25], "withholdReward": false, "trial_id": "mdp_trial_28", "block": "test", "trialIndex": 29, "score": 80.55, "costs": -6.449999999999999, "simulationMode": [null, null, null, null, null], "rewards": [2, 1, -3, 16, 71], "path": ["0", "0", "1", "2", "3", "8", "9"], "rt": [15054, 234, 327, 254, 969], "actions": ["up", "up", "up", "left", "up"], "actionTimes": [16522, 17273, 18099, 18843, 20308], "queries": {"click": {"state": {"target": ["29", "17", "9"], "time": [3119, 7782, 12005]}, "edge": {"target": [], "time": []}}, "mouseover": {"state": {"target": ["1", "26", "29", "25", "33", "24", "1", "16", "17", "18", "23", "24", "30", "32", "25", "9", "5", "4", "7", "22", "12"], "time": [2105, 2523, 2740, 3905, 4072, 6739, 6788, 6872, 7473, 8622, 9372, 9422, 9772, 10747, 11105, 11622, 13038, 13205, 13305, 14405, 15505]}, "edge": {"target": [], "time": []}}, "mouseout": {"state": {"target": ["0", "1", "26", "29", "25", "33", "24", "1", "16", "17", "17", "18", "23", "24", "30", "32", "25", "9", "5", "4", "7", "22", "12", "0"], "time": [2083, 2289, 2573, 3772, 4006, 6656, 6772, 6805, 6889, 8009, 8589, 8639, 9406, 9472, 9872, 11089, 11122, 12221, 13155, 13239, 13489, 15478, 15538, 21672]}, "edge": {"target": [], "time": []}}}, "displayed_time": "20.81", "trialTime": 23992, "trial_type": "mouselab-mdp", "trial_index": 36, "time_elapsed": 916633, "internal_node_id": "0.0-6.0-1.0-27.0"}}, {"uniqueid": "w58843141:a82567249", "current_trial": 37, "dateTime": 1693565256142, "trialdata": {"revealed_states": [], "clicked_states": ["11", "21", "28", "17"], "num_clicks_accrued": [0, 0, 0, 0, 0, 0, 0, 0, 0, 0, 0, 0, 0], "stateRewards": ["", -1, -4, -3, 1, -45, -67, -24, 14, 32, 22, 22, -1, 1, -5, -7, 72, 84, -79, -5, 19, -40, -2, -1, -2, 8, -3, 84, -25, -28, 11, 64, -66, 77], "withholdReward": false, "trial_id": "mdp_trial_29", "block": "test", "trialIndex": 30, "score": 63.4, "costs": -8.6, "simulationMode": [null, null, null, null, null], "rewards": [-1, 1, -5, -7, 84], "path": ["0", "0", "12", "13", "14", "15", "17"], "rt": [17727, 100, 376, 1152, 133], "actions": ["right", "right", "right", "up", "right"], "actionTimes": [19170, 19785, 20660, 22320, 22951], "queries": {"click": {"state": {"target": ["11", "21", "28", "17"], "time": [2728, 6804, 11007, 14523]}, "edge": {"target": [], "time": []}}, "mouseover": {"state": {"target": ["10", "11", "8", "3", "4", "6", "14", "19", "21", "30", "33", "30", "24", "28", "1", "18", "15", "17", "17", "15", "18"], "time": [2001, 2351, 3318, 3351, 3384, 3434, 3701, 4467, 4700, 7534, 7567, 7917, 8417, 8584, 13134, 13217, 13534, 13634, 14201, 17850, 17950]}, "edge": {"target": [], "time": []}}, "mouseout": {"state": {"target": ["0", "10", "11", "8", "3", "4", "6", "14", "19", "21", "30", "33", "30", "24", "28", "1", "18", "15", "17", "17", "15"], "time": [1920, 2201, 3301, 3334, 3367, 3401, 3517, 4117, 4617, 7467, 7550, 7884, 7934, 8567, 11229, 13150, 13250, 13567, 13800, 17751, 17934]}, "edge": {"target": [], "time": []}}}, "displayed_time": "23.45", "trialTime": 24616, "trial_type": "mouselab-mdp", "trial_index": 37, "time_elapsed": 941395, "internal_node_id": "0.0-6.0-1.0-28.0"}}, {"uniqueid": "w58843141:a82567249", "current_trial": 38, "dateTime": 1693565274646, "trialdata": {"revealed_states": [], "clicked_states": ["33"], "num_clicks_accrued": [0, 0, 0, 0, 0, 0, 0, 0, 0, 0, 0, 0, 0], "stateRewards": ["", -1, 1, 8, -3, -24, 11, -65, -6, -77, 48, 44, -2, 1, -2, -7, -55, -35, 33, 8, -28, 19, -53, -1, -1, -5, -5, -70, 10, 44, 8, -58, -70, 51], "withholdReward": false, "trial_id": "mdp_trial_30", "block": "test", "trialIndex": 31, "score": 49.85, "costs": -2.15, "simulationMode": [null, null, null, null, null], "rewards": [-1, -1, -5, 8, 51], "path": ["0", "0", "23", "24", "25", "30", "33"], "rt": [7363, 115, 301, 266, 87], "actions": ["left", "left", "left", "down", "left"], "actionTimes": [10174, 10793, 11611, 12392, 12981], "queries": {"click": {"state": {"target": ["33"], "time": [4806]}, "edge": {"target": [], "time": []}}, "mouseover": {"state": {"target": ["1", "8", "26", "25", "30", "33", "30", "31", "20", "21"], "time": [3359, 3542, 3992, 4175, 4275, 4476, 5459, 5509, 6292, 6825]}, "edge": {"target": [], "time": []}}, "mouseout": {"state": {"target": ["18", "1", "8", "26", "25", "30", "33", "30", "31", "20", "21"], "time": [1793, 3409, 3842, 4159, 4259, 4292, 5442, 5479, 5559, 6592, 15959]}, "edge": {"target": [], "time": []}}}, "displayed_time": "16.81", "trialTime": 18378, "trial_type": "mouselab-mdp", "trial_index": 38, "time_elapsed": 959898, "internal_node_id": "0.0-6.0-1.0-29.0"}}, {"uniqueid": "w58843141:a82567249", "current_trial": 39, "dateTime": 1693565291263, "trialdata": {"revealed_states": [], "clicked_states": ["28"], "num_clicks_accrued": [0, 0, 0, 0, 0, 0, 0, 0, 0, 0, 0, 0, 0], "stateRewards": ["", -1, -2, 8, -6, -79, -6, 87, 9, -5, -66, -38, 2, 2, 5, -6, -82, 74, 85, -8, 67, -30, -15, 1, -2, -2, -2, 87, 64, 49, 7, 2, -38, -9], "withholdReward": false, "trial_id": "mdp_trial_31", "block": "test", "trialIndex": 32, "score": 56.85, "costs": -2.15, "simulationMode": [null, null, null, null, null], "rewards": [1, -2, -2, -2, 64], "path": ["0", "0", "23", "24", "25", "26", "28"], "rt": [5784, 91, 199, 344, 691], "actions": ["left", "left", "left", "up", "right"], "actionTimes": [7308, 7894, 8585, 9446, 10627], "queries": {"click": {"state": {"target": ["28"], "time": [2924]}, "edge": {"target": [], "time": []}}, "mouseover": {"state": {"target": ["1", "10", "28", "1", "12", "13", "14", "22"], "time": [2185, 2286, 2619, 3885, 4002, 4035, 4085, 6436]}, "edge": {"target": [], "time": []}}, "mouseout": {"state": {"target": ["0", "1", "10", "28", "1", "12", "13", "14"], "time": [902, 2254, 2301, 3145, 3901, 4018, 4068, 4118]}, "edge": {"target": [], "time": []}}}, "displayed_time": "15.53", "trialTime": 16490, "trial_type": "mouselab-mdp", "trial_index": 39, "time_elapsed": 976516, "internal_node_id": "0.0-6.0-1.0-30.0"}}, {"uniqueid": "w58843141:a82567249", "current_trial": 40, "dateTime": 1693565327963, "trialdata": {"revealed_states": [], "clicked_states": ["16", "29", "10", "31", "22"], "num_clicks_accrued": [0, 0, 0, 0, 0, 0, 0, 0, 0, 0, 0, 0, 0], "stateRewards": ["", -1, 1, -1, 2, 19, 85, -18, 2, -3, -26, 36, 2, 4, 7, -9, -18, 70, 72, -5, 35, -20, -28, 1, -2, -4, -3, -59, -11, -63, -2, -72, 59, -69], "withholdReward": false, "trial_id": "mdp_trial_32", "block": "test", "trialIndex": 33, "score": 63.25, "costs": -10.75, "simulationMode": [null, null, null, null, null], "rewards": [2, 4, 7, -9, 70], "path": ["0", "0", "12", "13", "14", "15", "17"], "rt": [26120, 450, 570, 697, 668], "actions": ["right", "right", "right", "up", "right"], "actionTimes": [27809, 28755, 29826, 31018, 32188], "queries": {"click": {"state": {"target": ["16", "29", "10", "31", "22"], "time": [2807, 5828, 11131, 14858, 19445]}, "edge": {"target": [], "time": []}}, "mouseover": {"state": {"target": ["1", "16", "13", "11", "29", "24", "23", "31", "24", "10", "24", "31", "22", "14", "15", "16", "16", "17"], "time": [2171, 2371, 3771, 4528, 5354, 6987, 7404, 7721, 10337, 10771, 14004, 14387, 16937, 20620, 22904, 23020, 23486, 26487]}, "edge": {"target": [], "time": []}}, "mouseout": {"state": {"target": ["22", "12", "1", "16", "13", "11", "29", "24", "23", "31", "24", "10", "10", "24", "31", "22", "14", "15", "16", "16", "17", "15", "18", "12"], "time": [938, 988, 2188, 3721, 3788, 4854, 6637, 7154, 7654, 10322, 10387, 11355, 13870, 14104, 16353, 19663, 20637, 22920, 23070, 26004, 34144, 34220, 34269, 34437]}, "edge": {"target": [], "time": []}}}, "displayed_time": "32.69", "trialTime": 36559, "trial_type": "mouselab-mdp", "trial_index": 40, "time_elapsed": 1013216, "internal_node_id": "0.0-6.0-1.0-31.0"}}, {"uniqueid": "w58843141:a82567249", "current_trial": 41, "dateTime": 1693565348006, "trialdata": {"revealed_states": [], "clicked_states": ["11", "22", "5"], "num_clicks_accrued": [0, 0, 0, 0, 0, 0, 0, 0, 0, 0, 0, 0, 0], "stateRewards": ["", 1, -1, 8, 4, 76, -33, -17, -3, -1, -54, -74, -2, 2, -5, 13, -51, 63, 83, 1, 84, 29, -36, 2, -1, 7, -12, -10, -44, -43, -14, 8, -69, 19], "withholdReward": false, "trial_id": "mdp_trial_33", "block": "test", "trialIndex": 34, "score": 81.55, "costs": -6.449999999999999, "simulationMode": [null, null, null, null, null], "rewards": [1, -1, 8, 4, 76], "path": ["0", "0", "1", "2", "3", "4", "5"], "rt": [13331, 74, 363, 250, 569], "actions": ["up", "up", "up", "right", "up"], "actionTimes": [14541, 15111, 15966, 16720, 17805], "queries": {"click": {"state": {"target": ["11", "22", "5"], "time": [2342, 5937, 9947]}, "edge": {"target": [], "time": []}}, "mouseover": {"state": {"target": ["10", "8", "11", "10", "1", "12", "22", "13", "18", "5", "17", "15", "18"], "time": [1686, 1837, 2003, 2869, 2919, 3052, 3336, 6702, 6769, 6952, 11169, 13452, 13502]}, "edge": {"target": [], "time": []}}, "mouseout": {"state": {"target": ["12", "10", "8", "11", "10", "1", "12", "22", "13", "18", "5", "17", "15", "18", "0"], "time": [703, 1736, 1886, 2836, 2902, 2969, 3186, 6685, 6752, 6785, 10635, 13419, 13485, 13535, 19452]}, "edge": {"target": [], "time": []}}}, "displayed_time": "18.32", "trialTime": 19902, "trial_type": "mouselab-mdp", "trial_index": 41, "time_elapsed": 1033259, "internal_node_id": "0.0-6.0-1.0-32.0"}}, {"uniqueid": "w58843141:a82567249", "current_trial": 42, "dateTime": 1693565376408, "trialdata": {"revealed_states": [], "clicked_states": ["29", "10", "7", "22", "32"], "num_clicks_accrued": [0, 0, 0, 0, 0, 0, 0, 0, 0, 0, 0, 0, 0], "stateRewards": ["", 1, 4, 7, -16, -84, -6, -46, -12, -7, -49, -26, -1, 2, -4, 2, 22, 37, -64, 1, 88, -13, -10, 1, -4, -2, 5, 2, -10, -34, 9, 66, 55, 38], "withholdReward": false, "trial_id": "mdp_trial_34", "block": "test", "trialIndex": 35, "score": 48.25, "costs": -10.75, "simulationMode": [null, null, null, null, null], "rewards": [1, -4, -2, 9, 55], "path": ["0", "0", "23", "24", "25", "30", "32"], "rt": [20755, 258, 360, 252, 25], "actions": ["left", "left", "left", "down", "down"], "actionTimes": [22904, 23663, 24515, 25256, 25780], "queries": {"click": {"state": {"target": ["29", "10", "7", "22", "32"], "time": [3683, 8295, 12824, 15743, 18505]}, "edge": {"target": [], "time": []}}, "mouseover": {"state": {"target": ["1", "28", "26", "29", "26", "31", "23", "1", "10", "2", "7", "24", "31", "23", "1", "7", "18", "13", "22", "31", "32", "13", "17", "17", "15", "12"], "time": [2721, 2954, 3105, 3339, 4238, 4604, 7404, 7538, 7821, 9121, 9254, 9954, 10137, 12105, 12137, 12205, 15104, 15171, 15454, 17803, 18170, 19637, 19722, 20687, 21970, 22104]}, "edge": {"target": [], "time": []}}, "mouseout": {"state": {"target": ["0", "1", "28", "26", "29", "26", "31", "23", "1", "10", "2", "7", "24", "31", "23", "1", "7", "18", "13", "22", "31", "32", "13", "17", "17", "15", "12"], "time": [1587, 2755, 3038, 3255, 3896, 4338, 7388, 7471, 7788, 9104, 9188, 9738, 10105, 12104, 12121, 12154, 15004, 15137, 15337, 15966, 17837, 18720, 19654, 20187, 21954, 21987, 22171]}, "edge": {"target": [], "time": []}}}, "displayed_time": "26.27", "trialTime": 28257, "trial_type": "mouselab-mdp", "trial_index": 42, "time_elapsed": 1061661, "internal_node_id": "0.0-6.0-1.0-33.0"}}, {"uniqueid": "w58843141:a82567249", "current_trial": 43, "dateTime": 1693565403680, "trialdata": {"revealed_states": [], "clicked_states": ["28"], "num_clicks_accrued": [0, 0, 0, 0, 0, 0, 0, 0, 0, 0, 0, 0, 0], "stateRewards": ["", -1, -2, -8, 8, -27, -82, 19, -14, -62, 4, 1, -2, 2, 6, 10, 73, -51, -2, 2, 73, -48, 54, -1, 2, -4, 11, -25, 47, 86, 15, 33, 43, -42], "withholdReward": false, "trial_id": "mdp_trial_35", "block": "test", "trialIndex": 36, "score": 52.85, "costs": -2.15, "simulationMode": [null, null, null, null, null], "rewards": [-1, 2, -4, 11, 47], "path": ["0", "0", "23", "24", "25", "26", "28"], "rt": [5564, 68, 60, 605, 507], "actions": ["left", "left", "left", "up", "right"], "actionTimes": [7262, 7843, 8404, 9496, 10498], "queries": {"click": {"state": {"target": ["28"], "time": [2938]}, "edge": {"target": [], "time": []}}, "mouseover": {"state": {"target": ["28", "1", "18", "15", "17", "15", "12"], "time": [2341, 3574, 3673, 4107, 4674, 6424, 6523]}, "edge": {"target": [], "time": []}}, "mouseout": {"state": {"target": ["0", "28", "1", "18", "15", "17", "15", "12", "1", "2", "7", "12"], "time": [1340, 3491, 3590, 3923, 4607, 6423, 6456, 6556, 26174, 26405, 26506, 26573]}, "edge": {"target": [], "time": []}}}, "displayed_time": "15.70", "trialTime": 27116, "trial_type": "mouselab-mdp", "trial_index": 43, "time_elapsed": 1088932, "internal_node_id": "0.0-6.0-1.0-34.0"}}, {"uniqueid": "w58843141:a82567249", "current_trial": 44, "dateTime": 1693565422923, "trialdata": {"revealed_states": [], "clicked_states": ["9", "18"], "num_clicks_accrued": [0, 0, 0, 0, 0, 0, 0, 0, 0, 0, 0, 0, 0], "stateRewards": ["", 1, 2, -3, -5, 66, -50, -47, -5, 1, 28, -27, 1, 1, -1, -6, 37, -25, 56, 1, -82, -66, -40, -1, -4, -7, 15, -61, -23, 26, 10, 14, -56, 29], "withholdReward": false, "trial_id": "mdp_trial_36", "block": "test", "trialIndex": 37, "score": 46.7, "costs": -4.3, "simulationMode": [null, null, null, null, null], "rewards": [1, 1, -1, -6, 56], "path": ["0", "0", "12", "13", "14", "15", "18"], "rt": [10017, 516, 44, 498, 503], "actions": ["right", "right", "right", "up", "left"], "actionTimes": [13101, 14121, 14664, 15685, 16689], "queries": {"click": {"state": {"target": ["9", "18"], "time": [4332, 7970]}, "edge": {"target": [], "time": []}}, "mouseover": {"state": {"target": ["10", "8", "9", "3", "4", "18", "15", "17", "20", "19", "22"], "time": [3637, 3686, 3970, 4853, 4903, 5270, 8586, 8653, 9070, 11370, 11419]}, "edge": {"target": [], "time": []}}, "mouseout": {"state": {"target": ["1", "0", "10", "8", "9", "3", "4", "18", "15", "17", "20", "19", "22"], "time": [2620, 3580, 3669, 3839, 4803, 4886, 4920, 8570, 8620, 8719, 11369, 11403, 11436]}, "edge": {"target": [], "time": []}}}, "displayed_time": "17.19", "trialTime": 19073, "trial_type": "mouselab-mdp", "trial_index": 44, "time_elapsed": 1108176, "internal_node_id": "0.0-6.0-1.0-35.0"}}, {"uniqueid": "w58843141:a82567249", "current_trial": 45, "dateTime": 1693565448226, "trialdata": {"revealed_states": [], "clicked_states": ["33", "16", "7", "10"], "num_clicks_accrued": [0, 0, 0, 0, 0, 0, 0, 0, 0, 0, 0, 0, 0], "stateRewards": ["", 2, 3, -6, -5, -3, 55, 40, 11, 61, 11, 51, 2, -4, -6, 9, -25, 29, -15, -6, 7, -77, -2, -2, -4, 1, 14, -43, -1, 56, -12, -54, 41, -74], "withholdReward": false, "trial_id": "mdp_trial_37", "block": "test", "trialIndex": 38, "score": 25.4, "costs": -8.6, "simulationMode": [null, null, null, null, null, null], "rewards": [2, 3, -6, -5, 40], "path": ["0", "0", "1", "2", "3", "4", "7"], "rt": [14758, 303, 64, 74, 468, 144], "actions": ["up", "up", "up", "up", "right", "down"], "actionTimes": [17394, 17699, 18273, 18850, 19844, 20487], "queries": {"click": {"state": {"target": ["33", "16", "7", "10"], "time": [4135, 8072, 12638, 16263]}, "edge": {"target": [], "time": []}}, "mouseover": {"state": {"target": ["23", "24", "25", "30", "33", "30", "31", "23", "1", "16", "7", "3", "9", "3", "7", "2", "10"], "time": [3276, 3342, 3525, 3692, 3792, 4842, 5075, 5125, 5175, 5592, 8742, 8875, 9209, 11925, 12275, 13975, 14175]}, "edge": {"target": [], "time": []}}, "mouseout": {"state": {"target": ["23", "24", "25", "30", "33", "30", "31", "23", "1", "16", "7", "3", "9", "3", "7", "2", "10"], "time": [3308, 3442, 3642, 3742, 4692, 4858, 5092, 5158, 5192, 8692, 8775, 9059, 11792, 12025, 13958, 14025, 24574]}, "edge": {"target": [], "time": []}}}, "displayed_time": "20.99", "trialTime": 25116, "trial_type": "mouselab-mdp", "trial_index": 45, "time_elapsed": 1133478, "internal_node_id": "0.0-6.0-1.0-36.0"}}, {"uniqueid": "w58843141:a82567249", "current_trial": 46, "dateTime": 1693565467135, "trialdata": {"revealed_states": [], "clicked_states": ["17", "21"], "num_clicks_accrued": [0, 0, 0, 0, 0, 0, 0, 0, 0, 0, 0, 0, 0], "stateRewards": ["", 2, -1, 8, -2, -16, 69, -39, -7, -13, -27, -86, 2, -2, 2, 13, -34, -16, -20, -5, 19, 81, 32, -2, -1, 2, -14, 20, 80, 58, 4, 70, 12, 73], "withholdReward": false, "trial_id": "mdp_trial_38", "block": "test", "trialIndex": 39, "score": 73.7, "costs": -4.3, "simulationMode": [null, null, null, null, null], "rewards": [2, -2, 2, -5, 81], "path": ["0", "0", "12", "13", "14", "19", "21"], "rt": [9623, 72, 74, 453, 182], "actions": ["right", "right", "right", "down", "down"], "actionTimes": [12857, 13444, 14014, 14974, 15653], "queries": {"click": {"state": {"target": ["17", "21"], "time": [4841, 8182]}, "edge": {"target": [], "time": []}}, "mouseover": {"state": {"target": ["18", "15", "17", "19", "21", "25", "29"], "time": [4121, 4154, 4204, 5521, 5654, 8771, 9387]}, "edge": {"target": [], "time": []}}, "mouseout": {"state": {"target": ["23", "18", "15", "17", "19", "21", "25", "29"], "time": [2588, 4137, 4187, 5471, 5571, 8654, 9071, 18038]}, "edge": {"target": [], "time": []}}}, "displayed_time": "17.24", "trialTime": 18722, "trial_type": "mouselab-mdp", "trial_index": 46, "time_elapsed": 1152388, "internal_node_id": "0.0-6.0-1.0-37.0"}}, {"uniqueid": "w58843141:a82567249", "current_trial": 47, "dateTime": 1693565503975, "trialdata": {"revealed_states": [], "clicked_states": ["7", "28", "33", "9", "21", "31", "32"], "num_clicks_accrued": [0, 0, 0, 0, 0, 0, 0, 0, 0, 0, 0, 0, 0], "stateRewards": ["", -1, 3, 8, 9, -53, 20, -84, 2, -28, -62, -31, -1, -2, -7, 2, 51, 58, 45, -4, -17, -41, 36, 2, -2, -7, -15, 29, -54, -37, -16, -43, 65, -17], "withholdReward": false, "trial_id": "mdp_trial_39", "block": "test", "trialIndex": 40, "score": 26.950000000000003, "costs": -15.05, "simulationMode": [null, null, null, null, null], "rewards": [2, -2, -7, -16, 65], "path": ["0", "0", "23", "24", "25", "30", "32"], "rt": [28328, 160, 88, 126, 130], "actions": ["left", "left", "left", "down", "down"], "actionTimes": [31736, 32409, 33003, 33642, 34278], "queries": {"click": {"state": {"target": ["7", "28", "33", "9", "21", "31", "32"], "time": [4879, 8135, 11783, 15623, 19854, 24231, 27630]}, "edge": {"target": [], "time": []}}, "mouseover": {"state": {"target": ["1", "2", "7", "2", "26", "28", "24", "30", "33", "25", "11", "9", "5", "18", "21", "32", "31", "30", "32", "12", "15", "18"], "time": [3983, 4116, 4583, 5432, 6266, 6566, 8749, 8832, 9082, 12348, 12548, 12898, 16448, 17231, 17615, 20965, 23265, 26964, 27315, 28798, 28898, 29215]}, "edge": {"target": [], "time": []}}, "mouseout": {"state": {"target": ["25", "24", "23", "0", "1", "2", "7", "2", "26", "28", "24", "30", "33", "25", "11", "9", "5", "18", "21", "32", "31", "30", "32", "12", "15", "18", "18", "14"], "time": [1482, 2684, 2816, 3933, 4049, 4215, 5088, 5449, 6465, 8732, 8765, 8949, 12332, 12365, 12615, 16288, 17148, 17248, 20415, 23198, 26931, 26981, 28664, 28831, 29181, 31064, 36298, 36448]}, "edge": {"target": [], "time": []}}}, "displayed_time": "34.80", "trialTime": 36690, "trial_type": "mouselab-mdp", "trial_index": 47, "time_elapsed": 1189227, "internal_node_id": "0.0-6.0-1.0-38.0"}}, {"uniqueid": "w58843141:a82567249", "current_trial": 48, "dateTime": 1693565522171, "trialdata": {"revealed_states": [], "clicked_states": ["17"], "num_clicks_accrued": [0, 0, 0, 0, 0, 0, 0, 0, 0, 0, 0, 0, 0], "stateRewards": ["", -2, -1, -2, -15, 87, 57, 29, -10, 77, -80, -7, 1, -3, 6, 14, -11, 87, -59, 4, -71, 16, -11, 2, 2, -7, 2, -47, 61, 50, 14, -20, 17, 81], "withholdReward": false, "trial_id": "mdp_trial_40", "block": "test", "trialIndex": 41, "score": 102.85, "costs": -2.15, "simulationMode": [null, null, null, null, null], "rewards": [1, -3, 6, 14, 87], "path": ["0", "0", "12", "13", "14", "15", "17"], "rt": [5387, 73, 18, 712, 406], "actions": ["right", "right", "right", "up", "right"], "actionTimes": [6945, 7534, 8063, 9274, 10183], "queries": {"click": {"state": {"target": ["17"], "time": [2696]}, "edge": {"target": [], "time": []}}, "mouseover": {"state": {"target": ["12", "17", "15", "27", "29"], "time": [1977, 2361, 3411, 4144, 4493]}, "edge": {"target": [], "time": []}}, "mouseout": {"state": {"target": ["19", "22", "12", "12", "17", "17", "15", "27", "29"], "time": [853, 894, 1078, 2011, 2907, 3394, 3428, 4179, 16762]}, "edge": {"target": [], "time": []}}}, "displayed_time": "15.56", "trialTime": 18033, "trial_type": "mouselab-mdp", "trial_index": 48, "time_elapsed": 1207423, "internal_node_id": "0.0-6.0-1.0-39.0"}}, {"uniqueid": "w58843141:a82567249", "current_trial": 49, "dateTime": 1693565575480, "trialdata": {"rt": 53305, "response": {"Q0": "$-2 to $2", "Q1": "$-4 to $4", "Q2": "$-16 to $16", "Q3": "The cost for clicking on nodes varied between nodes.", "Q4": "Very motivated"}, "question_order": [0, 1, 2, 3, 4], "trial_id": "final_quiz_control", "trial_type": "survey-multi-choice", "trial_index": 49, "time_elapsed": 1260732, "internal_node_id": "0.0-6.0-2.0"}}, {"uniqueid": "w58843141:a82567249", "current_trial": 50, "dateTime": 1693565670619, "trialdata": {"rt": 95132, "response": {"Q0": "Checking different spots during each round", "Q1": "Yes by not checking the same spot during each round and only opening the one half of the game", "Q2": "Not difficult, as i played i automatically improved my thinking around the game"}, "trial_id": "self_report_control", "trial_type": "survey-text", "trial_index": 50, "time_elapsed": 1355872, "internal_node_id": "0.0-6.0-3.0"}}, {"uniqueid": "w58843141:a82567249", "current_trial": 51, "dateTime": 1693565722869, "trialdata": {"rt": 52244, "response": {"Q0": "Agree", "Q1": "Disagree", "Q2": "Strongly disagree", "Q3": "Agree", "Q4": "Agree", "Q5": "Neither disagree nor agree", "Q6": "Neither disagree nor agree"}, "question_order": [0, 1, 2, 3, 4, 5, 6], "trial_id": "self_report_2", "trial_type": "survey-multi-choice", "trial_index": 51, "time_elapsed": 1408122, "internal_node_id": "0.0-6.0-4.0"}}, {"uniqueid": "w58843141:a82567249", "current_trial": 52, "dateTime": 1693565752751, "trialdata": {"rt": 29876, "response": {"gender": "female", "age": "30", "colorblind": "0", "effort": "0"}, "trial_type": "survey-html-form", "trial_index": 52, "time_elapsed": 1438004, "internal_node_id": "0.0-6.0-5.0"}}, {"uniqueid": "w58843141:a82567249", "current_trial": 53, "dateTime": 1693565790425, "trialdata": {"rt": 37671, "response": {"Q0": "At first the game was abit confusing but easy to get a hang of", "Q1": "No", "Q2": ""}, "trial_type": "survey-text", "trial_index": 53, "time_elapsed": 1475677, "internal_node_id": "0.0-6.0-6.0"}}, {"uniqueid": "w58843141:a82567249", "current_trial": 54, "dateTime": 1693565797705, "trialdata": {"rt": 7275, "stimulus": "<h1>Completion Code Instructions (1/2)</h1>\n<br><br><br><br>\nYou have reached the end of the experiment! The completion code consists of two parts: (1) a code with 2 characters (2) a code with 6 characters. On this page, you will receive the second part of the code. The first part of the completion code will be on the next page.\n<br><br>\nThe second part of your completion code is: <b>EWEK22</b>\n<br><br>\nPlease note this down. Then, press 'Finish HIT' in order to find the first part of your completion code. Once the data has been saved, you will receive this code either in this window or in the original browser window where you started the experiment.\n", "response": 0, "trial_type": "html-button-response", "trial_index": 54, "time_elapsed": 1482958, "internal_node_id": "0.0-6.0-7.0"}}, {"uniqueid": "w58843141:a82567249", "current_trial": 55, "dateTime": 1693565798710, "trialdata": {"success": true, "trial_type": "fullscreen", "trial_index": 55, "time_elapsed": 1483963, "internal_node_id": "0.0-7.0"}}], "questiondata": {"params": {"CODE": "C6DMOQA6", "MIN_TIME": 14, "inspectCost": 1, "startTime": "Fri Sep 01 2023 12:31:51 GMT+0200 (South Africa Standard Time)", "bonusRate": 0.002, "variance": "1_2_4_8_44", "branching": "31123"}, "final_score": 703.2}, "eventdata": [{"eventtype": "initialized", "value": null, "timestamp": 1693564311149, "interval": 0}, {"eventtype": "window_resize", "value": [1028, 744], "timestamp": 1693564311149, "interval": 0}, {"eventtype": "window_resize", "value": [1028, 744], "timestamp": 1693564311667, "interval": 518}, {"eventtype": "window_resize", "value": [1536, 864], "timestamp": 1693564317232, "interval": 5565}, {"eventtype": "window_resize", "value": [1028, 744], "timestamp": 1693565797951, "interval": 1480719}], "useragent": "Mozilla/5.0 (Windows NT 10.0; Win64; x64) AppleWebKit/537.36 (KHTML, like Gecko) Chrome/116.0.0.0 Safari/537.36", "mode": "live", "id": "w58843141:a82567249", "status": "user data saved", "Beginhit": "2023-09-01 10:31:46.349733", "Beginexp": "2023-09-01 10:31:58.332933", "Endhit": "2023-09-01 10:56:40.282467", "psiturkStatus": 3, "browser": "<redacted>", "platform": "windows", "language": "en-US"}