{"condition": 1, "counterbalance": 0, "assignmentId": "a22850497", "workerId": "w60338069", "hitId": "h24032026", "currenttrial": 56, "bonus": 0, "data": [{"uniqueid": "w60338069:a22850497", "current_trial": 0, "dateTime": 1691070948084, "trialdata": {"success": true, "trial_type": "fullscreen", "trial_index": 0, "time_elapsed": 5400, "internal_node_id": "0.0-0.0"}}, {"uniqueid": "w60338069:a22850497", "current_trial": 1, "dateTime": 1691070970578, "trialdata": {"view_history": [{"page_index": 0, "viewing_time": 22488}], "rt": 22488, "trial_id": "exp_instructions_misaligned", "trial_type": "instructions", "trial_index": 1, "time_elapsed": 27894, "internal_node_id": "0.0-1.0"}}, {"uniqueid": "w60338069:a22850497", "current_trial": 2, "dateTime": 1691070987386, "trialdata": {"success": true, "trial_type": "fullscreen", "trial_index": 2, "time_elapsed": 44702, "internal_node_id": "0.0-2.0-0.0"}}, {"uniqueid": "w60338069:a22850497", "current_trial": 3, "dateTime": 1691071393500, "trialdata": {"view_history": [{"page_index": 0, "viewing_time": 184602}, {"page_index": 1, "viewing_time": 126170}, {"page_index": 2, "viewing_time": 41342}, {"page_index": 3, "viewing_time": 53996}], "rt": 406110, "trial_id": "mouselab_instructions_1_misaligned", "trial_type": "instructions", "trial_index": 3, "time_elapsed": 450815, "internal_node_id": "0.0-2.0-1.0"}}, {"uniqueid": "w60338069:a22850497", "current_trial": 4, "dateTime": 1691071483291, "trialdata": {"revealed_states": [], "clicked_states": ["12", "13", "14", "15", "17", "1", "2", "3", "4", "7", "23", "24", "25", "30", "33"], "num_clicks_accrued": [0, 0, 0, 0, 0, 0, 0, 0, 0, 0, 0, 0, 0], "stateRewards": ["", -10, 10, 10, 10, 10, 10, -10, -10, 10, -10, 10, 10, -10, 10, 10, 10, -10, -10, -10, -10, -10, -10, -10, -10, -10, -10, -10, 10, -10, -10, -10, -10, -10], "withholdReward": false, "trial_id": "practice_1", "block": "test", "trialIndex": 0, "score": 26, "costs": -7.5, "simulationMode": [null, null, null, null, null], "rewards": [10, -10, 10, 10, 10], "path": ["0", "0", "12", "13", "14", "15", "16"], "rt": [52408, 8386, 12230, 859, 490], "actions": ["right", "right", "right", "up", "up"], "actionTimes": [57879, 66761, 79486, 80844, 81841], "queries": {"click": {"state": {"target": ["12", "13", "14", "15", "17", "1", "2", "3", "4", "7", "23", "24", "25", "30", "33"], "time": [8990, 10556, 11800, 13623, 14657, 18986, 20005, 21177, 22358, 23600, 26529, 27591, 28652, 29935, 31140]}, "edge": {"target": [], "time": []}}, "mouseover": {"state": {"target": ["12", "13", "14", "15", "17", "12", "1", "2", "3", "4", "7", "1", "23", "23", "24", "25", "30", "33", "31", "0", "12", "1", "2", "2", "12", "0", "0", "12"], "time": [8494, 9772, 11355, 13292, 14255, 18073, 18508, 19619, 20819, 21901, 23235, 25688, 25804, 26085, 27200, 28216, 29349, 30715, 32249, 33220, 34699, 38417, 39917, 42215, 43144, 46265, 49097, 49281]}, "edge": {"target": [], "time": []}}, "mouseout": {"state": {"target": ["0", "12", "13", "14", "15", "17", "12", "1", "2", "3", "4", "7", "7", "1", "23", "23", "24", "25", "30", "33", "30", "31", "0", "12", "1", "2", "2", "12", "0", "0", "12", "13", "13", "0", "13"], "time": [8201, 9623, 11239, 12019, 14188, 17671, 18157, 19452, 20552, 21735, 23118, 23820, 25470, 25717, 25939, 27033, 28149, 29232, 30151, 32082, 32216, 32299, 34618, 36872, 38429, 39996, 42244, 45082, 48977, 49143, 59861, 62559, 63325, 68425, 71240]}, "edge": {"target": [], "time": []}}}, "displayed_time": "82.35", "trialTime": 88906, "trial_type": "mouselab-mdp", "trial_index": 4, "time_elapsed": 540605, "internal_node_id": "0.0-2.0-2.0-0.0"}}, {"uniqueid": "w60338069:a22850497", "current_trial": 5, "dateTime": 1691071540615, "trialdata": {"revealed_states": [], "clicked_states": ["23", "24", "25", "26", "28", "12", "13", "14", "19", "20", "1", "2", "3", "4", "7"], "num_clicks_accrued": [0, 0, 0, 0, 0, 0, 0, 0, 0, 0, 0, 0, 0], "stateRewards": ["", -10, 10, 10, 10, -10, 10, 10, -10, -10, -10, -10, -10, 10, -10, -10, -10, 10, 10, -10, -10, 10, 10, -10, 10, 10, 10, 10, -10, 10, -10, -10, -10, -10], "withholdReward": false, "trial_id": "practice_2", "block": "test", "trialIndex": 1, "score": 26, "costs": -7.5, "simulationMode": [null, null, null, null, null], "rewards": [-10, 10, 10, 10, 10], "path": ["0", "0", "23", "24", "25", "26", "27"], "rt": [28125, 192, 646, 15036, 321], "actions": ["left", "left", "left", "up", "up"], "actionTimes": [33326, 34037, 35191, 50747, 51561], "queries": {"click": {"state": {"target": ["23", "24", "25", "26", "28", "12", "13", "14", "19", "20", "1", "2", "3", "4", "7"], "time": [8933, 10197, 11541, 12589, 13735, 17972, 19154, 20338, 21486, 22543, 24304, 25429, 27544, 28728, 29738]}, "edge": {"target": [], "time": []}}, "mouseover": {"state": {"target": ["0", "12", "0", "23", "24", "25", "26", "28", "0", "23", "0", "12", "13", "14", "19", "20", "13", "12", "1", "2", "3", "4", "7", "1", "23"], "time": [6109, 7040, 7273, 8658, 9718, 10768, 12051, 13367, 14938, 15389, 17385, 17601, 18682, 19899, 20999, 22132, 23164, 23214, 23564, 24897, 25913, 28363, 29346, 30982, 31378]}, "edge": {"target": [], "time": []}}, "mouseout": {"state": {"target": ["14", "13", "12", "0", "12", "0", "23", "24", "25", "26", "28", "0", "23", "0", "12", "13", "14", "19", "20", "13", "12", "1", "2", "3", "4", "7", "7", "1", "23", "28", "25", "30", "32"], "time": [4195, 4254, 4505, 6857, 7170, 8487, 9669, 10685, 11758, 13251, 14767, 15189, 17287, 17484, 18515, 19765, 20915, 21691, 23114, 23181, 23247, 24880, 25646, 28246, 29246, 29953, 30595, 31064, 36548, 36946, 38196, 43560, 43660]}, "edge": {"target": [], "time": []}}}, "displayed_time": "52.07", "trialTime": 57174, "trial_type": "mouselab-mdp", "trial_index": 5, "time_elapsed": 597930, "internal_node_id": "0.0-2.0-2.0-1.0"}}, {"uniqueid": "w60338069:a22850497", "current_trial": 6, "dateTime": 1691071625380, "trialdata": {"view_history": [{"page_index": 0, "viewing_time": 67508}, {"page_index": 1, "viewing_time": 17254}], "rt": 84763, "trial_id": "mouselab_instructions_2_misaligned", "trial_type": "instructions", "trial_index": 6, "time_elapsed": 682696, "internal_node_id": "0.0-2.0-3.0"}}, {"uniqueid": "w60338069:a22850497", "current_trial": 7, "dateTime": 1691071865510, "trialdata": {"rt": 240124, "response": {"Q0": "The cost for clicking on nodes may vary between nodes.", "Q1": "The better I perform the higher my bonus will be.", "Q2": "No, the amount of cash at each node of the web may be different each time.", "Q3": "To get the highest total score.", "Q4": "Only before moving the spider.", "Q5": "3 seconds"}, "question_order": [0, 1, 2, 3, 4, 5], "correct": {"Q0": "The cost for clicking on nodes may vary between nodes.", "Q1": "The better I perform the higher my bonus will be.", "Q2": "No, the amount of cash at each node of the web may be different each time.", "Q3": "To get the highest total score.", "Q4": "Only before moving the spider.", "Q5": "3 seconds"}, "trial_id": "mouselab_quiz_misaligned", "trial_type": "survey-multi-choice", "trial_index": 7, "time_elapsed": 922826, "internal_node_id": "0.0-2.0-4.0"}}, {"uniqueid": "w60338069:a22850497", "current_trial": 8, "dateTime": 1691071882244, "trialdata": {"rt": 16727, "stimulus": "\n<h1> Get ready to start the game! </h1>\n\nThank you for reading the instructions. Get ready start with the 40 rounds of this game.\n<br><br>\nIf you need to take a break, feel free to take one after the end of a round, before continuing to the next one.\n<br><br>\nRemember, the more money the spider gets, the bigger your bonus will be!\n<br><br>\n<div style='text-align: center;'>Press <code>space</code> to begin.</div>\n\n<br><br>\n(If, at any point, the <code>space</code> key does not take you to the next page, click once on the text and try again.)", "response": " ", "trial_id": "mdp_ready", "trial_type": "html-keyboard-response", "trial_index": 8, "time_elapsed": 939560, "internal_node_id": "0.0-4.0-0.0"}}, {"uniqueid": "w60338069:a22850497", "current_trial": 9, "dateTime": 1691071926010, "trialdata": {"revealed_states": [], "clicked_states": ["12", "13", "14", "15", "17", "1", "2", "3", "4", "7", "23", "24", "25", "30", "31"], "num_clicks_accrued": [0, 0, 0, 0, 0, 0, 0, 0, 0, 0, 0, 0, 0], "stateRewards": ["", -1, 3, 8, 9, -53, 20, -84, 2, -28, -62, -31, -1, -2, -7, 2, 51, 58, 45, -4, -17, -41, 36, 2, -2, -7, -15, 29, -54, -37, -16, -43, 65, -17], "withholdReward": false, "trial_id": "mdp_trial_1", "block": "test", "trialIndex": 2, "score": -48.25, "costs": -14.25, "simulationMode": [null, null, null, null, null, null], "rewards": [-1, 3, 8, 9, -53], "path": ["0", "0", "1", "2", "3", "4", "5"], "rt": [25350, 261, 47, 291, 486, 77], "actions": ["up", "up", "up", "up", "right", "up"], "actionTimes": [29923, 30187, 30753, 31581, 32576, 33167], "queries": {"click": {"state": {"target": ["12", "13", "14", "15", "17", "1", "2", "3", "4", "7", "23", "24", "25", "30", "31"], "time": [6319, 7303, 8168, 9228, 11158, 14506, 15555, 16570, 17631, 18662, 23353, 24593, 25771, 26796, 27849]}, "edge": {"target": [], "time": []}}, "mouseover": {"state": {"target": ["12", "13", "14", "15", "17", "18", "23", "1", "2", "3", "4", "7", "1", "23", "0", "23", "24", "25", "30", "31", "23"], "time": [6036, 6880, 7797, 8763, 9730, 11712, 12228, 14061, 15227, 16044, 17177, 18226, 19209, 19542, 21992, 22808, 24208, 25424, 26407, 27356, 28323]}, "edge": {"target": [], "time": []}}, "mouseout": {"state": {"target": ["32", "0", "12", "13", "14", "15", "17", "15", "18", "23", "1", "2", "3", "4", "7", "1", "23", "0", "23", "24", "25", "30", "31", "23"], "time": [2650, 5847, 6797, 7680, 8713, 9629, 11645, 11696, 11728, 14032, 14994, 16010, 17077, 18043, 19160, 19259, 21780, 22778, 24074, 25074, 26274, 27307, 28289, 28406]}, "edge": {"target": [], "time": []}}}, "displayed_time": "33.67", "trialTime": 43598, "trial_type": "mouselab-mdp", "trial_index": 9, "time_elapsed": 983325, "internal_node_id": "0.0-4.0-1.0-0.0"}}, {"uniqueid": "w60338069:a22850497", "current_trial": 10, "dateTime": 1691071971819, "trialdata": {"revealed_states": [], "clicked_states": ["23", "24", "25", "26", "28", "1", "2", "3", "4", "7", "12", "13", "14", "15", "17"], "num_clicks_accrued": [0, 0, 0, 0, 0, 0, 0, 0, 0, 0, 0, 0, 0], "stateRewards": ["", 1, -3, -6, -5, 47, 80, -29, 11, -71, 10, -29, -2, 3, -6, 12, 2, -78, -6, 8, 34, -16, -5, -1, 3, 3, -13, 84, -36, -62, -3, -27, 66, 15], "withholdReward": false, "trial_id": "mdp_trial_2", "block": "test", "trialIndex": 3, "score": -85.25, "costs": -14.25, "simulationMode": [null, null, null, null, null], "rewards": [-2, 3, -6, 12, -78], "path": ["0", "0", "12", "13", "14", "15", "17"], "rt": [24269, 186, 281, 300, 23], "actions": ["right", "right", "right", "up", "right"], "actionTimes": [26492, 27195, 27990, 28809, 29348], "queries": {"click": {"state": {"target": ["23", "24", "25", "26", "28", "1", "2", "3", "4", "7", "12", "13", "14", "15", "17"], "time": [3370, 4523, 5519, 6558, 7495, 10674, 11793, 13012, 14060, 15431, 19146, 20160, 21229, 22381, 23392]}, "edge": {"target": [], "time": []}}, "mouseover": {"state": {"target": ["23", "24", "25", "26", "28", "1", "1", "2", "3", "4", "7", "12", "0", "12", "13", "14", "15", "17", "18"], "time": [2886, 4132, 5065, 6032, 7081, 8397, 9498, 11313, 12596, 13696, 14912, 16145, 17811, 18613, 19761, 20810, 21943, 22976, 24059]}, "edge": {"target": [], "time": []}}, "mouseout": {"state": {"target": ["0", "23", "24", "25", "26", "28", "28", "1", "1", "2", "3", "4", "7", "12", "0", "12", "13", "14", "15", "17", "15", "18", "0"], "time": [2109, 3899, 5015, 5998, 6778, 7720, 8014, 8714, 10895, 12279, 13529, 14612, 15995, 17727, 18569, 19611, 20677, 21743, 22860, 23976, 24026, 24126, 45274]}, "edge": {"target": [], "time": []}}}, "displayed_time": "29.86", "trialTime": 45656, "trial_type": "mouselab-mdp", "trial_index": 10, "time_elapsed": 1029134, "internal_node_id": "0.0-4.0-1.0-1.0"}}, {"uniqueid": "w60338069:a22850497", "current_trial": 11, "dateTime": 1691072011780, "trialdata": {"revealed_states": [], "clicked_states": ["23", "24", "25", "30", "31", "12", "13", "14", "19", "20", "1", "2", "3", "4", "5"], "num_clicks_accrued": [0, 0, 0, 0, 0, 0, 0, 0, 0, 0, 0, 0, 0], "stateRewards": ["", -2, -4, 6, 14, -34, 49, 36, -8, -3, 32, -4, 1, -2, 1, -8, -20, -71, -57, -7, -86, -62, -16, -2, -3, -5, 11, 23, -21, 53, 5, -5, 85, 73], "withholdReward": false, "trial_id": "mdp_trial_3", "block": "test", "trialIndex": 4, "score": -42.25, "costs": -14.25, "simulationMode": [null, null, null, null, null, null], "rewards": [1, -2, 1, -8, -20], "path": ["0", "0", "12", "13", "14", "15", "16"], "rt": [22963, 644, 254, 376, 452, 708], "actions": ["right", "right", "right", "right", "up", "up"], "actionTimes": [24488, 25134, 25899, 26786, 27746, 28968], "queries": {"click": {"state": {"target": ["23", "24", "25", "30", "31", "12", "13", "14", "19", "20", "1", "2", "3", "4", "5"], "time": [2494, 3505, 4410, 5376, 6494, 10269, 11265, 12296, 13374, 14395, 17231, 18496, 19594, 20973, 21925]}, "edge": {"target": [], "time": []}}, "mouseover": {"state": {"target": ["23", "24", "25", "30", "31", "0", "12", "0", "12", "13", "14", "19", "20", "22", "0", "1", "2", "3", "4", "5", "1"], "time": [2171, 3167, 3983, 5083, 6066, 7065, 7132, 7649, 8482, 10881, 11880, 13047, 13896, 14913, 15296, 16112, 17978, 19145, 20494, 21377, 23027]}, "edge": {"target": [], "time": []}}, "mouseout": {"state": {"target": ["0", "23", "24", "25", "25", "30", "30", "31", "0", "12", "0", "12", "13", "14", "19", "20", "19", "22", "0", "1", "2", "3", "4", "5", "4", "1"], "time": [1952, 2950, 3916, 4624, 4883, 5590, 6016, 7015, 7098, 7599, 8448, 10831, 11731, 12796, 13846, 14863, 14896, 14946, 15413, 17795, 18928, 20211, 21190, 22444, 22561, 23127]}, "edge": {"target": [], "time": []}}}, "displayed_time": "29.48", "trialTime": 39801, "trial_type": "mouselab-mdp", "trial_index": 11, "time_elapsed": 1069095, "internal_node_id": "0.0-4.0-1.0-2.0"}}, {"uniqueid": "w60338069:a22850497", "current_trial": 12, "dateTime": 1691072048218, "trialdata": {"revealed_states": [], "clicked_states": ["23", "24", "25", "26", "29", "12", "13", "14", "15", "17", "1", "2", "3", "4", "6"], "num_clicks_accrued": [0, 0, 0, 0, 0, 0, 0, 0, 0, 0, 0, 0, 0], "stateRewards": ["", 2, -1, 4, -9, -43, 7, 54, -13, 38, -40, -83, -1, 2, -8, -10, 34, -33, 11, -14, -79, 65, 26, 1, 2, 4, 10, 21, 1, 86, 4, -53, 28, -29], "withholdReward": false, "trial_id": "mdp_trial_4", "block": "test", "trialIndex": 5, "score": -56.25, "costs": -14.25, "simulationMode": [null, null, null, null, null], "rewards": [1, 2, 4, 4, -53], "path": ["0", "0", "23", "24", "25", "30", "31"], "rt": [24168, 357, 411, 723, 617], "actions": ["left", "left", "left", "down", "right"], "actionTimes": [25533, 26398, 27318, 28546, 29674], "queries": {"click": {"state": {"target": ["23", "24", "25", "26", "29", "12", "13", "14", "15", "17", "1", "2", "3", "4", "6"], "time": [2873, 3890, 5052, 6083, 7410, 10498, 11621, 12669, 13807, 14856, 17693, 19041, 20081, 21376, 22465]}, "edge": {"target": [], "time": []}}, "mouseover": {"state": {"target": ["23", "24", "25", "26", "29", "28", "0", "12", "13", "14", "15", "17", "1", "2", "3", "4", "6", "7"], "time": [2415, 3463, 4529, 5595, 6828, 7978, 8628, 9444, 11294, 12276, 13393, 14546, 16709, 18641, 19607, 20990, 22140, 23406]}, "edge": {"target": [], "time": []}}, "mouseout": {"state": {"target": ["0", "0", "23", "24", "25", "26", "29", "28", "0", "12", "13", "14", "15", "17", "15", "1", "2", "3", "4", "4", "6", "7"], "time": [867, 2402, 3346, 4413, 5258, 6561, 7928, 7995, 9411, 10546, 12160, 13126, 14343, 15376, 15409, 18391, 19541, 20657, 21588, 21907, 23356, 23456]}, "edge": {"target": [], "time": []}}}, "displayed_time": "30.19", "trialTime": 36281, "trial_type": "mouselab-mdp", "trial_index": 12, "time_elapsed": 1105532, "internal_node_id": "0.0-4.0-1.0-3.0"}}, {"uniqueid": "w60338069:a22850497", "current_trial": 13, "dateTime": 1691072094757, "trialdata": {"revealed_states": [], "clicked_states": ["1", "2", "3", "4", "7", "12", "13", "14", "19", "22", "23", "24", "25", "30", "32"], "num_clicks_accrued": [0, 0, 0, 0, 0, 0, 0, 0, 0, 0, 0, 0, 0], "stateRewards": ["", 1, 4, 5, -5, 58, -80, 75, 6, 25, -39, 46, 2, -2, 4, 2, 59, 31, -22, -12, -61, 15, 72, 1, -2, -7, 8, 77, 76, -23, -7, 71, -15, -3], "withholdReward": false, "trial_id": "mdp_trial_5", "block": "test", "trialIndex": 6, "score": -37.25, "costs": -14.25, "simulationMode": [null, null, null, null, null], "rewards": [1, 4, 5, 6, -39], "path": ["0", "0", "1", "2", "3", "8", "10"], "rt": [26224, 628, 1629, 982, 1038], "actions": ["up", "up", "up", "left", "down"], "actionTimes": [28134, 29296, 31430, 32932, 34488], "queries": {"click": {"state": {"target": ["1", "2", "3", "4", "7", "12", "13", "14", "19", "22", "23", "24", "25", "30", "32"], "time": [3866, 4890, 6066, 7198, 8172, 11866, 13013, 14145, 15945, 17920, 20853, 22050, 23040, 24243, 25319]}, "edge": {"target": [], "time": []}}, "mouseover": {"state": {"target": ["1", "2", "3", "4", "7", "1", "12", "13", "14", "19", "22", "0", "23", "24", "25", "30", "32", "0"], "time": [3378, 4408, 5674, 6758, 7707, 9107, 10489, 12638, 13688, 15306, 17418, 18620, 18936, 21586, 22586, 23768, 24968, 26384]}, "edge": {"target": [], "time": []}}, "mouseout": {"state": {"target": ["0", "0", "1", "2", "3", "4", "7", "1", "12", "13", "14", "14", "19", "22", "0", "23", "24", "25", "30", "32"], "time": [960, 3300, 4073, 5375, 6591, 7657, 8840, 9123, 12489, 13605, 14821, 15273, 16637, 18487, 18687, 21519, 22552, 23702, 24852, 26001]}, "edge": {"target": [], "time": []}}}, "displayed_time": "35.00", "trialTime": 46379, "trial_type": "mouselab-mdp", "trial_index": 13, "time_elapsed": 1152072, "internal_node_id": "0.0-4.0-1.0-4.0"}}, {"uniqueid": "w60338069:a22850497", "current_trial": 14, "dateTime": 1691072134912, "trialdata": {"revealed_states": [], "clicked_states": ["23", "24", "25", "26", "28", "12", "13", "14", "19", "22", "1", "2", "3", "8", "10"], "num_clicks_accrued": [0, 0, 0, 0, 0, 0, 0, 0, 0, 0, 0, 0, 0], "stateRewards": ["", -2, 2, -1, -6, 22, 6, 6, -5, 70, -42, 65, 1, 3, 5, -6, -67, -9, 3, 14, 7, -62, -13, -2, 4, 1, 16, 42, -21, -52, -8, 32, 53, 81], "withholdReward": false, "trial_id": "mdp_trial_6", "block": "test", "trialIndex": 7, "score": -15.25, "costs": -14.25, "simulationMode": [null, null, null, null, null], "rewards": [-2, 2, -1, -6, 6], "path": ["0", "0", "1", "2", "3", "4", "7"], "rt": [27757, 426, 534, 600, 1771], "actions": ["up", "up", "up", "right", "down"], "actionTimes": [28900, 29833, 30873, 31987, 34275], "queries": {"click": {"state": {"target": ["23", "24", "25", "26", "28", "12", "13", "14", "19", "22", "1", "2", "3", "8", "10"], "time": [3276, 4372, 5627, 6796, 8793, 12140, 13316, 14537, 15784, 17170, 20452, 21462, 22867, 24240, 25873]}, "edge": {"target": [], "time": []}}, "mouseover": {"state": {"target": ["23", "0", "23", "24", "25", "26", "28", "0", "12", "13", "14", "19", "22", "12", "1", "2", "3", "8", "10", "23", "0"], "time": [1897, 2432, 2813, 3946, 5245, 6295, 8422, 9644, 10793, 12876, 13976, 15392, 16658, 17708, 18941, 21190, 22306, 23556, 25373, 26804, 27271]}, "edge": {"target": [], "time": []}}, "mouseout": {"state": {"target": ["0", "23", "0", "23", "24", "25", "26", "28", "0", "12", "13", "14", "19", "22", "12", "1", "2", "3", "8", "10", "23", "0"], "time": [1863, 2299, 2699, 3829, 5012, 6212, 7379, 9311, 10660, 12726, 13859, 15110, 15996, 17381, 17808, 20990, 22256, 23422, 25122, 26605, 26921, 27471]}, "edge": {"target": [], "time": []}}}, "displayed_time": "34.77", "trialTime": 39986, "trial_type": "mouselab-mdp", "trial_index": 14, "time_elapsed": 1192226, "internal_node_id": "0.0-4.0-1.0-5.0"}}, {"uniqueid": "w60338069:a22850497", "current_trial": 15, "dateTime": 1691072167763, "trialdata": {"revealed_states": [], "clicked_states": [], "num_clicks_accrued": [0, 0, 0, 0, 0, 0, 0, 0, 0, 0, 0, 0, 0], "stateRewards": ["", 2, -4, 4, 9, 69, 9, -75, 12, -86, 66, 25, -1, 3, 2, -13, -88, -3, 1, 4, -69, 49, -84, 2, -1, 4, 2, -18, -81, -52, -15, -69, -54, 25], "withholdReward": false, "trial_id": "mdp_trial_7", "block": "test", "trialIndex": 8, "score": -12, "costs": 0, "simulationMode": [null, null, null, null, null], "rewards": [-1, 3, 2, -13, -3], "path": ["0", "0", "12", "13", "14", "15", "17"], "rt": [19629, 4387, 417, 594, 532], "actions": ["right", "right", "right", "up", "right"], "actionTimes": [21749, 26629, 27558, 28668, 29705], "queries": {"click": {"state": {"target": [], "time": []}, "edge": {"target": [], "time": []}}, "mouseover": {"state": {"target": ["0", "23", "0", "0"], "time": [3052, 4647, 9213, 15030]}, "edge": {"target": [], "time": []}}, "mouseout": {"state": {"target": ["0", "0", "23", "0", "0", "12"], "time": [1308, 4614, 9097, 14710, 16692, 24562]}, "edge": {"target": [], "time": []}}}, "displayed_time": "30.22", "trialTime": 32686, "trial_type": "mouselab-mdp", "trial_index": 15, "time_elapsed": 1225078, "internal_node_id": "0.0-4.0-1.0-6.0"}}, {"uniqueid": "w60338069:a22850497", "current_trial": 16, "dateTime": 1691072206524, "trialdata": {"revealed_states": [], "clicked_states": ["23", "24", "25", "30", "33", "12", "13", "14", "19", "20", "1", "2", "3", "4", "5"], "num_clicks_accrued": [0, 0, 0, 0, 0, 0, 0, 0, 0, 0, 0, 0, 0], "stateRewards": ["", -1, 4, 3, 12, -27, 34, -33, 3, -63, 1, 6, 2, 2, -6, -11, -77, -85, 68, -6, 51, 81, -60, -2, -2, 1, 15, 20, 15, 68, -10, -14, 6, -4], "withholdReward": false, "trial_id": "mdp_trial_8", "block": "test", "trialIndex": 9, "score": 0.75, "costs": -14.25, "simulationMode": [null, null, null, null, null], "rewards": [-1, 4, 3, 3, 6], "path": ["0", "0", "1", "2", "3", "8", "11"], "rt": [24842, 516, 403, 695, 460], "actions": ["up", "up", "up", "left", "left"], "actionTimes": [26137, 27160, 28079, 29288, 30252], "queries": {"click": {"state": {"target": ["23", "24", "25", "30", "33", "12", "13", "14", "19", "20", "1", "2", "3", "4", "5"], "time": [2222, 3276, 4515, 5643, 6673, 9634, 10732, 11798, 13016, 14120, 17864, 19217, 20343, 21647, 22701]}, "edge": {"target": [], "time": []}}, "mouseover": {"state": {"target": ["23", "24", "25", "30", "33", "0", "12", "13", "14", "19", "20", "13", "1", "1", "2", "3", "4", "5", "1"], "time": [1852, 2900, 4033, 5216, 6199, 7498, 7732, 10347, 11430, 12546, 13846, 14713, 15063, 15646, 18661, 19760, 21260, 22127, 23693]}, "edge": {"target": [], "time": []}}, "mouseout": {"state": {"target": ["0", "23", "24", "25", "30", "33", "0", "12", "13", "13", "14", "19", "20", "14", "13", "1", "1", "2", "3", "4", "5", "1", "0"], "time": [1769, 2750, 3833, 5099, 6132, 7132, 7548, 9841, 10943, 11247, 12480, 13664, 14629, 14696, 14763, 15463, 18511, 19711, 20977, 22093, 23426, 23859, 34156]}, "edge": {"target": [], "time": []}}}, "displayed_time": "30.76", "trialTime": 38594, "trial_type": "mouselab-mdp", "trial_index": 16, "time_elapsed": 1263839, "internal_node_id": "0.0-4.0-1.0-7.0"}}, {"uniqueid": "w60338069:a22850497", "current_trial": 17, "dateTime": 1691072243602, "trialdata": {"revealed_states": [], "clicked_states": ["23", "24", "25", "30", "31", "12", "13", "14", "19", "21", "1", "2", "3", "8", "9"], "num_clicks_accrued": [0, 0, 0, 0, 0, 0, 0, 0, 0, 0, 0, 0, 0], "stateRewards": ["", -2, 2, -2, -7, -50, -62, -45, 7, 36, -24, -72, -1, -1, 8, -1, -67, 20, -52, 2, 35, -50, 80, -1, 1, 6, -6, -70, 6, 88, 8, -47, 74, -19], "withholdReward": false, "trial_id": "mdp_trial_9", "block": "test", "trialIndex": 10, "score": -81.25, "costs": -14.25, "simulationMode": [null, null, null, null, null, null], "rewards": [-2, 2, -2, 7, -72], "path": ["0", "0", "1", "2", "3", "8", "11"], "rt": [26101, 625, 938, 733, 885, 373], "actions": ["up", "up", "up", "up", "left", "left"], "actionTimes": [27794, 28422, 29870, 31115, 32515, 33386], "queries": {"click": {"state": {"target": ["23", "24", "25", "30", "31", "12", "13", "14", "19", "21", "1", "2", "3", "8", "9"], "time": [3552, 4814, 5766, 7291, 8314, 11253, 12523, 13586, 14801, 16160, 19419, 20459, 21439, 23007, 25103]}, "edge": {"target": [], "time": []}}, "mouseover": {"state": {"target": ["0", "23", "24", "25", "30", "30", "31", "12", "0", "12", "13", "14", "19", "21", "0", "1", "2", "3", "8", "9", "1"], "time": [2238, 2821, 4388, 5304, 6320, 6942, 7820, 9220, 9836, 10952, 12019, 13085, 14434, 15667, 16817, 17817, 19916, 20882, 22349, 24683, 26198]}, "edge": {"target": [], "time": []}}, "mouseout": {"state": {"target": ["0", "0", "23", "24", "25", "30", "30", "31", "12", "0", "12", "13", "14", "19", "19", "21", "0", "1", "2", "3", "3", "8", "9", "1", "0"], "time": [1193, 2792, 4288, 5032, 6254, 6470, 7770, 8836, 9603, 10069, 11836, 13001, 14185, 15013, 15401, 16378, 17117, 19640, 20688, 21982, 22165, 23498, 25698, 26231, 36361]}, "edge": {"target": [], "time": []}}}, "displayed_time": "33.90", "trialTime": 36910, "trial_type": "mouselab-mdp", "trial_index": 17, "time_elapsed": 1300918, "internal_node_id": "0.0-4.0-1.0-8.0"}}, {"uniqueid": "w60338069:a22850497", "current_trial": 18, "dateTime": 1691072286175, "trialdata": {"revealed_states": [], "clicked_states": ["23", "24", "25", "26", "27", "12", "13", "14", "15", "16", "1", "2", "3", "8", "9"], "num_clicks_accrued": [0, 0, 0, 0, 0, 0, 0, 0, 0, 0, 0, 0, 0], "stateRewards": ["", -2, -3, 8, -4, -30, 31, 69, 9, 66, 87, 64, -2, 2, 8, 5, 47, 16, -39, -8, -54, 51, -19, 1, -2, -2, -11, -25, -26, 43, -9, 19, -84, 86], "withholdReward": false, "trial_id": "mdp_trial_10", "block": "test", "trialIndex": 11, "score": 63.75, "costs": -14.25, "simulationMode": [null, null, null, null, null], "rewards": [-2, -3, 8, 9, 66], "path": ["0", "0", "1", "2", "3", "8", "9"], "rt": [25943, 829, 626, 1029, 1144], "actions": ["up", "up", "up", "left", "up"], "actionTimes": [28273, 29615, 30761, 32297, 33961], "queries": {"click": {"state": {"target": ["23", "24", "25", "26", "27", "12", "13", "14", "15", "16", "1", "2", "3", "8", "9"], "time": [3721, 5018, 6057, 7081, 9054, 12494, 13588, 14586, 15690, 16813, 20347, 21411, 22477, 23731, 24919]}, "edge": {"target": [], "time": []}}, "mouseover": {"state": {"target": ["23", "24", "25", "26", "27", "0", "0", "12", "13", "14", "15", "16", "18", "1", "2", "3", "8", "9", "0"], "time": [3311, 4625, 5658, 6625, 8649, 10024, 11107, 12156, 13122, 14239, 15205, 16405, 17288, 18838, 20886, 22019, 23319, 24485, 26468]}, "edge": {"target": [], "time": []}}, "mouseout": {"state": {"target": ["0", "23", "24", "25", "26", "27", "0", "0", "12", "13", "14", "15", "16", "18", "1", "2", "3", "8", "9", "0"], "time": [3042, 4359, 5558, 6475, 7575, 9540, 10473, 11173, 13089, 14072, 14989, 16155, 17221, 17321, 20561, 21853, 23152, 24219, 25585, 38097]}, "edge": {"target": [], "time": []}}}, "displayed_time": "34.47", "trialTime": 42413, "trial_type": "mouselab-mdp", "trial_index": 18, "time_elapsed": 1343490, "internal_node_id": "0.0-4.0-1.0-9.0"}}, {"uniqueid": "w60338069:a22850497", "current_trial": 19, "dateTime": 1691072329567, "trialdata": {"revealed_states": [], "clicked_states": ["12", "13", "14", "15", "16", "23", "24", "25", "26", "28", "1", "2", "3", "4", "7"], "num_clicks_accrued": [0, 0, 0, 0, 0, 0, 0, 0, 0, 0, 0, 0, 0], "stateRewards": ["", 2, -4, -4, 13, -80, 62, 13, -11, 57, -13, -44, 1, 4, 3, -4, -29, -88, 15, 16, -58, 68, -45, -1, -3, -1, -9, -44, -86, -19, -7, -36, 59, 66], "withholdReward": false, "trial_id": "mdp_trial_11", "block": "test", "trialIndex": 12, "score": -72.25, "costs": -14.25, "simulationMode": [null, null, null, null, null], "rewards": [-1, -3, -1, -9, -44], "path": ["0", "0", "23", "24", "25", "26", "27"], "rt": [25146, 1207, 4200, 1284, 469], "actions": ["left", "left", "left", "up", "up"], "actionTimes": [26768, 28489, 33199, 34980, 35965], "queries": {"click": {"state": {"target": ["12", "13", "14", "15", "16", "23", "24", "25", "26", "28", "1", "2", "3", "4", "7"], "time": [3056, 4089, 5205, 6215, 7346, 10301, 11441, 12645, 13741, 14924, 18625, 19732, 20868, 21931, 23197]}, "edge": {"target": [], "time": []}}, "mouseover": {"state": {"target": ["12", "13", "14", "15", "16", "1", "23", "23", "24", "25", "26", "28", "1", "2", "3", "4", "7", "1"], "time": [2573, 3689, 4772, 5771, 6955, 7987, 8754, 9753, 10903, 12136, 13285, 14468, 17184, 19233, 20366, 21499, 22799, 24200]}, "edge": {"target": [], "time": []}}, "mouseout": {"state": {"target": ["0", "12", "13", "14", "15", "16", "1", "23", "23", "24", "24", "25", "26", "28", "1", "2", "3", "4", "7", "7", "1", "0"], "time": [2461, 3589, 4655, 5588, 6704, 7837, 8220, 8787, 10506, 11647, 11986, 13119, 14285, 15468, 18838, 20166, 21400, 22533, 23409, 24032, 24265, 40076]}, "edge": {"target": [], "time": []}}}, "displayed_time": "36.48", "trialTime": 43216, "trial_type": "mouselab-mdp", "trial_index": 19, "time_elapsed": 1386882, "internal_node_id": "0.0-4.0-1.0-10.0"}}, {"uniqueid": "w60338069:a22850497", "current_trial": 20, "dateTime": 1691072376620, "trialdata": {"revealed_states": [], "clicked_states": ["12", "13", "14", "15", "16", "23", "24", "25", "30", "31", "1", "2", "3", "8", "9"], "num_clicks_accrued": [0, 0, 0, 0, 0, 0, 0, 0, 0, 0, 0, 0, 0], "stateRewards": ["", 2, -3, 5, 11, -79, 54, 11, -9, -78, 33, 22, -2, -1, 2, 14, 43, 34, 1, 10, 49, -65, 39, -1, 1, -1, 3, -16, -2, 11, 2, 12, 48, -65], "withholdReward": false, "trial_id": "mdp_trial_12", "block": "test", "trialIndex": 13, "score": -1.25, "costs": -14.25, "simulationMode": [null, null, null, null, null], "rewards": [-1, 1, -1, 2, 12], "path": ["0", "0", "23", "24", "25", "30", "31"], "rt": [27653, 372, 409, 578, 458], "actions": ["left", "left", "left", "down", "right"], "actionTimes": [30978, 31869, 32789, 33874, 34837], "queries": {"click": {"state": {"target": ["12", "13", "14", "15", "16", "23", "24", "25", "30", "31", "1", "2", "3", "8", "9"], "time": [5841, 6981, 8013, 9074, 10316, 13703, 14774, 15809, 16840, 17834, 22116, 23349, 24446, 25701, 26719]}, "edge": {"target": [], "time": []}}, "mouseover": {"state": {"target": ["12", "13", "14", "15", "16", "1", "23", "24", "25", "30", "31", "23", "0", "1", "2", "3", "8", "9", "2", "1"], "time": [5276, 6587, 7503, 8636, 9753, 11068, 11685, 14235, 15401, 16400, 17383, 18300, 18866, 20149, 22832, 23948, 25331, 26214, 27630, 28197]}, "edge": {"target": [], "time": []}}, "mouseout": {"state": {"target": ["0", "0", "12", "13", "14", "15", "16", "1", "23", "24", "25", "30", "31", "23", "0", "1", "2", "3", "8", "9", "2", "1"], "time": [2105, 2722, 6454, 7470, 8453, 9469, 10836, 11219, 14201, 15284, 16284, 17317, 18266, 18383, 19832, 22748, 23831, 25098, 26080, 27280, 27780, 28263]}, "edge": {"target": [], "time": []}}}, "displayed_time": "35.35", "trialTime": 46884, "trial_type": "mouselab-mdp", "trial_index": 20, "time_elapsed": 1433935, "internal_node_id": "0.0-4.0-1.0-11.0"}}, {"uniqueid": "w60338069:a22850497", "current_trial": 21, "dateTime": 1691072413104, "trialdata": {"revealed_states": [], "clicked_states": ["23", "24", "25", "26", "27", "12", "13", "14", "15", "18", "1", "2", "3", "4", "7"], "num_clicks_accrued": [0, 0, 0, 0, 0, 0, 0, 0, 0, 0, 0, 0, 0], "stateRewards": ["", -1, -2, -1, -10, -57, 73, -72, -16, 75, -14, -46, -2, -3, -7, -1, -61, -60, 76, -4, 50, 4, 14, 2, 2, -7, 12, -65, -32, 15, -8, -76, -25, -61], "withholdReward": false, "trial_id": "mdp_trial_13", "block": "test", "trialIndex": 14, "score": -37.25, "costs": -14.25, "simulationMode": [null, null, null, null, null], "rewards": [2, 2, -7, 12, -32], "path": ["0", "0", "23", "24", "25", "26", "28"], "rt": [25132, 419, 454, 1158, 547], "actions": ["left", "left", "left", "up", "right"], "actionTimes": [28090, 29019, 29986, 31657, 32712], "queries": {"click": {"state": {"target": ["23", "24", "25", "26", "27", "12", "13", "14", "15", "18", "1", "2", "3", "4", "7"], "time": [4407, 5655, 6661, 7532, 8461, 11226, 12522, 13525, 14512, 15514, 18502, 19536, 20413, 21661, 22613]}, "edge": {"target": [], "time": []}}, "mouseover": {"state": {"target": ["23", "24", "25", "26", "27", "12", "13", "14", "15", "18", "12", "0", "1", "2", "3", "4", "7", "1"], "time": [3975, 5256, 6239, 7056, 7971, 10337, 12137, 13153, 14069, 15086, 16119, 16302, 17119, 18968, 19918, 21218, 22200, 23383]}, "edge": {"target": [], "time": []}}, "mouseout": {"state": {"target": ["0", "0", "23", "24", "25", "26", "27", "12", "13", "14", "15", "18", "12", "0", "1", "2", "3", "4", "7", "1"], "time": [790, 3439, 5039, 6122, 6973, 7750, 8888, 12020, 12986, 13936, 14919, 15919, 16152, 16469, 18918, 19755, 21001, 22117, 23266, 23433]}, "edge": {"target": [], "time": []}}}, "displayed_time": "33.23", "trialTime": 36301, "trial_type": "mouselab-mdp", "trial_index": 21, "time_elapsed": 1470419, "internal_node_id": "0.0-4.0-1.0-12.0"}}, {"uniqueid": "w60338069:a22850497", "current_trial": 22, "dateTime": 1691072456466, "trialdata": {"revealed_states": [], "clicked_states": ["12", "13", "14", "15", "17", "23", "24", "25", "26", "28", "1", "2", "3", "8", "9"], "num_clicks_accrued": [0, 0, 0, 0, 0, 0, 0, 0, 0, 0, 0, 0, 0], "stateRewards": ["", -2, -3, -6, -7, 9, 16, 65, 5, -41, 20, -25, -1, -4, 1, -11, -49, -4, 71, 1, 39, -62, 52, -2, -3, 7, -9, -28, -70, 84, 8, 24, -58, 82], "withholdReward": false, "trial_id": "mdp_trial_14", "block": "test", "trialIndex": 15, "score": -23.25, "costs": -14.25, "simulationMode": [null, null, null, null, null], "rewards": [-2, -3, -6, -7, 9], "path": ["0", "0", "1", "2", "3", "4", "5"], "rt": [27315, 1615, 415, 1144, 935], "actions": ["up", "up", "up", "right", "up"], "actionTimes": [29097, 31232, 32164, 33826, 35267], "queries": {"click": {"state": {"target": ["12", "13", "14", "15", "17", "23", "24", "25", "26", "28", "1", "2", "3", "8", "9"], "time": [4542, 5531, 6461, 7427, 8348, 11300, 12630, 13581, 14864, 16164, 19913, 21032, 22043, 23320, 24596]}, "edge": {"target": [], "time": []}}, "mouseover": {"state": {"target": ["12", "13", "14", "15", "17", "18", "23", "24", "25", "26", "28", "1", "1", "2", "3", "8", "9", "2", "1"], "time": [3927, 5106, 6156, 7039, 7989, 8789, 10255, 12254, 13171, 14404, 15720, 18236, 19503, 20502, 21568, 22920, 23983, 26300, 26499]}, "edge": {"target": [], "time": []}}, "mouseout": {"state": {"target": ["0", "0", "12", "13", "14", "15", "17", "15", "18", "23", "24", "25", "26", "26", "28", "1", "1", "2", "3", "8", "9", "2", "1", "0"], "time": [701, 1326, 5040, 5989, 6889, 7839, 8722, 8755, 8855, 12138, 13054, 14287, 15075, 15620, 16392, 19105, 20126, 21451, 22701, 23783, 25983, 26383, 26549, 42410]}, "edge": {"target": [], "time": []}}}, "displayed_time": "35.78", "trialTime": 43192, "trial_type": "mouselab-mdp", "trial_index": 22, "time_elapsed": 1513780, "internal_node_id": "0.0-4.0-1.0-13.0"}}, {"uniqueid": "w60338069:a22850497", "current_trial": 23, "dateTime": 1691072548671, "trialdata": {"revealed_states": [], "clicked_states": ["23", "24", "25", "26", "27", "12", "13", "14", "15", "16", "1", "2", "3", "4", "5"], "num_clicks_accrued": [0, 0, 0, 0, 0, 0, 0, 0, 0, 0, 0, 0, 0], "stateRewards": ["", 1, -2, 7, -14, 88, -56, -44, -14, 64, -51, -57, -2, 3, -4, -9, -11, 19, -77, -1, 68, 75, -67, -1, 1, -2, 5, -37, 70, -34, -10, -72, 63, -41], "withholdReward": false, "trial_id": "mdp_trial_15", "block": "test", "trialIndex": 16, "score": -103.25, "costs": -14.25, "simulationMode": [null, null, null, null, null], "rewards": [-2, 3, -4, -9, -77], "path": ["0", "0", "12", "13", "14", "15", "18"], "rt": [22010, 5091, 273, 908, 767], "actions": ["right", "right", "right", "up", "left"], "actionTimes": [80064, 85670, 86450, 87868, 89143], "queries": {"click": {"state": {"target": ["23", "24", "25", "26", "27", "12", "13", "14", "15", "16", "1", "2", "3", "4", "5"], "time": [59049, 60168, 60990, 61781, 62733, 65810, 66763, 67605, 68404, 70008, 73217, 74169, 75069, 76078, 77165]}, "edge": {"target": [], "time": []}}, "mouseover": {"state": {"target": ["23", "24", "25", "26", "27", "12", "13", "14", "15", "16", "18", "0", "1", "1", "2", "3", "4", "5", "1"], "time": [58652, 59801, 60685, 61418, 62251, 64583, 66382, 67166, 67966, 69630, 70481, 70831, 71847, 72850, 73663, 74546, 75762, 76512, 77761]}, "edge": {"target": [], "time": []}}, "mouseout": {"state": {"target": ["0", "23", "24", "25", "26", "27", "12", "13", "14", "15", "16", "18", "0", "1", "1", "2", "3", "4", "5", "4", "1", "0", "13"], "time": [58585, 59635, 60535, 61301, 62118, 63100, 66282, 67116, 67882, 68782, 70448, 70497, 71114, 72598, 73426, 74496, 75546, 76412, 77528, 77578, 77995, 83926, 90857]}, "edge": {"target": [], "time": []}}}, "displayed_time": "89.66", "trialTime": 92025, "trial_type": "mouselab-mdp", "trial_index": 23, "time_elapsed": 1605986, "internal_node_id": "0.0-4.0-1.0-14.0"}}, {"uniqueid": "w60338069:a22850497", "current_trial": 24, "dateTime": 1691072585890, "trialdata": {"revealed_states": [], "clicked_states": ["23", "24", "25", "26", "27", "12", "13", "14", "15", "16", "1", "2", "3", "4", "7"], "num_clicks_accrued": [0, 0, 0, 0, 0, 0, 0, 0, 0, 0, 0, 0, 0], "stateRewards": ["", 1, 2, -3, -6, 50, -7, 7, -7, -80, 21, -1, 2, 2, 4, -1, 33, 84, 1, 14, -53, 81, 6, -2, -2, -3, -9, -87, -38, -59, -5, -74, -3, -71], "withholdReward": false, "trial_id": "mdp_trial_16", "block": "test", "trialIndex": 17, "score": 25.75, "costs": -14.25, "simulationMode": [null, null, null, null, null], "rewards": [2, 2, 4, -1, 33], "path": ["0", "0", "12", "13", "14", "15", "16"], "rt": [26068, 429, 305, 907, 266], "actions": ["right", "right", "right", "up", "up"], "actionTimes": [29262, 30208, 31034, 32453, 33228], "queries": {"click": {"state": {"target": ["23", "24", "25", "26", "27", "12", "13", "14", "15", "16", "1", "2", "3", "4", "7"], "time": [4416, 5330, 6166, 6959, 7828, 11267, 12421, 13344, 14356, 15431, 18677, 20006, 20957, 22802, 23768]}, "edge": {"target": [], "time": []}}, "mouseover": {"state": {"target": ["23", "24", "25", "26", "27", "28", "0", "0", "0", "12", "13", "14", "15", "16", "0", "1", "1", "2", "3", "4", "7", "0"], "time": [3992, 4937, 5786, 6570, 7470, 8302, 8402, 8819, 9702, 9902, 11967, 12900, 13916, 14933, 16082, 17249, 18283, 19515, 20498, 22347, 23247, 25263]}, "edge": {"target": [], "time": []}}, "mouseout": {"state": {"target": ["0", "23", "24", "25", "26", "27", "28", "0", "0", "0", "12", "13", "14", "15", "16", "0", "1", "1", "2", "3", "4", "7", "0"], "time": [3720, 4836, 5703, 6454, 7319, 8269, 8319, 8452, 9018, 9718, 11784, 12850, 13783, 14783, 15883, 16399, 18016, 18902, 20399, 21448, 23214, 24547, 27662]}, "edge": {"target": [], "time": []}}}, "displayed_time": "33.74", "trialTime": 37043, "trial_type": "mouselab-mdp", "trial_index": 24, "time_elapsed": 1643205, "internal_node_id": "0.0-4.0-1.0-15.0"}}, {"uniqueid": "w60338069:a22850497", "current_trial": 25, "dateTime": 1691072619952, "trialdata": {"revealed_states": [], "clicked_states": ["23", "24", "25", "30", "32", "12", "13", "14", "19", "21", "1", "2", "3", "4", "5"], "num_clicks_accrued": [0, 0, 0, 0, 0, 0, 0, 0, 0, 0, 0, 0, 0], "stateRewards": ["", 2, 1, -3, 7, 46, 11, -36, 16, 71, 5, 1, 2, -2, -8, -3, -4, 6, 55, 7, 68, -54, 2, 1, 1, 6, -6, 42, -4, -84, -11, -65, 63, 25], "withholdReward": false, "trial_id": "mdp_trial_17", "block": "test", "trialIndex": 18, "score": 45.75, "costs": -14.25, "simulationMode": [null, null, null, null, null], "rewards": [1, 1, 6, -11, 63], "path": ["0", "0", "23", "24", "25", "30", "32"], "rt": [24681, 349, 376, 828, 268], "actions": ["left", "left", "left", "down", "down"], "actionTimes": [25728, 26591, 27483, 28818, 29592], "queries": {"click": {"state": {"target": ["23", "24", "25", "30", "32", "12", "13", "14", "19", "21", "1", "2", "3", "4", "5"], "time": [3292, 4355, 5202, 6069, 6936, 10405, 11393, 12477, 13551, 15312, 18099, 19081, 20059, 21088, 22299]}, "edge": {"target": [], "time": []}}, "mouseover": {"state": {"target": ["23", "24", "25", "30", "32", "0", "12", "13", "14", "19", "21", "13", "1", "2", "3", "4", "5", "1"], "time": [2916, 3914, 4797, 5630, 6546, 8012, 9145, 10978, 12078, 13127, 14827, 16126, 17576, 18675, 19491, 20674, 21824, 23274]}, "edge": {"target": [], "time": []}}, "mouseout": {"state": {"target": ["0", "23", "24", "25", "30", "32", "0", "12", "13", "14", "19", "21", "19", "13", "1", "2", "3", "4", "5", "4", "1", "0"], "time": [481, 3763, 4731, 5580, 6479, 7329, 8979, 10895, 11607, 12927, 14732, 15523, 16076, 16159, 18475, 19425, 20272, 21574, 22857, 22941, 23607, 33037]}, "edge": {"target": [], "time": []}}}, "displayed_time": "30.11", "trialTime": 33877, "trial_type": "mouselab-mdp", "trial_index": 25, "time_elapsed": 1677267, "internal_node_id": "0.0-4.0-1.0-16.0"}}, {"uniqueid": "w60338069:a22850497", "current_trial": 26, "dateTime": 1691072653722, "trialdata": {"revealed_states": [], "clicked_states": ["23", "24", "25", "26", "28", "12", "13", "14", "15", "17", "1", "2", "3", "4", "5"], "num_clicks_accrued": [0, 0, 0, 0, 0, 0, 0, 0, 0, 0, 0, 0, 0], "stateRewards": ["", -2, 4, -3, -13, 63, -36, 62, 11, 78, 34, -51, 2, -2, 8, -6, -40, -18, 31, 9, 64, 39, 79, 1, 4, -4, 15, -12, 76, 73, -10, -77, 86, -4], "withholdReward": false, "trial_id": "mdp_trial_18", "block": "test", "trialIndex": 19, "score": 77.75, "costs": -14.25, "simulationMode": [null, null, null, null, null], "rewards": [1, 4, -4, 15, 76], "path": ["0", "0", "23", "24", "25", "26", "28"], "rt": [24054, 398, 312, 893, 825], "actions": ["left", "left", "left", "up", "right"], "actionTimes": [25694, 26611, 27440, 28838, 30169], "queries": {"click": {"state": {"target": ["23", "24", "25", "26", "28", "12", "13", "14", "15", "17", "1", "2", "3", "4", "5"], "time": [3425, 4643, 5641, 6557, 7608, 11202, 12569, 13537, 14427, 15356, 18589, 19695, 20719, 21751, 22722]}, "edge": {"target": [], "time": []}}, "mouseover": {"state": {"target": ["23", "24", "25", "26", "28", "12", "13", "12", "0", "12", "13", "14", "15", "17", "18", "0", "1", "2", "3", "4", "5", "1"], "time": [2737, 4101, 5268, 6051, 7134, 8700, 8783, 9049, 9500, 10887, 12099, 13116, 13965, 15014, 15864, 16313, 17414, 19246, 20262, 21345, 22212, 23700]}, "edge": {"target": [], "time": []}}, "mouseout": {"state": {"target": ["0", "23", "24", "25", "26", "28", "12", "13", "12", "0", "12", "13", "14", "15", "17", "15", "18", "0", "1", "2", "3", "4", "5", "4", "1"], "time": [936, 3638, 5101, 5985, 6984, 8168, 8750, 8967, 9216, 9516, 11766, 13065, 13866, 14847, 15797, 15830, 15880, 16730, 19063, 20146, 21212, 22129, 23364, 23431, 23879]}, "edge": {"target": [], "time": []}}}, "displayed_time": "30.68", "trialTime": 33581, "trial_type": "mouselab-mdp", "trial_index": 26, "time_elapsed": 1711038, "internal_node_id": "0.0-4.0-1.0-17.0"}}, {"uniqueid": "w60338069:a22850497", "current_trial": 27, "dateTime": 1691072689208, "trialdata": {"revealed_states": [], "clicked_states": ["12", "13", "14", "15", "16", "24", "25", "26", "27", "1", "2", "3", "8", "9"], "num_clicks_accrued": [0, 0, 0, 0, 0, 0, 0, 0, 0, 0, 0, 0, 0], "stateRewards": ["", 2, 4, -5, 7, 81, 35, 6, 11, 14, -72, 42, -1, 2, 3, -7, -77, -44, -40, -15, -85, 51, -32, -2, -1, -5, 7, -74, 47, 52, 16, -49, 48, -46], "withholdReward": false, "trial_id": "mdp_trial_19", "block": "test", "trialIndex": 20, "score": 11.5, "costs": -14.5, "simulationMode": [null, null, null, null, null], "rewards": [2, 4, -5, 11, 14], "path": ["0", "0", "1", "2", "3", "8", "9"], "rt": [27680, 377, 337, 515, 475], "actions": ["up", "up", "up", "left", "up"], "actionTimes": [29048, 29931, 30774, 31803, 32795], "queries": {"click": {"state": {"target": ["12", "13", "14", "15", "16", "24", "25", "26", "27", "1", "2", "3", "8", "9"], "time": [4106, 5123, 6463, 7648, 8910, 13271, 14368, 15462, 16446, 19449, 20601, 21626, 22700, 23866]}, "edge": {"target": [], "time": []}}, "mouseover": {"state": {"target": ["0", "12", "13", "14", "15", "16", "23", "24", "25", "26", "27", "1", "2", "3", "8", "9", "1"], "time": [3311, 3412, 4678, 5811, 7143, 8360, 11109, 12697, 13941, 14952, 15940, 18789, 20056, 21139, 22238, 23471, 24571]}, "edge": {"target": [], "time": []}}, "mouseout": {"state": {"target": ["0", "0", "0", "12", "13", "14", "15", "16", "23", "24", "25", "26", "27", "1", "2", "3", "8", "9", "1", "0"], "time": [621, 845, 3328, 4597, 5644, 6877, 7866, 9426, 12142, 13858, 14741, 15857, 16671, 19655, 20811, 21851, 23171, 24371, 24937, 34267]}, "edge": {"target": [], "time": []}}}, "displayed_time": "33.30", "trialTime": 35304, "trial_type": "mouselab-mdp", "trial_index": 27, "time_elapsed": 1746522, "internal_node_id": "0.0-4.0-1.0-18.0"}}, {"uniqueid": "w60338069:a22850497", "current_trial": 28, "dateTime": 1691072724819, "trialdata": {"revealed_states": [], "clicked_states": ["1", "2", "3", "4", "5", "12", "13", "14", "19", "20", "24", "25", "30", "32"], "num_clicks_accrued": [0, 0, 0, 0, 0, 0, 0, 0, 0, 0, 0, 0, 0], "stateRewards": ["", -2, 3, 8, -9, 59, 41, -50, -1, 82, 66, 33, 2, -2, 7, 8, 1, -38, 12, -16, 24, -37, 67, 1, 4, -2, 5, 35, -83, 28, 8, -27, 69, -64], "withholdReward": false, "trial_id": "mdp_trial_20", "block": "test", "trialIndex": 21, "score": 75.5, "costs": -14.5, "simulationMode": [null, null, null, null, null], "rewards": [-2, 3, 8, -1, 82], "path": ["0", "0", "1", "2", "3", "8", "9"], "rt": [24391, 464, 383, 858, 428], "actions": ["up", "up", "up", "left", "up"], "actionTimes": [26370, 27341, 28242, 29617, 30553], "queries": {"click": {"state": {"target": ["1", "2", "3", "4", "5", "12", "13", "14", "19", "20", "24", "25", "30", "32"], "time": [4480, 5440, 6555, 7544, 9024, 12028, 13255, 14257, 15357, 16383, 20170, 21172, 22572, 23473]}, "edge": {"target": [], "time": []}}, "mouseover": {"state": {"target": ["0", "1", "2", "3", "4", "5", "1", "12", "13", "14", "19", "20", "0", "23", "24", "25", "30", "32", "0"], "time": [2415, 3801, 4982, 6098, 7198, 8014, 9797, 11630, 12813, 13829, 14995, 15998, 16961, 18311, 19595, 20727, 21926, 23009, 24559]}, "edge": {"target": [], "time": []}}, "mouseout": {"state": {"target": ["0", "0", "1", "2", "3", "4", "5", "5", "4", "1", "12", "13", "14", "19", "20", "0", "23", "24", "25", "25", "30", "32", "0"], "time": [1548, 3632, 4849, 5948, 6998, 7964, 9245, 9531, 9597, 9880, 12663, 13696, 14812, 15573, 16811, 17011, 19444, 20643, 21389, 21810, 22976, 24076, 25009]}, "edge": {"target": [], "time": []}}}, "displayed_time": "31.06", "trialTime": 35431, "trial_type": "mouselab-mdp", "trial_index": 28, "time_elapsed": 1782134, "internal_node_id": "0.0-4.0-1.0-19.0"}}, {"uniqueid": "w60338069:a22850497", "current_trial": 29, "dateTime": 1691072756460, "trialdata": {"revealed_states": [], "clicked_states": ["1", "2", "3", "4", "5", "12", "13", "14", "15", "17", "23", "24", "25", "30", "32"], "num_clicks_accrued": [0, 0, 0, 0, 0, 0, 0, 0, 0, 0, 0, 0, 0], "stateRewards": ["", -2, -3, -5, 8, 27, 11, 43, -6, -24, -87, 69, -2, 1, 1, 9, 19, 48, -37, 9, -14, 45, 62, 1, 2, 1, 16, -81, -41, 22, 4, -6, -63, 47], "withholdReward": false, "trial_id": "mdp_trial_21", "block": "test", "trialIndex": 22, "score": 42.75, "costs": -14.25, "simulationMode": [null, null, null, null, null], "rewards": [-2, 1, 1, 9, 48], "path": ["0", "0", "12", "13", "14", "15", "17"], "rt": [24088, 403, 308, 653, 342], "actions": ["right", "right", "right", "up", "right"], "actionTimes": [25267, 26181, 27002, 28163, 29017], "queries": {"click": {"state": {"target": ["1", "2", "3", "4", "5", "12", "13", "14", "15", "17", "23", "24", "25", "30", "32"], "time": [2517, 3439, 4312, 5300, 6214, 9122, 10365, 11489, 12982, 14002, 16989, 18129, 19189, 20274, 21425]}, "edge": {"target": [], "time": []}}, "mouseover": {"state": {"target": ["1", "2", "3", "4", "5", "2", "1", "12", "13", "14", "15", "15", "17", "0", "23", "24", "25", "30", "32", "31", "0"], "time": [2033, 2950, 3850, 4899, 5765, 6832, 7098, 8514, 9814, 10947, 11947, 12547, 13563, 15012, 16195, 17678, 18811, 19811, 20960, 21960, 22326]}, "edge": {"target": [], "time": []}}, "mouseout": {"state": {"target": ["0", "1", "2", "3", "4", "5", "2", "1", "12", "13", "14", "15", "15", "17", "15", "0", "23", "24", "25", "30", "32", "31", "0", "0"], "time": [488, 2730, 3767, 4732, 5649, 6715, 6882, 7198, 9697, 10813, 11913, 12013, 13479, 14596, 14645, 15162, 17528, 18350, 19694, 20843, 21910, 21977, 22393, 30589]}, "edge": {"target": [], "time": []}}}, "displayed_time": "29.52", "trialTime": 31452, "trial_type": "mouselab-mdp", "trial_index": 29, "time_elapsed": 1813775, "internal_node_id": "0.0-4.0-1.0-20.0"}}, {"uniqueid": "w60338069:a22850497", "current_trial": 30, "dateTime": 1691072793031, "trialdata": {"revealed_states": [], "clicked_states": ["1", "2", "3", "4", "7", "12", "13", "14", "15", "18", "23", "24", "25", "30", "32"], "num_clicks_accrued": [0, 0, 0, 0, 0, 0, 0, 0, 0, 0, 0, 0, 0], "stateRewards": ["", 2, -1, -3, 16, -3, -16, -62, -1, 13, -26, 43, -1, 4, 3, -9, -54, -37, -3, -12, -71, -68, -57, 1, -3, 2, -9, 2, -2, -9, -11, 84, -52, 55], "withholdReward": false, "trial_id": "mdp_trial_22", "block": "test", "trialIndex": 23, "score": -25.25, "costs": -14.25, "simulationMode": [null, null, null, null, null], "rewards": [1, -3, 2, -9, -2], "path": ["0", "0", "23", "24", "25", "26", "28"], "rt": [27238, 553, 412, 1079, 570], "actions": ["left", "left", "left", "up", "right"], "actionTimes": [29048, 30120, 31044, 32628, 33718], "queries": {"click": {"state": {"target": ["1", "2", "3", "4", "7", "12", "13", "14", "15", "18", "23", "24", "25", "30", "32"], "time": [4072, 4981, 6510, 7478, 8646, 12461, 13464, 14495, 15808, 16650, 20002, 21337, 22578, 23633, 24641]}, "edge": {"target": [], "time": []}}, "mouseover": {"state": {"target": ["1", "2", "3", "4", "7", "12", "13", "12", "13", "14", "15", "18", "23", "24", "25", "30", "32", "0"], "time": [3690, 4573, 6024, 7089, 8105, 10488, 11740, 12075, 13120, 14137, 15236, 16187, 18419, 20751, 22150, 23101, 24217, 25533]}, "edge": {"target": [], "time": []}}, "mouseout": {"state": {"target": ["31", "0", "1", "2", "3", "4", "7", "12", "13", "12", "13", "14", "14", "15", "18", "23", "24", "25", "30", "32", "0"], "time": [557, 3373, 4425, 5878, 6939, 8005, 9155, 11573, 11940, 12970, 14037, 15103, 15186, 16104, 17052, 20668, 21934, 23050, 24117, 25100, 35779]}, "edge": {"target": [], "time": []}}}, "displayed_time": "34.23", "trialTime": 36373, "trial_type": "mouselab-mdp", "trial_index": 30, "time_elapsed": 1850345, "internal_node_id": "0.0-4.0-1.0-21.0"}}, {"uniqueid": "w60338069:a22850497", "current_trial": 31, "dateTime": 1691072827104, "trialdata": {"revealed_states": [], "clicked_states": ["12", "13", "14", "19", "20", "24", "25", "26", "29", "1", "2", "3", "8", "11"], "num_clicks_accrued": [0, 0, 0, 0, 0, 0, 0, 0, 0, 0, 0, 0, 0], "stateRewards": ["", 1, -1, 8, -3, 38, 85, -20, -4, 8, 23, 73, 2, -4, 6, -13, 44, 7, -28, -11, -77, 45, -69, 1, -1, -7, -11, 75, -51, -87, 7, 36, -53, -26], "withholdReward": false, "trial_id": "mdp_trial_23", "block": "test", "trialIndex": 24, "score": 62.5, "costs": -14.5, "simulationMode": [null, null, null, null, null], "rewards": [1, -1, 8, -4, 73], "path": ["0", "0", "1", "2", "3", "8", "11"], "rt": [24683, 343, 352, 535, 346], "actions": ["up", "up", "up", "left", "left"], "actionTimes": [27929, 28786, 29645, 30695, 31555], "queries": {"click": {"state": {"target": ["12", "13", "14", "19", "20", "24", "25", "26", "29", "1", "2", "3", "8", "11"], "time": [6092, 7022, 8023, 9083, 10035, 13420, 14626, 15490, 16429, 19531, 20612, 21939, 23108, 23983]}, "edge": {"target": [], "time": []}}, "mouseover": {"state": {"target": ["0", "12", "13", "14", "19", "20", "12", "0", "23", "24", "25", "26", "29", "28", "1", "2", "3", "8", "11", "10", "1"], "time": [3766, 5634, 6699, 7699, 8665, 9548, 10548, 10681, 11631, 12998, 14230, 14997, 15997, 16879, 18929, 20128, 21444, 22527, 23478, 24577, 24809]}, "edge": {"target": [], "time": []}}, "mouseout": {"state": {"target": ["0", "0", "0", "0", "12", "13", "14", "19", "20", "12", "0", "23", "24", "25", "26", "29", "26", "28", "1", "2", "3", "8", "11", "10", "1", "0"], "time": [852, 1619, 2801, 5503, 6566, 7515, 8582, 9515, 10398, 10631, 11055, 12764, 14013, 14931, 15898, 16813, 16862, 16896, 19944, 21111, 22411, 23412, 24527, 24660, 24959, 33073]}, "edge": {"target": [], "time": []}}}, "displayed_time": "32.09", "trialTime": 33886, "trial_type": "mouselab-mdp", "trial_index": 31, "time_elapsed": 1884419, "internal_node_id": "0.0-4.0-1.0-22.0"}}, {"uniqueid": "w60338069:a22850497", "current_trial": 32, "dateTime": 1691072857667, "trialdata": {"revealed_states": [], "clicked_states": ["12", "13", "14", "15", "17", "24", "25", "26", "28", "1", "2", "3", "4", "5"], "num_clicks_accrued": [0, 0, 0, 0, 0, 0, 0, 0, 0, 0, 0, 0, 0], "stateRewards": ["", 2, 4, -3, 16, -58, 30, -35, 11, -60, 47, 27, -2, -1, -7, -16, 23, -70, 68, -10, -65, -43, -34, -2, 1, 7, 9, -63, 34, -31, -8, -12, -86, 59], "withholdReward": false, "trial_id": "mdp_trial_24", "block": "test", "trialIndex": 25, "score": 34.5, "costs": -14.5, "simulationMode": [null, null, null, null, null], "rewards": [-2, 1, 7, 9, 34], "path": ["0", "0", "23", "24", "25", "26", "28"], "rt": [23187, 342, 337, 472, 394], "actions": ["left", "left", "left", "up", "right"], "actionTimes": [24585, 25447, 26292, 27277, 28182], "queries": {"click": {"state": {"target": ["12", "13", "14", "15", "17", "24", "25", "26", "28", "1", "2", "3", "4", "5"], "time": [3218, 4134, 5012, 5853, 6687, 10490, 11480, 12369, 13356, 16744, 17662, 18545, 19466, 20380]}, "edge": {"target": [], "time": []}}, "mouseover": {"state": {"target": ["12", "13", "14", "15", "17", "18", "1", "23", "24", "25", "26", "28", "23", "0", "1", "2", "3", "4", "5", "7", "1"], "time": [2761, 3794, 4578, 5378, 6361, 7159, 7376, 8526, 9859, 11141, 11942, 12924, 13807, 13940, 15240, 17173, 18040, 19139, 19939, 21338, 21521]}, "edge": {"target": [], "time": []}}, "mouseout": {"state": {"target": ["0", "12", "13", "14", "15", "17", "15", "18", "1", "23", "24", "25", "26", "28", "23", "0", "1", "2", "3", "4", "5", "4", "7", "1", "0"], "time": [878, 3627, 4512, 5294, 6182, 6915, 7143, 7193, 7393, 9545, 10991, 11809, 12791, 13745, 13823, 14940, 16960, 17957, 18972, 19839, 20805, 20972, 21371, 21555, 29619]}, "edge": {"target": [], "time": []}}}, "displayed_time": "28.69", "trialTime": 30371, "trial_type": "mouselab-mdp", "trial_index": 32, "time_elapsed": 1914981, "internal_node_id": "0.0-4.0-1.0-23.0"}}, {"uniqueid": "w60338069:a22850497", "current_trial": 33, "dateTime": 1691072889838, "trialdata": {"revealed_states": [], "clicked_states": ["23", "24", "25", "26", "29", "12", "13", "14", "19", "22", "2", "3", "4", "5"], "num_clicks_accrued": [0, 0, 0, 0, 0, 0, 0, 0, 0, 0, 0, 0, 0], "stateRewards": ["", -2, 4, -5, -12, 85, -24, -18, -15, -78, -22, 26, -1, -1, 2, 14, -45, 52, -23, 7, -33, 24, -6, -2, -4, 5, -7, -16, 36, -39, 5, 71, -87, -23], "withholdReward": false, "trial_id": "mdp_trial_25", "block": "test", "trialIndex": 26, "score": 55.5, "costs": -14.5, "simulationMode": [null, null, null, null, null], "rewards": [-2, 4, -5, -12, 85], "path": ["0", "0", "1", "2", "3", "4", "5"], "rt": [25002, 371, 328, 590, 394], "actions": ["up", "up", "up", "right", "up"], "actionTimes": [26177, 27060, 27899, 28994, 29898], "queries": {"click": {"state": {"target": ["23", "24", "25", "26", "29", "12", "13", "14", "19", "22", "2", "3", "4", "5"], "time": [4160, 5192, 6106, 6933, 7879, 11301, 12333, 13197, 14168, 15083, 18919, 20088, 21004, 21942]}, "edge": {"target": [], "time": []}}, "mouseover": {"state": {"target": ["23", "24", "25", "26", "29", "28", "12", "13", "14", "19", "22", "0", "1", "2", "3", "4", "5"], "time": [3727, 4844, 5693, 6428, 7427, 8347, 9692, 11878, 12743, 13757, 14658, 15623, 17073, 18407, 19655, 20522, 21356]}, "edge": {"target": [], "time": []}}, "mouseout": {"state": {"target": ["0", "23", "24", "25", "26", "29", "28", "12", "13", "14", "19", "22", "0", "1", "2", "2", "2", "3", "4", "5", "5", "4", "0"], "time": [2845, 4711, 5414, 6394, 7269, 8293, 8361, 11809, 12659, 13674, 14491, 15557, 16090, 18122, 19131, 19389, 19538, 20472, 21329, 22272, 22322, 22389, 31318]}, "edge": {"target": [], "time": []}}}, "displayed_time": "30.40", "trialTime": 31969, "trial_type": "mouselab-mdp", "trial_index": 33, "time_elapsed": 1947153, "internal_node_id": "0.0-4.0-1.0-24.0"}}, {"uniqueid": "w60338069:a22850497", "current_trial": 34, "dateTime": 1691072925402, "trialdata": {"revealed_states": [], "clicked_states": ["1", "2", "3", "8", "9", "23", "24", "25", "26", "27", "12", "13", "14", "15", "17"], "num_clicks_accrued": [0, 0, 0, 0, 0, 0, 0, 0, 0, 0, 0, 0, 0], "stateRewards": ["", 1, -4, 6, -3, 40, 76, -51, 5, -24, -63, 44, -2, -2, 8, 1, 76, -85, -58, 10, 59, 20, 11, -2, 3, -3, 3, -82, -10, 54, -7, -57, -6, -32], "withholdReward": false, "trial_id": "mdp_trial_26", "block": "test", "trialIndex": 27, "score": 25.75, "costs": -14.25, "simulationMode": [null, null, null, null, null], "rewards": [1, -4, 6, -3, 40], "path": ["0", "0", "1", "2", "3", "4", "5"], "rt": [25488, 376, 386, 637, 452], "actions": ["up", "up", "up", "right", "up"], "actionTimes": [29256, 30148, 31057, 32209, 33175], "queries": {"click": {"state": {"target": ["1", "2", "3", "8", "9", "23", "24", "25", "26", "27", "12", "13", "14", "15", "17"], "time": [4936, 5874, 6686, 7571, 8456, 11766, 12725, 13537, 14386, 15494, 19615, 20547, 22394, 23322, 24377]}, "edge": {"target": [], "time": []}}, "mouseover": {"state": {"target": ["1", "2", "3", "8", "9", "1", "23", "24", "25", "26", "27", "28", "0", "12", "12", "13", "14", "14", "14", "15", "17"], "time": [4481, 5362, 6213, 7260, 7945, 9411, 10678, 12277, 13095, 13926, 15159, 16175, 16725, 17625, 19143, 20091, 20959, 21741, 22010, 22741, 23922]}, "edge": {"target": [], "time": []}}, "mouseout": {"state": {"target": ["0", "1", "2", "3", "8", "9", "9", "8", "1", "23", "24", "25", "26", "27", "28", "0", "12", "12", "13", "14", "14", "14", "15", "17", "15", "0"], "time": [1997, 5329, 6179, 7030, 7911, 8684, 8911, 8977, 9511, 12243, 13061, 13749, 14792, 16059, 16275, 17075, 18741, 20024, 20892, 21208, 21791, 22691, 23722, 24598, 24922, 34652]}, "edge": {"target": [], "time": []}}}, "displayed_time": "33.69", "trialTime": 35362, "trial_type": "mouselab-mdp", "trial_index": 34, "time_elapsed": 1982716, "internal_node_id": "0.0-4.0-1.0-25.0"}}, {"uniqueid": "w60338069:a22850497", "current_trial": 35, "dateTime": 1691072957995, "trialdata": {"revealed_states": [], "clicked_states": ["1", "2", "3", "8", "9", "23", "24", "25", "30", "31", "12", "13", "14", "19", "21"], "num_clicks_accrued": [0, 0, 0, 0, 0, 0, 0, 0, 0, 0, 0, 0, 0], "stateRewards": ["", -2, 2, 3, -7, 76, 63, 21, 15, 35, -8, -44, 1, 1, -2, -12, 23, 24, 76, -9, 46, 66, -49, -2, -1, 7, 12, 40, -71, -45, -6, 38, -49, 46], "withholdReward": false, "trial_id": "mdp_trial_27", "block": "test", "trialIndex": 28, "score": 38.75, "costs": -14.25, "simulationMode": [null, null, null, null, null], "rewards": [-2, 2, 3, 15, 35], "path": ["0", "0", "1", "2", "3", "8", "9"], "rt": [24812, 363, 282, 489, 585], "actions": ["up", "up", "up", "left", "up"], "actionTimes": [26218, 27096, 27897, 28904, 29999], "queries": {"click": {"state": {"target": ["1", "2", "3", "8", "9", "23", "24", "25", "30", "31", "12", "13", "14", "19", "21"], "time": [3304, 5267, 6128, 7144, 8154, 11672, 12689, 13711, 14633, 16016, 18812, 19979, 21034, 22063, 23171]}, "edge": {"target": [], "time": []}}, "mouseover": {"state": {"target": ["1", "2", "3", "8", "9", "2", "1", "0", "23", "24", "25", "30", "31", "0", "12", "13", "14", "19", "21", "22", "0"], "time": [2821, 4866, 5705, 6605, 7488, 8637, 9037, 9503, 10419, 12269, 13268, 14186, 15384, 16667, 17767, 19566, 20583, 21517, 22749, 23517, 23866]}, "edge": {"target": [], "time": []}}, "mouseout": {"state": {"target": ["0", "1", "2", "3", "8", "9", "2", "1", "0", "23", "24", "25", "25", "30", "31", "0", "12", "13", "14", "14", "19", "21", "22", "0", "0"], "time": [2766, 3688, 5572, 6472, 7455, 8537, 8670, 9102, 9776, 12135, 13152, 14019, 14103, 15151, 16232, 16950, 19433, 20449, 21351, 21450, 22549, 23500, 23550, 24033, 31529]}, "edge": {"target": [], "time": []}}}, "displayed_time": "30.51", "trialTime": 32392, "trial_type": "mouselab-mdp", "trial_index": 35, "time_elapsed": 2015309, "internal_node_id": "0.0-4.0-1.0-26.0"}}, {"uniqueid": "w60338069:a22850497", "current_trial": 36, "dateTime": 1691072991910, "trialdata": {"revealed_states": [], "clicked_states": ["1", "2", "3", "4", "6", "23", "24", "25", "26", "29", "12", "13", "14", "15", "16"], "num_clicks_accrued": [0, 0, 0, 0, 0, 0, 0, 0, 0, 0, 0, 0, 0], "stateRewards": ["", 2, -4, 7, 3, 23, -42, 4, 7, -81, -33, 7, -2, -4, 5, -1, 50, -57, -14, -13, -14, 44, 55, -2, -2, 5, -2, 33, 1, 57, -13, -7, 58, 87], "withholdReward": false, "trial_id": "mdp_trial_28", "block": "test", "trialIndex": 29, "score": 41.75, "costs": -14.25, "simulationMode": [null, null, null, null, null], "rewards": [-2, -2, 5, -2, 57], "path": ["0", "0", "23", "24", "25", "26", "29"], "rt": [23615, 382, 318, 825, 436], "actions": ["left", "left", "left", "up", "left"], "actionTimes": [27705, 28624, 29459, 30799, 31743], "queries": {"click": {"state": {"target": ["1", "2", "3", "4", "6", "23", "24", "25", "26", "29", "12", "13", "14", "15", "16"], "time": [5076, 6353, 8232, 9136, 10137, 13582, 14569, 15577, 16588, 17593, 20651, 21890, 22856, 23857, 24888]}, "edge": {"target": [], "time": []}}, "mouseover": {"state": {"target": ["1", "2", "3", "3", "4", "6", "7", "1", "23", "24", "25", "26", "29", "28", "12", "13", "14", "15", "16", "18", "0"], "time": [4733, 5848, 6763, 7780, 8680, 9779, 10629, 10897, 11995, 14144, 15161, 16094, 17149, 18077, 19443, 21442, 22392, 23360, 24475, 25374, 25824]}, "edge": {"target": [], "time": []}}, "mouseout": {"state": {"target": ["0", "1", "2", "3", "3", "4", "6", "7", "1", "23", "24", "25", "26", "29", "26", "28", "12", "13", "14", "15", "16", "18", "0"], "time": [2703, 5648, 6730, 6980, 8613, 9663, 10580, 10679, 10913, 14061, 15028, 15928, 17012, 18031, 18062, 18094, 21259, 22309, 23177, 24291, 25341, 25424, 32956]}, "edge": {"target": [], "time": []}}}, "displayed_time": "32.26", "trialTime": 33729, "trial_type": "mouselab-mdp", "trial_index": 36, "time_elapsed": 2049225, "internal_node_id": "0.0-4.0-1.0-27.0"}}, {"uniqueid": "w60338069:a22850497", "current_trial": 37, "dateTime": 1691073028038, "trialdata": {"revealed_states": [], "clicked_states": ["1", "2", "3", "4", "5", "12", "13", "14", "15", "18", "23", "24", "25", "26", "28"], "num_clicks_accrued": [0, 0, 0, 0, 0, 0, 0, 0, 0, 0, 0, 0, 0], "stateRewards": ["", 1, -2, -3, 14, -42, -87, -37, -11, -50, 33, -44, -2, 4, -7, 13, 48, -75, -66, 12, 23, -2, 82, 1, -4, 3, 12, 51, -15, -26, -11, -52, -29, 82], "withholdReward": false, "trial_id": "mdp_trial_29", "block": "test", "trialIndex": 30, "score": -17.25, "costs": -14.25, "simulationMode": [null, null, null, null, null], "rewards": [1, -4, 3, 12, -15], "path": ["0", "0", "23", "24", "25", "26", "28"], "rt": [26272, 346, 287, 921, 758], "actions": ["left", "left", "left", "up", "right"], "actionTimes": [28482, 29345, 30153, 31588, 32857], "queries": {"click": {"state": {"target": ["1", "2", "3", "4", "5", "12", "13", "14", "15", "18", "23", "24", "25", "26", "28"], "time": [3461, 4446, 5422, 7299, 8278, 11639, 12644, 13636, 14773, 16609, 20309, 21508, 22466, 23945, 25007]}, "edge": {"target": [], "time": []}}, "mouseover": {"state": {"target": ["1", "2", "3", "4", "4", "5", "2", "1", "0", "12", "13", "14", "15", "18", "0", "23", "24", "25", "26", "28"], "time": [2824, 3991, 5006, 6089, 6939, 7872, 8788, 8922, 9371, 10205, 12237, 13203, 14203, 15469, 17702, 18718, 21084, 22067, 23383, 24583]}, "edge": {"target": [], "time": []}}, "mouseout": {"state": {"target": ["0", "1", "2", "3", "4", "4", "5", "2", "1", "0", "12", "13", "14", "15", "18", "0", "23", "24", "25", "26", "28"], "time": [2723, 3791, 4823, 6055, 6122, 7639, 8672, 8805, 9055, 10171, 12054, 13104, 13970, 15303, 17057, 18635, 20834, 21950, 23100, 24156, 25232]}, "edge": {"target": [], "time": []}}}, "displayed_time": "33.37", "trialTime": 35944, "trial_type": "mouselab-mdp", "trial_index": 37, "time_elapsed": 2085352, "internal_node_id": "0.0-4.0-1.0-28.0"}}, {"uniqueid": "w60338069:a22850497", "current_trial": 38, "dateTime": 1691073064703, "trialdata": {"revealed_states": [], "clicked_states": ["1", "2", "3", "8", "11", "23", "24", "25", "26", "28", "12", "13", "14", "15", "18"], "num_clicks_accrued": [0, 0, 0, 0, 0, 0, 0, 0, 0, 0, 0, 0, 0], "stateRewards": ["", -1, -2, 4, 9, 10, -75, 39, 16, -43, 88, -19, -1, 1, 2, 4, -31, 10, 73, 12, 41, -64, -81, -2, 2, -6, 1, -81, -1, -26, 3, -59, -3, -20], "withholdReward": false, "trial_id": "mdp_trial_30", "block": "test", "trialIndex": 31, "score": 64.75, "costs": -14.25, "simulationMode": [null, null, null, null, null], "rewards": [-1, 1, 2, 4, 73], "path": ["0", "0", "12", "13", "14", "15", "18"], "rt": [27672, 305, 312, 705, 666], "actions": ["right", "right", "right", "up", "left"], "actionTimes": [28927, 29738, 30560, 31769, 32947], "queries": {"click": {"state": {"target": ["1", "2", "3", "8", "11", "23", "24", "25", "26", "28", "12", "13", "14", "15", "18"], "time": [3626, 4621, 6296, 7335, 8559, 11876, 12945, 14065, 14904, 15977, 19733, 20740, 21882, 23702, 24632]}, "edge": {"target": [], "time": []}}, "mouseover": {"state": {"target": ["1", "1", "2", "3", "8", "11", "28", "23", "24", "25", "26", "28", "12", "13", "14", "15", "15", "18"], "time": [2755, 3172, 4206, 5891, 6854, 7987, 9554, 11353, 12435, 13452, 14370, 15601, 17717, 20316, 21400, 22219, 23354, 24183]}, "edge": {"target": [], "time": []}}, "mouseout": {"state": {"target": ["0", "1", "1", "2", "3", "8", "11", "11", "28", "23", "24", "25", "26", "28", "12", "13", "14", "15", "15", "18"], "time": [539, 2822, 3923, 5572, 6704, 7770, 8775, 9120, 9570, 12336, 13335, 14303, 15285, 16451, 20200, 21250, 22184, 22488, 24049, 25148]}, "edge": {"target": [], "time": []}}}, "displayed_time": "33.46", "trialTime": 36470, "trial_type": "mouselab-mdp", "trial_index": 38, "time_elapsed": 2122018, "internal_node_id": "0.0-4.0-1.0-29.0"}}, {"uniqueid": "w60338069:a22850497", "current_trial": 39, "dateTime": 1691073099677, "trialdata": {"revealed_states": [], "clicked_states": ["1", "2", "3", "4", "5", "23", "24", "25", "26", "29", "12", "13", "14", "15", "16"], "num_clicks_accrued": [0, 0, 0, 0, 0, 0, 0, 0, 0, 0, 0, 0, 0], "stateRewards": ["", -1, -1, 7, -15, -43, -21, -84, -9, -45, -66, 2, 1, -2, 2, 8, -27, 44, -52, -5, -84, 11, 53, 1, 4, -4, 16, 83, -82, -15, -16, 68, -43, 81], "withholdReward": false, "trial_id": "mdp_trial_31", "block": "test", "trialIndex": 32, "score": -72.25, "costs": -14.25, "simulationMode": [null, null, null, null, null], "rewards": [1, 4, -4, -16, -43], "path": ["0", "0", "23", "24", "25", "30", "32"], "rt": [25828, 362, 420, 1283, 353], "actions": ["left", "left", "left", "down", "down"], "actionTimes": [27498, 28370, 29328, 31124, 31993], "queries": {"click": {"state": {"target": ["1", "2", "3", "4", "5", "23", "24", "25", "26", "29", "12", "13", "14", "15", "16"], "time": [2924, 3822, 4856, 5800, 6699, 9726, 11039, 12291, 13272, 14431, 17958, 19069, 20092, 21083, 22138]}, "edge": {"target": [], "time": []}}, "mouseover": {"state": {"target": ["1", "2", "3", "4", "5", "1", "23", "24", "25", "26", "29", "28", "0", "12", "13", "14", "15", "16", "23"], "time": [2400, 3332, 4382, 5348, 6182, 7380, 8686, 10629, 11680, 12762, 14011, 14911, 15144, 16544, 18527, 19726, 20461, 21644, 26125]}, "edge": {"target": [], "time": []}}, "mouseout": {"state": {"target": ["0", "0", "1", "2", "3", "4", "5", "5", "4", "1", "23", "24", "25", "26", "29", "26", "28", "0", "12", "13", "14", "15", "16", "16"], "time": [703, 1413, 3282, 4181, 5297, 6082, 6913, 7097, 7164, 7513, 10446, 11546, 12612, 13795, 14844, 14894, 14928, 15711, 18477, 19543, 20411, 21411, 22358, 22508]}, "edge": {"target": [], "time": []}}}, "displayed_time": "32.51", "trialTime": 34782, "trial_type": "mouselab-mdp", "trial_index": 39, "time_elapsed": 2156991, "internal_node_id": "0.0-4.0-1.0-30.0"}}, {"uniqueid": "w60338069:a22850497", "current_trial": 40, "dateTime": 1691073134843, "trialdata": {"revealed_states": [], "clicked_states": ["1", "2", "3", "4", "6", "23", "24", "25", "26", "27", "12", "13", "14", "15", "16"], "num_clicks_accrued": [0, 0, 0, 0, 0, 0, 0, 0, 0, 0, 0, 0, 0], "stateRewards": ["", 1, -4, -6, -1, -21, 17, -72, 10, 77, 67, -46, -1, 4, -2, 14, -66, -49, -45, -15, -52, 23, -67, 2, -2, -2, 15, -3, 45, -64, 5, -44, 83, 61], "withholdReward": false, "trial_id": "mdp_trial_32", "block": "test", "trialIndex": 33, "score": -7.25, "costs": -14.25, "simulationMode": [null, null, null, null, null], "rewards": [1, -4, -6, -1, 17], "path": ["0", "0", "1", "2", "3", "4", "6"], "rt": [25920, 318, 223, 1300, 169], "actions": ["up", "up", "up", "right", "right"], "actionTimes": [27558, 28387, 29125, 30935, 31620], "queries": {"click": {"state": {"target": ["1", "2", "3", "4", "6", "23", "24", "25", "26", "27", "12", "13", "14", "15", "16"], "time": [3236, 4448, 5587, 6502, 7526, 10405, 11667, 12886, 14046, 15375, 18761, 19743, 20833, 21842, 23014]}, "edge": {"target": [], "time": []}}, "mouseover": {"state": {"target": ["0", "1", "2", "3", "4", "6", "7", "1", "0", "23", "24", "25", "26", "27", "0", "12", "13", "14", "15", "16", "18", "0"], "time": [2276, 2859, 3936, 5042, 6058, 7158, 8010, 8224, 8558, 9874, 11190, 12390, 13639, 14922, 17704, 18070, 19270, 20502, 21269, 22370, 23519, 23935]}, "edge": {"target": [], "time": []}}, "mouseout": {"state": {"target": ["23", "1", "0", "1", "2", "3", "4", "6", "7", "1", "0", "23", "24", "25", "26", "27", "0", "12", "13", "14", "15", "16", "18", "0", "0"], "time": [476, 794, 2576, 3659, 4859, 5992, 6975, 7974, 8074, 8324, 9707, 11073, 12189, 13358, 14872, 15805, 17720, 19170, 20286, 21203, 22187, 23469, 23552, 24668, 34231]}, "edge": {"target": [], "time": []}}}, "displayed_time": "32.13", "trialTime": 34953, "trial_type": "mouselab-mdp", "trial_index": 40, "time_elapsed": 2192157, "internal_node_id": "0.0-4.0-1.0-31.0"}}, {"uniqueid": "w60338069:a22850497", "current_trial": 41, "dateTime": 1691073169087, "trialdata": {"revealed_states": [], "clicked_states": ["1", "2", "3", "4", "7", "23", "24", "25", "30", "32", "12", "13", "14", "15", "17"], "num_clicks_accrued": [0, 0, 0, 0, 0, 0, 0, 0, 0, 0, 0, 0, 0], "stateRewards": ["", -2, 3, -5, -7, 66, 43, -60, -4, -70, -75, 4, -1, 2, 2, -13, 54, 11, -40, -1, 77, 32, 15, -2, 3, -8, -9, -35, 83, -27, 6, -74, -34, 44], "withholdReward": false, "trial_id": "mdp_trial_33", "block": "test", "trialIndex": 34, "score": -13.25, "costs": -14.25, "simulationMode": [null, null, null, null, null], "rewards": [-1, 2, 2, -13, 11], "path": ["0", "0", "12", "13", "14", "15", "17"], "rt": [26491, 346, 259, 754, 287], "actions": ["right", "right", "right", "up", "right"], "actionTimes": [27908, 28766, 29524, 30769, 31570], "queries": {"click": {"state": {"target": ["1", "2", "3", "4", "7", "23", "24", "25", "30", "32", "12", "13", "14", "15", "17"], "time": [3190, 4309, 5614, 6809, 7795, 11055, 12178, 13169, 14143, 15084, 17948, 19058, 20058, 21047, 23450]}, "edge": {"target": [], "time": []}}, "mouseover": {"state": {"target": ["1", "2", "3", "4", "7", "1", "23", "24", "25", "30", "32", "0", "12", "13", "14", "15", "16", "17", "17", "0"], "time": [2691, 4006, 5105, 6289, 7388, 8472, 10437, 11770, 12720, 13738, 14620, 16235, 17168, 18668, 19667, 20502, 21468, 22358, 22950, 24699]}, "edge": {"target": [], "time": []}}, "mouseout": {"state": {"target": ["0", "1", "2", "3", "4", "7", "1", "23", "24", "25", "30", "32", "0", "12", "13", "14", "15", "16", "17", "17", "15"], "time": [1873, 3772, 5022, 6038, 7304, 8304, 8587, 11620, 12603, 13572, 14521, 15452, 16318, 18501, 19534, 20352, 21352, 22201, 22537, 23936, 23999]}, "edge": {"target": [], "time": []}}}, "displayed_time": "32.08", "trialTime": 34024, "trial_type": "mouselab-mdp", "trial_index": 41, "time_elapsed": 2226402, "internal_node_id": "0.0-4.0-1.0-32.0"}}, {"uniqueid": "w60338069:a22850497", "current_trial": 42, "dateTime": 1691073205017, "trialdata": {"revealed_states": [], "clicked_states": ["1", "2", "3", "4", "6", "23", "24", "25", "30", "33", "12", "13", "14", "15", "18"], "num_clicks_accrued": [0, 0, 0, 0, 0, 0, 0, 0, 0, 0, 0, 0, 0], "stateRewards": ["", 2, 4, 4, -8, -36, -33, 38, 16, -51, 57, 57, 1, 3, 4, -6, 45, 68, 87, 1, 63, 24, -55, -2, 2, -6, -13, -63, -50, 8, 2, 80, 6, 60], "withholdReward": false, "trial_id": "mdp_trial_34", "block": "test", "trialIndex": 35, "score": 41.75, "costs": -14.25, "simulationMode": [null, null, null, null, null, null], "rewards": [-2, 2, -6, 2, 60], "path": ["0", "0", "23", "24", "25", "30", "33"], "rt": [23926, 616, 793, 330, 877, 651], "actions": ["left", "left", "left", "left", "down", "left"], "actionTimes": [26736, 27355, 28674, 29510, 30907, 32063], "queries": {"click": {"state": {"target": ["1", "2", "3", "4", "6", "23", "24", "25", "30", "33", "12", "13", "14", "15", "18"], "time": [4106, 5205, 6110, 7259, 9445, 12803, 13949, 14967, 15931, 17104, 20317, 21820, 22929, 23809, 24704]}, "edge": {"target": [], "time": []}}, "mouseover": {"state": {"target": ["1", "2", "3", "4", "6", "1", "23", "24", "25", "30", "33", "23", "12", "13", "14", "15", "18"], "time": [3504, 4803, 5655, 6786, 9102, 10452, 12185, 13534, 14550, 15485, 16616, 17933, 19482, 21448, 22498, 23249, 24165]}, "edge": {"target": [], "time": []}}, "mouseout": {"state": {"target": ["0", "1", "2", "3", "4", "6", "4", "1", "23", "24", "25", "30", "30", "33", "23", "12", "13", "14", "15", "18"], "time": [838, 4520, 5505, 6586, 8039, 9952, 10002, 10619, 13284, 14434, 15369, 16155, 16433, 17533, 17949, 20529, 22315, 23199, 24116, 25015]}, "edge": {"target": [], "time": []}}}, "displayed_time": "32.58", "trialTime": 35730, "trial_type": "mouselab-mdp", "trial_index": 42, "time_elapsed": 2262332, "internal_node_id": "0.0-4.0-1.0-33.0"}}, {"uniqueid": "w60338069:a22850497", "current_trial": 43, "dateTime": 1691073236393, "trialdata": {"revealed_states": [], "clicked_states": ["23", "24", "25", "30", "33", "13", "14", "15", "16", "1", "2", "3", "4", "5"], "num_clicks_accrued": [0, 0, 0, 0, 0, 0, 0, 0, 0, 0, 0, 0, 0], "stateRewards": ["", 1, 2, 3, 16, 63, -25, 16, -4, -14, 82, -66, -1, -3, -3, -11, -14, 19, 46, 3, -34, -82, 66, -2, -3, 4, -5, -63, 77, -37, -1, -45, -41, 84], "withholdReward": false, "trial_id": "mdp_trial_35", "block": "test", "trialIndex": 36, "score": 67.5, "costs": -14.5, "simulationMode": [null, null, null, null, null], "rewards": [-2, -3, 4, -1, 84], "path": ["0", "0", "23", "24", "25", "30", "33"], "rt": [23290, 219, 241, 883, 630], "actions": ["left", "left", "left", "down", "left"], "actionTimes": [25096, 25823, 26578, 27969, 29116], "queries": {"click": {"state": {"target": ["23", "24", "25", "30", "33", "13", "14", "15", "16", "1", "2", "3", "4", "5"], "time": [3719, 4569, 5469, 6656, 7616, 11437, 12448, 13398, 14558, 17778, 18664, 19665, 20733, 21703]}, "edge": {"target": [], "time": []}}, "mouseover": {"state": {"target": ["23", "24", "25", "30", "33", "23", "12", "13", "14", "15", "16", "1", "2", "3", "4", "5", "2", "1"], "time": [3345, 4178, 5028, 6225, 7225, 8092, 9691, 10991, 12113, 12792, 14073, 16522, 18173, 19072, 20237, 21155, 22403, 22553]}, "edge": {"target": [], "time": []}}, "mouseout": {"state": {"target": ["0", "0", "23", "24", "25", "30", "33", "23", "12", "13", "14", "15", "16", "1", "2", "3", "4", "5", "4", "2", "1", "0", "12"], "time": [772, 1197, 4061, 4928, 6109, 7092, 8025, 8125, 10874, 11941, 12758, 13789, 15089, 18090, 18989, 20087, 21055, 22120, 22170, 22436, 22920, 30316, 30366]}, "edge": {"target": [], "time": []}}}, "displayed_time": "29.62", "trialTime": 31157, "trial_type": "mouselab-mdp", "trial_index": 43, "time_elapsed": 2293708, "internal_node_id": "0.0-4.0-1.0-34.0"}}, {"uniqueid": "w60338069:a22850497", "current_trial": 44, "dateTime": 1691073270189, "trialdata": {"revealed_states": [], "clicked_states": ["1", "2", "3", "4", "5", "23", "24", "25", "30", "31", "12", "13", "14", "19", "20"], "num_clicks_accrued": [0, 0, 0, 0, 0, 0, 0, 0, 0, 0, 0, 0, 0], "stateRewards": ["", 1, 1, -5, 8, -6, 45, 16, -6, -7, -22, -38, -1, -4, 8, -11, -16, 21, -45, -15, -59, -32, 42, -1, 3, 6, 11, -7, 34, -27, -8, 85, 43, -9], "withholdReward": false, "trial_id": "mdp_trial_36", "block": "test", "trialIndex": 37, "score": 70.75, "costs": -14.25, "simulationMode": [null, null, null, null, null], "rewards": [-1, 3, 6, -8, 85], "path": ["0", "0", "23", "24", "25", "30", "31"], "rt": [25767, 321, 265, 704, 535], "actions": ["left", "left", "left", "down", "right"], "actionTimes": [27553, 28391, 29168, 30390, 31443], "queries": {"click": {"state": {"target": ["1", "2", "3", "4", "5", "23", "24", "25", "30", "31", "12", "13", "14", "19", "20"], "time": [3429, 4321, 5252, 6222, 7702, 10834, 11952, 13163, 14180, 15278, 18814, 19895, 20941, 22002, 22936]}, "edge": {"target": [], "time": []}}, "mouseover": {"state": {"target": ["1", "2", "3", "4", "5", "2", "1", "23", "24", "25", "30", "31", "0", "12", "13", "14", "19", "20", "13", "12"], "time": [2927, 3812, 4760, 5860, 7198, 8208, 8542, 10075, 11541, 12376, 13707, 14575, 16023, 17389, 19538, 20555, 21587, 22420, 23437, 23487]}, "edge": {"target": [], "time": []}}, "mouseout": {"state": {"target": ["0", "1", "2", "3", "4", "5", "5", "2", "1", "23", "24", "25", "25", "30", "31", "0", "12", "13", "14", "19", "20", "13", "12"], "time": [2294, 3746, 4693, 5660, 6845, 7919, 8109, 8240, 8625, 11374, 12276, 13364, 13608, 14525, 15673, 16089, 19338, 20455, 21388, 22387, 23149, 23471, 23587]}, "edge": {"target": [], "time": []}}}, "displayed_time": "31.95", "trialTime": 33598, "trial_type": "mouselab-mdp", "trial_index": 44, "time_elapsed": 2327504, "internal_node_id": "0.0-4.0-1.0-35.0"}}, {"uniqueid": "w60338069:a22850497", "current_trial": 45, "dateTime": 1691073302867, "trialdata": {"revealed_states": [], "clicked_states": ["1", "2", "3", "4", "5", "12", "13", "14", "15", "17", "23", "24", "25", "26", "28"], "num_clicks_accrued": [0, 0, 0, 0, 0, 0, 0, 0, 0, 0, 0, 0, 0], "stateRewards": ["", -2, -3, 1, -14, 48, -49, 67, -1, -35, -48, 3, -2, 1, -4, -5, 86, -84, 39, 1, 48, 41, -42, -1, -4, 2, -7, 18, -86, 17, 7, -9, 57, -69], "withholdReward": false, "trial_id": "mdp_trial_37", "block": "test", "trialIndex": 38, "score": 15.75, "costs": -14.25, "simulationMode": [null, null, null, null, null], "rewards": [-2, -3, 1, -14, 48], "path": ["0", "0", "1", "2", "3", "4", "5"], "rt": [24677, 147, 153, 1250, 496], "actions": ["up", "up", "up", "right", "up"], "actionTimes": [26391, 27058, 27730, 29495, 30505], "queries": {"click": {"state": {"target": ["1", "2", "3", "4", "5", "12", "13", "14", "15", "17", "23", "24", "25", "26", "28"], "time": [2884, 3874, 5104, 6294, 7391, 10588, 11608, 12583, 13622, 14728, 18314, 19474, 20412, 21352, 22291]}, "edge": {"target": [], "time": []}}, "mouseover": {"state": {"target": ["1", "2", "3", "4", "5", "1", "12", "13", "14", "15", "17", "0", "23", "24", "25", "26", "28"], "time": [2468, 3483, 4666, 5833, 6715, 8182, 9948, 11197, 12148, 13152, 14280, 15579, 16779, 18945, 19963, 20763, 21794]}, "edge": {"target": [], "time": []}}, "mouseout": {"state": {"target": ["0", "0", "1", "2", "3", "4", "5", "4", "1", "12", "13", "14", "15", "17", "17", "15", "0", "23", "24", "25", "26", "28", "0"], "time": [670, 2234, 3300, 4400, 5566, 6649, 7848, 7932, 8565, 11114, 12062, 12997, 14129, 14929, 15146, 15196, 16645, 18828, 19813, 20696, 21727, 22665, 31807]}, "edge": {"target": [], "time": []}}}, "displayed_time": "31.03", "trialTime": 32477, "trial_type": "mouselab-mdp", "trial_index": 45, "time_elapsed": 2360181, "internal_node_id": "0.0-4.0-1.0-36.0"}}, {"uniqueid": "w60338069:a22850497", "current_trial": 46, "dateTime": 1691073338955, "trialdata": {"revealed_states": [], "clicked_states": ["1", "2", "3", "4", "5", "23", "24", "25", "26", "28", "12", "13", "14", "15", "18"], "num_clicks_accrued": [0, 0, 0, 0, 0, 0, 0, 0, 0, 0, 0, 0, 0], "stateRewards": ["", -1, 1, 8, -3, -24, 11, -65, -6, -77, 48, 44, -2, 1, -2, -7, -55, -35, 33, 8, -28, 19, -53, -1, -1, -5, -5, -70, 10, 44, 8, -58, -70, 51], "withholdReward": false, "trial_id": "mdp_trial_38", "block": "test", "trialIndex": 39, "score": 8.75, "costs": -14.25, "simulationMode": [null, null, null, null, null], "rewards": [-2, 1, -2, -7, 33], "path": ["0", "0", "12", "13", "14", "15", "18"], "rt": [26426, 328, 317, 486, 733], "actions": ["right", "right", "right", "up", "left"], "actionTimes": [28861, 29708, 30530, 31531, 32778], "queries": {"click": {"state": {"target": ["1", "2", "3", "4", "5", "23", "24", "25", "26", "28", "12", "13", "14", "15", "18"], "time": [4460, 5536, 6460, 7617, 8713, 12309, 13472, 14374, 15359, 16324, 19239, 20545, 21594, 22571, 23810]}, "edge": {"target": [], "time": []}}, "mouseover": {"state": {"target": ["1", "2", "3", "4", "5", "1", "0", "23", "24", "25", "26", "28", "12", "13", "14", "15", "18", "0"], "time": [4087, 5120, 6054, 7218, 8319, 9386, 9630, 10684, 13067, 13933, 14768, 15783, 18049, 20114, 21214, 21950, 23346, 24880]}, "edge": {"target": [], "time": []}}, "mouseout": {"state": {"target": ["0", "0", "1", "2", "3", "4", "5", "4", "1", "0", "23", "23", "24", "25", "26", "28", "12", "13", "14", "15", "18", "0"], "time": [1403, 3009, 4903, 5837, 7119, 8052, 9053, 9120, 9469, 9870, 12522, 12800, 13672, 14652, 15574, 16799, 19999, 20981, 21916, 22796, 24180, 34393]}, "edge": {"target": [], "time": []}}}, "displayed_time": "33.29", "trialTime": 35879, "trial_type": "mouselab-mdp", "trial_index": 46, "time_elapsed": 2396269, "internal_node_id": "0.0-4.0-1.0-37.0"}}, {"uniqueid": "w60338069:a22850497", "current_trial": 47, "dateTime": 1691073370332, "trialdata": {"revealed_states": [], "clicked_states": ["1", "2", "3", "8", "11", "23", "24", "25", "26", "27", "12", "13", "14", "15", "18"], "num_clicks_accrued": [0, 0, 0, 0, 0, 0, 0, 0, 0, 0, 0, 0, 0], "stateRewards": ["", -1, 2, -2, 5, 80, -61, -27, 12, 44, -26, -75, -2, -4, 1, -16, 42, -49, -50, 4, -44, 2, 80, -2, -2, 5, -2, 59, 10, 24, 7, -48, -86, -44], "withholdReward": false, "trial_id": "mdp_trial_39", "block": "test", "trialIndex": 40, "score": 43.75, "costs": -14.25, "simulationMode": [null, null, null, null, null], "rewards": [-2, -2, 5, -2, 59], "path": ["0", "0", "23", "24", "25", "26", "27"], "rt": [23373, 288, 313, 797, 193], "actions": ["left", "left", "left", "up", "up"], "actionTimes": [25592, 26393, 27217, 28534, 29246], "queries": {"click": {"state": {"target": ["1", "2", "3", "8", "11", "23", "24", "25", "26", "27", "12", "13", "14", "15", "18"], "time": [3477, 4942, 5868, 7025, 8180, 11711, 12648, 13665, 14648, 15608, 18436, 19669, 20534, 21403, 22333]}, "edge": {"target": [], "time": []}}, "mouseover": {"state": {"target": ["1", "2", "3", "8", "11", "10", "1", "23", "24", "25", "26", "27", "28", "0", "12", "13", "14", "15", "18", "0"], "time": [3027, 4261, 5393, 6510, 7809, 8626, 8742, 10275, 12175, 13224, 14226, 15157, 16073, 16709, 17842, 19205, 20122, 20971, 21845, 23137]}, "edge": {"target": [], "time": []}}, "mouseout": {"state": {"target": ["0", "0", "1", "2", "3", "8", "11", "11", "10", "1", "23", "24", "25", "26", "27", "28", "0", "12", "13", "14", "15", "18"], "time": [911, 2945, 3927, 5294, 6293, 7643, 8397, 8572, 8642, 9109, 12108, 13091, 14074, 15024, 16043, 16123, 17742, 19105, 20039, 20807, 21740, 22704]}, "edge": {"target": [], "time": []}}}, "displayed_time": "29.75", "trialTime": 31162, "trial_type": "mouselab-mdp", "trial_index": 47, "time_elapsed": 2427648, "internal_node_id": "0.0-4.0-1.0-38.0"}}, {"uniqueid": "w60338069:a22850497", "current_trial": 48, "dateTime": 1691073404835, "trialdata": {"revealed_states": [], "clicked_states": ["1", "2", "3", "8", "9", "12", "13", "14", "15", "17", "23", "24", "25", "26", "28"], "num_clicks_accrued": [0, 0, 0, 0, 0, 0, 0, 0, 0, 0, 0, 0, 0], "stateRewards": ["", -2, -1, -1, 5, -54, -87, 35, 2, -8, 20, -22, 1, 3, 6, 13, -75, -32, -55, -3, 56, 62, -22, -1, -4, -1, -7, -51, 84, 70, 7, -15, 5, 55], "withholdReward": false, "trial_id": "mdp_trial_40", "block": "test", "trialIndex": 41, "score": 56.75, "costs": -14.25, "simulationMode": [null, null, null, null, null], "rewards": [-1, -4, -1, -7, 84], "path": ["0", "0", "23", "24", "25", "26", "28"], "rt": [26054, 277, 376, 732, 504], "actions": ["left", "left", "left", "up", "right"], "actionTimes": [27462, 28256, 29138, 30380, 31382], "queries": {"click": {"state": {"target": ["1", "2", "3", "8", "9", "12", "13", "14", "15", "17", "23", "24", "25", "26", "28"], "time": [2722, 3803, 4827, 5814, 6905, 9875, 11064, 12676, 13946, 14807, 18407, 19503, 20595, 21541, 22766]}, "edge": {"target": [], "time": []}}, "mouseover": {"state": {"target": ["1", "2", "3", "8", "9", "2", "1", "12", "13", "14", "14", "15", "17", "18", "0", "23", "24", "25", "26", "28", "0"], "time": [2336, 3369, 4419, 5419, 6456, 7389, 7807, 9320, 10667, 11519, 12316, 13483, 14351, 15234, 15849, 16898, 18931, 20047, 21064, 22230, 24148]}, "edge": {"target": [], "time": []}}, "mouseout": {"state": {"target": ["0", "1", "2", "3", "8", "9", "2", "1", "12", "13", "14", "14", "15", "17", "15", "18", "0", "23", "24", "25", "26", "28"], "time": [1865, 3070, 4186, 5252, 6235, 7285, 7438, 7920, 10434, 11435, 11668, 13316, 14301, 15166, 15215, 15304, 16832, 18881, 19727, 20947, 22063, 23163]}, "edge": {"target": [], "time": []}}}, "displayed_time": "31.89", "trialTime": 34248, "trial_type": "mouselab-mdp", "trial_index": 48, "time_elapsed": 2462149, "internal_node_id": "0.0-4.0-1.0-39.0"}}, {"uniqueid": "w60338069:a22850497", "current_trial": 49, "dateTime": 1691073492065, "trialdata": {"rt": 87226, "response": {"Q0": "$-2 to $2", "Q1": "$-32 to $32", "Q2": "$-88 to $88", "Q3": "The cost for clicking on nodes varied between nodes.", "Q4": "Very unmotivated"}, "question_order": [0, 1, 2, 3, 4], "trial_id": "final_quiz_control", "trial_type": "survey-multi-choice", "trial_index": 49, "time_elapsed": 2549380, "internal_node_id": "0.0-4.0-2.0"}}, {"uniqueid": "w60338069:a22850497", "current_trial": 50, "dateTime": 1691073677227, "trialdata": {"rt": 185154, "response": {"Q0": "at first it was just guess work", "Q1": "yes i did. i was following th blue number that  was popping up", "Q2": "it was diffucult to choose the nodes with money increase"}, "trial_id": "self_report_control", "trial_type": "survey-text", "trial_index": 50, "time_elapsed": 2734543, "internal_node_id": "0.0-4.0-3.0"}}, {"uniqueid": "w60338069:a22850497", "current_trial": 51, "dateTime": 1691073766169, "trialdata": {"rt": 88935, "response": {"Q0": "Neither disagree nor agree", "Q1": "Disagree", "Q2": "Agree", "Q3": "Neither disagree nor agree", "Q4": "Agree", "Q5": "Agree", "Q6": "Disagree"}, "question_order": [0, 1, 2, 3, 4, 5, 6], "trial_id": "self_report_2", "trial_type": "survey-multi-choice", "trial_index": 51, "time_elapsed": 2823485, "internal_node_id": "0.0-4.0-4.0"}}, {"uniqueid": "w60338069:a22850497", "current_trial": 52, "dateTime": 1691073837775, "trialdata": {"rt": 71601, "response": {"gender": "male", "age": "33", "colorblind": "2", "effort": "0"}, "trial_type": "survey-html-form", "trial_index": 52, "time_elapsed": 2895091, "internal_node_id": "0.0-4.0-5.0"}}, {"uniqueid": "w60338069:a22850497", "current_trial": 53, "dateTime": 1691074061159, "trialdata": {"rt": 223378, "response": {"Q0": "at first i was trying so hard but could not get any money which was a bit confusing though i tried putting so much attetion", "Q1": "i think i did though im not so sure", "Q2": "it was quite a challanging game. i loved it"}, "trial_type": "survey-text", "trial_index": 53, "time_elapsed": 3118475, "internal_node_id": "0.0-4.0-6.0"}}, {"uniqueid": "w60338069:a22850497", "current_trial": 54, "dateTime": 1691074070079, "trialdata": {"rt": 8913, "stimulus": "Press 'Finish HIT' in order to reach the completion code. Once the data has been saved, you will receive the code either in this window or in the original browser window where you started the experiment.\n", "response": 0, "trial_type": "html-button-response", "trial_index": 54, "time_elapsed": 3127395, "internal_node_id": "0.0-5.0"}}, {"uniqueid": "w60338069:a22850497", "current_trial": 55, "dateTime": 1691074071083, "trialdata": {"success": true, "trial_type": "fullscreen", "trial_index": 55, "time_elapsed": 3128399, "internal_node_id": "0.0-6.0"}}], "questiondata": {"params": {"CODE": "C6DMOQA6", "MIN_TIME": 14, "inspectCost": 1, "startTime": "Thu Aug 03 2023 15:55:41 GMT+0200 (South Africa Standard Time)", "bonusRate": 0.002, "variance": "1_2_4_8_44", "branching": "31123"}, "final_score": 221.75}, "eventdata": [{"eventtype": "initialized", "value": null, "timestamp": 1691070940735, "interval": 0}, {"eventtype": "window_resize", "value": [1028, 744], "timestamp": 1691070940736, "interval": 1}, {"eventtype": "window_resize", "value": [1028, 744], "timestamp": 1691070941191, "interval": 455}, {"eventtype": "window_resize", "value": [1536, 864], "timestamp": 1691070947312, "interval": 6121}, {"eventtype": "window_resize", "value": [1028, 744], "timestamp": 1691074070305, "interval": 3122993}], "useragent": "Mozilla/5.0 (Windows NT 10.0; Win64; x64) AppleWebKit/537.36 (KHTML, like Gecko) Chrome/115.0.0.0 Safari/537.36", "mode": "live", "id": "w60338069:a22850497", "status": "user data saved", "Beginhit": "2023-08-03 13:55:37.928129", "Beginexp": "2023-08-03 13:55:48.21706", "Endhit": "2023-08-03 14:47:52.162279", "psiturkStatus": 3, "browser": "<redacted>", "platform": "windows", "language": "en-US"}