{"condition": 0, "counterbalance": 0, "assignmentId": "a24412157", "workerId": "w78841436", "hitId": "h99837054", "currenttrial": 55, "bonus": 0, "data": [{"uniqueid": "w78841436:a24412157", "current_trial": 0, "dateTime": 1693480805775, "trialdata": {"success": true, "trial_type": "fullscreen", "trial_index": 0, "time_elapsed": 3920, "internal_node_id": "0.0-0.0"}}, {"uniqueid": "w78841436:a24412157", "current_trial": 1, "dateTime": 1693480821341, "trialdata": {"view_history": [{"page_index": 0, "viewing_time": 15564}], "rt": 15564, "trial_id": "exp_instructions_control", "trial_type": "instructions", "trial_index": 1, "time_elapsed": 19486, "internal_node_id": "0.0-1.0"}}, {"uniqueid": "w78841436:a24412157", "current_trial": 2, "dateTime": 1693480956349, "trialdata": {"view_history": [{"page_index": 0, "viewing_time": 60078}, {"page_index": 1, "viewing_time": 35248}, {"page_index": 2, "viewing_time": 15560}, {"page_index": 3, "viewing_time": 24120}], "rt": 135006, "trial_id": "mouselab_instructions_1_control", "trial_type": "instructions", "trial_index": 2, "time_elapsed": 154494, "internal_node_id": "0.0-2.0-1.0"}}, {"uniqueid": "w78841436:a24412157", "current_trial": 3, "dateTime": 1693480972160, "trialdata": {"revealed_states": [], "clicked_states": ["23", "12", "1"], "num_clicks_accrued": [0, 0, 0, 0, 0, 0, 0, 0, 0, 0, 0, 0, 0], "stateRewards": ["", -10, -10, 10, -10, -10, 10, 10, 10, -10, 10, 10, 10, 10, 10, 10, -10, -10, -10, -10, 10, 10, -10, -10, 10, 10, -10, 10, 10, 10, 10, 10, -10, 10], "withholdReward": false, "trial_id": "practice_1", "block": "test", "trialIndex": 0, "score": 32, "costs": -1.5, "simulationMode": [null, null, null, null, null], "rewards": [10, 10, 10, -10, 10], "path": ["0", "0", "12", "13", "14", "19", "21"], "rt": [6514, 294, 335, 782, 139], "actions": ["right", "right", "right", "down", "down"], "actionTimes": [8513, 9295, 10120, 11400, 12040], "queries": {"click": {"state": {"target": ["23", "12", "1"], "time": [2758, 4093, 5397]}, "edge": {"target": [], "time": []}}, "mouseover": {"state": {"target": ["23", "24", "12", "1"], "time": [2583, 3082, 3916, 4583]}, "edge": {"target": [], "time": []}}, "mouseout": {"state": {"target": ["23", "24", "23", "12", "1"], "time": [3032, 3699, 3849, 4516, 5474]}, "edge": {"target": [], "time": []}}}, "displayed_time": "12.54", "trialTime": 15344, "trial_type": "mouselab-mdp", "trial_index": 3, "time_elapsed": 170304, "internal_node_id": "0.0-2.0-2.0-0.0"}}, {"uniqueid": "w78841436:a24412157", "current_trial": 4, "dateTime": 1693480991767, "trialdata": {"revealed_states": [], "clicked_states": ["12", "1", "2", "3", "13", "14"], "num_clicks_accrued": [0, 0, 0, 0, 0, 0, 0, 0, 0, 0, 0, 0, 0], "stateRewards": ["", 10, 10, 10, 10, -10, -10, 10, 10, -10, -10, -10, 10, 10, -10, 10, -10, 10, -10, 10, -10, -10, 10, 10, 10, -10, 10, -10, 10, 10, 10, -10, -10, -10], "withholdReward": false, "trial_id": "practice_2", "block": "test", "trialIndex": 1, "score": 30.5, "costs": -3, "simulationMode": [null, null, null, null, null], "rewards": [10, 10, 10, 10, -10], "path": ["0", "0", "1", "2", "3", "4", "6"], "rt": [10539, 550, 324, 348, 194], "actions": ["up", "up", "up", "right", "right"], "actionTimes": [13565, 14604, 15429, 16269, 16965], "queries": {"click": {"state": {"target": ["12", "1", "2", "3", "13", "14"], "time": [4227, 5378, 7290, 8722, 10234, 11329]}, "edge": {"target": [], "time": []}}, "mouseover": {"state": {"target": ["12", "1", "1", "23", "0", "13", "2", "7", "18", "3", "7", "18", "13", "13", "14"], "time": [3736, 4636, 5286, 5702, 6270, 6420, 7219, 7470, 7569, 7886, 8936, 9019, 9086, 10119, 10636]}, "edge": {"target": [], "time": []}}, "mouseout": {"state": {"target": ["16", "4", "10", "0", "12", "1", "1", "23", "0", "12", "13", "2", "7", "18", "3", "7", "18", "13", "13", "13", "14", "13", "0"], "time": [1985, 2319, 2352, 3702, 4536, 5019, 5586, 6236, 6303, 6369, 6886, 7419, 7486, 7703, 8903, 8969, 9036, 9736, 10303, 10586, 11903, 12020, 18470]}, "edge": {"target": [], "time": []}}}, "displayed_time": "17.47", "trialTime": 19421, "trial_type": "mouselab-mdp", "trial_index": 4, "time_elapsed": 189912, "internal_node_id": "0.0-2.0-2.0-1.0"}}, {"uniqueid": "w78841436:a24412157", "current_trial": 5, "dateTime": 1693481025478, "trialdata": {"view_history": [{"page_index": 0, "viewing_time": 10333}, {"page_index": 1, "viewing_time": 23376}], "rt": 33709, "trial_id": "mouselab_instructions_2_control", "trial_type": "instructions", "trial_index": 5, "time_elapsed": 223623, "internal_node_id": "0.0-2.0-3.0"}}, {"uniqueid": "w78841436:a24412157", "current_trial": 6, "dateTime": 1693481049726, "trialdata": {"rt": 24245, "response": {"Q0": "The cost for clicking on nodes may vary between nodes.", "Q1": "The better I perform the higher my bonus will be.", "Q2": "No, the amount of cash at each node of the web may be different each time.", "Q3": "To get the highest total score.", "Q4": "Only before moving the spider.", "Q5": "3 seconds"}, "question_order": [0, 1, 2, 3, 4, 5], "correct": {"Q0": "The cost for clicking on nodes may vary between nodes.", "Q1": "The better I perform the higher my bonus will be.", "Q2": "No, the amount of cash at each node of the web may be different each time.", "Q3": "To get the highest total score.", "Q4": "Only before moving the spider.", "Q5": "3 seconds"}, "trial_id": "mouselab_quiz_control", "trial_type": "survey-multi-choice", "trial_index": 6, "time_elapsed": 247871, "internal_node_id": "0.0-2.0-4.0"}}, {"uniqueid": "w78841436:a24412157", "current_trial": 7, "dateTime": 1693481058550, "trialdata": {"rt": 8819, "response": {"Q0": "No"}, "question_order": [0], "trial_id": "repeat_check", "trial_type": "survey-multi-choice", "trial_index": 7, "time_elapsed": 256694, "internal_node_id": "0.0-4.0-0.0"}}, {"uniqueid": "w78841436:a24412157", "current_trial": 8, "dateTime": 1693481063478, "trialdata": {"rt": 4925, "stimulus": "\n<h1> Get ready to start the game! </h1>\n\nThank you for reading the instructions. Get ready start with the 40 rounds of this game.\n<br><br>\nIf you need to take a break, feel free to take one after the end of a round, before continuing to the next one.\n<br><br>\nRemember, the more money the spider gets, the bigger your bonus will be!\n<br><br>\n<div style='text-align: center;'>Press <code>space</code> to begin.</div>\n\n<br><br>\n(If, at any point, the <code>space</code> key does not take you to the next page, click once on the text and try again.)", "response": " ", "trial_id": "mdp_ready", "trial_type": "html-keyboard-response", "trial_index": 8, "time_elapsed": 261623, "internal_node_id": "0.0-6.0-0.0"}}, {"uniqueid": "w78841436:a24412157", "current_trial": 9, "dateTime": 1693481080647, "trialdata": {"revealed_states": [], "clicked_states": ["12", "1", "23"], "num_clicks_accrued": [0, 0, 0, 0, 0, 0, 0, 0, 0, 0, 0, 0, 0], "stateRewards": ["", 2, -4, -4, 13, -80, 62, 13, -11, 57, -13, -44, 1, 4, 3, -4, -29, -88, 15, 16, -58, 68, -45, -1, -3, -1, -9, -44, -86, -19, -7, -36, 59, 66], "withholdReward": false, "trial_id": "mdp_trial_1", "block": "test", "trialIndex": 2, "score": 64.8, "costs": -4.199999999999999, "simulationMode": [null, null, null, null, null], "rewards": [2, -4, -4, 13, 62], "path": ["0", "0", "1", "2", "3", "4", "6"], "rt": [6580, 247, 529, 358, 502], "actions": ["up", "up", "up", "right", "right"], "actionTimes": [8096, 8831, 9863, 10711, 11703], "queries": {"click": {"state": {"target": ["12", "1", "23"], "time": [2062, 4021, 5844]}, "edge": {"target": [], "time": []}}, "mouseover": {"state": {"target": ["12", "1", "23", "0", "22"], "time": [1966, 2333, 4233, 6033, 6683]}, "edge": {"target": [], "time": []}}, "mouseout": {"state": {"target": ["7", "12", "1", "23", "0", "22"], "time": [466, 2129, 4200, 6000, 6050, 15500]}, "edge": {"target": [], "time": []}}}, "displayed_time": "15.52", "trialTime": 16944, "trial_type": "mouselab-mdp", "trial_index": 9, "time_elapsed": 278792, "internal_node_id": "0.0-6.0-1.0-0.0"}}, {"uniqueid": "w78841436:a24412157", "current_trial": 10, "dateTime": 1693481098111, "trialdata": {"revealed_states": [], "clicked_states": ["1", "12", "23", "30", "3"], "num_clicks_accrued": [0, 0, 0, 0, 0, 0, 0, 0, 0, 0, 0, 0, 0], "stateRewards": ["", 1, 1, -5, 10, -31, 73, 14, -8, -23, 63, -70, -1, 2, 8, 7, 25, -59, 27, -10, -40, -71, -15, -2, 3, -8, -5, -19, 77, -34, 7, 67, 63, 19], "withholdReward": false, "trial_id": "mdp_trial_2", "block": "test", "trialIndex": 3, "score": 12, "costs": -7, "simulationMode": [null, null, null, null, null], "rewards": [-2, 3, -8, 7, 19], "path": ["0", "0", "23", "24", "25", "30", "33"], "rt": [10805, 497, 170, 55, 281], "actions": ["left", "left", "left", "down", "left"], "actionTimes": [12866, 13874, 14546, 15097, 15874], "queries": {"click": {"state": {"target": ["1", "12", "23", "30", "3"], "time": [2631, 4549, 6286, 8295, 10046]}, "edge": {"target": [], "time": []}}, "mouseover": {"state": {"target": ["1", "12", "0", "23", "23", "24", "25", "30", "10", "3", "2"], "time": [2474, 3008, 4741, 4791, 5091, 6908, 7041, 7642, 9075, 9341, 10542]}, "edge": {"target": [], "time": []}}, "mouseout": {"state": {"target": ["0", "1", "1", "12", "0", "23", "23", "24", "25", "30", "10", "3", "3", "2"], "time": [1874, 2707, 2958, 4725, 4774, 4824, 6775, 6991, 7275, 8355, 9175, 10099, 10508, 10575]}, "edge": {"target": [], "time": []}}}, "displayed_time": "16.39", "trialTime": 17282, "trial_type": "mouselab-mdp", "trial_index": 10, "time_elapsed": 296256, "internal_node_id": "0.0-6.0-1.0-1.0"}}, {"uniqueid": "w78841436:a24412157", "current_trial": 11, "dateTime": 1693481119479, "trialdata": {"revealed_states": [], "clicked_states": ["1", "12", "23", "25", "30", "32", "31"], "num_clicks_accrued": [0, 0, 0, 0, 0, 0, 0, 0, 0, 0, 0, 0, 0], "stateRewards": ["", -1, -3, -5, -14, -13, -47, 79, 8, -60, -64, 41, -1, 2, 3, 13, -46, 61, -79, -11, -64, -65, 23, 1, -2, 6, -14, 46, 32, 21, 7, 75, -66, 15], "withholdReward": false, "trial_id": "mdp_trial_3", "block": "test", "trialIndex": 4, "score": 77.2, "costs": -9.8, "simulationMode": [null, null, null, null, null], "rewards": [1, -2, 6, 7, 75], "path": ["0", "0", "23", "24", "25", "30", "31"], "rt": [15813, 112, 96, 113, 120], "actions": ["left", "left", "left", "down", "right"], "actionTimes": [17002, 17609, 18194, 18810, 19434], "queries": {"click": {"state": {"target": ["1", "12", "23", "25", "30", "32", "31"], "time": [2766, 4311, 6302, 7935, 9695, 11591, 14446]}, "edge": {"target": [], "time": []}}, "mouseover": {"state": {"target": ["1", "1", "12", "0", "23", "25", "30", "31", "32", "31", "33"], "time": [2245, 2729, 3179, 4562, 4612, 7479, 8479, 11029, 11462, 12163, 15013]}, "edge": {"target": [], "time": []}}, "mouseout": {"state": {"target": ["1", "1", "1", "1", "12", "0", "23", "25", "30", "31", "32", "31", "33"], "time": [611, 2295, 2819, 3062, 4546, 4595, 6529, 8312, 9896, 11046, 11846, 14555, 20330]}, "edge": {"target": [], "time": []}}}, "displayed_time": "19.93", "trialTime": 21170, "trial_type": "mouselab-mdp", "trial_index": 11, "time_elapsed": 317624, "internal_node_id": "0.0-6.0-1.0-2.0"}}, {"uniqueid": "w78841436:a24412157", "current_trial": 12, "dateTime": 1693481137887, "trialdata": {"revealed_states": [], "clicked_states": ["12", "1", "23", "22", "20"], "num_clicks_accrued": [0, 0, 0, 0, 0, 0, 0, 0, 0, 0, 0, 0, 0], "stateRewards": ["", -1, -2, -8, 8, -27, -82, 19, -14, -62, 4, 1, -2, 2, 6, 10, 73, -51, -2, 2, 73, -48, 54, -1, 2, -4, 11, -25, 47, 86, 15, 33, 43, -42], "withholdReward": false, "trial_id": "mdp_trial_4", "block": "test", "trialIndex": 5, "score": 74, "costs": -7, "simulationMode": [null, null, null, null, null], "rewards": [-2, 2, 6, 2, 73], "path": ["0", "0", "12", "13", "14", "19", "20"], "rt": [12994, 100, 70, 62, 118], "actions": ["right", "right", "right", "down", "right"], "actionTimes": [14491, 15098, 15666, 16242, 16865], "queries": {"click": {"state": {"target": ["12", "1", "23", "22", "20"], "time": [2431, 4463, 6951, 9407, 11303]}, "edge": {"target": [], "time": []}}, "mouseover": {"state": {"target": ["0", "12", "1", "23", "0", "0", "23", "23", "24", "31", "22", "19", "20", "19", "13"], "time": [1572, 1995, 2845, 5112, 6194, 6428, 6462, 6762, 7312, 8212, 9145, 9712, 9862, 11479, 12279]}, "edge": {"target": [], "time": []}}, "mouseout": {"state": {"target": ["0", "0", "12", "1", "1", "23", "0", "12", "0", "23", "23", "24", "31", "22", "19", "20", "19", "13", "22", "22"], "time": [1161, 1911, 2762, 4532, 5061, 6145, 6228, 6412, 6445, 6495, 7245, 7412, 8912, 9475, 9762, 11445, 11512, 12346, 13348, 17963]}, "edge": {"target": [], "time": []}}}, "displayed_time": "17.36", "trialTime": 18210, "trial_type": "mouselab-mdp", "trial_index": 12, "time_elapsed": 336032, "internal_node_id": "0.0-6.0-1.0-3.0"}}, {"uniqueid": "w78841436:a24412157", "current_trial": 13, "dateTime": 1693481163240, "trialdata": {"revealed_states": [], "clicked_states": ["12", "31", "33", "28", "29", "6", "11", "7", "10"], "num_clicks_accrued": [0, 0, 0, 0, 0, 0, 0, 0, 0, 0, 0, 0, 0], "stateRewards": ["", -2, 1, -7, 9, 8, 25, 61, -7, -17, 69, -81, 1, 4, -4, -11, 16, 67, 44, 3, 6, -45, -54, -2, 3, 6, -11, -15, 32, -47, 3, -39, -6, -88], "withholdReward": false, "trial_id": "mdp_trial_5", "block": "test", "trialIndex": 6, "score": 41.4, "costs": -12.600000000000001, "simulationMode": [null, null, null, null, null], "rewards": [-2, 1, -7, -7, 69], "path": ["0", "0", "1", "2", "3", "8", "10"], "rt": [18929, 605, 369, 198, 187], "actions": ["up", "up", "up", "left", "down"], "actionTimes": [20048, 21168, 22032, 22728, 23416], "queries": {"click": {"state": {"target": ["12", "31", "33", "28", "29", "6", "11", "7", "10"], "time": [2165, 5181, 7149, 8901, 10525, 12301, 13829, 15509, 17413]}, "edge": {"target": [], "time": []}}, "mouseover": {"state": {"target": ["12", "1", "7", "7", "0", "23", "24", "25", "31", "30", "33", "33", "30", "12", "8", "2", "10", "28", "26", "29", "26", "2", "7", "4", "6", "4", "3", "8", "11", "2", "7", "2", "10", "10", "1"], "time": [1694, 2460, 3727, 4061, 4377, 4511, 4577, 4644, 4944, 6177, 6278, 6477, 7344, 7528, 7778, 7961, 8078, 8261, 9078, 9261, 10744, 10861, 10928, 11211, 11378, 12511, 12728, 12895, 13178, 14178, 14545, 15945, 16128, 16828, 18128]}, "edge": {"target": [], "time": []}}, "mouseout": {"state": {"target": ["0", "0", "12", "1", "7", "7", "0", "23", "24", "25", "31", "30", "33", "33", "33", "30", "12", "8", "2", "10", "28", "26", "29", "26", "2", "7", "4", "6", "4", "3", "8", "11", "2", "7", "7", "2", "10", "10", "1"], "time": [710, 1661, 2295, 3628, 3744, 4177, 4394, 4561, 4594, 4761, 5210, 6227, 6377, 7210, 7311, 7361, 7544, 7794, 8044, 8111, 9044, 9144, 10712, 10761, 10878, 11028, 11284, 12478, 12578, 12861, 12944, 14095, 14295, 15548, 15912, 15978, 16395, 17545, 19445]}, "edge": {"target": [], "time": []}}}, "displayed_time": "23.91", "trialTime": 25161, "trial_type": "mouselab-mdp", "trial_index": 13, "time_elapsed": 361384, "internal_node_id": "0.0-6.0-1.0-4.0"}}, {"uniqueid": "w78841436:a24412157", "current_trial": 14, "dateTime": 1693481184039, "trialdata": {"revealed_states": [], "clicked_states": ["22", "18", "17", "20", "21", "16", "5"], "num_clicks_accrued": [0, 0, 0, 0, 0, 0, 0, 0, 0, 0, 0, 0, 0], "stateRewards": ["", 2, -3, 5, 11, -79, 54, 11, -9, -78, 33, 22, -2, -1, 2, 14, 43, 34, 1, 10, 49, -65, 39, -1, 1, -1, 3, -16, -2, 11, 2, 12, 48, -65], "withholdReward": false, "trial_id": "mdp_trial_6", "block": "test", "trialIndex": 7, "score": 48.2, "costs": -9.8, "simulationMode": [null, null, null, null, null], "rewards": [-2, -1, 2, 10, 49], "path": ["0", "0", "12", "13", "14", "19", "20"], "rt": [15293, 32, 41, 11, 78], "actions": ["right", "right", "right", "down", "right"], "actionTimes": [16191, 16743, 17319, 17855, 18439], "queries": {"click": {"state": {"target": ["22", "18", "17", "20", "21", "16", "5"], "time": [2236, 3980, 5748, 7483, 9268, 10916, 13356]}, "edge": {"target": [], "time": []}}, "mouseover": {"state": {"target": ["0", "12", "13", "14", "19", "22", "13", "18", "15", "17", "20", "21", "19", "14", "16", "15", "15", "4", "5", "9", "3", "7", "18"], "time": [1169, 1442, 1759, 1809, 2042, 2109, 2809, 3059, 4209, 4425, 5992, 7809, 9526, 9576, 9709, 11242, 12876, 13076, 13309, 13993, 15193, 15393, 15460]}, "edge": {"target": [], "time": []}}, "mouseout": {"state": {"target": ["1", "0", "12", "13", "14", "19", "22", "13", "18", "15", "17", "20", "21", "19", "14", "16", "16", "15", "15", "4", "5", "9", "3", "7", "18", "13"], "time": [408, 1376, 1725, 1792, 1992, 2059, 2476, 2959, 4142, 4242, 5892, 7693, 9476, 9560, 9609, 10992, 11209, 11259, 12893, 13193, 13826, 15049, 15309, 15426, 19233, 19626]}, "edge": {"target": [], "time": []}}}, "displayed_time": "18.93", "trialTime": 20607, "trial_type": "mouselab-mdp", "trial_index": 14, "time_elapsed": 382184, "internal_node_id": "0.0-6.0-1.0-5.0"}}, {"uniqueid": "w78841436:a24412157", "current_trial": 15, "dateTime": 1693481200791, "trialdata": {"revealed_states": [], "clicked_states": ["31"], "num_clicks_accrued": [0, 0, 0, 0, 0, 0, 0, 0, 0, 0, 0, 0, 0], "stateRewards": ["", -2, 4, -5, -12, 85, -24, -18, -15, -78, -22, 26, -1, -1, 2, 14, -45, 52, -23, 7, -33, 24, -6, -2, -4, 5, -7, -16, 36, -39, 5, 71, -87, -23], "withholdReward": false, "trial_id": "mdp_trial_7", "block": "test", "trialIndex": 8, "score": 73.6, "costs": -1.4, "simulationMode": [null, null, null, null, null], "rewards": [-2, -4, 5, 5, 71], "path": ["0", "0", "23", "24", "25", "30", "31"], "rt": [3896, 80, 57, 35, 133], "actions": ["left", "left", "left", "down", "right"], "actionTimes": [5192, 5768, 6328, 6856, 7521], "queries": {"click": {"state": {"target": ["31"], "time": [2486]}, "edge": {"target": [], "time": []}}, "mouseover": {"state": {"target": ["23", "24", "31", "26", "27", "8", "11", "11"], "time": [1753, 1986, 2336, 2870, 3003, 3236, 3420, 3886]}, "edge": {"target": [], "time": []}}, "mouseout": {"state": {"target": ["22", "18", "7", "1", "23", "24", "31", "26", "27", "8", "11", "11", "11", "10", "1", "12"], "time": [652, 719, 852, 985, 1953, 2019, 2820, 2886, 3070, 3304, 3770, 9370, 13037, 13120, 13153, 13537]}, "edge": {"target": [], "time": []}}}, "displayed_time": "15.30", "trialTime": 16552, "trial_type": "mouselab-mdp", "trial_index": 15, "time_elapsed": 398936, "internal_node_id": "0.0-6.0-1.0-6.0"}}, {"uniqueid": "w78841436:a24412157", "current_trial": 16, "dateTime": 1693481217110, "trialdata": {"revealed_states": [], "clicked_states": ["31", "9", "10", "11"], "num_clicks_accrued": [0, 0, 0, 0, 0, 0, 0, 0, 0, 0, 0, 0, 0], "stateRewards": ["", 1, -1, 1, -14, -10, 67, -28, -11, 72, 40, -65, -1, 1, 1, -2, 8, -55, 34, -10, 61, 33, -15, 2, -4, 7, 4, -75, 63, -21, -16, 61, 19, 21], "withholdReward": false, "trial_id": "mdp_trial_8", "block": "test", "trialIndex": 9, "score": 56.4, "costs": -5.6, "simulationMode": [null, null, null, null, null], "rewards": [1, -1, 1, -11, 72], "path": ["0", "0", "1", "2", "3", "8", "9"], "rt": [8979, 114, 82, 42, 67], "actions": ["up", "up", "up", "left", "up"], "actionTimes": [10137, 10752, 11336, 11896, 12488], "queries": {"click": {"state": {"target": ["31", "9", "10", "11"], "time": [1878, 3813, 5853, 7717]}, "edge": {"target": [], "time": []}}, "mouseover": {"state": {"target": ["23", "30", "31", "24", "28", "8", "9", "8", "10", "8", "11"], "time": [1453, 1520, 1803, 2187, 2220, 2403, 2586, 4153, 4820, 6670, 7420]}, "edge": {"target": [], "time": []}}, "mouseout": {"state": {"target": ["0", "23", "30", "31", "24", "28", "8", "9", "8", "10", "10", "8", "11", "11", "2"], "time": [970, 1470, 1720, 2153, 2205, 2237, 2453, 4086, 4436, 6453, 6603, 7353, 7757, 7886, 13353]}, "edge": {"target": [], "time": []}}}, "displayed_time": "15.16", "trialTime": 16104, "trial_type": "mouselab-mdp", "trial_index": 16, "time_elapsed": 415255, "internal_node_id": "0.0-6.0-1.0-7.0"}}, {"uniqueid": "w78841436:a24412157", "current_trial": 17, "dateTime": 1693481239086, "trialdata": {"revealed_states": [], "clicked_states": ["17", "18", "29", "27", "10", "5", "7", "22", "31"], "num_clicks_accrued": [0, 0, 0, 0, 0, 0, 0, 0, 0, 0, 0, 0, 0], "stateRewards": ["", 2, -3, 5, -14, -63, -9, -24, -11, -54, -43, 68, 2, -2, -4, 7, -64, 30, 47, 12, -74, 11, 86, 1, -3, 3, 10, -71, -42, -52, -1, -29, -16, 69], "withholdReward": false, "trial_id": "mdp_trial_9", "block": "test", "trialIndex": 10, "score": 81.4, "costs": -12.600000000000001, "simulationMode": [null, null, null, null, null, null], "rewards": [2, -2, -4, 12, 86], "path": ["0", "0", "12", "13", "14", "19", "22"], "rt": [16078, 420, 37, 648, 122, 98], "actions": ["right", "right", "right", "right", "down", "left"], "actionTimes": [17071, 17494, 18038, 19198, 19822, 20415], "queries": {"click": {"state": {"target": ["17", "18", "29", "27", "10", "5", "7", "22", "31"], "time": [1571, 3451, 5220, 7036, 8875, 10484, 12187, 13964, 15660]}, "edge": {"target": [], "time": []}}, "mouseover": {"state": {"target": ["18", "15", "17", "14", "13", "18", "1", "28", "26", "29", "27", "28", "28", "10", "4", "5", "6", "4", "7", "12", "22", "31", "31", "32"], "time": [1198, 1248, 1415, 1798, 1932, 1982, 3648, 3982, 4182, 4298, 6332, 7248, 7632, 7949, 9449, 9749, 10832, 11084, 11149, 12815, 13515, 14266, 14549, 16100]}, "edge": {"target": [], "time": []}}, "mouseout": {"state": {"target": ["0", "18", "15", "17", "14", "13", "18", "1", "28", "26", "29", "27", "28", "28", "10", "4", "5", "6", "4", "7", "12", "22", "31", "31", "32"], "time": [631, 1215, 1382, 1732, 1850, 1948, 3581, 3698, 4132, 4248, 5448, 7199, 7515, 7665, 9082, 9699, 10749, 11015, 11099, 12582, 13082, 14023, 14299, 15849, 16149]}, "edge": {"target": [], "time": []}}}, "displayed_time": "20.92", "trialTime": 21758, "trial_type": "mouselab-mdp", "trial_index": 17, "time_elapsed": 437231, "internal_node_id": "0.0-6.0-1.0-8.0"}}, {"uniqueid": "w78841436:a24412157", "current_trial": 18, "dateTime": 1693481255910, "trialdata": {"revealed_states": [], "clicked_states": ["22", "31", "11", "6"], "num_clicks_accrued": [0, 0, 0, 0, 0, 0, 0, 0, 0, 0, 0, 0, 0], "stateRewards": ["", 1, -1, 8, -3, 38, 85, -20, -4, 8, 23, 73, 2, -4, 6, -13, 44, 7, -28, -11, -77, 45, -69, 1, -1, -7, -11, 75, -51, -87, 7, 36, -53, -26], "withholdReward": false, "trial_id": "mdp_trial_10", "block": "test", "trialIndex": 11, "score": 84.4, "costs": -5.6, "simulationMode": [null, null, null, null, null], "rewards": [1, -1, 8, -3, 85], "path": ["0", "0", "1", "2", "3", "4", "6"], "rt": [7891, 81, 10, 20, 80], "actions": ["up", "up", "up", "right", "right"], "actionTimes": [9634, 10217, 10746, 11273, 11866], "queries": {"click": {"state": {"target": ["22", "31", "11", "6"], "time": [2630, 4382, 5982, 7734]}, "edge": {"target": [], "time": []}}, "mouseover": {"state": {"target": ["12", "22", "12", "31", "30", "30", "28", "11", "6"], "time": [2284, 2368, 3185, 3701, 4701, 4918, 5051, 5201, 6918]}, "edge": {"target": [], "time": []}}, "mouseout": {"state": {"target": ["0", "12", "22", "12", "31", "30", "30", "28", "11", "6", "7", "0"], "time": [1367, 2334, 3084, 3201, 4651, 4751, 4968, 5068, 6301, 8051, 14252, 14918]}, "edge": {"target": [], "time": []}}}, "displayed_time": "15.74", "trialTime": 16617, "trial_type": "mouselab-mdp", "trial_index": 18, "time_elapsed": 454055, "internal_node_id": "0.0-6.0-1.0-9.0"}}, {"uniqueid": "w78841436:a24412157", "current_trial": 19, "dateTime": 1693481280590, "trialdata": {"revealed_states": [], "clicked_states": ["22", "17", "29", "9", "5", "31", "32", "33", "7", "10"], "num_clicks_accrued": [0, 0, 0, 0, 0, 0, 0, 0, 0, 0, 0, 0, 0], "stateRewards": ["", -2, 2, 8, -6, -25, 3, 87, 2, -62, -2, 74, -2, -1, 2, -1, 79, 49, -37, -14, 5, 67, -9, -1, 2, -2, 5, 15, 38, 32, -14, -38, -38, 30], "withholdReward": false, "trial_id": "mdp_trial_11", "block": "test", "trialIndex": 12, "score": 75, "costs": -14.000000000000002, "simulationMode": [null, null, null, null, null], "rewards": [-2, 2, 8, -6, 87], "path": ["0", "0", "1", "2", "3", "4", "7"], "rt": [19117, 533, 213, 88, 97], "actions": ["up", "up", "up", "right", "down"], "actionTimes": [20051, 21090, 21802, 22394, 22986], "queries": {"click": {"state": {"target": ["22", "17", "29", "9", "5", "31", "32", "33", "7", "10"], "time": [2847, 4640, 6223, 7967, 9815, 11736, 13511, 15127, 16647, 18304]}, "edge": {"target": [], "time": []}}, "mouseover": {"state": {"target": ["0", "0", "12", "13", "13", "22", "13", "15", "17", "15", "28", "26", "29", "24", "28", "8", "9", "8", "3", "5", "6", "7", "1", "24", "31", "32", "33", "30", "21", "19", "13", "7", "2", "10"], "time": [971, 1956, 2137, 2287, 2654, 2787, 3187, 3254, 3521, 4821, 4904, 4954, 5304, 6638, 6821, 6988, 7271, 8288, 9038, 9171, 10038, 10438, 10505, 10655, 10854, 12405, 13871, 15305, 15505, 15721, 15805, 16121, 17555, 17721]}, "edge": {"target": [], "time": []}}, "mouseout": {"state": {"target": ["0", "0", "0", "12", "13", "13", "22", "13", "15", "17", "15", "28", "26", "29", "29", "24", "28", "8", "9", "8", "3", "5", "6", "7", "1", "24", "31", "32", "33", "30", "21", "19", "13", "7", "2", "10", "8"], "time": [570, 1754, 2004, 2237, 2504, 2754, 3087, 3221, 3304, 4804, 4837, 4921, 5121, 6252, 6521, 6758, 6887, 7021, 8221, 8921, 9055, 10005, 10388, 10471, 10538, 10788, 11955, 13671, 15288, 15321, 15571, 15771, 15855, 17088, 17688, 18455, 23888]}, "edge": {"target": [], "time": []}}}, "displayed_time": "23.49", "trialTime": 24466, "trial_type": "mouselab-mdp", "trial_index": 19, "time_elapsed": 478735, "internal_node_id": "0.0-6.0-1.0-10.0"}}, {"uniqueid": "w78841436:a24412157", "current_trial": 20, "dateTime": 1693481297495, "trialdata": {"revealed_states": [], "clicked_states": ["22", "17", "11"], "num_clicks_accrued": [0, 0, 0, 0, 0, 0, 0, 0, 0, 0, 0, 0, 0], "stateRewards": ["", -1, -4, -3, 1, -45, -67, -24, 14, 32, 22, 22, -1, 1, -5, -7, 72, 84, -79, -5, 19, -40, -2, -1, -2, 8, -3, 84, -25, -28, 11, 64, -66, 77], "withholdReward": false, "trial_id": "mdp_trial_12", "block": "test", "trialIndex": 13, "score": 67.8, "costs": -4.199999999999999, "simulationMode": [null, null, null, null, null], "rewards": [-1, 1, -5, -7, 84], "path": ["0", "0", "12", "13", "14", "15", "17"], "rt": [6105, 77, 6, 10, 21], "actions": ["right", "right", "right", "up", "right"], "actionTimes": [7585, 8152, 8648, 9168, 9713], "queries": {"click": {"state": {"target": ["22", "17", "11"], "time": [2429, 4165, 5806]}, "edge": {"target": [], "time": []}}, "mouseover": {"state": {"target": ["12", "13", "14", "22", "14", "17", "15", "18", "10", "11", "10"], "time": [1873, 1906, 1973, 2290, 2657, 2756, 4340, 4423, 4624, 4923, 6357]}, "edge": {"target": [], "time": []}}, "mouseout": {"state": {"target": ["1", "0", "12", "13", "14", "22", "14", "17", "15", "18", "10", "11", "10", "11", "10", "23"], "time": [956, 1272, 1890, 1923, 2140, 2573, 2690, 4307, 4407, 4457, 4674, 6157, 11410, 11490, 15624, 15724]}, "edge": {"target": [], "time": []}}}, "displayed_time": "15.48", "trialTime": 16689, "trial_type": "mouselab-mdp", "trial_index": 20, "time_elapsed": 495639, "internal_node_id": "0.0-6.0-1.0-11.0"}}, {"uniqueid": "w78841436:a24412157", "current_trial": 21, "dateTime": 1693481318126, "trialdata": {"revealed_states": [], "clicked_states": ["32", "5", "10", "28", "22", "29", "27", "33"], "num_clicks_accrued": [0, 0, 0, 0, 0, 0, 0, 0, 0, 0, 0, 0, 0], "stateRewards": ["", -1, -2, 8, -6, -79, -6, 87, 9, -5, -66, -38, 2, 2, 5, -6, -82, 74, 85, -8, 67, -30, -15, 1, -2, -2, -2, 87, 64, 49, 7, 2, -38, -9], "withholdReward": false, "trial_id": "mdp_trial_13", "block": "test", "trialIndex": 14, "score": 70.8, "costs": -11.200000000000001, "simulationMode": [null, null, null, null, null, null], "rewards": [1, -2, -2, -2, 87], "path": ["0", "0", "23", "24", "25", "26", "27"], "rt": [13754, 372, 77, 14, 944, 110], "actions": ["left", "left", "left", "left", "up", "up"], "actionTimes": [15492, 15867, 16443, 16947, 18411, 19011], "queries": {"click": {"state": {"target": ["32", "5", "10", "28", "22", "29", "27", "33"], "time": [2400, 4016, 5625, 7265, 8856, 10585, 12208, 14000]}, "edge": {"target": [], "time": []}}, "mouseover": {"state": {"target": ["31", "32", "31", "23", "3", "4", "5", "6", "7", "2", "10", "26", "25", "28", "24", "31", "22", "22", "13", "25", "29", "26", "26", "27", "26", "25", "33"], "time": [2015, 2298, 2648, 2715, 2865, 2966, 3198, 4315, 4682, 5015, 5065, 6116, 6232, 6649, 7532, 7649, 8166, 8399, 9482, 9882, 10182, 10799, 11149, 11249, 12416, 12482, 12799]}, "edge": {"target": [], "time": []}}, "mouseout": {"state": {"target": ["0", "31", "32", "31", "23", "3", "4", "5", "6", "7", "2", "10", "26", "25", "28", "24", "31", "22", "22", "13", "25", "29", "26", "26", "27", "26", "25", "33"], "time": [1915, 2065, 2582, 2665, 2733, 2965, 3015, 4248, 4432, 4982, 5049, 5999, 6165, 6365, 7482, 7565, 8066, 8182, 9165, 9649, 10116, 10766, 10816, 11182, 12382, 12449, 12516, 14249]}, "edge": {"target": [], "time": []}}}, "displayed_time": "19.50", "trialTime": 20411, "trial_type": "mouselab-mdp", "trial_index": 21, "time_elapsed": 516271, "internal_node_id": "0.0-6.0-1.0-12.0"}}, {"uniqueid": "w78841436:a24412157", "current_trial": 22, "dateTime": 1693481348407, "trialdata": {"revealed_states": [], "clicked_states": ["17", "11", "29", "33", "31", "21", "22", "7", "6", "10", "5", "16", "18"], "num_clicks_accrued": [0, 0, 0, 0, 0, 0, 0, 0, 0, 0, 0, 0, 0], "stateRewards": ["", 1, 1, 1, 15, -76, 52, -32, 14, -57, 37, 49, 1, -4, -3, 6, 83, -76, 25, 9, 36, -1, -17, -1, 4, 4, -2, -22, -21, 58, -15, -57, 49, -24], "withholdReward": false, "trial_id": "mdp_trial_14", "block": "test", "trialIndex": 15, "score": 64.8, "costs": -18.2, "simulationMode": [null, null, null, null, null], "rewards": [1, -4, -3, 6, 83], "path": ["0", "0", "12", "13", "14", "15", "16"], "rt": [24288, 89, 275, 172, 170], "actions": ["right", "right", "right", "up", "up"], "actionTimes": [25658, 26241, 27010, 27673, 28337], "queries": {"click": {"state": {"target": ["17", "11", "29", "33", "31", "21", "22", "7", "6", "10", "5", "16", "18"], "time": [2471, 4199, 5766, 7726, 9551, 11335, 12878, 15125, 17078, 18855, 20534, 22206, 23918]}, "edge": {"target": [], "time": []}}, "mouseover": {"state": {"target": ["12", "13", "14", "17", "15", "1", "28", "11", "27", "29", "33", "30", "31", "21", "22", "12", "1", "7", "15", "18", "6", "2", "10", "5", "16", "16", "18"], "time": [1899, 1982, 2115, 2365, 2716, 2765, 2815, 3332, 4532, 4866, 6469, 7932, 7999, 10482, 11716, 13266, 13616, 13816, 15499, 15750, 16983, 17583, 17800, 19666, 21233, 21466, 23083]}, "edge": {"target": [], "time": []}}, "mouseout": {"state": {"target": ["0", "12", "13", "14", "17", "15", "1", "28", "11", "27", "29", "33", "30", "31", "21", "22", "12", "1", "7", "15", "18", "6", "2", "10", "5", "6", "16", "16", "18", "18"], "time": [1866, 1932, 2099, 2182, 2715, 2732, 2782, 2832, 4482, 4566, 6050, 7899, 7966, 9899, 11466, 13183, 13283, 13733, 15400, 15533, 16866, 17466, 17666, 18907, 20966, 21183, 21266, 22400, 24350, 29350]}, "edge": {"target": [], "time": []}}}, "displayed_time": "28.84", "trialTime": 30058, "trial_type": "mouselab-mdp", "trial_index": 22, "time_elapsed": 546552, "internal_node_id": "0.0-6.0-1.0-13.0"}}, {"uniqueid": "w78841436:a24412157", "current_trial": 23, "dateTime": 1693481385350, "trialdata": {"revealed_states": [], "clicked_states": ["5", "32", "16", "29", "9", "10", "33", "31", "28", "27", "7", "22", "21", "6", "20", "11"], "num_clicks_accrued": [0, 0, 0, 0, 0, 0, 0, 0, 0, 0, 0, 0, 0], "stateRewards": ["", 2, 3, -6, -5, -3, 55, 40, 11, 61, 11, 51, 2, -4, -6, 9, -25, 29, -15, -6, 7, -77, -2, -2, -4, 1, 14, -43, -1, 56, -12, -54, 41, -74], "withholdReward": false, "trial_id": "mdp_trial_15", "block": "test", "trialIndex": 16, "score": 48.60000000000001, "costs": -22.399999999999995, "simulationMode": [null, null, null, null, null], "rewards": [2, 3, -6, 11, 61], "path": ["0", "0", "1", "2", "3", "8", "9"], "rt": [30698, 585, 158, 380, 225], "actions": ["up", "up", "up", "left", "up"], "actionTimes": [31932, 33032, 33688, 34560, 35289], "queries": {"click": {"state": {"target": ["5", "32", "16", "29", "9", "10", "33", "31", "28", "27", "7", "22", "21", "6", "20", "11"], "time": [2078, 3837, 5453, 7182, 8957, 10717, 12958, 14869, 16437, 18405, 20205, 21886, 23662, 25582, 27445, 29237]}, "edge": {"target": [], "time": []}}, "mouseover": {"state": {"target": ["1", "7", "4", "5", "3", "8", "25", "30", "32", "13", "14", "15", "16", "1", "23", "24", "26", "29", "26", "11", "9", "8", "10", "28", "24", "30", "33", "30", "31", "24", "28", "27", "22", "21", "22", "13", "7", "18", "13", "22", "13", "18", "6", "15", "21", "19", "18", "6", "15", "20", "13", "2", "8", "11", "8", "7", "18"], "time": [1610, 1744, 1844, 1994, 2294, 2312, 2427, 2494, 2677, 4144, 4163, 4399, 4511, 5894, 5994, 6061, 6227, 6394, 7411, 7894, 8128, 9411, 9478, 11078, 11111, 11211, 11444, 13345, 13429, 15145, 15245, 16961, 18845, 18962, 19295, 19345, 19578, 20395, 20445, 20478, 22412, 22462, 22762, 23228, 23478, 23828, 23945, 24278, 25945, 26262, 27696, 27795, 27896, 28179, 29646, 29712, 29862]}, "edge": {"target": [], "time": []}}, "mouseout": {"state": {"target": ["12", "1", "1", "7", "4", "5", "3", "8", "25", "30", "32", "13", "14", "15", "16", "1", "23", "24", "26", "29", "26", "11", "9", "8", "10", "28", "24", "30", "33", "30", "31", "24", "28", "27", "28", "22", "21", "22", "13", "7", "18", "13", "22", "13", "18", "6", "15", "21", "19", "18", "6", "15", "20", "13", "2", "8", "11", "8", "7", "18", "12", "0"], "time": [593, 810, 1627, 1777, 1894, 2244, 2310, 2327, 2460, 2610, 3882, 4161, 4194, 4444, 5794, 5911, 6011, 6183, 6344, 7378, 7444, 7978, 9378, 9444, 11011, 11094, 11145, 11394, 13328, 13394, 15095, 15178, 16795, 18695, 18762, 18895, 19245, 19312, 19395, 20378, 20428, 20461, 22095, 22445, 22478, 23178, 23245, 23733, 23862, 23978, 25862, 25978, 27628, 27712, 27829, 28029, 29612, 29662, 29745, 35951, 36046, 36096]}, "edge": {"target": [], "time": []}}}, "displayed_time": "35.78", "trialTime": 36728, "trial_type": "mouselab-mdp", "trial_index": 23, "time_elapsed": 583495, "internal_node_id": "0.0-6.0-1.0-14.0"}}, {"uniqueid": "w78841436:a24412157", "current_trial": 24, "dateTime": 1693481401103, "trialdata": {"revealed_states": [], "clicked_states": ["10", "21"], "num_clicks_accrued": [0, 0, 0, 0, 0, 0, 0, 0, 0, 0, 0, 0, 0], "stateRewards": ["", -2, -3, 1, -7, 39, -67, 16, 5, -20, 73, 66, -1, 4, 5, -3, 23, -68, -87, -8, 3, -3, 17, 1, -4, -2, -13, -32, 34, 61, -5, -11, -18, 12], "withholdReward": false, "trial_id": "mdp_trial_16", "block": "test", "trialIndex": 17, "score": 71.2, "costs": -2.8, "simulationMode": [null, null, null, null, null], "rewards": [-2, -3, 1, 5, 73], "path": ["0", "0", "1", "2", "3", "8", "10"], "rt": [3871, 375, 204, 80, 121], "actions": ["up", "up", "up", "left", "down"], "actionTimes": [5049, 5929, 6624, 7217, 7841], "queries": {"click": {"state": {"target": ["10", "21"], "time": [1822, 3502]}, "edge": {"target": [], "time": []}}, "mouseover": {"state": {"target": ["1", "8", "10", "13", "22", "21"], "time": [1335, 1552, 1735, 2169, 2202, 2302]}, "edge": {"target": [], "time": []}}, "mouseout": {"state": {"target": ["12", "1", "8", "10", "13", "22", "21", "18", "23"], "time": [568, 1418, 1685, 2019, 2185, 2219, 3546, 8869, 13803]}, "edge": {"target": [], "time": []}}}, "displayed_time": "15.19", "trialTime": 15536, "trial_type": "mouselab-mdp", "trial_index": 24, "time_elapsed": 599247, "internal_node_id": "0.0-6.0-1.0-15.0"}}, {"uniqueid": "w78841436:a24412157", "current_trial": 25, "dateTime": 1693481416550, "trialdata": {"revealed_states": [], "clicked_states": ["10", "31", "6", "7"], "num_clicks_accrued": [0, 0, 0, 0, 0, 0, 0, 0, 0, 0, 0, 0, 0], "stateRewards": ["", 1, -4, 6, -3, 40, 76, -51, 5, -24, -63, 44, -2, -2, 8, 1, 76, -85, -58, 10, 59, 20, 11, -2, 3, -3, 3, -82, -10, 54, -7, -57, -6, -32], "withholdReward": false, "trial_id": "mdp_trial_17", "block": "test", "trialIndex": 18, "score": 70.4, "costs": -5.6, "simulationMode": [null, null, null, null, null, null], "rewards": [1, -4, 6, -3, 76], "path": ["0", "0", "1", "2", "3", "4", "6"], "rt": [7281, 417, 104, 56, 2, 22], "actions": ["up", "up", "up", "up", "right", "right"], "actionTimes": [8228, 8648, 9247, 9800, 10300, 10832], "queries": {"click": {"state": {"target": ["10", "31", "6", "7"], "time": [1797, 3491, 5045, 6757]}, "edge": {"target": [], "time": []}}, "mouseover": {"state": {"target": ["10", "10", "1", "23", "31", "24", "23", "6", "7"], "time": [1375, 1725, 2108, 2458, 2693, 4109, 4159, 4525, 5609]}, "edge": {"target": [], "time": []}}, "mouseout": {"state": {"target": ["0", "10", "10", "1", "23", "31", "24", "23", "6", "7", "7", "1"], "time": [808, 1425, 2025, 2143, 2642, 3842, 4125, 4175, 5442, 7009, 11993, 14425]}, "edge": {"target": [], "time": []}}}, "displayed_time": "14.95", "trialTime": 15223, "trial_type": "mouselab-mdp", "trial_index": 25, "time_elapsed": 614695, "internal_node_id": "0.0-6.0-1.0-16.0"}}, {"uniqueid": "w78841436:a24412157", "current_trial": 26, "dateTime": 1693481444503, "trialdata": {"revealed_states": [], "clicked_states": ["11", "21", "5", "32", "31", "29", "9", "28", "27", "10", "7", "22", "16"], "num_clicks_accrued": [0, 0, 0, 0, 0, 0, 0, 0, 0, 0, 0, 0, 0], "stateRewards": ["", -1, 2, 5, -6, 13, -64, -47, 8, -79, -80, -33, 1, 2, -2, -16, 56, -71, -10, 3, 29, 44, 85, -1, 4, 5, 4, -36, -56, 19, 8, 52, -13, -2], "withholdReward": false, "trial_id": "mdp_trial_18", "block": "test", "trialIndex": 19, "score": 70.8, "costs": -18.2, "simulationMode": [null, null, null, null, null], "rewards": [1, 2, -2, 3, 85], "path": ["0", "0", "12", "13", "14", "19", "22"], "rt": [23453, 48, 51, 108, 99], "actions": ["right", "right", "right", "down", "left"], "actionTimes": [24555, 25099, 25667, 26274, 26883], "queries": {"click": {"state": {"target": ["11", "21", "5", "32", "31", "29", "9", "28", "27", "10", "7", "22", "16"], "time": [1703, 3360, 5400, 7207, 8832, 10535, 12480, 14304, 15952, 17528, 19072, 21192, 22880]}, "edge": {"target": [], "time": []}}, "mouseover": {"state": {"target": ["1", "8", "11", "10", "1", "13", "19", "21", "19", "14", "15", "16", "6", "5", "3", "10", "28", "24", "32", "12", "31", "30", "31", "30", "29", "26", "11", "11", "9", "28", "27", "10", "2", "7", "18", "13", "22", "22", "15", "16", "13", "13"], "time": [1231, 1464, 1548, 2064, 2097, 2148, 2214, 2614, 3698, 3781, 3799, 3832, 4031, 4181, 5681, 5731, 5782, 5914, 6281, 8198, 8348, 8398, 8598, 9131, 9481, 10848, 11364, 11498, 12098, 12815, 14648, 16548, 17999, 18265, 19398, 19432, 19715, 21148, 21515, 21615, 23165, 23365]}, "edge": {"target": [], "time": []}}, "mouseout": {"state": {"target": ["1", "1", "8", "11", "10", "1", "13", "19", "21", "19", "14", "15", "16", "6", "5", "3", "10", "28", "24", "32", "12", "31", "30", "31", "30", "29", "26", "11", "11", "9", "28", "27", "27", "10", "2", "7", "18", "13", "22", "22", "15", "16", "13", "13"], "time": [680, 1264, 1498, 1998, 2081, 2114, 2181, 2247, 3631, 3764, 3798, 3831, 3881, 4065, 5631, 5715, 5748, 5847, 5948, 7448, 8264, 8364, 8414, 9081, 9231, 10815, 10898, 11381, 11815, 12648, 14565, 16022, 16265, 17965, 18018, 19332, 19415, 19498, 20748, 21253, 21565, 23065, 23199, 23399]}, "edge": {"target": [], "time": []}}}, "displayed_time": "27.38", "trialTime": 27731, "trial_type": "mouselab-mdp", "trial_index": 26, "time_elapsed": 642647, "internal_node_id": "0.0-6.0-1.0-17.0"}}, {"uniqueid": "w78841436:a24412157", "current_trial": 27, "dateTime": 1693481486367, "trialdata": {"revealed_states": [], "clicked_states": ["32", "16", "10", "7", "18", "22", "17", "28", "29", "27", "33", "9", "11", "6", "5", "20", "21", "31"], "num_clicks_accrued": [0, 0, 0, 0, 0, 0, 0, 0, 0, 0, 0, 0, 0], "stateRewards": ["", 2, 3, 3, 10, 19, -21, 6, 9, 54, 68, 16, 2, 2, -6, -8, 40, -2, -75, -2, -42, 55, 59, -1, 2, 4, -14, 11, -34, -30, -6, 61, -53, 13], "withholdReward": false, "trial_id": "mdp_trial_19", "block": "test", "trialIndex": 20, "score": 34.80000000000001, "costs": -25.199999999999992, "simulationMode": [null, null, null, null, null], "rewards": [-1, 2, 4, -6, 61], "path": ["0", "0", "23", "24", "25", "30", "31"], "rt": [36148, 478, 199, 132, 156], "actions": ["left", "left", "left", "down", "right"], "actionTimes": [37200, 38168, 38855, 39488, 40145], "queries": {"click": {"state": {"target": ["32", "16", "10", "7", "18", "22", "17", "28", "29", "27", "33", "9", "11", "6", "5", "20", "21", "31"], "time": [1781, 3333, 5077, 6725, 8837, 10446, 12069, 13637, 15237, 17237, 19077, 20813, 22813, 25277, 26917, 28540, 30389, 34509]}, "edge": {"target": [], "time": []}}, "mouseover": {"state": {"target": ["0", "31", "32", "31", "16", "18", "2", "10", "1", "7", "7", "18", "13", "18", "13", "22", "19", "20", "17", "20", "19", "12", "24", "28", "26", "29", "27", "26", "27", "26", "33", "30", "31", "23", "10", "3", "9", "11", "10", "1", "1", "7", "6", "5", "4", "18", "13", "22", "20", "19", "21", "31", "22", "19", "22", "31"], "time": [1386, 1453, 1769, 2003, 2386, 3786, 4253, 4403, 5453, 5786, 6036, 7836, 7937, 8636, 8986, 9070, 10986, 11070, 11353, 12603, 12803, 12853, 13036, 13337, 14036, 14237, 15603, 16953, 17153, 17620, 18520, 19304, 19353, 19587, 19720, 19920, 20270, 21554, 23287, 23570, 24187, 24904, 25121, 25587, 27187, 27270, 27324, 27404, 27637, 28820, 29121, 31171, 32321, 32421, 32654, 34337]}, "edge": {"target": [], "time": []}}, "mouseout": {"state": {"target": ["13", "12", "0", "31", "32", "31", "16", "18", "2", "10", "1", "7", "7", "18", "13", "18", "13", "22", "19", "20", "17", "20", "19", "12", "24", "28", "26", "29", "27", "26", "27", "27", "26", "33", "30", "31", "23", "10", "3", "9", "11", "10", "1", "1", "7", "6", "5", "5", "4", "18", "13", "22", "20", "20", "19", "21", "31", "22", "19", "22", "31"], "time": [569, 652, 1403, 1486, 1834, 2036, 3736, 3803, 4336, 5403, 5537, 5870, 6919, 7853, 8587, 8953, 9036, 10970, 11036, 11170, 12270, 12770, 12820, 12873, 13053, 14003, 14104, 15537, 16887, 17137, 17292, 17554, 17721, 19270, 19321, 19537, 19603, 19770, 19987, 21170, 23104, 23454, 23637, 24454, 25070, 25346, 26997, 27154, 27220, 27287, 27354, 27470, 28602, 28770, 28887, 30571, 32237, 32354, 32594, 33554, 35171]}, "edge": {"target": [], "time": []}}}, "displayed_time": "40.66", "trialTime": 41632, "trial_type": "mouselab-mdp", "trial_index": 27, "time_elapsed": 684512, "internal_node_id": "0.0-6.0-1.0-18.0"}}, {"uniqueid": "w78841436:a24412157", "current_trial": 28, "dateTime": 1693481502310, "trialdata": {"revealed_states": [], "clicked_states": ["16", "32", "9", "5"], "num_clicks_accrued": [0, 0, 0, 0, 0, 0, 0, 0, 0, 0, 0, 0, 0], "stateRewards": ["", -2, 2, -5, -6, 10, -66, -58, -10, -11, -63, -70, -1, -4, -5, 7, 66, -64, -43, -3, 45, -37, 4, -2, -2, -6, -4, -30, 33, 43, 15, -32, -65, -59], "withholdReward": false, "trial_id": "mdp_trial_20", "block": "test", "trialIndex": 21, "score": 57.4, "costs": -5.6, "simulationMode": [null, null, null, null, null], "rewards": [-1, -4, -5, 7, 66], "path": ["0", "0", "12", "13", "14", "15", "16"], "rt": [8767, 412, 35, 25, 651], "actions": ["right", "right", "right", "up", "up"], "actionTimes": [10401, 11312, 11880, 12392, 13552], "queries": {"click": {"state": {"target": ["16", "32", "9", "5"], "time": [3006, 4525, 6677, 8669]}, "edge": {"target": [], "time": []}}, "mouseover": {"state": {"target": ["12", "18", "16", "28", "24", "32", "10", "3", "25", "33", "26", "27", "11", "9", "5"], "time": [2132, 2365, 2915, 3432, 3482, 3615, 4999, 5082, 5567, 5732, 5932, 5965, 6199, 6382, 7182]}, "edge": {"target": [], "time": []}}, "mouseout": {"state": {"target": ["0", "12", "18", "16", "28", "24", "32", "10", "3", "25", "33", "26", "27", "11", "9", "5"], "time": [1682, 2249, 2498, 3199, 3465, 3515, 4899, 5032, 5249, 5585, 5849, 5949, 6099, 6249, 7049, 9066]}, "edge": {"target": [], "time": []}}}, "displayed_time": "15.63", "trialTime": 15719, "trial_type": "mouselab-mdp", "trial_index": 28, "time_elapsed": 700455, "internal_node_id": "0.0-6.0-1.0-19.0"}}, {"uniqueid": "w78841436:a24412157", "current_trial": 29, "dateTime": 1693481525430, "trialdata": {"revealed_states": [], "clicked_states": ["5", "21", "33", "29", "9", "16", "18", "10"], "num_clicks_accrued": [0, 0, 0, 0, 0, 0, 0, 0, 0, 0, 0, 0, 0], "stateRewards": ["", 1, 3, 3, -10, 52, 68, 59, 12, 7, 49, 21, -2, -3, -4, -2, -2, 63, 63, -4, 44, 43, -76, -2, -3, -6, 13, 48, 36, 12, -5, -36, -33, -11], "withholdReward": false, "trial_id": "mdp_trial_21", "block": "test", "trialIndex": 22, "score": 40.8, "costs": -11.200000000000001, "simulationMode": [null, null, null, null, null], "rewards": [-2, -3, -4, -2, 63], "path": ["0", "0", "12", "13", "14", "15", "18"], "rt": [16833, 68, 430, 144, 102], "actions": ["right", "right", "right", "up", "left"], "actionTimes": [19009, 19576, 20505, 21153, 21760], "queries": {"click": {"state": {"target": ["5", "21", "33", "29", "9", "16", "18", "10"], "time": [3261, 4933, 6750, 8589, 10310, 12396, 14157, 15934]}, "edge": {"target": [], "time": []}}, "mouseover": {"state": {"target": ["7", "4", "5", "5", "6", "16", "17", "20", "19", "21", "21", "32", "30", "33", "30", "31", "24", "28", "27", "29", "26", "27", "11", "9", "8", "7", "16", "18", "1", "10"], "time": [2422, 2689, 2806, 3206, 3606, 3639, 3673, 3839, 3889, 3989, 4289, 5739, 6190, 6573, 7106, 7273, 7323, 7440, 7606, 8440, 8789, 8973, 9739, 10056, 10523, 11006, 11306, 12973, 14540, 14890]}, "edge": {"target": [], "time": []}}, "mouseout": {"state": {"target": ["4", "1", "0", "7", "4", "5", "5", "5", "6", "16", "17", "20", "19", "21", "21", "32", "30", "33", "30", "31", "24", "28", "27", "29", "26", "27", "11", "9", "9", "8", "7", "16", "18", "1", "10"], "time": [1206, 1322, 2239, 2456, 2722, 2889, 3330, 3589, 3623, 3656, 3689, 3872, 3939, 4106, 5323, 6123, 6323, 7056, 7173, 7306, 7390, 7506, 7623, 8756, 8856, 9656, 9956, 10340, 10506, 10539, 11023, 12623, 14440, 14573, 22573]}, "edge": {"target": [], "time": []}}}, "displayed_time": "22.26", "trialTime": 22896, "trial_type": "mouselab-mdp", "trial_index": 29, "time_elapsed": 723574, "internal_node_id": "0.0-6.0-1.0-20.0"}}, {"uniqueid": "w78841436:a24412157", "current_trial": 30, "dateTime": 1693481553878, "trialdata": {"revealed_states": [], "clicked_states": ["9", "21", "31", "18", "28", "7", "10", "11", "29", "17", "20", "22"], "num_clicks_accrued": [0, 0, 0, 0, 0, 0, 0, 0, 0, 0, 0, 0, 0], "stateRewards": ["", 1, -2, -3, 14, -42, -87, -37, -11, -50, 33, -44, -2, 4, -7, 13, 48, -75, -66, 12, 23, -2, 82, 1, -4, 3, 12, 51, -15, -26, -11, -52, -29, 82], "withholdReward": false, "trial_id": "mdp_trial_22", "block": "test", "trialIndex": 23, "score": 72.2, "costs": -16.8, "simulationMode": [null, null, null, null, null], "rewards": [-2, 4, -7, 12, 82], "path": ["0", "0", "12", "13", "14", "19", "22"], "rt": [22792, 456, 130, 16, 116], "actions": ["right", "right", "right", "down", "left"], "actionTimes": [24539, 25506, 26131, 26650, 27266], "queries": {"click": {"state": {"target": ["9", "21", "31", "18", "28", "7", "10", "11", "29", "17", "20", "22"], "time": [3048, 4823, 6567, 8207, 9815, 11351, 13200, 14887, 16663, 18311, 20008, 21719]}, "edge": {"target": [], "time": []}}, "mouseover": {"state": {"target": ["1", "7", "3", "9", "3", "13", "21", "21", "32", "31", "22", "14", "15", "18", "1", "28", "1", "7", "2", "10", "4", "3", "8", "11", "29", "26", "28", "1", "17", "20", "22", "31", "30", "33", "30"], "time": [2098, 2581, 2681, 2948, 3298, 3398, 3515, 3731, 5265, 6248, 7315, 7681, 7798, 8031, 8598, 9015, 10282, 10465, 11815, 12281, 13665, 13798, 13848, 14148, 15948, 16832, 16850, 16882, 17115, 19082, 20865, 22282, 22549, 22749, 23867]}, "edge": {"target": [], "time": []}}, "mouseout": {"state": {"target": ["28", "0", "1", "7", "3", "9", "9", "3", "13", "21", "21", "32", "31", "22", "14", "15", "18", "1", "28", "1", "7", "2", "10", "4", "3", "8", "11", "29", "26", "28", "1", "17", "20", "22", "31", "30", "33"], "time": [464, 1464, 2114, 2598, 2864, 3108, 3281, 3315, 3431, 3531, 5065, 6131, 6998, 7598, 7765, 7848, 8531, 8648, 10165, 10298, 11748, 11848, 13228, 13781, 13831, 13881, 15482, 16692, 16849, 16865, 16899, 18549, 20382, 22132, 22499, 22649, 23866]}, "edge": {"target": [], "time": []}}}, "displayed_time": "27.78", "trialTime": 28219, "trial_type": "mouselab-mdp", "trial_index": 30, "time_elapsed": 752023, "internal_node_id": "0.0-6.0-1.0-21.0"}}, {"uniqueid": "w78841436:a24412157", "current_trial": 31, "dateTime": 1693481579142, "trialdata": {"revealed_states": [], "clicked_states": ["32", "6", "27", "20", "22", "16", "11", "10", "33", "31"], "num_clicks_accrued": [0, 0, 0, 0, 0, 0, 0, 0, 0, 0, 0, 0, 0], "stateRewards": ["", 1, 1, 4, 11, 83, -66, 18, -16, -23, 5, 25, 1, -3, 1, -12, 18, 24, -86, -11, -64, 36, 40, 2, 1, -6, 13, 55, 29, 72, -2, 81, -72, -41], "withholdReward": false, "trial_id": "mdp_trial_23", "block": "test", "trialIndex": 24, "score": 62, "costs": -14.000000000000002, "simulationMode": [null, null, null, null, null], "rewards": [2, 1, -6, -2, 81], "path": ["0", "0", "23", "24", "25", "30", "31"], "rt": [20708, 62, 48, 9, 76], "actions": ["left", "left", "left", "down", "right"], "actionTimes": [21736, 22295, 22832, 23359, 23943], "queries": {"click": {"state": {"target": ["32", "6", "27", "20", "22", "16", "11", "10", "33", "31"], "time": [1661, 3389, 4933, 6462, 8740, 11909, 14069, 15997, 17836, 19644]}, "edge": {"target": [], "time": []}}, "mouseover": {"state": {"target": ["0", "31", "32", "31", "23", "1", "7", "6", "6", "8", "11", "27", "10", "18", "13", "20", "19", "22", "14", "15", "18", "16", "7", "2", "8", "11", "10", "8", "26", "29", "33", "30", "31"], "time": [1181, 1448, 1481, 1848, 1866, 1883, 1915, 1948, 2165, 3831, 4198, 4632, 5248, 5432, 5465, 5632, 6865, 7098, 11432, 11499, 11632, 11849, 13049, 13115, 13251, 13399, 14515, 16316, 16799, 16966, 17499, 18032, 18116]}, "edge": {"target": [], "time": []}}, "mouseout": {"state": {"target": ["30", "25", "24", "23", "0", "31", "32", "31", "23", "1", "7", "6", "6", "8", "11", "27", "10", "18", "13", "20", "19", "22", "22", "14", "15", "18", "16", "7", "2", "8", "11", "11", "10", "8", "11", "26", "29", "33", "30", "31"], "time": [97, 347, 414, 648, 1281, 1465, 1798, 1865, 1881, 1898, 1931, 2048, 3665, 3931, 4532, 4970, 5281, 5448, 5481, 6815, 6915, 8820, 9932, 11449, 11532, 11766, 12765, 13082, 13132, 13315, 14115, 14449, 16266, 16349, 16583, 16882, 17233, 17889, 18066, 19849]}, "edge": {"target": [], "time": []}}}, "displayed_time": "24.43", "trialTime": 25032, "trial_type": "mouselab-mdp", "trial_index": 31, "time_elapsed": 777287, "internal_node_id": "0.0-6.0-1.0-22.0"}}, {"uniqueid": "w78841436:a24412157", "current_trial": 32, "dateTime": 1693481597135, "trialdata": {"revealed_states": [], "clicked_states": ["16", "27", "10", "31", "22", "6", "5"], "num_clicks_accrued": [0, 0, 0, 0, 0, 0, 0, 0, 0, 0, 0, 0, 0], "stateRewards": ["", -1, -3, -6, -2, -7, 80, -45, -3, -38, -72, 76, 2, 1, 7, 4, -62, 14, -74, 14, -87, -21, -88, -2, 1, -7, -10, 66, 56, -76, 10, -29, -72, -70], "withholdReward": false, "trial_id": "mdp_trial_24", "block": "test", "trialIndex": 25, "score": 58.2, "costs": -9.8, "simulationMode": [null, null, null, null, null], "rewards": [-1, -3, -6, -2, 80], "path": ["0", "0", "1", "2", "3", "4", "6"], "rt": [12667, 84, 613, 56, 58], "actions": ["up", "up", "up", "right", "right"], "actionTimes": [13885, 14468, 15581, 16141, 16692], "queries": {"click": {"state": {"target": ["16", "27", "10", "31", "22", "6", "5"], "time": [2130, 3722, 5290, 7226, 8843, 10394, 12090]}, "edge": {"target": [], "time": []}}, "mouseover": {"state": {"target": ["12", "15", "16", "3", "8", "11", "27", "27", "9", "2", "10", "23", "31", "23", "13", "22", "13", "7", "4", "6", "5"], "time": [1699, 1816, 1966, 2583, 2633, 2666, 3116, 3416, 4516, 4699, 4982, 6383, 7066, 7533, 7766, 7866, 9533, 9633, 9766, 9950, 10916]}, "edge": {"target": [], "time": []}}, "mouseout": {"state": {"target": ["23", "0", "12", "15", "16", "3", "8", "11", "27", "27", "9", "2", "10", "23", "31", "23", "13", "22", "22", "13", "7", "4", "6", "5"], "time": [549, 1649, 1749, 1849, 2416, 2616, 2649, 2733, 3149, 3985, 4566, 4866, 5583, 6916, 7416, 7550, 7816, 9266, 9499, 9566, 9649, 9883, 10783, 12533]}, "edge": {"target": [], "time": []}}}, "displayed_time": "17.20", "trialTime": 17757, "trial_type": "mouselab-mdp", "trial_index": 32, "time_elapsed": 795280, "internal_node_id": "0.0-6.0-1.0-23.0"}}, {"uniqueid": "w78841436:a24412157", "current_trial": 33, "dateTime": 1693481627183, "trialdata": {"revealed_states": [], "clicked_states": ["32", "9", "21", "22", "28", "7", "31", "10", "27", "29", "33", "18", "5"], "num_clicks_accrued": [0, 0, 0, 0, 0, 0, 0, 0, 0, 0, 0, 0, 0], "stateRewards": ["", -1, -2, 4, 9, 10, -75, 39, 16, -43, 88, -19, -1, 1, 2, 4, -31, 10, 73, 12, 41, -64, -81, -2, 2, -6, 1, -81, -1, -26, 3, -59, -3, -20], "withholdReward": false, "trial_id": "mdp_trial_25", "block": "test", "trialIndex": 26, "score": 60.8, "costs": -18.2, "simulationMode": [null, null, null, null, null], "rewards": [-1, 1, 2, 4, 73], "path": ["0", "0", "12", "13", "14", "15", "18"], "rt": [25594, 89, 18, 21, 7], "actions": ["right", "right", "right", "up", "left"], "actionTimes": [26733, 27316, 27829, 28364, 28884], "queries": {"click": {"state": {"target": ["32", "9", "21", "22", "28", "7", "31", "10", "27", "29", "33", "18", "5"], "time": [2624, 4545, 6225, 7984, 9704, 11752, 13409, 15113, 16976, 19649, 21777, 23337, 24944]}, "edge": {"target": [], "time": []}}, "mouseover": {"state": {"target": ["1", "24", "26", "26", "25", "30", "32", "23", "9", "5", "4", "13", "22", "21", "22", "12", "22", "0", "23", "24", "28", "24", "23", "2", "7", "2", "10", "24", "31", "13", "18", "2", "10", "4", "6", "2", "27", "29", "33", "24", "23", "18", "16", "5", "6"], "time": [1607, 1740, 1957, 2140, 2257, 2340, 2574, 3040, 3624, 5057, 5124, 5308, 5374, 5524, 6524, 6724, 7107, 8374, 8424, 8624, 8757, 10057, 10377, 10607, 10757, 12125, 12174, 12558, 12691, 14108, 14324, 14558, 14624, 15741, 15991, 16191, 16574, 17474, 20141, 22725, 22775, 23008, 23791, 24608, 25491]}, "edge": {"target": [], "time": []}}, "mouseout": {"state": {"target": ["4", "3", "2", "1", "1", "24", "26", "26", "25", "30", "32", "23", "9", "5", "4", "13", "22", "21", "22", "12", "22", "0", "23", "24", "28", "24", "23", "2", "7", "2", "10", "24", "31", "13", "18", "2", "10", "4", "6", "2", "10", "27", "29", "29", "33", "24", "23", "18", "16", "5", "6"], "time": [207, 273, 356, 440, 1640, 1774, 1974, 2207, 2307, 2424, 2669, 3090, 4774, 5090, 5157, 5340, 5390, 6374, 6607, 6908, 8274, 8408, 8474, 8708, 9974, 10324, 10410, 10691, 12091, 12157, 12391, 12641, 13658, 14158, 14441, 14591, 15408, 15776, 16124, 16208, 16241, 17208, 19685, 19841, 22541, 22741, 22825, 23691, 24125, 25275, 25541]}, "edge": {"target": [], "time": []}}}, "displayed_time": "29.39", "trialTime": 29812, "trial_type": "mouselab-mdp", "trial_index": 33, "time_elapsed": 825328, "internal_node_id": "0.0-6.0-1.0-24.0"}}, {"uniqueid": "w78841436:a24412157", "current_trial": 34, "dateTime": 1693481642280, "trialdata": {"revealed_states": [], "clicked_states": ["10"], "num_clicks_accrued": [0, 0, 0, 0, 0, 0, 0, 0, 0, 0, 0, 0, 0], "stateRewards": ["", 2, 3, 8, 11, 25, -80, 6, -4, -56, 84, -23, -2, -4, -3, 4, -51, -9, -61, -15, -64, 67, -35, 1, -1, -7, -6, 83, 59, -15, 12, -79, 56, 41], "withholdReward": false, "trial_id": "mdp_trial_26", "block": "test", "trialIndex": 27, "score": 91.6, "costs": -1.4, "simulationMode": [null, null, null, null, null], "rewards": [2, 3, 8, -4, 84], "path": ["0", "0", "1", "2", "3", "8", "10"], "rt": [4380, 21, 496, 39, 28], "actions": ["up", "up", "up", "left", "down"], "actionTimes": [4958, 5470, 6478, 7006, 7526], "queries": {"click": {"state": {"target": ["10"], "time": [2403]}, "edge": {"target": [], "time": []}}, "mouseover": {"state": {"target": ["14", "19", "19", "14", "15", "16", "7", "2", "10", "8", "9", "8", "9"], "time": [1214, 1297, 1480, 1547, 1580, 1647, 1814, 2130, 2264, 3147, 3314, 3747, 3964]}, "edge": {"target": [], "time": []}}, "mouseout": {"state": {"target": ["12", "0", "14", "19", "19", "14", "15", "16", "7", "2", "10", "8", "9", "8", "9", "7", "12"], "time": [280, 930, 1247, 1330, 1497, 1564, 1614, 1714, 1930, 2230, 3080, 3214, 3514, 3847, 4531, 9048, 10148]}, "edge": {"target": [], "time": []}}}, "displayed_time": "14.58", "trialTime": 14847, "trial_type": "mouselab-mdp", "trial_index": 34, "time_elapsed": 840425, "internal_node_id": "0.0-6.0-1.0-25.0"}}, {"uniqueid": "w78841436:a24412157", "current_trial": 35, "dateTime": 1693481665991, "trialdata": {"revealed_states": [], "clicked_states": ["27", "16", "31", "10", "9", "33", "29", "17", "18"], "num_clicks_accrued": [0, 0, 0, 0, 0, 0, 0, 0, 0, 0, 0, 0, 0], "stateRewards": ["", 1, -1, 4, -2, -75, -75, 84, -9, -60, -79, 59, 2, -4, 8, 9, -17, -82, 80, 14, -4, 49, 49, -1, 3, 6, -11, -33, 34, 55, 9, -57, 5, 59], "withholdReward": false, "trial_id": "mdp_trial_27", "block": "test", "trialIndex": 28, "score": 82.4, "costs": -12.600000000000001, "simulationMode": [null, null, null, null, null], "rewards": [2, -4, 8, 9, 80], "path": ["0", "0", "12", "13", "14", "15", "18"], "rt": [18617, 4, 42, 388, 81], "actions": ["right", "right", "right", "up", "left"], "actionTimes": [19763, 20289, 20843, 21755, 22331], "queries": {"click": {"state": {"target": ["27", "16", "31", "10", "9", "33", "29", "17", "18"], "time": [2024, 3839, 5481, 7120, 8759, 10543, 12152, 14129, 17072]}, "edge": {"target": [], "time": []}}, "mouseover": {"state": {"target": ["23", "24", "26", "27", "12", "13", "19", "16", "7", "2", "31", "2", "10", "9", "11", "28", "30", "33", "30", "30", "25", "29", "26", "24", "23", "13", "14", "17", "18", "13", "22", "21"], "time": [1632, 1699, 1782, 1916, 2449, 2467, 2499, 3132, 4332, 4499, 4916, 6399, 6866, 8249, 9399, 9566, 9666, 9883, 11033, 11216, 11366, 11500, 12599, 12632, 12666, 12816, 12899, 13216, 16583, 17383, 17899, 18766]}, "edge": {"target": [], "time": []}}, "mouseout": {"state": {"target": ["0", "23", "24", "26", "27", "27", "12", "13", "19", "16", "7", "2", "31", "2", "10", "9", "11", "28", "30", "33", "30", "30", "25", "29", "26", "24", "23", "13", "14", "17", "18", "13", "22", "21"], "time": [965, 1665, 1732, 1865, 2093, 2366, 2465, 2482, 2516, 4132, 4366, 4516, 5816, 6582, 7266, 9099, 9483, 9599, 9849, 10613, 11066, 11316, 11433, 12583, 12616, 12649, 12683, 12866, 12966, 14316, 17333, 17433, 18633, 19150]}, "edge": {"target": [], "time": []}}}, "displayed_time": "22.83", "trialTime": 23459, "trial_type": "mouselab-mdp", "trial_index": 35, "time_elapsed": 864135, "internal_node_id": "0.0-6.0-1.0-26.0"}}, {"uniqueid": "w78841436:a24412157", "current_trial": 36, "dateTime": 1693481682527, "trialdata": {"revealed_states": [], "clicked_states": ["11"], "num_clicks_accrued": [0, 0, 0, 0, 0, 0, 0, 0, 0, 0, 0, 0, 0], "stateRewards": ["", 2, 4, 4, 9, -88, -10, 44, 16, -54, 64, 78, 1, 2, 5, 16, 80, 36, 7, -4, 9, -47, -70, -1, -3, 6, -16, 11, 80, 28, 8, -1, 34, -17], "withholdReward": false, "trial_id": "mdp_trial_28", "block": "test", "trialIndex": 29, "score": 102.6, "costs": -1.4, "simulationMode": [null, null, null, null, null], "rewards": [2, 4, 4, 16, 78], "path": ["0", "0", "1", "2", "3", "8", "11"], "rt": [3705, 45, 78, 584, 133], "actions": ["up", "up", "up", "left", "left"], "actionTimes": [4928, 5471, 6055, 7127, 7760], "queries": {"click": {"state": {"target": ["11"], "time": [2213]}, "edge": {"target": [], "time": []}}, "mouseover": {"state": {"target": ["1", "10", "11", "10", "13", "22", "19", "21"], "time": [1575, 1742, 2125, 2525, 2909, 3025, 3075, 3142]}, "edge": {"target": [], "time": []}}, "mouseout": {"state": {"target": ["19", "12", "0", "1", "10", "11", "10", "13", "22", "19", "21", "22"], "time": [591, 875, 1442, 1625, 1809, 2459, 2609, 2992, 3042, 3092, 4325, 10292]}, "edge": {"target": [], "time": []}}}, "displayed_time": "15.22", "trialTime": 16287, "trial_type": "mouselab-mdp", "trial_index": 36, "time_elapsed": 880672, "internal_node_id": "0.0-6.0-1.0-27.0"}}, {"uniqueid": "w78841436:a24412157", "current_trial": 37, "dateTime": 1693481709663, "trialdata": {"revealed_states": [], "clicked_states": ["29", "5", "21", "33", "16", "18", "10", "28", "7", "11", "31", "22"], "num_clicks_accrued": [0, 0, 0, 0, 0, 0, 0, 0, 0, 0, 0, 0, 0], "stateRewards": ["", -1, 2, -7, -12, -62, 12, -13, 5, 77, -71, 83, 1, -4, 7, 15, -42, -87, -4, 5, -25, 44, 88, -1, 4, -5, -8, 14, 51, 8, -5, 83, -24, -19], "withholdReward": false, "trial_id": "mdp_trial_29", "block": "test", "trialIndex": 30, "score": 59.2, "costs": -16.8, "simulationMode": [null, null, null, null, null], "rewards": [-1, 4, -5, -5, 83], "path": ["0", "0", "23", "24", "25", "30", "31"], "rt": [21320, 545, 160, 54, 158], "actions": ["left", "left", "left", "down", "right"], "actionTimes": [22419, 23474, 24123, 24667, 25354], "queries": {"click": {"state": {"target": ["29", "5", "21", "33", "16", "18", "10", "28", "7", "11", "31", "22"], "time": [1696, 3560, 5183, 7248, 8856, 10471, 12104, 13959, 15863, 17383, 18983, 20600]}, "edge": {"target": [], "time": []}}, "mouseover": {"state": {"target": ["23", "24", "25", "29", "26", "28", "10", "2", "4", "5", "4", "7", "13", "21", "21", "33", "33", "33", "30", "23", "12", "13", "15", "16", "18", "2", "10", "10", "24", "28", "2", "7", "2", "11", "31", "22", "22"], "time": [1194, 1276, 1427, 1543, 2293, 2346, 2427, 2494, 2610, 2710, 3860, 3977, 4060, 4110, 4377, 6310, 6510, 7094, 7660, 7844, 7927, 7960, 8227, 8460, 9410, 11027, 11077, 11461, 12577, 13061, 14461, 14544, 16081, 16277, 18277, 19861, 20428]}, "edge": {"target": [], "time": []}}, "mouseout": {"state": {"target": ["0", "23", "24", "25", "29", "26", "28", "10", "2", "4", "5", "4", "7", "13", "21", "21", "33", "33", "33", "30", "23", "12", "13", "15", "16", "18", "2", "10", "10", "10", "24", "28", "2", "7", "2", "11", "11", "31", "22", "22"], "time": [1143, 1260, 1377, 1477, 2260, 2327, 2360, 2460, 2544, 2660, 3794, 3910, 3994, 4077, 4127, 5827, 6394, 6594, 7316, 7727, 7877, 7944, 7994, 8394, 9194, 10777, 11044, 11311, 12167, 12311, 12994, 14161, 14494, 16044, 16113, 17436, 17761, 19611, 20044, 21078]}, "edge": {"target": [], "time": []}}}, "displayed_time": "25.85", "trialTime": 26891, "trial_type": "mouselab-mdp", "trial_index": 37, "time_elapsed": 907807, "internal_node_id": "0.0-6.0-1.0-28.0"}}, {"uniqueid": "w78841436:a24412157", "current_trial": 38, "dateTime": 1693481739159, "trialdata": {"revealed_states": [], "clicked_states": ["22", "28", "5", "32", "16", "17", "20", "21", "11", "29", "33", "9"], "num_clicks_accrued": [0, 0, 0, 0, 0, 0, 0, 0, 0, 0, 0, 0, 0], "stateRewards": ["", -1, -2, -1, -10, -57, 73, -72, -16, 75, -14, -46, -2, -3, -7, -1, -61, -60, 76, -4, 50, 4, 14, 2, 2, -7, 12, -65, -32, 15, -8, -76, -25, -61], "withholdReward": false, "trial_id": "mdp_trial_30", "block": "test", "trialIndex": 31, "score": 38.2, "costs": -16.8, "simulationMode": [null, null, null, null, null], "rewards": [-1, -2, -1, -16, 75], "path": ["0", "0", "1", "2", "3", "8", "9"], "rt": [23409, 68, 557, 98, 107], "actions": ["up", "up", "up", "left", "up"], "actionTimes": [24381, 24956, 26029, 26636, 27245], "queries": {"click": {"state": {"target": ["22", "28", "5", "32", "16", "17", "20", "21", "11", "29", "33", "9"], "time": [2186, 3786, 5314, 7129, 8850, 10681, 12409, 14178, 16074, 17937, 19866, 21690]}, "edge": {"target": [], "time": []}}, "mouseover": {"state": {"target": ["12", "13", "22", "12", "0", "23", "28", "24", "23", "2", "4", "5", "8", "24", "31", "32", "13", "15", "16", "17", "20", "21", "22", "12", "11", "27", "27", "29", "33", "24", "10", "3", "9", "8", "2", "2", "7"], "time": [1353, 1436, 2063, 2620, 2720, 2786, 2870, 4386, 4586, 4853, 5087, 5207, 6053, 6186, 6236, 6586, 7487, 7670, 7886, 9170, 11470, 12937, 14620, 14670, 15137, 16637, 17287, 17570, 18887, 20154, 20221, 20320, 20854, 21954, 22354, 23054, 23254]}, "edge": {"target": [], "time": []}}, "mouseout": {"state": {"target": ["0", "12", "13", "22", "12", "0", "23", "28", "28", "24", "23", "2", "4", "5", "8", "24", "31", "32", "13", "15", "16", "16", "17", "20", "20", "21", "22", "12", "11", "27", "27", "29", "29", "33", "24", "10", "3", "9", "8", "2", "2", "7", "7", "0"], "time": [1319, 1403, 1569, 2486, 2686, 2770, 2803, 3875, 4336, 4403, 4620, 4903, 5153, 5769, 6103, 6203, 6370, 7198, 7537, 7753, 8910, 9087, 10853, 12462, 12703, 14210, 14654, 14689, 16520, 16887, 17487, 18026, 18320, 19943, 20170, 20254, 20359, 21920, 21970, 22504, 23120, 23820, 28187, 28537]}, "edge": {"target": [], "time": []}}}, "displayed_time": "27.74", "trialTime": 29245, "trial_type": "mouselab-mdp", "trial_index": 38, "time_elapsed": 937304, "internal_node_id": "0.0-6.0-1.0-29.0"}}, {"uniqueid": "w78841436:a24412157", "current_trial": 39, "dateTime": 1693481754400, "trialdata": {"revealed_states": [], "clicked_states": ["5", "32", "21", "22", "18"], "num_clicks_accrued": [0, 0, 0, 0, 0, 0, 0, 0, 0, 0, 0, 0, 0], "stateRewards": ["", 2, -2, -3, 10, -4, -1, -11, -8, -9, -36, -78, 2, 1, 7, -7, 44, -1, -31, -1, 26, 47, 83, 2, -4, -4, -6, -52, -76, -81, -1, -59, 45, 67], "withholdReward": false, "trial_id": "mdp_trial_31", "block": "test", "trialIndex": 32, "score": 85, "costs": -7, "simulationMode": [null, null, null, null, null], "rewards": [2, 1, 7, -1, 83], "path": ["0", "0", "12", "13", "14", "19", "22"], "rt": [9499, 40, 577, 149, 107], "actions": ["right", "right", "right", "down", "left"], "actionTimes": [10192, 10727, 11832, 12487, 13095], "queries": {"click": {"state": {"target": ["5", "32", "21", "22", "18"], "time": [1484, 3212, 5020, 6693, 8397]}, "edge": {"target": [], "time": []}}, "mouseover": {"state": {"target": ["1", "2", "3", "5", "18", "19", "21", "32", "21", "22", "13", "18"], "time": [1086, 1135, 1185, 1369, 1819, 1886, 1935, 2402, 4086, 5470, 7208, 7504]}, "edge": {"target": [], "time": []}}, "mouseout": {"state": {"target": ["0", "1", "2", "3", "5", "18", "19", "21", "32", "21", "22", "13", "18"], "time": [1052, 1119, 1169, 1269, 1719, 1836, 1903, 1969, 3275, 5253, 7120, 7386, 8670]}, "edge": {"target": [], "time": []}}}, "displayed_time": "14.69", "trialTime": 14983, "trial_type": "mouselab-mdp", "trial_index": 39, "time_elapsed": 952544, "internal_node_id": "0.0-6.0-1.0-30.0"}}, {"uniqueid": "w78841436:a24412157", "current_trial": 40, "dateTime": 1693481782624, "trialdata": {"revealed_states": [], "clicked_states": ["32", "10", "31", "28", "18", "16", "7", "22", "6", "11", "33", "27"], "num_clicks_accrued": [0, 0, 0, 0, 0, 0, 0, 0, 0, 0, 0, 0, 0], "stateRewards": ["", -1, 2, -6, 6, -82, -19, -39, -16, -83, 11, -33, -2, -2, 4, -6, -82, -1, -19, -6, -10, -67, -41, -2, 1, -7, 16, -23, -78, -52, 14, 31, -71, 74], "withholdReward": false, "trial_id": "mdp_trial_32", "block": "test", "trialIndex": 33, "score": 63.2, "costs": -16.8, "simulationMode": [null, null, null, null, null], "rewards": [-2, 1, -7, 14, 74], "path": ["0", "0", "23", "24", "25", "30", "33"], "rt": [22617, 229, 88, 88, 113], "actions": ["left", "left", "left", "down", "left"], "actionTimes": [23368, 24087, 24663, 25263, 25872], "queries": {"click": {"state": {"target": ["32", "10", "31", "28", "18", "16", "7", "22", "6", "11", "33", "27"], "time": [1583, 3276, 5051, 6772, 8532, 10309, 11877, 13932, 15716, 17412, 19484, 21532]}, "edge": {"target": [], "time": []}}, "mouseover": {"state": {"target": ["0", "31", "32", "0", "2", "8", "10", "2", "1", "23", "31", "24", "28", "1", "18", "16", "16", "7", "13", "22", "13", "6", "11", "33", "25", "26", "29", "27"], "time": [1022, 1156, 1572, 1906, 2239, 2422, 2739, 3522, 3840, 4223, 4506, 5406, 5606, 7106, 7189, 8840, 9123, 10806, 12306, 12590, 14223, 14773, 16790, 18924, 20390, 20523, 20690, 21007]}, "edge": {"target": [], "time": []}}, "mouseout": {"state": {"target": ["13", "12", "0", "31", "32", "0", "2", "8", "10", "10", "2", "1", "23", "31", "24", "28", "1", "18", "16", "16", "7", "13", "22", "13", "7", "6", "11", "11", "33", "25", "26", "29", "27", "26", "24"], "time": [122, 188, 1072, 1306, 1628, 1922, 2356, 2489, 3337, 3489, 3539, 3872, 4289, 5306, 5472, 7056, 7123, 8553, 8856, 10540, 12123, 12423, 14019, 14265, 14406, 16057, 17479, 17907, 20207, 20473, 20640, 20907, 26807, 26923, 27040]}, "edge": {"target": [], "time": []}}}, "displayed_time": "26.38", "trialTime": 27960, "trial_type": "mouselab-mdp", "trial_index": 40, "time_elapsed": 980768, "internal_node_id": "0.0-6.0-1.0-31.0"}}, {"uniqueid": "w78841436:a24412157", "current_trial": 41, "dateTime": 1693481798503, "trialdata": {"revealed_states": [], "clicked_states": ["32", "6"], "num_clicks_accrued": [0, 0, 0, 0, 0, 0, 0, 0, 0, 0, 0, 0, 0], "stateRewards": ["", -2, 2, 2, -6, 9, 37, 50, -13, -7, -18, -75, -2, -4, 4, 7, 23, -57, -66, -7, -81, -48, -76, 1, 1, -8, 1, 51, -2, 70, 14, 59, 71, -37], "withholdReward": false, "trial_id": "mdp_trial_33", "block": "test", "trialIndex": 34, "score": 76.2, "costs": -2.8, "simulationMode": [null, null, null, null, null], "rewards": [1, 1, -8, 14, 71], "path": ["0", "0", "23", "24", "25", "30", "32"], "rt": [4503, 47, 648, 26, 124], "actions": ["left", "left", "left", "down", "down"], "actionTimes": [5668, 6211, 7394, 7938, 8570], "queries": {"click": {"state": {"target": ["32", "6"], "time": [2120, 3783]}, "edge": {"target": [], "time": []}}, "mouseover": {"state": {"target": ["23", "24", "32", "31", "7", "6", "7", "1"], "time": [1595, 1613, 2045, 2578, 2745, 2878, 4311, 4412]}, "edge": {"target": [], "time": []}}, "mouseout": {"state": {"target": ["0", "23", "24", "32", "31", "7", "6", "6", "7", "1", "7", "2", "1"], "time": [1561, 1611, 1628, 2188, 2612, 2812, 3844, 4262, 4328, 11245, 11695, 11729, 14724]}, "edge": {"target": [], "time": []}}}, "displayed_time": "15.16", "trialTime": 15610, "trial_type": "mouselab-mdp", "trial_index": 41, "time_elapsed": 996648, "internal_node_id": "0.0-6.0-1.0-32.0"}}, {"uniqueid": "w78841436:a24412157", "current_trial": 42, "dateTime": 1693481825919, "trialdata": {"revealed_states": [], "clicked_states": ["27", "17", "32", "5", "21", "22", "31", "18", "10", "7", "11", "29", "33"], "num_clicks_accrued": [0, 0, 0, 0, 0, 0, 0, 0, 0, 0, 0, 0, 0], "stateRewards": ["", -1, 3, 1, -11, -22, -36, 19, -5, -70, -52, 50, -2, -4, 4, -2, -41, -83, 29, -2, 22, 10, -6, -2, 3, -2, 14, 54, 44, 77, -9, -65, -37, -40], "withholdReward": false, "trial_id": "mdp_trial_34", "block": "test", "trialIndex": 35, "score": 71.8, "costs": -18.2, "simulationMode": [null, null, null, null, null], "rewards": [-2, 3, -2, 14, 77], "path": ["0", "0", "23", "24", "25", "26", "29"], "rt": [22707, 123, 83, 108, 76], "actions": ["left", "left", "left", "up", "left"], "actionTimes": [23835, 24450, 25026, 25634, 26219], "queries": {"click": {"state": {"target": ["27", "17", "32", "5", "21", "22", "31", "18", "10", "7", "11", "29", "33"], "time": [1712, 3463, 5215, 6880, 8463, 10409, 11943, 13631, 15271, 16944, 18567, 20183, 21879]}, "edge": {"target": [], "time": []}}, "mouseover": {"state": {"target": ["23", "28", "26", "27", "28", "1", "18", "15", "17", "15", "7", "2", "1", "23", "32", "24", "10", "3", "5", "7", "12", "22", "21", "22", "31", "30", "0", "12", "18", "1", "28", "10", "8", "3", "7", "2", "11", "8", "3", "4", "4", "28", "29", "25", "25", "33"], "time": [1308, 1374, 1508, 1624, 1991, 2108, 2191, 2257, 2399, 3974, 4108, 4158, 4208, 4258, 4474, 5507, 5541, 5607, 5807, 7608, 7741, 7841, 8064, 9941, 11058, 12491, 12808, 12891, 13124, 14042, 14141, 15091, 16241, 16341, 16525, 17525, 17841, 19041, 19091, 19175, 19575, 19708, 20025, 20725, 21208, 21575]}, "edge": {"target": [], "time": []}}, "mouseout": {"state": {"target": ["1", "0", "0", "23", "28", "26", "27", "28", "1", "18", "15", "17", "15", "7", "2", "1", "23", "32", "24", "10", "3", "5", "7", "12", "22", "21", "22", "31", "30", "31", "0", "12", "18", "1", "28", "10", "8", "3", "7", "2", "11", "8", "3", "4", "4", "28", "29", "25", "25", "33"], "time": [316, 540, 1224, 1324, 1458, 1524, 1924, 2007, 2124, 2224, 2341, 3908, 4008, 4141, 4191, 4225, 4275, 5441, 5524, 5557, 5641, 7191, 7658, 7758, 7924, 9607, 10808, 12458, 12691, 12724, 12841, 12977, 13958, 14075, 14175, 15324, 16325, 16358, 17308, 17558, 18991, 19075, 19125, 19291, 19591, 19741, 20608, 20758, 21258, 21924]}, "edge": {"target": [], "time": []}}}, "displayed_time": "26.71", "trialTime": 27139, "trial_type": "mouselab-mdp", "trial_index": 42, "time_elapsed": 1024064, "internal_node_id": "0.0-6.0-1.0-33.0"}}, {"uniqueid": "w78841436:a24412157", "current_trial": 43, "dateTime": 1693481842633, "trialdata": {"revealed_states": [], "clicked_states": ["9", "21", "32", "16", "29", "20", "33"], "num_clicks_accrued": [0, 0, 0, 0, 0, 0, 0, 0, 0, 0, 0, 0, 0], "stateRewards": ["", 1, 1, 7, -11, 80, -20, -53, -14, 3, 31, 27, 2, -1, -8, -10, 33, 41, 86, 9, 78, -37, -13, -1, -2, -6, -8, -80, 75, 4, -16, -49, -74, 24], "withholdReward": false, "trial_id": "mdp_trial_35", "block": "test", "trialIndex": 36, "score": 70.2, "costs": -9.8, "simulationMode": [null, null, null, null, null], "rewards": [2, -1, -8, 9, 78], "path": ["0", "0", "12", "13", "14", "19", "20"], "rt": [12455, 25, 92, 109, 141], "actions": ["right", "right", "right", "down", "right"], "actionTimes": [13256, 13783, 14367, 14967, 15600], "queries": {"click": {"state": {"target": ["9", "21", "32", "16", "29", "20", "33"], "time": [1486, 3060, 4668, 6275, 7925, 9564, 11356]}, "edge": {"target": [], "time": []}}, "mouseover": {"state": {"target": ["10", "8", "9", "3", "18", "13", "19", "21", "19", "22", "31", "32", "12", "18", "16", "1", "28", "26", "29", "20", "19", "22", "31", "30", "33"], "time": [1223, 1289, 1406, 1656, 1723, 1789, 1990, 2156, 3723, 3756, 3906, 4190, 5306, 5406, 5873, 6756, 6973, 7040, 7123, 8873, 9757, 9807, 9940, 10073, 10257]}, "edge": {"target": [], "time": []}}, "mouseout": {"state": {"target": ["33", "30", "23", "10", "8", "9", "3", "18", "13", "19", "21", "19", "22", "31", "32", "12", "18", "16", "1", "28", "26", "29", "29", "20", "19", "22", "31", "30", "33"], "time": [156, 189, 505, 1272, 1356, 1623, 1673, 1756, 1806, 2023, 3506, 3740, 3773, 3923, 4990, 5340, 5473, 6540, 6857, 7006, 7090, 7969, 8140, 9740, 9790, 9823, 10024, 10173, 11757]}, "edge": {"target": [], "time": []}}}, "displayed_time": "16.09", "trialTime": 16433, "trial_type": "mouselab-mdp", "trial_index": 43, "time_elapsed": 1040778, "internal_node_id": "0.0-6.0-1.0-34.0"}}, {"uniqueid": "w78841436:a24412157", "current_trial": 44, "dateTime": 1693481862063, "trialdata": {"revealed_states": [], "clicked_states": ["11", "21", "31", "18", "7", "6", "10", "28"], "num_clicks_accrued": [0, 0, 0, 0, 0, 0, 0, 0, 0, 0, 0, 0, 0], "stateRewards": ["", -2, -4, 4, -11, -63, -60, -7, 2, -14, 81, -43, -1, -1, -5, 7, 10, 69, 40, 8, -83, 52, 60, 1, 2, 5, -5, 16, 64, 14, -3, 29, 7, -51], "withholdReward": false, "trial_id": "mdp_trial_36", "block": "test", "trialIndex": 37, "score": 69.8, "costs": -11.200000000000001, "simulationMode": [null, null, null, null, null], "rewards": [-2, -4, 4, 2, 81], "path": ["0", "0", "1", "2", "3", "8", "10"], "rt": [13953, 559, 132, 68, 53], "actions": ["up", "up", "up", "left", "down"], "actionTimes": [15322, 16393, 17033, 17601, 18153], "queries": {"click": {"state": {"target": ["11", "21", "31", "18", "7", "6", "10", "28"], "time": [2152, 3885, 5622, 7174, 8878, 10399, 11998, 13654]}, "edge": {"target": [], "time": []}}, "mouseover": {"state": {"target": ["10", "11", "2", "13", "19", "21", "23", "24", "31", "24", "23", "12", "18", "7", "2", "6", "2", "10", "28"], "time": [1732, 2115, 2365, 2448, 2731, 2898, 4582, 4665, 5032, 6049, 6265, 6332, 6582, 7899, 9165, 9949, 10899, 11032, 12899]}, "edge": {"target": [], "time": []}}, "mouseout": {"state": {"target": ["25", "24", "0", "10", "11", "11", "2", "13", "19", "21", "23", "24", "31", "24", "23", "12", "18", "7", "2", "6", "2", "10", "28", "28"], "time": [114, 314, 1381, 1765, 2211, 2315, 2382, 2465, 2781, 4215, 4632, 4932, 5799, 6232, 6299, 6365, 7699, 9115, 9432, 10716, 10966, 12399, 14049, 14182]}, "edge": {"target": [], "time": []}}}, "displayed_time": "18.65", "trialTime": 19121, "trial_type": "mouselab-mdp", "trial_index": 44, "time_elapsed": 1060207, "internal_node_id": "0.0-6.0-1.0-35.0"}}, {"uniqueid": "w78841436:a24412157", "current_trial": 45, "dateTime": 1693481877815, "trialdata": {"revealed_states": [], "clicked_states": ["32", "5"], "num_clicks_accrued": [0, 0, 0, 0, 0, 0, 0, 0, 0, 0, 0, 0, 0], "stateRewards": ["", -2, 2, -5, 1, 42, -63, -58, -6, 2, 16, 81, -2, 4, 7, -10, 33, 3, -33, -2, -52, -84, -27, 2, -3, -3, 15, -74, -14, -5, -5, -84, 79, -31], "withholdReward": false, "trial_id": "mdp_trial_37", "block": "test", "trialIndex": 38, "score": 67.2, "costs": -2.8, "simulationMode": [null, null, null, null, null], "rewards": [2, -3, -3, -5, 79], "path": ["0", "0", "23", "24", "25", "30", "32"], "rt": [4609, 76, 38, 40, 82], "actions": ["left", "left", "left", "down", "down"], "actionTimes": [5781, 6356, 6884, 7420, 8012], "queries": {"click": {"state": {"target": ["32", "5"], "time": [2153, 3896]}, "edge": {"target": [], "time": []}}, "mouseover": {"state": {"target": ["23", "24", "30", "32", "31", "0", "12", "18", "6", "5"], "time": [1645, 1695, 1895, 2111, 2495, 2561, 2595, 2645, 2878, 3162]}, "edge": {"target": [], "time": []}}, "mouseout": {"state": {"target": ["10", "23", "24", "30", "32", "31", "0", "12", "18", "6", "5", "5", "4"], "time": [461, 1678, 1728, 2012, 2202, 2528, 2578, 2611, 2711, 2962, 3935, 10978, 12112]}, "edge": {"target": [], "time": []}}}, "displayed_time": "15.17", "trialTime": 15452, "trial_type": "mouselab-mdp", "trial_index": 45, "time_elapsed": 1075960, "internal_node_id": "0.0-6.0-1.0-36.0"}}, {"uniqueid": "w78841436:a24412157", "current_trial": 46, "dateTime": 1693481893543, "trialdata": {"revealed_states": [], "clicked_states": ["32", "6", "21"], "num_clicks_accrued": [0, 0, 0, 0, 0, 0, 0, 0, 0, 0, 0, 0, 0], "stateRewards": ["", -1, -1, 4, -16, -75, 81, -51, -7, -84, 73, -30, -2, 1, -3, -16, -77, 33, 14, 1, 45, 87, -66, 2, 2, -5, -7, -19, -17, 79, -3, 8, 49, 47], "withholdReward": false, "trial_id": "mdp_trial_38", "block": "test", "trialIndex": 39, "score": 62.8, "costs": -4.199999999999999, "simulationMode": [null, null, null, null, null], "rewards": [-1, -1, 4, -16, 81], "path": ["0", "0", "1", "2", "3", "4", "6"], "rt": [6426, 404, 104, 528, 70], "actions": ["up", "up", "up", "right", "right"], "actionTimes": [7456, 8359, 8959, 9983, 10559], "queries": {"click": {"state": {"target": ["32", "6", "21"], "time": [2404, 4107, 5821]}, "edge": {"target": [], "time": []}}, "mouseover": {"state": {"target": ["0", "23", "24", "25", "33", "32", "31", "12", "6", "18", "13", "22", "21"], "time": [1421, 1471, 1504, 1554, 1621, 2371, 2754, 2854, 3754, 4937, 4971, 5054, 5321]}, "edge": {"target": [], "time": []}}, "mouseout": {"state": {"target": ["0", "23", "24", "25", "33", "32", "31", "12", "6", "18", "13", "22", "21", "19", "14", "19"], "time": [1437, 1487, 1537, 1571, 1688, 2444, 2770, 2888, 4721, 4954, 5021, 5088, 6238, 11604, 11971, 12055]}, "edge": {"target": [], "time": []}}}, "displayed_time": "15.03", "trialTime": 15455, "trial_type": "mouselab-mdp", "trial_index": 46, "time_elapsed": 1091688, "internal_node_id": "0.0-6.0-1.0-37.0"}}, {"uniqueid": "w78841436:a24412157", "current_trial": 47, "dateTime": 1693481914447, "trialdata": {"revealed_states": [], "clicked_states": ["27", "21", "6", "31", "28", "18", "22", "10", "7"], "num_clicks_accrued": [0, 0, 0, 0, 0, 0, 0, 0, 0, 0, 0, 0, 0], "stateRewards": ["", -2, -1, -5, 10, -36, -70, 68, -9, 86, 71, -10, 2, -4, 7, -7, 66, 44, -66, -13, -69, 43, 15, -2, 2, 6, -13, 62, 57, 50, -10, -69, 42, -72], "withholdReward": false, "trial_id": "mdp_trial_39", "block": "test", "trialIndex": 40, "score": 41.4, "costs": -12.600000000000001, "simulationMode": [null, null, null, null, null], "rewards": [-2, -1, -5, -9, 71], "path": ["0", "0", "1", "2", "3", "8", "10"], "rt": [15779, 762, 151, 53, 63], "actions": ["up", "up", "up", "left", "down"], "actionTimes": [16737, 18001, 18641, 19192, 19768], "queries": {"click": {"state": {"target": ["27", "21", "6", "31", "28", "18", "22", "10", "7"], "time": [1437, 3005, 4541, 6509, 8069, 9613, 11173, 12885, 14614]}, "edge": {"target": [], "time": []}}, "mouseover": {"state": {"target": ["27", "1", "13", "21", "20", "16", "6", "4", "2", "23", "31", "31", "24", "28", "12", "13", "18", "13", "22", "12", "1", "10", "7", "1"], "time": [1304, 1604, 1637, 2321, 3837, 4087, 4170, 5237, 5321, 5471, 5571, 5787, 7254, 7388, 8504, 8738, 9271, 10038, 10188, 11605, 11654, 11704, 13771, 14921]}, "edge": {"target": [], "time": []}}, "mouseout": {"state": {"target": ["21", "0", "27", "1", "13", "21", "20", "16", "6", "4", "2", "23", "31", "31", "31", "24", "28", "28", "12", "13", "18", "13", "22", "12", "1", "10", "7"], "time": [420, 1037, 1571, 1620, 1654, 3604, 3904, 4120, 5187, 5254, 5354, 5487, 5637, 6821, 7188, 7321, 8098, 8371, 8554, 9171, 9988, 10104, 11537, 11621, 11671, 13488, 14821]}, "edge": {"target": [], "time": []}}}, "displayed_time": "20.29", "trialTime": 20608, "trial_type": "mouselab-mdp", "trial_index": 47, "time_elapsed": 1112592, "internal_node_id": "0.0-6.0-1.0-38.0"}}, {"uniqueid": "w78841436:a24412157", "current_trial": 48, "dateTime": 1693481930128, "trialdata": {"revealed_states": [], "clicked_states": ["9", "32", "18", "28"], "num_clicks_accrued": [0, 0, 0, 0, 0, 0, 0, 0, 0, 0, 0, 0, 0], "stateRewards": ["", 1, 2, 8, -2, 23, -69, -18, -16, 54, -21, 71, -1, -4, 7, 11, 43, -6, 88, 6, -55, 72, 43, 1, -3, -2, -1, 68, -31, -54, 4, -8, 25, -2], "withholdReward": false, "trial_id": "mdp_trial_40", "block": "test", "trialIndex": 41, "score": 95.4, "costs": -5.6, "simulationMode": [null, null, null, null, null], "rewards": [-1, -4, 7, 11, 88], "path": ["0", "0", "12", "13", "14", "15", "18"], "rt": [7968, 60, 46, 39, 42], "actions": ["right", "right", "right", "up", "left"], "actionTimes": [8936, 9495, 10031, 10591, 11143], "queries": {"click": {"state": {"target": ["9", "32", "18", "28"], "time": [2036, 3644, 5563, 7164]}, "edge": {"target": [], "time": []}}, "mouseover": {"state": {"target": ["1", "2", "8", "9", "25", "30", "32", "19", "20", "15", "18", "13", "12", "28", "28"], "time": [1650, 1767, 1866, 1916, 2800, 2850, 3083, 4184, 4217, 4667, 4967, 5900, 5950, 6018, 6283]}, "edge": {"target": [], "time": []}}, "mouseout": {"state": {"target": ["1", "2", "8", "9", "9", "25", "30", "32", "19", "20", "15", "18", "13", "12", "28", "28"], "time": [1683, 1800, 1883, 2091, 2533, 2833, 2933, 3745, 4200, 4267, 4700, 5817, 5917, 5967, 6050, 12251]}, "edge": {"target": [], "time": []}}}, "displayed_time": "14.97", "trialTime": 15383, "trial_type": "mouselab-mdp", "trial_index": 48, "time_elapsed": 1128272, "internal_node_id": "0.0-6.0-1.0-39.0"}}, {"uniqueid": "w78841436:a24412157", "current_trial": 49, "dateTime": 1693481966383, "trialdata": {"rt": 36252, "response": {"Q0": "$-2 to $2", "Q1": "$-32 to $32", "Q2": "$-88 to $88", "Q3": "The cost was always $1.4.", "Q4": "Very motivated"}, "question_order": [0, 1, 2, 3, 4], "trial_id": "final_quiz_control", "trial_type": "survey-multi-choice", "trial_index": 49, "time_elapsed": 1164528, "internal_node_id": "0.0-6.0-2.0"}}, {"uniqueid": "w78841436:a24412157", "current_trial": 50, "dateTime": 1693482007639, "trialdata": {"rt": 41249, "response": {"Q0": "FOcus on the big ticket nodes. Only check the last ones to find a high number and go for it.", "Q1": "No, pretty much stuck to the one strategy from the start.", "Q2": "Went smoothly,"}, "trial_id": "self_report_control", "trial_type": "survey-text", "trial_index": 50, "time_elapsed": 1205784, "internal_node_id": "0.0-6.0-3.0"}}, {"uniqueid": "w78841436:a24412157", "current_trial": 51, "dateTime": 1693482016487, "trialdata": {"rt": 8845, "response": {"gender": "male", "age": "21", "colorblind": "0", "effort": "0"}, "trial_type": "survey-html-form", "trial_index": 51, "time_elapsed": 1214632, "internal_node_id": "0.0-6.0-4.0"}}, {"uniqueid": "w78841436:a24412157", "current_trial": 52, "dateTime": 1693482025327, "trialdata": {"rt": 8835, "response": {"Q0": "No", "Q1": "No", "Q2": "No"}, "trial_type": "survey-text", "trial_index": 52, "time_elapsed": 1223472, "internal_node_id": "0.0-6.0-5.0"}}, {"uniqueid": "w78841436:a24412157", "current_trial": 53, "dateTime": 1693482039191, "trialdata": {"rt": 13861, "stimulus": "<h1>Completion Code Instructions (1/2)</h1>\n<br><br><br><br>\nYou have reached the end of the experiment! The completion code consists of two parts: (1) a code with 2 characters (2) a code with 6 characters. On this page, you will receive the second part of the code. The first part of the completion code will be on the next page.\n<br><br>\nThe second part of your completion code is: <b>EWEK22</b>\n<br><br>\nPlease note this down. Then, press 'Finish HIT' in order to find the first part of your completion code. Once the data has been saved, you will receive this code either in this window or in the original browser window where you started the experiment.\n", "response": 0, "trial_type": "html-button-response", "trial_index": 53, "time_elapsed": 1237336, "internal_node_id": "0.0-6.0-6.0"}}, {"uniqueid": "w78841436:a24412157", "current_trial": 54, "dateTime": 1693482040194, "trialdata": {"success": true, "trial_type": "fullscreen", "trial_index": 54, "time_elapsed": 1238339, "internal_node_id": "0.0-7.0"}}], "questiondata": {"params": {"CODE": "C6DMOQA6", "MIN_TIME": 14, "inspectCost": 1, "startTime": "Thu Aug 31 2023 23:20:00 GMT+1200 (New Zealand Standard Time)", "bonusRate": 0.002, "variance": "1_2_4_8_44", "branching": "31123"}, "final_score": 2616}, "eventdata": [{"eventtype": "initialized", "value": null, "timestamp": 1693480800114, "interval": 0}, {"eventtype": "window_resize", "value": [1024, 767], "timestamp": 1693480800115, "interval": 1}, {"eventtype": "window_resize", "value": [1024, 767], "timestamp": 1693480800536, "interval": 421}, {"eventtype": "window_resize", "value": [1920, 1080], "timestamp": 1693480804988, "interval": 4452}, {"eventtype": "window_resize", "value": [1024, 767], "timestamp": 1693482039410, "interval": 1234422}], "useragent": "Mozilla/5.0 (Windows NT 10.0; Win64; x64) AppleWebKit/537.36 (KHTML, like Gecko) Chrome/116.0.0.0 Safari/537.36", "mode": "live", "id": "w78841436:a24412157", "status": "user data saved", "Beginhit": "2023-08-31 11:19:58.307925", "Beginexp": "2023-08-31 11:20:05.93107", "Endhit": "2023-08-31 11:40:40.981429", "psiturkStatus": 3, "browser": "<redacted>", "platform": "windows", "language": "en-GB"}