{"condition": 1, "counterbalance": 0, "assignmentId": "a98777063", "workerId": "w85592520", "hitId": "h60134759", "currenttrial": 8, "bonus": 0, "data": [{"uniqueid": "w85592520:a98777063", "current_trial": 0, "dateTime": 1693564800451, "trialdata": {"success": true, "trial_type": "fullscreen", "trial_index": 0, "time_elapsed": 10753, "internal_node_id": "0.0-0.0"}}, {"uniqueid": "w85592520:a98777063", "current_trial": 1, "dateTime": 1693564831788, "trialdata": {"view_history": [{"page_index": 0, "viewing_time": 31330}], "rt": 31330, "trial_id": "exp_instructions_misaligned", "trial_type": "instructions", "trial_index": 1, "time_elapsed": 42091, "internal_node_id": "0.0-1.0"}}, {"uniqueid": "w85592520:a98777063", "current_trial": 2, "dateTime": 1693565050201, "trialdata": {"view_history": [{"page_index": 0, "viewing_time": 74363}, {"page_index": 1, "viewing_time": 95383}, {"page_index": 2, "viewing_time": 32248}, {"page_index": 3, "viewing_time": 16419}], "rt": 218413, "trial_id": "mouselab_instructions_1_misaligned", "trial_type": "instructions", "trial_index": 2, "time_elapsed": 260504, "internal_node_id": "0.0-2.0-1.0"}}, {"uniqueid": "w85592520:a98777063", "current_trial": 3, "dateTime": 1693565175267, "trialdata": {"revealed_states": [], "clicked_states": ["1", "2", "3", "8", "9", "12", "13", "15", "16", "23", "24", "25", "30", "32", "26", "27", "14", "19", "20", "21", "17", "18", "4", "6", "7", "5", "10", "11"], "num_clicks_accrued": [0, 0, 0, 0, 0, 0, 0, 0, 0, 0, 0, 0, 0], "stateRewards": ["", -10, -10, -10, -10, 10, -10, -10, 10, -10, -10, 10, -10, 10, 10, -10, -10, 10, 10, 10, -10, 10, -10, -10, -10, 10, 10, -10, -10, 10, -10, -10, -10, -10], "withholdReward": false, "trial_id": "practice_1", "block": "test", "trialIndex": 0, "score": 19.5, "costs": -14, "simulationMode": [null, null, null, null, null], "rewards": [-10, 10, 10, 10, 10], "path": ["0", "0", "12", "13", "14", "19", "21"], "rt": [107688, 751, 173, 2133, 493], "actions": ["right", "right", "right", "down", "down"], "actionTimes": [110309, 111590, 112314, 114973, 116014], "queries": {"click": {"state": {"target": ["1", "2", "3", "8", "9", "12", "13", "15", "16", "23", "24", "25", "30", "32", "26", "27", "14", "19", "20", "21", "17", "18", "4", "6", "7", "5", "10", "11"], "time": [6668, 8399, 10428, 11896, 13433, 20716, 22122, 25173, 26527, 28166, 29221, 30306, 32310, 33530, 36736, 37922, 46422, 47645, 48763, 55133, 59528, 60982, 70280, 72530, 74554, 75975, 77325, 78498]}, "edge": {"target": [], "time": []}}, "mouseover": {"state": {"target": ["1", "2", "3", "8", "9", "8", "10", "1", "12", "13", "14", "15", "16", "1", "23", "24", "25", "30", "32", "25", "26", "27", "1", "18", "15", "14", "22", "0", "12", "13", "14", "14", "19", "20", "19", "21", "19", "14", "15", "15", "17", "15", "18", "16", "16", "7", "4", "6", "7", "4", "5", "3", "10", "11", "23", "23", "24", "28"], "time": [5800, 7569, 9870, 11430, 12870, 18501, 18526, 19829, 20198, 21573, 22611, 23665, 25879, 27397, 27686, 28820, 29850, 30831, 33180, 35923, 36100, 37451, 38682, 38714, 39052, 39542, 43653, 44152, 45342, 45398, 45454, 45987, 47248, 48318, 53925, 54246, 57053, 57150, 57311, 57826, 58953, 60311, 60480, 61565, 61761, 69466, 69738, 72191, 74009, 75271, 75552, 76606, 76928, 77869, 96389, 100126, 100616, 100963]}, "edge": {"target": [], "time": []}}, "mouseout": {"state": {"target": ["0", "1", "2", "3", "8", "9", "8", "10", "1", "12", "13", "14", "15", "16", "1", "23", "24", "25", "30", "32", "30", "25", "26", "27", "1", "18", "15", "14", "22", "0", "12", "13", "14", "14", "19", "20", "19", "21", "19", "14", "15", "15", "17", "15", "18", "16", "16", "7", "4", "6", "4", "7", "4", "5", "3", "10", "11", "23", "23", "24"], "time": [1900, 7456, 9797, 11295, 12789, 18462, 18509, 18549, 19868, 21477, 22554, 23488, 25691, 27345, 27404, 28692, 29697, 30780, 32979, 33537, 35850, 35987, 37387, 38602, 38694, 38727, 39503, 43581, 43798, 45310, 45366, 45431, 45495, 47087, 48278, 53877, 54118, 56989, 57110, 57206, 57359, 57882, 60255, 60399, 61000, 61606, 69256, 69690, 71032, 73445, 73469, 75215, 75335, 76510, 76627, 77339, 96076, 96413, 100133, 100891]}, "edge": {"target": [], "time": []}}}, "displayed_time": "116.57", "trialTime": 124386, "trial_type": "mouselab-mdp", "trial_index": 3, "time_elapsed": 385570, "internal_node_id": "0.0-2.0-2.0-0.0"}}, {"uniqueid": "w85592520:a98777063", "current_trial": 4, "dateTime": 1693565247591, "trialdata": {"revealed_states": [], "clicked_states": ["12", "14", "13", "19", "21", "15", "16", "23", "24", "25", "30", "32", "33", "31", "26", "27", "29", "28", "1"], "num_clicks_accrued": [0, 0, 0, 0, 0, 0, 0, 0, 0, 0, 0, 0, 0], "stateRewards": ["", 10, -10, -10, -10, -10, 10, -10, 10, -10, -10, -10, -10, -10, 10, -10, 10, -10, 10, -10, -10, -10, -10, 10, -10, 10, 10, -10, 10, -10, 10, 10, -10, 10], "withholdReward": false, "trial_id": "practice_2", "block": "test", "trialIndex": 1, "score": 4, "costs": -9.5, "simulationMode": [null, null, null, null, null], "rewards": [10, -10, 10, 10, -10], "path": ["0", "0", "23", "24", "25", "30", "32"], "rt": [39633, 612, 7175, 4395, 7038], "actions": ["left", "left", "left", "down", "down"], "actionTimes": [45770, 46924, 54653, 59574, 67166], "queries": {"click": {"state": {"target": ["12", "14", "13", "19", "21", "15", "16", "23", "24", "25", "30", "32", "33", "31", "26", "27", "29", "28", "1"], "time": [7776, 9878, 10983, 12636, 14763, 16568, 17721, 19344, 20970, 22641, 24093, 26755, 28213, 29368, 32938, 34177, 35396, 36600, 38375]}, "edge": {"target": [], "time": []}}, "mouseover": {"state": {"target": ["12", "12", "13", "14", "13", "19", "21", "14", "15", "16", "13", "0", "23", "24", "25", "30", "32", "33", "30", "31", "26", "27", "29", "28", "1", "0", "1", "1"], "time": [6917, 7327, 8219, 9249, 10609, 12241, 13173, 15787, 16069, 17195, 18393, 18634, 18996, 19993, 21570, 23139, 24996, 27691, 28809, 28899, 30273, 33740, 35016, 36149, 37450, 42121, 43239, 44823]}, "edge": {"target": [], "time": []}}, "mouseout": {"state": {"target": ["28", "28", "11", "10", "0", "12", "12", "13", "14", "13", "14", "19", "21", "19", "14", "15", "16", "15", "13", "0", "23", "24", "25", "30", "30", "32", "33", "30", "31", "26", "27", "29", "26", "28", "1", "0", "1", "1", "0", "1", "24", "30"], "time": [4217, 4271, 4536, 4593, 6885, 6957, 8117, 9120, 10533, 11493, 12168, 13118, 15675, 15755, 15827, 17117, 18305, 18337, 18409, 18964, 19890, 21489, 23066, 24099, 24849, 27409, 28793, 28849, 30120, 33562, 34697, 35887, 36000, 37222, 41977, 43167, 43448, 45001, 49727, 50668, 56885, 69524]}, "edge": {"target": [], "time": []}}}, "displayed_time": "67.71", "trialTime": 71751, "trial_type": "mouselab-mdp", "trial_index": 4, "time_elapsed": 457894, "internal_node_id": "0.0-2.0-2.0-1.0"}}, {"uniqueid": "w85592520:a98777063", "current_trial": 5, "dateTime": 1693565317438, "trialdata": {"view_history": [{"page_index": 0, "viewing_time": 50167}, {"page_index": 1, "viewing_time": 19678}], "rt": 69846, "trial_id": "mouselab_instructions_2_misaligned", "trial_type": "instructions", "trial_index": 5, "time_elapsed": 527741, "internal_node_id": "0.0-2.0-3.0"}}, {"uniqueid": "w85592520:a98777063", "current_trial": 6, "dateTime": 1693565414219, "trialdata": {"rt": 96777, "response": {"Q0": "The cost for clicking on nodes may vary between nodes.", "Q1": "The better I perform the higher my bonus will be.", "Q2": "No, the structure of the web will be different each time.", "Q3": "To get the highest total score.", "Q4": "Any time during the round.", "Q5": "3 seconds"}, "question_order": [0, 1, 2, 3, 4, 5], "correct": {"Q0": "The cost for clicking on nodes may vary between nodes.", "Q1": "The better I perform the higher my bonus will be.", "Q2": "No, the amount of cash at each node of the web may be different each time.", "Q3": "To get the highest total score.", "Q4": "Only before moving the spider.", "Q5": "3 seconds"}, "trial_id": "mouselab_quiz_misaligned", "trial_type": "survey-multi-choice", "trial_index": 6, "time_elapsed": 624522, "internal_node_id": "0.0-2.0-4.0"}}, {"uniqueid": "w85592520:a98777063", "current_trial": 7, "dateTime": 1693565428022, "trialdata": {"success": true, "trial_type": "fullscreen", "trial_index": 7, "time_elapsed": 638325, "internal_node_id": "0.0-2.1-0.1-0.1"}}], "questiondata": {"params": {"CODE": "C6DMOQA6", "MIN_TIME": 14, "inspectCost": 1, "startTime": "Fri Sep 01 2023 12:39:45 GMT+0200 (South Africa Standard Time)", "bonusRate": 0.002, "variance": "1_2_4_8_44", "branching": "31123"}}, "eventdata": [{"eventtype": "initialized", "value": null, "timestamp": 1693564785088, "interval": 0}, {"eventtype": "window_resize", "value": [1024, 740], "timestamp": 1693564785088, "interval": 0}, {"eventtype": "window_resize", "value": [1024, 740], "timestamp": 1693564785701, "interval": 613}, {"eventtype": "window_resize", "value": [1440, 900], "timestamp": 1693564799697, "interval": 13996}, {"eventtype": "focus", "value": "off", "timestamp": 1693565424366, "interval": 624669}, {"eventtype": "focus", "value": "on", "timestamp": 1693565424366, "interval": 0}, {"eventtype": "window_resize", "value": [1024, 740], "timestamp": 1693565424568, "interval": 202}, {"eventtype": "window_resize", "value": [1440, 900], "timestamp": 1693565427264, "interval": 2696}, {"eventtype": "window_resize", "value": [1024, 740], "timestamp": 1693565432775, "interval": 5511}], "useragent": "Mozilla/5.0 (Macintosh; Intel Mac OS X 10_15_7) AppleWebKit/605.1.15 (KHTML, like Gecko) Version/16.6 Safari/605.1.15", "mode": "live", "id": "w85592520:a98777063", "status": "user data saved", "Beginhit": "2023-09-01 10:39:38.029495", "Beginexp": "2023-09-01 10:40:00.965132", "Endhit": null, "psiturkStatus": 2, "browser": "<redacted>", "platform": "macos", "language": "en-GB", "excludeReason": "quizfail"}