{"condition": 1, "counterbalance": 0, "assignmentId": "a43458876", "workerId": "w52893686", "hitId": "h13088142", "currenttrial": 56, "bonus": 0, "data": [{"uniqueid": "w52893686:a43458876", "current_trial": 0, "dateTime": 1693566647253, "trialdata": {"success": true, "trial_type": "fullscreen", "trial_index": 0, "time_elapsed": 17669, "internal_node_id": "0.0-0.0"}}, {"uniqueid": "w52893686:a43458876", "current_trial": 1, "dateTime": 1693566791438, "trialdata": {"view_history": [{"page_index": 0, "viewing_time": 144164}], "rt": 144170, "trial_id": "exp_instructions_misaligned", "trial_type": "instructions", "trial_index": 1, "time_elapsed": 161854, "internal_node_id": "0.0-1.0"}}, {"uniqueid": "w52893686:a43458876", "current_trial": 2, "dateTime": 1693567324233, "trialdata": {"view_history": [{"page_index": 0, "viewing_time": 170460}, {"page_index": 1, "viewing_time": 221266}, {"page_index": 2, "viewing_time": 59390}, {"page_index": 3, "viewing_time": 81665}], "rt": 532782, "trial_id": "mouselab_instructions_1_misaligned", "trial_type": "instructions", "trial_index": 2, "time_elapsed": 694647, "internal_node_id": "0.0-2.0-1.0"}}, {"uniqueid": "w52893686:a43458876", "current_trial": 3, "dateTime": 1693567371636, "trialdata": {"revealed_states": [], "clicked_states": ["26", "28", "27", "25", "24", "23", "3", "8", "9", "11", "5"], "num_clicks_accrued": [0, 0, 0, 0, 0, 0, 0, 0, 0, 0, 0, 0, 0], "stateRewards": ["", 10, 10, 10, 10, -10, 10, 10, -10, 10, -10, 10, 10, -10, 10, -10, 10, 10, -10, 10, -10, -10, 10, -10, 10, -10, 10, 10, 10, -10, -10, -10, -10, -10], "withholdReward": false, "trial_id": "practice_1", "block": "test", "trialIndex": 0, "score": 28, "costs": -5.5, "simulationMode": [null, null, null, null, null], "rewards": [10, 10, 10, 10, -10], "path": ["0", "0", "1", "2", "3", "4", "5"], "rt": [26455, 235, 514, 418, 609], "actions": ["up", "up", "up", "right", "up"], "actionTimes": [35367, 36070, 37103, 38024, 39148], "queries": {"click": {"state": {"target": ["26", "28", "27", "25", "24", "23", "3", "8", "9", "11", "5"], "time": [10740, 12979, 14205, 17240, 18624, 19717, 21636, 23133, 24777, 28165, 30930]}, "edge": {"target": [], "time": []}}, "mouseover": {"state": {"target": ["26", "28", "27", "27", "23", "26", "29", "25", "24", "23", "2", "3", "8", "9", "11", "3", "4", "5", "4", "7", "1"], "time": [10319, 11398, 13522, 13785, 15865, 15933, 16000, 16333, 18104, 19269, 20900, 21225, 22420, 24067, 27784, 29547, 30169, 30293, 32284, 32417, 32601]}, "edge": {"target": [], "time": []}}, "mouseout": {"state": {"target": ["0", "26", "28", "27", "27", "23", "26", "29", "25", "24", "23", "2", "3", "8", "9", "11", "3", "4", "5", "4", "7", "1", "0"], "time": [1641, 11253, 13175, 13538, 15201, 15890, 15950, 16254, 18035, 19219, 20619, 20950, 22386, 24019, 25485, 29039, 30133, 30185, 32150, 32384, 32451, 32825, 41242]}, "edge": {"target": [], "time": []}}}, "displayed_time": "39.66", "trialTime": 46140, "trial_type": "mouselab-mdp", "trial_index": 3, "time_elapsed": 742050, "internal_node_id": "0.0-2.0-2.0-0.0"}}, {"uniqueid": "w52893686:a43458876", "current_trial": 4, "dateTime": 1693567410730, "trialdata": {"revealed_states": [], "clicked_states": ["17", "16", "15", "18", "14", "13", "12"], "num_clicks_accrued": [0, 0, 0, 0, 0, 0, 0, 0, 0, 0, 0, 0, 0], "stateRewards": ["", 10, -10, -10, -10, -10, 10, 10, -10, -10, -10, 10, -10, 10, 10, 10, -10, 10, 10, -10, -10, -10, 10, -10, 10, 10, -10, -10, 10, 10, -10, 10, -10, -10], "withholdReward": false, "trial_id": "practice_2", "block": "test", "trialIndex": 1, "score": 10, "costs": -3.5, "simulationMode": [null, null, null, null, null], "rewards": [-10, 10, 10, 10, -10], "path": ["0", "0", "12", "13", "14", "15", "16"], "rt": [20556, 312, 686, 1146, 924], "actions": ["right", "right", "right", "up", "up"], "actionTimes": [23985, 24818, 26008, 27652, 29081], "queries": {"click": {"state": {"target": ["17", "16", "15", "18", "14", "13", "12"], "time": [4774, 6559, 7814, 9277, 11040, 14115, 21956]}, "edge": {"target": [], "time": []}}, "mouseover": {"state": {"target": ["15", "17", "15", "16", "15", "18", "14", "13", "12", "0", "12", "12"], "time": [4102, 4327, 5752, 6083, 7436, 8869, 10154, 13783, 16628, 17983, 21135, 21485]}, "edge": {"target": [], "time": []}}, "mouseout": {"state": {"target": ["0", "15", "17", "15", "16", "15", "18", "18", "14", "13", "12", "0", "12", "12", "0"], "time": [3865, 4184, 5419, 6030, 7302, 8030, 9474, 9993, 13702, 16454, 16818, 18023, 21152, 22720, 31853]}, "edge": {"target": [], "time": []}}}, "displayed_time": "29.61", "trialTime": 38434, "trial_type": "mouselab-mdp", "trial_index": 4, "time_elapsed": 781144, "internal_node_id": "0.0-2.0-2.0-1.0"}}, {"uniqueid": "w52893686:a43458876", "current_trial": 5, "dateTime": 1693567509090, "trialdata": {"view_history": [{"page_index": 0, "viewing_time": 83939}, {"page_index": 1, "viewing_time": 14408}], "rt": 98351, "trial_id": "mouselab_instructions_2_misaligned", "trial_type": "instructions", "trial_index": 5, "time_elapsed": 879506, "internal_node_id": "0.0-2.0-3.0"}}, {"uniqueid": "w52893686:a43458876", "current_trial": 6, "dateTime": 1693567581130, "trialdata": {"rt": 72003, "response": {"Q0": "The cost for clicking on nodes may vary between nodes.", "Q1": "The better I perform the higher my bonus will be.", "Q2": "No, the amount of cash at each node of the web may be different each time.", "Q3": "To get the highest total score.", "Q4": "Only before moving the spider.", "Q5": "3 seconds"}, "question_order": [0, 1, 2, 3, 4, 5], "correct": {"Q0": "The cost for clicking on nodes may vary between nodes.", "Q1": "The better I perform the higher my bonus will be.", "Q2": "No, the amount of cash at each node of the web may be different each time.", "Q3": "To get the highest total score.", "Q4": "Only before moving the spider.", "Q5": "3 seconds"}, "trial_id": "mouselab_quiz_misaligned", "trial_type": "survey-multi-choice", "trial_index": 6, "time_elapsed": 951546, "internal_node_id": "0.0-2.0-4.0"}}, {"uniqueid": "w52893686:a43458876", "current_trial": 7, "dateTime": 1693567604197, "trialdata": {"rt": 23048, "response": {"Q0": "No"}, "question_order": [0], "trial_id": "repeat_check", "trial_type": "survey-multi-choice", "trial_index": 7, "time_elapsed": 974611, "internal_node_id": "0.0-4.0-0.0"}}, {"uniqueid": "w52893686:a43458876", "current_trial": 8, "dateTime": 1693567754439, "trialdata": {"rt": 150214, "stimulus": "\n<h1> Get ready to start the game! </h1>\n\nThank you for reading the instructions. Get ready start with the 40 rounds of this game.\n<br><br>\nIf you need to take a break, feel free to take one after the end of a round, before continuing to the next one.\n<br><br>\nRemember, the more money the spider gets, the bigger your bonus will be!\n<br><br>\n<div style='text-align: center;'>Press <code>space</code> to begin.</div>\n\n<br><br>\n(If, at any point, the <code>space</code> key does not take you to the next page, click once on the text and try again.)", "response": " ", "trial_id": "mdp_ready", "trial_type": "html-keyboard-response", "trial_index": 8, "time_elapsed": 1124855, "internal_node_id": "0.0-6.0-0.0"}}, {"uniqueid": "w52893686:a43458876", "current_trial": 9, "dateTime": 1693567789554, "trialdata": {"revealed_states": [], "clicked_states": ["3", "8", "9", "4", "5"], "num_clicks_accrued": [0, 0, 0, 0, 0, 0, 0, 0, 0, 0, 0, 0, 0], "stateRewards": ["", -2, 2, 8, -6, -25, 3, 87, 2, -62, -2, 74, -2, -1, 2, -1, 79, 49, -37, -14, 5, 67, -9, -1, 2, -2, 5, 15, 38, 32, -14, -38, -38, 30], "withholdReward": false, "trial_id": "mdp_trial_1", "block": "test", "trialIndex": 2, "score": 75.65, "costs": -8.35, "simulationMode": [null, null, null, null, null], "rewards": [-2, 2, 8, 2, 74], "path": ["0", "0", "1", "2", "3", "8", "11"], "rt": [14594, 318, 408, 1167, 459], "actions": ["up", "up", "up", "left", "left"], "actionTimes": [21057, 21880, 22801, 24477, 25435], "queries": {"click": {"state": {"target": ["3", "8", "9", "4", "5"], "time": [7694, 8563, 9865, 13833, 15352]}, "edge": {"target": [], "time": []}}, "mouseover": {"state": {"target": ["2", "3", "8", "9", "9", "5", "4", "5", "4", "5", "6", "7", "1", "0", "0"], "time": [6860, 7172, 8275, 9308, 9557, 10341, 11674, 11851, 13406, 14858, 16341, 19189, 19307, 19424, 20106]}, "edge": {"target": [], "time": []}}, "mouseout": {"state": {"target": ["0", "2", "3", "8", "9", "9", "5", "4", "5", "4", "5", "4", "6", "7", "1", "0", "0", "23"], "time": [6822, 6889, 8176, 9057, 9396, 10079, 11475, 11791, 13339, 14722, 15858, 16036, 19123, 19207, 19356, 19442, 20191, 30307]}, "edge": {"target": [], "time": []}}}, "displayed_time": "25.94", "trialTime": 34437, "trial_type": "mouselab-mdp", "trial_index": 9, "time_elapsed": 1159969, "internal_node_id": "0.0-6.0-1.0-0.0"}}, {"uniqueid": "w52893686:a43458876", "current_trial": 10, "dateTime": 1693567830052, "trialdata": {"revealed_states": [], "clicked_states": ["17", "16", "15", "18", "13"], "num_clicks_accrued": [0, 0, 0, 0, 0, 0, 0, 0, 0, 0, 0, 0, 0], "stateRewards": ["", -1, -4, -1, -5, -28, -23, -15, -15, -38, 59, -87, 2, 2, -5, 9, -55, -39, -71, -6, 85, -85, -11, -1, -2, 5, -10, 1, 25, 41, -4, 69, -35, 86], "withholdReward": false, "trial_id": "mdp_trial_2", "block": "test", "trialIndex": 3, "score": -39.35, "costs": -8.35, "simulationMode": [null, null, null, null, null], "rewards": [2, 2, -5, 9, -39], "path": ["0", "0", "12", "13", "14", "15", "17"], "rt": [21585, 494, 362, 843, 442], "actions": ["right", "right", "right", "up", "right"], "actionTimes": [24509, 25528, 26403, 27742, 28690], "queries": {"click": {"state": {"target": ["17", "16", "15", "18", "13"], "time": [4251, 7385, 12813, 14882, 18596]}, "edge": {"target": [], "time": []}}, "mouseover": {"state": {"target": ["12", "13", "14", "17", "16", "15", "14", "18", "13", "14", "19", "12"], "time": [3161, 3244, 3329, 3910, 5064, 8093, 13753, 14415, 15931, 19481, 21245, 23627]}, "edge": {"target": [], "time": []}}, "mouseout": {"state": {"target": ["0", "12", "13", "14", "17", "16", "15", "14", "18", "13", "14", "19", "12"], "time": [3077, 3228, 3295, 3427, 4774, 8032, 13599, 14061, 15681, 18802, 21193, 22729, 23879]}, "edge": {"target": [], "time": []}}}, "displayed_time": "29.21", "trialTime": 39892, "trial_type": "mouselab-mdp", "trial_index": 10, "time_elapsed": 1200467, "internal_node_id": "0.0-6.0-1.0-1.0"}}, {"uniqueid": "w52893686:a43458876", "current_trial": 11, "dateTime": 1693567860415, "trialdata": {"revealed_states": [], "clicked_states": ["1"], "num_clicks_accrued": [0, 0, 0, 0, 0, 0, 0, 0, 0, 0, 0, 0, 0], "stateRewards": ["", -2, 3, 8, -9, 59, 41, -50, -1, 82, 66, 33, 2, -2, 7, 8, 1, -38, 12, -16, 24, -37, 67, 1, 4, -2, 5, 35, -83, 28, 8, -27, 69, -64], "withholdReward": false, "trial_id": "mdp_trial_3", "block": "test", "trialIndex": 4, "score": 41.25, "costs": 0.25, "simulationMode": [null, null, null, null, null], "rewards": [-2, 3, 8, -9, 41], "path": ["0", "0", "1", "2", "3", "4", "6"], "rt": [13911, 377, 679, 808, 331], "actions": ["up", "up", "up", "right", "right"], "actionTimes": [21608, 22512, 23698, 25028, 25884], "queries": {"click": {"state": {"target": ["1"], "time": [9910]}, "edge": {"target": [], "time": []}}, "mouseover": {"state": {"target": ["1", "2", "10", "3", "3"], "time": [8631, 13113, 18680, 19613, 19830]}, "edge": {"target": [], "time": []}}, "mouseout": {"state": {"target": ["1", "2", "10", "3"], "time": [12930, 18576, 19522, 19775]}, "edge": {"target": [], "time": []}}}, "displayed_time": "26.39", "trialTime": 29451, "trial_type": "mouselab-mdp", "trial_index": 11, "time_elapsed": 1230828, "internal_node_id": "0.0-6.0-1.0-2.0"}}, {"uniqueid": "w52893686:a43458876", "current_trial": 12, "dateTime": 1693567889761, "trialdata": {"revealed_states": [], "clicked_states": ["23", "24", "25", "26", "27", "28", "29"], "num_clicks_accrued": [0, 0, 0, 0, 0, 0, 0, 0, 0, 0, 0, 0, 0], "stateRewards": ["", -1, -3, -5, -14, -13, -47, 79, 8, -60, -64, 41, -1, 2, 3, 13, -46, 61, -79, -11, -64, -65, 23, 1, -2, 6, -14, 46, 32, 21, 7, 75, -66, 15], "withholdReward": false, "trial_id": "mdp_trial_4", "block": "test", "trialIndex": 5, "score": 27.95, "costs": -9.05, "simulationMode": [null, null, null, null, null], "rewards": [1, -2, 6, -14, 46], "path": ["0", "0", "23", "24", "25", "26", "27"], "rt": [17697, 227, 159, 376, 309], "actions": ["left", "left", "left", "up", "up"], "actionTimes": [21957, 22719, 23383, 24267, 25099], "queries": {"click": {"state": {"target": ["23", "24", "25", "26", "27", "28", "29"], "time": [5115, 6162, 7751, 9574, 10769, 13657, 17159]}, "edge": {"target": [], "time": []}}, "mouseover": {"state": {"target": ["23", "24", "25", "26", "27", "28", "28", "29", "24", "23"], "time": [4773, 5806, 6955, 9253, 10276, 11807, 11973, 15388, 19122, 19526]}, "edge": {"target": [], "time": []}}, "mouseout": {"state": {"target": ["3", "2", "23", "24", "25", "26", "27", "28", "28", "29", "24", "23"], "time": [2002, 2058, 5705, 6872, 8621, 10102, 11624, 11857, 14918, 18155, 19304, 20854]}, "edge": {"target": [], "time": []}}}, "displayed_time": "25.61", "trialTime": 28659, "trial_type": "mouselab-mdp", "trial_index": 12, "time_elapsed": 1260177, "internal_node_id": "0.0-6.0-1.0-3.0"}}, {"uniqueid": "w52893686:a43458876", "current_trial": 13, "dateTime": 1693567936507, "trialdata": {"revealed_states": [], "clicked_states": ["23", "24", "25", "30", "32", "31", "33"], "num_clicks_accrued": [0, 0, 0, 0, 0, 0, 0, 0, 0, 0, 0, 0, 0], "stateRewards": ["", 2, -1, 1, 10, -52, 86, -22, -2, -14, -63, 38, 1, 3, 7, -8, 11, -32, -27, 9, -71, 40, -87, -2, -1, 5, -7, 12, 31, -57, 13, 86, -58, 29], "withholdReward": false, "trial_id": "mdp_trial_5", "block": "test", "trialIndex": 6, "score": 91.95, "costs": -9.05, "simulationMode": [null, null, null, null, null], "rewards": [-2, -1, 5, 13, 86], "path": ["0", "0", "23", "24", "25", "30", "31"], "rt": [20480, 427, 676, 412, 347], "actions": ["left", "left", "left", "down", "right"], "actionTimes": [23484, 24433, 25614, 26551, 27401], "queries": {"click": {"state": {"target": ["23", "24", "25", "30", "32", "31", "33"], "time": [3886, 5233, 7337, 8946, 11534, 15352, 19230]}, "edge": {"target": [], "time": []}}, "mouseover": {"state": {"target": ["23", "24", "25", "30", "32", "31", "30", "33", "23", "0"], "time": [3508, 4470, 6984, 8517, 11200, 12519, 16036, 16235, 20188, 20921]}, "edge": {"target": [], "time": []}}, "mouseout": {"state": {"target": ["0", "23", "24", "25", "30", "30", "32", "31", "30", "33", "23", "0"], "time": [3468, 4407, 6784, 8434, 9141, 10034, 12352, 15969, 16152, 20036, 20287, 21001]}, "edge": {"target": [], "time": []}}}, "displayed_time": "27.92", "trialTime": 46035, "trial_type": "mouselab-mdp", "trial_index": 13, "time_elapsed": 1306923, "internal_node_id": "0.0-6.0-1.0-4.0"}}, {"uniqueid": "w52893686:a43458876", "current_trial": 14, "dateTime": 1693567970400, "trialdata": {"revealed_states": [], "clicked_states": ["12", "13", "14", "19", "21", "20", "22"], "num_clicks_accrued": [0, 0, 0, 0, 0, 0, 0, 0, 0, 0, 0, 0, 0], "stateRewards": ["", -1, -3, 1, 13, -64, -29, 12, -4, -33, 50, 56, 2, -3, 4, 11, -64, -58, -55, 12, 47, 38, -25, -2, 2, 5, -15, 85, 7, 84, 10, 8, 57, 26], "withholdReward": false, "trial_id": "mdp_trial_6", "block": "test", "trialIndex": 7, "score": 52.95, "costs": -9.05, "simulationMode": [null, null, null, null, null], "rewards": [2, -3, 4, 12, 47], "path": ["0", "0", "12", "13", "14", "19", "20"], "rt": [17795, 359, 432, 344, 326], "actions": ["right", "right", "right", "down", "right"], "actionTimes": [19577, 20460, 21415, 22277, 23126], "queries": {"click": {"state": {"target": ["12", "13", "14", "19", "21", "20", "22"], "time": [3036, 4260, 5638, 6794, 8107, 11376, 15384]}, "edge": {"target": [], "time": []}}, "mouseover": {"state": {"target": ["12", "13", "14", "19", "21", "20", "19", "22", "12"], "time": [2221, 3950, 5198, 6415, 7813, 9163, 13185, 14621, 18644]}, "edge": {"target": [], "time": []}}, "mouseout": {"state": {"target": ["0", "12", "13", "14", "19", "19", "21", "20", "19", "22", "12"], "time": [1287, 3713, 5115, 6335, 7003, 7592, 8302, 13021, 13203, 16576, 18775]}, "edge": {"target": [], "time": []}}}, "displayed_time": "23.65", "trialTime": 32382, "trial_type": "mouselab-mdp", "trial_index": 14, "time_elapsed": 1340814, "internal_node_id": "0.0-6.0-1.0-5.0"}}, {"uniqueid": "w52893686:a43458876", "current_trial": 15, "dateTime": 1693568003895, "trialdata": {"revealed_states": [], "clicked_states": ["1", "2", "3", "8", "11", "9", "10", "6"], "num_clicks_accrued": [0, 0, 0, 0, 0, 0, 0, 0, 0, 0, 0, 0, 0], "stateRewards": ["", 2, -4, 4, 9, 69, 9, -75, 12, -86, 66, 25, -1, 3, 2, -13, -88, -3, 1, 4, -69, 49, -84, 2, -1, 4, 2, -18, -81, -52, -15, -69, -54, 25], "withholdReward": false, "trial_id": "mdp_trial_7", "block": "test", "trialIndex": 8, "score": 68.8, "costs": -11.200000000000001, "simulationMode": [null, null, null, null, null], "rewards": [2, -4, 4, 12, 66], "path": ["0", "0", "1", "2", "3", "8", "10"], "rt": [23702, 195, 209, 665, 539], "actions": ["up", "up", "up", "left", "down"], "actionTimes": [26255, 26973, 27685, 28863, 29902], "queries": {"click": {"state": {"target": ["1", "2", "3", "8", "11", "9", "10", "6"], "time": [4226, 5492, 6669, 7742, 9713, 13013, 16422, 21491]}, "edge": {"target": [], "time": []}}, "mouseover": {"state": {"target": ["23", "1", "2", "3", "8", "11", "9", "8", "10", "3", "4", "6", "6", "7", "1", "1", "7", "6", "7", "1", "2"], "time": [3463, 3805, 5078, 6274, 7459, 9355, 10779, 14009, 14257, 19289, 19489, 19556, 19856, 20238, 20309, 20704, 20839, 20889, 22246, 23070, 25423]}, "edge": {"target": [], "time": []}}, "mouseout": {"state": {"target": ["0", "23", "1", "2", "3", "8", "8", "11", "9", "8", "10", "3", "4", "6", "6", "7", "1", "1", "7", "6", "6", "7", "1", "2"], "time": [3288, 3688, 4858, 6159, 7375, 8407, 9189, 10525, 13826, 14106, 16608, 19422, 19539, 19639, 20186, 20256, 20326, 20789, 20855, 21680, 22213, 22294, 24988, 25556]}, "edge": {"target": [], "time": []}}}, "displayed_time": "30.41", "trialTime": 32741, "trial_type": "mouselab-mdp", "trial_index": 15, "time_elapsed": 1374310, "internal_node_id": "0.0-6.0-1.0-6.0"}}, {"uniqueid": "w52893686:a43458876", "current_trial": 16, "dateTime": 1693568020710, "trialdata": {"revealed_states": [], "clicked_states": [], "num_clicks_accrued": [0, 0, 0, 0, 0, 0, 0, 0, 0, 0, 0, 0, 0], "stateRewards": ["", 2, -1, -4, -13, 74, 77, 3, 2, -43, -2, -11, 2, 3, 7, 11, -26, -29, -33, -3, -3, -13, -3, 1, 3, -7, 14, -59, 33, 9, -5, 34, 79, 68], "withholdReward": false, "trial_id": "mdp_trial_8", "block": "test", "trialIndex": 9, "score": 60, "costs": 0, "simulationMode": [null, null, null, null, null], "rewards": [1, 3, -7, -5, 68], "path": ["0", "0", "23", "24", "25", "30", "33"], "rt": [8821, 285, 273, 187, 312], "actions": ["left", "left", "left", "down", "left"], "actionTimes": [10656, 11445, 12218, 12914, 13723], "queries": {"click": {"state": {"target": [], "time": []}, "edge": {"target": [], "time": []}}, "mouseover": {"state": {"target": ["0", "12", "0", "23"], "time": [3042, 5490, 7075, 7172]}, "edge": {"target": [], "time": []}}, "mouseout": {"state": {"target": ["1", "0", "12", "0", "23", "0"], "time": [788, 5389, 7025, 7114, 15071, 15124]}, "edge": {"target": [], "time": []}}}, "displayed_time": "15.84", "trialTime": 15969, "trial_type": "mouselab-mdp", "trial_index": 16, "time_elapsed": 1391124, "internal_node_id": "0.0-6.0-1.0-7.0"}}, {"uniqueid": "w52893686:a43458876", "current_trial": 17, "dateTime": 1693568071618, "trialdata": {"revealed_states": [], "clicked_states": ["1", "12", "23", "24", "2", "3", "4", "8", "10", "13", "14", "15", "19", "16", "21", "20", "17"], "num_clicks_accrued": [0, 0, 0, 0, 0, 0, 0, 0, 0, 0, 0, 0, 0], "stateRewards": ["", 2, 3, -6, -5, -3, 55, 40, 11, 61, 11, 51, 2, -4, -6, 9, -25, 29, -15, -6, 7, -77, -2, -2, -4, 1, 14, -43, -1, 56, -12, -54, 41, -74], "withholdReward": false, "trial_id": "mdp_trial_9", "block": "test", "trialIndex": 10, "score": 10.850000000000001, "costs": -19.15, "simulationMode": [null, null, null, null, null], "rewards": [2, -4, -6, 9, 29], "path": ["0", "0", "12", "13", "14", "15", "17"], "rt": [38413, 109, 243, 186, 348], "actions": ["right", "right", "right", "up", "right"], "actionTimes": [42770, 43376, 44135, 44823, 45684], "queries": {"click": {"state": {"target": ["1", "12", "23", "24", "2", "3", "4", "8", "10", "13", "14", "15", "19", "16", "21", "20", "17"], "time": [5180, 6342, 7689, 8934, 10181, 11468, 12461, 13782, 15174, 19514, 21172, 22282, 23524, 24951, 29633, 34169, 38224]}, "edge": {"target": [], "time": []}}, "mouseover": {"state": {"target": ["1", "12", "0", "23", "24", "23", "24", "2", "3", "4", "8", "10", "11", "2", "12", "13", "18", "14", "14", "15", "19", "14", "16", "17", "13", "21", "19", "14", "13", "14", "20", "17", "14", "13", "12"], "time": [4739, 5859, 6861, 6916, 7116, 7262, 8448, 9781, 11030, 12081, 13130, 14759, 16014, 18162, 18393, 18994, 20297, 20529, 20825, 21865, 23097, 24248, 24594, 26346, 28903, 29111, 30349, 30913, 32878, 33561, 33728, 36280, 41696, 41796, 41996]}, "edge": {"target": [], "time": []}}, "mouseout": {"state": {"target": ["0", "1", "12", "0", "23", "24", "23", "24", "2", "3", "4", "8", "10", "11", "2", "12", "13", "18", "14", "14", "15", "15", "14", "19", "14", "15", "16", "17", "13", "21", "19", "14", "13", "14", "20", "17", "14", "13", "12", "0", "31", "32"], "time": [4412, 5709, 6533, 6880, 6980, 7257, 8314, 9430, 10814, 11997, 13029, 14566, 15764, 18095, 18200, 18803, 20196, 20498, 20594, 21765, 22471, 22747, 22915, 24214, 24268, 24381, 25699, 28628, 28936, 30331, 30370, 32796, 33310, 33596, 35564, 41580, 41714, 41913, 42179, 48297, 48375, 48699]}, "edge": {"target": [], "time": []}}}, "displayed_time": "46.18", "trialTime": 50149, "trial_type": "mouselab-mdp", "trial_index": 17, "time_elapsed": 1442032, "internal_node_id": "0.0-6.0-1.0-8.0"}}, {"uniqueid": "w52893686:a43458876", "current_trial": 18, "dateTime": 1693568102401, "trialdata": {"revealed_states": [], "clicked_states": ["1", "2", "3", "8", "11", "4", "6", "5"], "num_clicks_accrued": [0, 0, 0, 0, 0, 0, 0, 0, 0, 0, 0, 0, 0], "stateRewards": ["", 1, 3, -2, 15, 51, 15, -19, 11, 67, -45, -73, 2, 4, -2, -13, 36, 9, -28, 10, -30, 31, 16, 1, 2, -1, -16, 14, -22, 36, -1, 88, -5, 45], "withholdReward": false, "trial_id": "mdp_trial_10", "block": "test", "trialIndex": 11, "score": 57.4, "costs": -10.6, "simulationMode": [null, null, null, null, null], "rewards": [1, 3, -2, 15, 51], "path": ["0", "0", "1", "2", "3", "4", "5"], "rt": [22166, 38, 154, 227, 148], "actions": ["up", "up", "up", "right", "up"], "actionTimes": [23770, 24326, 24978, 25715, 26370], "queries": {"click": {"state": {"target": ["1", "2", "3", "8", "11", "4", "6", "5"], "time": [3630, 4936, 6737, 8614, 10271, 14389, 15605, 19093]}, "edge": {"target": [], "time": []}}, "mouseover": {"state": {"target": ["12", "1", "2", "3", "4", "8", "11", "3", "4", "6", "5", "4", "7", "2", "1"], "time": [2235, 3124, 4368, 6077, 7635, 8275, 9882, 13482, 13650, 15218, 16769, 20420, 20986, 22849, 22902]}, "edge": {"target": [], "time": []}}, "mouseout": {"state": {"target": ["0", "12", "1", "2", "3", "4", "3", "8", "3", "8", "11", "3", "4", "6", "6", "4", "5", "4", "7", "2", "1", "0"], "time": [714, 2782, 3823, 5886, 6957, 8004, 8082, 9285, 9467, 9752, 11102, 13549, 15107, 15800, 16529, 16702, 20236, 20737, 22551, 22897, 23000, 28237]}, "edge": {"target": [], "time": []}}}, "displayed_time": "26.90", "trialTime": 29949, "trial_type": "mouselab-mdp", "trial_index": 18, "time_elapsed": 1472816, "internal_node_id": "0.0-6.0-1.0-9.0"}}, {"uniqueid": "w52893686:a43458876", "current_trial": 19, "dateTime": 1693568139316, "trialdata": {"revealed_states": [], "clicked_states": ["23", "24", "25", "30", "26", "27", "32", "31", "33", "29"], "num_clicks_accrued": [0, 0, 0, 0, 0, 0, 0, 0, 0, 0, 0, 0, 0], "stateRewards": ["", -2, -4, 4, -11, -63, -60, -7, 2, -14, 81, -43, -1, -1, -5, 7, 10, 69, 40, 8, -83, 52, 60, 1, 2, 5, -5, 16, 64, 14, -3, 29, 7, -51], "withholdReward": false, "trial_id": "mdp_trial_11", "block": "test", "trialIndex": 12, "score": 19.1, "costs": -14.9, "simulationMode": [null, null, null, null, null], "rewards": [1, 2, 5, -3, 29], "path": ["0", "0", "23", "24", "25", "30", "31"], "rt": [28803, 242, 176, 670, 195], "actions": ["left", "left", "left", "down", "right"], "actionTimes": [31412, 32171, 32854, 34048, 34740], "queries": {"click": {"state": {"target": ["23", "24", "25", "30", "26", "27", "32", "31", "33", "29"], "time": [4020, 5194, 6405, 7653, 8759, 10845, 14484, 18576, 22841, 26925]}, "edge": {"target": [], "time": []}}, "mouseover": {"state": {"target": ["23", "24", "25", "30", "26", "31", "27", "27", "25", "30", "32", "31", "30", "33", "29", "23"], "time": [3623, 4810, 6043, 7227, 8320, 9824, 10174, 10381, 11643, 12142, 13009, 16110, 19363, 19626, 26459, 30333]}, "edge": {"target": [], "time": []}}, "mouseout": {"state": {"target": ["0", "23", "24", "25", "30", "25", "26", "25", "30", "30", "31", "26", "27", "27", "26", "25", "30", "32", "31", "30", "33", "29", "23"], "time": [1739, 4742, 5992, 7173, 8192, 8236, 9341, 9392, 9509, 9759, 10039, 10140, 10257, 11443, 11559, 11736, 12692, 14670, 19328, 19460, 26209, 29515, 30433]}, "edge": {"target": [], "time": []}}}, "displayed_time": "35.24", "trialTime": 36121, "trial_type": "mouselab-mdp", "trial_index": 19, "time_elapsed": 1509731, "internal_node_id": "0.0-6.0-1.0-10.0"}}, {"uniqueid": "w52893686:a43458876", "current_trial": 20, "dateTime": 1693568185731, "trialdata": {"revealed_states": [], "clicked_states": ["16", "21", "17", "20", "18"], "num_clicks_accrued": [0, 0, 0, 0, 0, 0, 0, 0, 0, 0, 0, 0, 0], "stateRewards": ["", -2, 3, -5, -7, 66, 43, -60, -4, -70, -75, 4, -1, 2, 2, -13, 54, 11, -40, -1, 77, 32, 15, -2, 3, -8, -9, -35, 83, -27, 6, -74, -34, 44], "withholdReward": false, "trial_id": "mdp_trial_12", "block": "test", "trialIndex": 13, "score": 68.25, "costs": -10.75, "simulationMode": [null, null, null, null, null], "rewards": [-1, 2, 2, -1, 77], "path": ["0", "0", "12", "13", "14", "19", "20"], "rt": [30077, 223, 469, 76, 359], "actions": ["right", "right", "right", "down", "right"], "actionTimes": [34803, 35553, 36545, 37117, 37983], "queries": {"click": {"state": {"target": ["16", "21", "17", "20", "18"], "time": [7619, 11408, 16109, 19964, 24267]}, "edge": {"target": [], "time": []}}, "mouseover": {"state": {"target": ["12", "13", "14", "15", "16", "15", "17", "21", "20", "17", "20", "14", "18", "12", "23", "24", "25", "13", "13", "12", "23", "24", "26", "27", "28", "12", "12", "0"], "time": [5250, 5387, 5771, 6679, 7001, 8340, 8554, 9290, 15054, 15172, 19467, 23330, 23529, 27653, 27821, 27938, 28155, 28588, 29147, 29303, 29571, 30105, 30531, 30617, 32655, 32759, 33039, 33205]}, "edge": {"target": [], "time": []}}, "mouseout": {"state": {"target": ["0", "12", "13", "14", "15", "16", "15", "17", "21", "20", "17", "20", "14", "18", "12", "23", "24", "25", "13", "13", "12", "23", "24", "26", "27", "28", "12", "12"], "time": [5237, 5321, 5587, 6637, 6929, 8141, 8360, 8906, 14871, 15108, 18592, 23288, 23388, 27484, 27692, 27905, 28039, 28305, 28821, 29264, 29339, 29722, 30188, 30572, 32204, 32709, 32779, 33080]}, "edge": {"target": [], "time": []}}}, "displayed_time": "38.51", "trialTime": 45583, "trial_type": "mouselab-mdp", "trial_index": 20, "time_elapsed": 1556145, "internal_node_id": "0.0-6.0-1.0-11.0"}}, {"uniqueid": "w52893686:a43458876", "current_trial": 21, "dateTime": 1693568223284, "trialdata": {"revealed_states": [], "clicked_states": ["27", "29", "28", "33", "32", "31"], "num_clicks_accrued": [0, 0, 0, 0, 0, 0, 0, 0, 0, 0, 0, 0, 0], "stateRewards": ["", 1, 4, -4, 14, 35, 51, 19, -13, 54, 78, -74, -2, -1, -3, 13, -11, -42, -73, -15, -24, -3, -69, 2, -1, 5, 16, -27, 73, 58, 9, -60, 5, -60], "withholdReward": false, "trial_id": "mdp_trial_13", "block": "test", "trialIndex": 14, "score": 82.1, "costs": -12.9, "simulationMode": [null, null, null, null, null], "rewards": [2, -1, 5, 16, 73], "path": ["0", "0", "23", "24", "25", "26", "28"], "rt": [27290, 525, 300, 804, 130], "actions": ["left", "left", "left", "up", "right"], "actionTimes": [29336, 30383, 31224, 32527, 33154], "queries": {"click": {"state": {"target": ["27", "29", "28", "33", "32", "31"], "time": [3738, 7087, 10615, 15970, 19931, 23945]}, "edge": {"target": [], "time": []}}, "mouseover": {"state": {"target": ["23", "24", "25", "26", "27", "29", "26", "28", "25", "30", "33", "32", "31", "23"], "time": [2822, 2840, 3000, 3167, 3352, 4571, 8804, 9209, 14452, 15086, 15584, 19434, 23514, 27501]}, "edge": {"target": [], "time": []}}, "mouseout": {"state": {"target": ["0", "23", "24", "25", "26", "27", "27", "29", "29", "26", "28", "25", "30", "33", "32", "31", "23"], "time": [2774, 2836, 2917, 3084, 3301, 3932, 4422, 7282, 8655, 9024, 14104, 15019, 15351, 19302, 23219, 27247, 27551]}, "edge": {"target": [], "time": []}}}, "displayed_time": "33.66", "trialTime": 36682, "trial_type": "mouselab-mdp", "trial_index": 21, "time_elapsed": 1593698, "internal_node_id": "0.0-6.0-1.0-12.0"}}, {"uniqueid": "w52893686:a43458876", "current_trial": 22, "dateTime": 1693568263003, "trialdata": {"revealed_states": [], "clicked_states": ["9", "11", "10", "5", "6", "7", "16"], "num_clicks_accrued": [0, 0, 0, 0, 0, 0, 0, 0, 0, 0, 0, 0, 0], "stateRewards": ["", 1, 4, 5, -5, 58, -80, 75, 6, 25, -39, 46, 2, -2, 4, 2, 59, 31, -22, -12, -61, 15, 72, 1, -2, -7, 8, 77, 76, -23, -7, 71, -15, -3], "withholdReward": false, "trial_id": "mdp_trial_14", "block": "test", "trialIndex": 15, "score": 64.95, "costs": -15.05, "simulationMode": [null, null, null, null, null], "rewards": [1, 4, 5, -5, 75], "path": ["0", "0", "1", "2", "3", "4", "7"], "rt": [29065, 683, 326, 225, 225], "actions": ["up", "up", "up", "right", "down"], "actionTimes": [33229, 34437, 35259, 36008, 36742], "queries": {"click": {"state": {"target": ["9", "11", "10", "5", "6", "7", "16"], "time": [5389, 8613, 12141, 16099, 20272, 24467, 29043]}, "edge": {"target": [], "time": []}}, "mouseover": {"state": {"target": ["1", "2", "3", "9", "11", "10", "3", "5", "6", "7", "2", "16", "18"], "time": [4406, 4540, 4570, 4903, 7198, 9899, 15456, 15642, 18945, 23728, 28045, 28643, 30546]}, "edge": {"target": [], "time": []}}, "mouseout": {"state": {"target": ["0", "1", "2", "3", "9", "11", "10", "3", "5", "6", "7", "7", "2", "16", "18", "0"], "time": [3280, 4504, 4565, 4594, 6981, 9465, 15416, 15478, 18581, 23445, 24678, 27512, 28345, 30182, 30614, 38083]}, "edge": {"target": [], "time": []}}}, "displayed_time": "37.25", "trialTime": 38778, "trial_type": "mouselab-mdp", "trial_index": 22, "time_elapsed": 1633417, "internal_node_id": "0.0-6.0-1.0-13.0"}}, {"uniqueid": "w52893686:a43458876", "current_trial": 23, "dateTime": 1693568292708, "trialdata": {"revealed_states": [], "clicked_states": ["16", "18", "17"], "num_clicks_accrued": [0, 0, 0, 0, 0, 0, 0, 0, 0, 0, 0, 0, 0], "stateRewards": ["", 1, 2, -8, 9, 18, -83, -11, 6, -64, -48, 17, -2, -2, -5, -3, -24, -3, -86, -2, 48, -41, -22, -2, 4, 7, 8, 81, 13, -48, 10, 61, 19, 57], "withholdReward": false, "trial_id": "mdp_trial_15", "block": "test", "trialIndex": 16, "score": 73.55, "costs": -6.449999999999999, "simulationMode": [null, null, null, null, null], "rewards": [-2, 4, 7, 10, 61], "path": ["0", "0", "23", "24", "25", "30", "31"], "rt": [21273, 178, 206, 105, 590], "actions": ["left", "left", "left", "down", "right"], "actionTimes": [24424, 25118, 25844, 26458, 27545], "queries": {"click": {"state": {"target": ["16", "18", "17"], "time": [5380, 8781, 12391]}, "edge": {"target": [], "time": []}}, "mouseover": {"state": {"target": ["18", "16", "18", "15", "17", "19", "19", "19", "22", "0", "23", "26", "27", "1", "12", "22", "19", "12"], "time": [4564, 4698, 7116, 10069, 11177, 15532, 16082, 16333, 16384, 16600, 16658, 17291, 17599, 20932, 20967, 21050, 21233, 22516]}, "edge": {"target": [], "time": []}}, "mouseout": {"state": {"target": ["0", "18", "16", "18", "15", "17", "17", "19", "19", "19", "22", "0", "23", "26", "27", "1", "12", "22", "19", "12"], "time": [1646, 4614, 6455, 9968, 11091, 12599, 14986, 15732, 16198, 16351, 16432, 16617, 16691, 17515, 20872, 20949, 21033, 21182, 22439, 22550]}, "edge": {"target": [], "time": []}}}, "displayed_time": "28.07", "trialTime": 28852, "trial_type": "mouselab-mdp", "trial_index": 23, "time_elapsed": 1663122, "internal_node_id": "0.0-6.0-1.0-14.0"}}, {"uniqueid": "w52893686:a43458876", "current_trial": 24, "dateTime": 1693568331781, "trialdata": {"revealed_states": [], "clicked_states": ["16", "21", "20", "22", "17", "18"], "num_clicks_accrued": [0, 0, 0, 0, 0, 0, 0, 0, 0, 0, 0, 0, 0], "stateRewards": ["", 2, 4, -6, -13, -75, -81, 30, 7, 5, 59, -65, -1, -1, 7, 14, -38, 36, -41, 1, -54, -5, 64, 2, -1, 5, 6, -19, 79, 11, 16, -33, -50, 58], "withholdReward": false, "trial_id": "mdp_trial_16", "block": "test", "trialIndex": 17, "score": 57.1, "costs": -12.9, "simulationMode": [null, null, null, null, null], "rewards": [-1, -1, 7, 1, 64], "path": ["0", "0", "12", "13", "14", "19", "22"], "rt": [29010, 437, 288, 120, 316], "actions": ["right", "right", "right", "down", "left"], "actionTimes": [31791, 32751, 33565, 34191, 35009], "queries": {"click": {"state": {"target": ["16", "21", "20", "22", "17", "18"], "time": [4334, 8325, 12063, 15723, 19552, 23860]}, "edge": {"target": [], "time": []}}, "mouseover": {"state": {"target": ["16", "15", "14", "21", "19", "17", "19", "21", "20", "19", "22", "14", "17", "15", "18", "13", "0", "23", "30", "25", "30", "32", "0"], "time": [3738, 5014, 5090, 5543, 6979, 7171, 7720, 7824, 11555, 15188, 15322, 18890, 19039, 23105, 23255, 27806, 28063, 28100, 28265, 28555, 28855, 29535, 30836]}, "edge": {"target": [], "time": []}}, "mouseout": {"state": {"target": ["0", "0", "16", "15", "14", "21", "19", "17", "19", "21", "20", "20", "19", "22", "14", "17", "15", "18", "13", "0", "23", "30", "25", "30", "32", "0"], "time": [1302, 3504, 4975, 5053, 5145, 6958, 7035, 7589, 7757, 10939, 12264, 14855, 15223, 18823, 18939, 23056, 23156, 27439, 27840, 28095, 28122, 28429, 28772, 29488, 30604, 31003]}, "edge": {"target": [], "time": []}}}, "displayed_time": "35.51", "trialTime": 38180, "trial_type": "mouselab-mdp", "trial_index": 24, "time_elapsed": 1702195, "internal_node_id": "0.0-6.0-1.0-15.0"}}, {"uniqueid": "w52893686:a43458876", "current_trial": 25, "dateTime": 1693568377074, "trialdata": {"revealed_states": [], "clicked_states": ["25", "14", "32", "33", "31", "29", "27", "28"], "num_clicks_accrued": [0, 0, 0, 0, 0, 0, 0, 0, 0, 0, 0, 0, 0], "stateRewards": ["", 2, 1, -3, 7, 46, 11, -36, 16, 71, 5, 1, 2, -2, -8, -3, -4, 6, 55, 7, 68, -54, 2, 1, 1, 6, -6, 42, -4, -84, -11, -65, 63, 25], "withholdReward": false, "trial_id": "mdp_trial_17", "block": "test", "trialIndex": 18, "score": 45.2, "costs": -14.8, "simulationMode": [null, null, null, null, null], "rewards": [1, 1, 6, -11, 63], "path": ["0", "0", "23", "24", "25", "30", "32"], "rt": [32949, 327, 574, 361, 287], "actions": ["left", "left", "left", "down", "down"], "actionTimes": [38724, 39563, 40641, 41515, 42321], "queries": {"click": {"state": {"target": ["25", "14", "32", "33", "31", "29", "27", "28"], "time": [8710, 10277, 12021, 16285, 21370, 25734, 29906, 34483]}, "edge": {"target": [], "time": []}}, "mouseover": {"state": {"target": ["23", "24", "25", "25", "24", "23", "0", "12", "13", "14", "19", "31", "30", "32", "33", "25", "26", "27", "26", "31", "31", "26", "29", "27", "28", "23", "23", "28", "28"], "time": [7704, 7796, 7880, 8288, 9333, 9361, 9402, 9461, 9570, 9878, 11036, 11312, 11428, 11678, 15128, 19895, 19930, 20199, 20262, 20461, 20978, 25141, 25228, 29379, 32366, 32714, 33755, 33829, 34112]}, "edge": {"target": [], "time": []}}, "mouseout": {"state": {"target": ["0", "23", "24", "25", "25", "24", "23", "0", "12", "13", "14", "19", "31", "30", "32", "33", "25", "26", "27", "26", "31", "31", "26", "29", "27", "28", "23", "23", "28", "28"], "time": [7645, 7778, 7861, 8045, 9314, 9353, 9381, 9438, 9565, 9762, 11015, 11095, 11346, 11578, 12220, 19762, 19913, 19946, 20229, 20298, 20546, 24721, 25181, 29331, 32200, 32499, 33280, 33796, 33972, 37534]}, "edge": {"target": [], "time": []}}}, "displayed_time": "42.84", "trialTime": 44396, "trial_type": "mouselab-mdp", "trial_index": 25, "time_elapsed": 1747488, "internal_node_id": "0.0-6.0-1.0-16.0"}}, {"uniqueid": "w52893686:a43458876", "current_trial": 26, "dateTime": 1693568404581, "trialdata": {"revealed_states": [], "clicked_states": [], "num_clicks_accrued": [0, 0, 0, 0, 0, 0, 0, 0, 0, 0, 0, 0, 0], "stateRewards": ["", -1, 4, -3, 3, 57, -61, 5, -11, 23, -1, 34, -2, -4, -1, -13, 27, 38, -36, 4, -45, 21, 88, 1, -2, -1, 1, -69, -5, -78, -12, -9, 38, -54], "withholdReward": false, "trial_id": "mdp_trial_18", "block": "test", "trialIndex": 19, "score": 60, "costs": 0, "simulationMode": [null, null, null, null, null], "rewards": [-1, 4, -3, 3, 57], "path": ["0", "0", "1", "2", "3", "4", "5"], "rt": [7427, 137, 294, 227, 226], "actions": ["up", "up", "up", "right", "up"], "actionTimes": [9715, 10427, 11253, 11986, 12717], "queries": {"click": {"state": {"target": [], "time": []}, "edge": {"target": [], "time": []}}, "mouseover": {"state": {"target": ["0", "23", "24", "25", "30", "32", "30", "24", "23", "0"], "time": [3787, 3953, 4685, 5086, 6644, 6953, 8020, 8303, 8354, 8720]}, "edge": {"target": [], "time": []}}, "mouseout": {"state": {"target": ["0", "0", "23", "24", "25", "30", "32", "30", "24", "23", "0"], "time": [3274, 3903, 4087, 4870, 6603, 6786, 7970, 8170, 8336, 8503, 8770]}, "edge": {"target": [], "time": []}}}, "displayed_time": "16.29", "trialTime": 26647, "trial_type": "mouselab-mdp", "trial_index": 26, "time_elapsed": 1774997, "internal_node_id": "0.0-6.0-1.0-17.0"}}, {"uniqueid": "w52893686:a43458876", "current_trial": 27, "dateTime": 1693568447058, "trialdata": {"revealed_states": [], "clicked_states": ["15", "16", "17", "20", "22", "21", "32", "31", "33"], "num_clicks_accrued": [0, 0, 0, 0, 0, 0, 0, 0, 0, 0, 0, 0, 0], "stateRewards": ["", -1, 1, 8, -3, -24, 11, -65, -6, -77, 48, 44, -2, 1, -2, -7, -55, -35, 33, 8, -28, 19, -53, -1, -1, -5, -5, -70, 10, 44, 8, -58, -70, 51], "withholdReward": false, "trial_id": "mdp_trial_19", "block": "test", "trialIndex": 20, "score": 33.25, "costs": -18.75, "simulationMode": [null, null, null, null, null], "rewards": [-1, -1, -5, 8, 51], "path": ["0", "0", "23", "24", "25", "30", "33"], "rt": [34800, 369, 289, 178, 212], "actions": ["left", "left", "left", "down", "left"], "actionTimes": [36530, 37424, 38211, 38932, 39652], "queries": {"click": {"state": {"target": ["15", "16", "17", "20", "22", "21", "32", "31", "33"], "time": [3967, 5348, 8847, 12135, 16042, 19656, 23968, 27782, 31617]}, "edge": {"target": [], "time": []}}, "mouseover": {"state": {"target": ["13", "15", "16", "17", "19", "20", "19", "22", "21", "21", "32", "30", "31", "30", "33", "23"], "time": [3300, 3533, 4674, 6789, 11171, 11598, 15350, 15606, 17300, 18036, 23145, 25275, 26552, 31081, 31216, 35159]}, "edge": {"target": [], "time": []}}, "mouseout": {"state": {"target": ["0", "13", "15", "16", "17", "19", "20", "19", "22", "21", "21", "32", "30", "31", "30", "33", "23"], "time": [1097, 3333, 4603, 6228, 10941, 11452, 15268, 15577, 17123, 17448, 22921, 24175, 26052, 30157, 31100, 35005, 35396]}, "edge": {"target": [], "time": []}}}, "displayed_time": "40.16", "trialTime": 41481, "trial_type": "mouselab-mdp", "trial_index": 27, "time_elapsed": 1817472, "internal_node_id": "0.0-6.0-1.0-18.0"}}, {"uniqueid": "w52893686:a43458876", "current_trial": 28, "dateTime": 1693568466282, "trialdata": {"revealed_states": [], "clicked_states": ["27", "29"], "num_clicks_accrued": [0, 0, 0, 0, 0, 0, 0, 0, 0, 0, 0, 0, 0], "stateRewards": ["", -1, -2, 8, -6, -79, -6, 87, 9, -5, -66, -38, 2, 2, 5, -6, -82, 74, 85, -8, 67, -30, -15, 1, -2, -2, -2, 87, 64, 49, 7, 2, -38, -9], "withholdReward": false, "trial_id": "mdp_trial_20", "block": "test", "trialIndex": 21, "score": 77.7, "costs": -4.3, "simulationMode": [null, null, null, null, null], "rewards": [1, -2, -2, -2, 87], "path": ["0", "0", "23", "24", "25", "26", "27"], "rt": [10933, 151, 166, 144, 101], "actions": ["left", "left", "left", "up", "up"], "actionTimes": [13864, 14530, 15195, 15840, 16449], "queries": {"click": {"state": {"target": ["27", "29"], "time": [3957, 7911]}, "edge": {"target": [], "time": []}}, "mouseover": {"state": {"target": ["28", "26", "27", "26", "29", "25", "24", "23"], "time": [3025, 3125, 3541, 4883, 7360, 11544, 12692, 12777]}, "edge": {"target": [], "time": []}}, "mouseout": {"state": {"target": ["0", "28", "26", "27", "26", "29", "25", "24", "23"], "time": [2959, 3108, 3259, 4666, 4954, 11442, 12645, 12759, 12909]}, "edge": {"target": [], "time": []}}}, "displayed_time": "16.95", "trialTime": 17579, "trial_type": "mouselab-mdp", "trial_index": 28, "time_elapsed": 1836695, "internal_node_id": "0.0-6.0-1.0-19.0"}}, {"uniqueid": "w52893686:a43458876", "current_trial": 29, "dateTime": 1693568502453, "trialdata": {"revealed_states": [], "clicked_states": ["27", "32", "31", "33", "29", "28"], "num_clicks_accrued": [0, 0, 0, 0, 0, 0, 0, 0, 0, 0, 0, 0, 0], "stateRewards": ["", -1, 4, -5, 9, 29, -75, -42, -16, 24, -28, -41, 2, -3, 1, 10, 60, 47, 55, -1, -53, 22, -40, 2, -3, -6, 4, -26, 44, 54, 15, -76, 42, 14], "withholdReward": false, "trial_id": "mdp_trial_21", "block": "test", "trialIndex": 22, "score": 38.1, "costs": -12.9, "simulationMode": [null, null, null, null, null], "rewards": [2, -3, -6, 4, 54], "path": ["0", "0", "23", "24", "25", "26", "29"], "rt": [27089, 86, 385, 1000, 128], "actions": ["left", "left", "left", "up", "left"], "actionTimes": [30251, 30851, 31732, 33247, 33874], "queries": {"click": {"state": {"target": ["27", "32", "31", "33", "29", "28"], "time": [4446, 8702, 13143, 17816, 22061, 26069]}, "edge": {"target": [], "time": []}}, "mouseover": {"state": {"target": ["27", "26", "28", "25", "30", "32", "31", "33", "29", "26", "28", "24", "23"], "time": [4076, 5264, 5814, 8058, 8125, 8275, 12678, 17408, 21742, 25209, 25575, 27090, 27983]}, "edge": {"target": [], "time": []}}, "mouseout": {"state": {"target": ["27", "26", "28", "25", "30", "32", "31", "33", "29", "26", "28", "28", "24", "23"], "time": [5178, 5428, 6376, 8091, 8191, 12298, 17075, 21349, 25073, 25425, 26258, 26998, 27233, 28071]}, "edge": {"target": [], "time": []}}}, "displayed_time": "34.38", "trialTime": 35200, "trial_type": "mouselab-mdp", "trial_index": 29, "time_elapsed": 1872867, "internal_node_id": "0.0-6.0-1.0-20.0"}}, {"uniqueid": "w52893686:a43458876", "current_trial": 30, "dateTime": 1693568535110, "trialdata": {"revealed_states": [], "clicked_states": ["17", "16", "18", "20", "21", "22"], "num_clicks_accrued": [0, 0, 0, 0, 0, 0, 0, 0, 0, 0, 0, 0, 0], "stateRewards": ["", -1, 2, -2, 5, 80, -61, -27, 12, 44, -26, -75, -2, -4, 1, -16, 42, -49, -50, 4, -44, 2, 80, -2, -2, 5, -2, 59, 10, 24, 7, -48, -86, -44], "withholdReward": false, "trial_id": "mdp_trial_22", "block": "test", "trialIndex": 23, "score": 66.1, "costs": -12.9, "simulationMode": [null, null, null, null, null], "rewards": [-2, -4, 1, 4, 80], "path": ["0", "0", "12", "13", "14", "19", "22"], "rt": [25166, 33, 128, 218, 336], "actions": ["right", "right", "right", "down", "left"], "actionTimes": [27114, 27657, 28284, 29028, 29879], "queries": {"click": {"state": {"target": ["17", "16", "18", "20", "21", "22"], "time": [2926, 6989, 10767, 14690, 18865, 22876]}, "edge": {"target": [], "time": []}}, "mouseover": {"state": {"target": ["17", "15", "16", "15", "18", "14", "19", "20", "21", "22"], "time": [2498, 5385, 6066, 8375, 10366, 12423, 12691, 14198, 18083, 22165]}, "edge": {"target": [], "time": []}}, "mouseout": {"state": {"target": ["17", "15", "16", "15", "18", "14", "19", "20", "21", "21", "22"], "time": [3856, 5894, 8252, 9197, 12270, 12596, 12779, 15770, 19059, 20621, 31331]}, "edge": {"target": [], "time": []}}}, "displayed_time": "30.39", "trialTime": 31731, "trial_type": "mouselab-mdp", "trial_index": 30, "time_elapsed": 1905524, "internal_node_id": "0.0-6.0-1.0-21.0"}}, {"uniqueid": "w52893686:a43458876", "current_trial": 31, "dateTime": 1693568569733, "trialdata": {"revealed_states": [], "clicked_states": ["33", "31", "22", "20", "32"], "num_clicks_accrued": [0, 0, 0, 0, 0, 0, 0, 0, 0, 0, 0, 0, 0], "stateRewards": ["", -1, -3, -6, 14, 41, 18, 63, -14, 80, 21, 17, -2, -4, -2, -5, 13, 70, 8, -4, -64, -10, -20, 2, -1, 4, -1, -17, -55, 42, -7, 47, 54, 15], "withholdReward": false, "trial_id": "mdp_trial_23", "block": "test", "trialIndex": 24, "score": 41.25, "costs": -10.75, "simulationMode": [null, null, null, null, null], "rewards": [2, -1, 4, -7, 54], "path": ["0", "0", "23", "24", "25", "30", "32"], "rt": [22428, 84, 110, 170, 10], "actions": ["left", "left", "left", "down", "down"], "actionTimes": [29021, 29620, 30229, 30909, 31444], "queries": {"click": {"state": {"target": ["33", "31", "22", "20", "32"], "time": [7792, 11337, 14673, 18376, 22733]}, "edge": {"target": [], "time": []}}, "mouseover": {"state": {"target": ["23", "24", "25", "33", "30", "31", "22", "22", "19", "20", "22", "32", "30", "26", "29"], "time": [6751, 6880, 6932, 7351, 8615, 8863, 13166, 13694, 17833, 17914, 21812, 22281, 26697, 26881, 27419]}, "edge": {"target": [], "time": []}}, "mouseout": {"state": {"target": ["23", "24", "26", "29", "33", "30", "23", "23", "24", "25", "33", "30", "31", "22", "22", "19", "20", "22", "32", "30", "26", "29", "0"], "time": [2146, 2528, 2729, 3656, 4112, 5189, 5312, 6830, 6914, 6949, 8518, 8745, 12977, 13265, 17814, 17864, 21768, 21832, 26621, 26732, 27371, 27932, 33248]}, "edge": {"target": [], "time": []}}}, "displayed_time": "31.99", "trialTime": 33718, "trial_type": "mouselab-mdp", "trial_index": 31, "time_elapsed": 1940147, "internal_node_id": "0.0-6.0-1.0-22.0"}}, {"uniqueid": "w52893686:a43458876", "current_trial": 32, "dateTime": 1693568601973, "trialdata": {"revealed_states": [], "clicked_states": ["27", "29", "28", "31", "33", "32"], "num_clicks_accrued": [0, 0, 0, 0, 0, 0, 0, 0, 0, 0, 0, 0, 0], "stateRewards": ["", -2, 3, 3, -14, 62, 36, 49, 16, 11, 17, -84, 2, -1, 6, 2, -82, -73, 49, -6, -87, 48, 50, -1, -2, -1, -16, -11, 37, -44, 4, 55, 73, -10], "withholdReward": false, "trial_id": "mdp_trial_24", "block": "test", "trialIndex": 25, "score": 60.1, "costs": -12.9, "simulationMode": [null, null, null, null, null], "rewards": [-1, -2, -1, 4, 73], "path": ["0", "0", "23", "24", "25", "30", "32"], "rt": [24989, 342, 133, 191, 182], "actions": ["left", "left", "left", "down", "down"], "actionTimes": [26852, 27711, 28326, 29026, 29716], "queries": {"click": {"state": {"target": ["27", "29", "28", "31", "33", "32"], "time": [2994, 6322, 9608, 13422, 17766, 21924]}, "edge": {"target": [], "time": []}}, "mouseover": {"state": {"target": ["28", "27", "29", "26", "28", "25", "30", "30", "31", "31", "33", "33", "32", "31", "23"], "time": [1970, 2593, 3744, 7119, 7207, 10627, 10705, 11699, 12013, 12594, 17094, 17344, 21427, 25562, 25912]}, "edge": {"target": [], "time": []}}, "mouseout": {"state": {"target": ["0", "28", "27", "27", "29", "26", "28", "25", "30", "30", "31", "31", "31", "33", "33", "32", "31", "23"], "time": [1008, 2037, 3228, 3617, 7113, 7180, 10549, 10648, 10744, 12007, 12060, 13614, 16943, 17127, 21268, 25498, 25581, 25995]}, "edge": {"target": [], "time": []}}}, "displayed_time": "30.23", "trialTime": 31253, "trial_type": "mouselab-mdp", "trial_index": 32, "time_elapsed": 1972387, "internal_node_id": "0.0-6.0-1.0-23.0"}}, {"uniqueid": "w52893686:a43458876", "current_trial": 33, "dateTime": 1693568622031, "trialdata": {"revealed_states": [], "clicked_states": ["9", "11", "5"], "num_clicks_accrued": [0, 0, 0, 0, 0, 0, 0, 0, 0, 0, 0, 0, 0], "stateRewards": ["", -1, 1, -6, -1, 80, 23, 2, -11, 73, -81, 59, 1, 3, 5, -1, -26, 28, -3, 16, -59, -13, -50, -2, -2, 2, 15, -50, 86, 17, -4, 37, 35, 44], "withholdReward": false, "trial_id": "mdp_trial_25", "block": "test", "trialIndex": 26, "score": 66.55, "costs": -6.449999999999999, "simulationMode": [null, null, null, null, null], "rewards": [-1, 1, -6, -1, 80], "path": ["0", "0", "1", "2", "3", "4", "5"], "rt": [13265, 18, 54, 129, 70], "actions": ["up", "up", "up", "right", "up"], "actionTimes": [15038, 15579, 16167, 16806, 17386], "queries": {"click": {"state": {"target": ["9", "11", "5"], "time": [3045, 6462, 10777]}, "edge": {"target": [], "time": []}}, "mouseover": {"state": {"target": ["1", "9", "11", "5", "2", "1"], "time": [2262, 2672, 3993, 10348, 12135, 12474]}, "edge": {"target": [], "time": []}}, "mouseout": {"state": {"target": ["0", "1", "9", "11", "5", "2", "1"], "time": [2231, 2283, 3826, 9956, 11831, 12401, 12706]}, "edge": {"target": [], "time": []}}}, "displayed_time": "17.89", "trialTime": 19171, "trial_type": "mouselab-mdp", "trial_index": 33, "time_elapsed": 1992445, "internal_node_id": "0.0-6.0-1.0-24.0"}}, {"uniqueid": "w52893686:a43458876", "current_trial": 34, "dateTime": 1693568641938, "trialdata": {"revealed_states": [], "clicked_states": ["5", "1", "9"], "num_clicks_accrued": [0, 0, 0, 0, 0, 0, 0, 0, 0, 0, 0, 0, 0], "stateRewards": ["", -2, -3, -3, 9, 79, 67, 22, -15, -56, 27, -85, -2, 4, -4, -15, -20, -32, 60, 15, 71, 57, 17, 1, 2, -8, 15, -37, -81, 82, 15, 21, -3, 2], "withholdReward": false, "trial_id": "mdp_trial_26", "block": "test", "trialIndex": 27, "score": 75.95, "costs": -4.05, "simulationMode": [null, null, null, null, null], "rewards": [-2, -3, -3, 9, 79], "path": ["0", "0", "1", "2", "3", "4", "5"], "rt": [12756, 49, 192, 26, 149], "actions": ["up", "up", "up", "right", "up"], "actionTimes": [14702, 15270, 15995, 16546, 17212], "queries": {"click": {"state": {"target": ["5", "1", "9"], "time": [4332, 8736, 10970]}, "edge": {"target": [], "time": []}}, "mouseover": {"state": {"target": ["10", "8", "3", "4", "5", "4", "3", "2", "1", "2", "3", "9", "2"], "time": [2932, 3050, 3315, 3415, 3966, 4983, 7782, 7833, 7999, 9410, 9530, 10415, 13706]}, "edge": {"target": [], "time": []}}, "mouseout": {"state": {"target": ["0", "0", "10", "8", "3", "4", "5", "4", "3", "2", "1", "2", "3", "9", "2", "1", "0"], "time": [82, 2816, 3031, 3198, 3348, 3831, 4902, 7633, 7815, 7898, 9333, 9488, 10367, 13228, 13999, 18498, 18532]}, "edge": {"target": [], "time": []}}}, "displayed_time": "17.72", "trialTime": 18954, "trial_type": "mouselab-mdp", "trial_index": 34, "time_elapsed": 2012351, "internal_node_id": "0.0-6.0-1.0-25.0"}}, {"uniqueid": "w52893686:a43458876", "current_trial": 35, "dateTime": 1693568675280, "trialdata": {"revealed_states": [], "clicked_states": ["17", "16", "20", "21", "32", "31"], "num_clicks_accrued": [0, 0, 0, 0, 0, 0, 0, 0, 0, 0, 0, 0, 0], "stateRewards": ["", -1, 3, 2, 9, 41, 4, -46, -12, -54, -87, -25, 2, 3, -1, 11, -77, 12, -33, -9, -32, 35, 72, 1, 3, -7, 4, 37, 65, -73, 6, 77, -43, 8], "withholdReward": false, "trial_id": "mdp_trial_27", "block": "test", "trialIndex": 28, "score": 67.1, "costs": -12.9, "simulationMode": [null, null, null, null, null], "rewards": [1, 3, -7, 6, 77], "path": ["0", "0", "23", "24", "25", "30", "31"], "rt": [26459, 45, 116, 154, 201], "actions": ["left", "left", "left", "down", "right"], "actionTimes": [28419, 28959, 29606, 30272, 30985], "queries": {"click": {"state": {"target": ["17", "16", "20", "21", "32", "31"], "time": [3504, 7721, 11899, 15712, 20089, 23891]}, "edge": {"target": [], "time": []}}, "mouseover": {"state": {"target": ["12", "15", "17", "15", "16", "15", "20", "21", "32", "31", "23", "0"], "time": [2328, 2432, 3026, 6984, 7343, 11041, 11143, 12928, 19726, 23562, 27328, 27762]}, "edge": {"target": [], "time": []}}, "mouseout": {"state": {"target": ["0", "12", "15", "17", "17", "15", "16", "15", "20", "21", "32", "31", "23"], "time": [1041, 2361, 2942, 3702, 4415, 7026, 11019, 11061, 12825, 19210, 20303, 27280, 27461]}, "edge": {"target": [], "time": []}}}, "displayed_time": "31.50", "trialTime": 32241, "trial_type": "mouselab-mdp", "trial_index": 35, "time_elapsed": 2045694, "internal_node_id": "0.0-6.0-1.0-26.0"}}, {"uniqueid": "w52893686:a43458876", "current_trial": 36, "dateTime": 1693568920872, "trialdata": {"revealed_states": [], "clicked_states": ["23", "27", "12", "16", "17"], "num_clicks_accrued": [0, 0, 0, 0, 0, 0, 0, 0, 0, 0, 0, 0, 0], "stateRewards": ["", -1, -3, 1, -4, -48, -63, -49, -2, -84, -19, 65, 2, -2, -2, -12, -4, 59, 9, 6, 75, 69, -13, -1, -3, -3, -2, -37, -68, -36, 13, 32, 18, -14], "withholdReward": false, "trial_id": "mdp_trial_28", "block": "test", "trialIndex": 29, "score": 39.05, "costs": -5.949999999999999, "simulationMode": [null, null, null, null, null], "rewards": [2, -2, -2, -12, 59], "path": ["0", "0", "12", "13", "14", "15", "17"], "rt": [18726, 306, 142, 323, 95], "actions": ["right", "right", "right", "up", "right"], "actionTimes": [239874, 240677, 241326, 242159, 242762], "queries": {"click": {"state": {"target": ["23", "27", "12", "16", "17"], "time": [222947, 224901, 229689, 231860, 235365]}, "edge": {"target": [], "time": []}}, "mouseover": {"state": {"target": ["1", "23", "24", "26", "27", "29", "26", "28", "0", "12", "14", "14", "15", "16", "17", "15", "18", "0"], "time": [222012, 222446, 223602, 223976, 224296, 227269, 228280, 228347, 228762, 229246, 230569, 231230, 231298, 231380, 233222, 238780, 238835, 239231]}, "edge": {"target": [], "time": []}}, "mouseout": {"state": {"target": ["0", "0", "1", "23", "24", "26", "27", "29", "26", "28", "0", "12", "14", "14", "15", "16", "17", "15", "18"], "time": [474, 221937, 222321, 223139, 223628, 224005, 227074, 228229, 228318, 228366, 229181, 229911, 230747, 231280, 231331, 233052, 238746, 238814, 238864]}, "edge": {"target": [], "time": []}}}, "displayed_time": "243.30", "trialTime": 244549, "trial_type": "mouselab-mdp", "trial_index": 36, "time_elapsed": 2291287, "internal_node_id": "0.0-6.0-1.0-27.0"}}, {"uniqueid": "w52893686:a43458876", "current_trial": 37, "dateTime": 1693568955047, "trialdata": {"revealed_states": [], "clicked_states": ["5", "9", "11", "6", "7", "10"], "num_clicks_accrued": [0, 0, 0, 0, 0, 0, 0, 0, 0, 0, 0, 0, 0], "stateRewards": ["", -1, -2, -1, -10, -57, 73, -72, -16, 75, -14, -46, -2, -3, -7, -1, -61, -60, 76, -4, 50, 4, 14, 2, 2, -7, 12, -65, -32, 15, -8, -76, -25, -61], "withholdReward": false, "trial_id": "mdp_trial_29", "block": "test", "trialIndex": 30, "score": 42.1, "costs": -12.9, "simulationMode": [null, null, null, null, null], "rewards": [-1, -2, -1, -16, 75], "path": ["0", "0", "1", "2", "3", "8", "9"], "rt": [25308, 556, 26, 1165, 237], "actions": ["up", "up", "up", "left", "up"], "actionTimes": [27569, 28634, 29184, 30873, 31612], "queries": {"click": {"state": {"target": ["5", "9", "11", "6", "7", "10"], "time": [3853, 8729, 12845, 16674, 20210, 23958]}, "edge": {"target": [], "time": []}}, "mouseover": {"state": {"target": ["2", "3", "5", "9", "9", "11", "2", "7", "7", "6", "7", "10", "1"], "time": [2922, 3020, 3509, 7837, 8293, 12303, 14038, 14196, 16036, 16254, 18691, 23505, 25999]}, "edge": {"target": [], "time": []}}, "mouseout": {"state": {"target": ["0", "2", "3", "5", "9", "9", "11", "2", "7", "7", "6", "7", "7", "10", "1"], "time": [2859, 2969, 3054, 7435, 7970, 12195, 13928, 14121, 14221, 16137, 18582, 20404, 23038, 25562, 26138]}, "edge": {"target": [], "time": []}}}, "displayed_time": "32.12", "trialTime": 33094, "trial_type": "mouselab-mdp", "trial_index": 37, "time_elapsed": 2325461, "internal_node_id": "0.0-6.0-1.0-28.0"}}, {"uniqueid": "w52893686:a43458876", "current_trial": 38, "dateTime": 1693568988011, "trialdata": {"revealed_states": [], "clicked_states": ["16", "21", "22", "18", "17", "20"], "num_clicks_accrued": [0, 0, 0, 0, 0, 0, 0, 0, 0, 0, 0, 0, 0], "stateRewards": ["", 2, -4, -8, -15, 71, -43, -41, 7, -17, 20, 67, -1, -1, -4, 6, 37, -24, -47, 9, 34, 57, 45, 1, 2, -4, -5, -23, 88, -5, 13, -40, 43, 44], "withholdReward": false, "trial_id": "mdp_trial_30", "block": "test", "trialIndex": 31, "score": 47.1, "costs": -12.9, "simulationMode": [null, null, null, null, null], "rewards": [-1, -1, -4, 9, 57], "path": ["0", "0", "12", "13", "14", "19", "21"], "rt": [24677, 468, 566, 25, 256], "actions": ["right", "right", "right", "down", "down"], "actionTimes": [26961, 27942, 29009, 29545, 30345], "queries": {"click": {"state": {"target": ["16", "21", "22", "18", "17", "20"], "time": [3902, 8054, 12080, 15953, 19321, 22881]}, "edge": {"target": [], "time": []}}, "mouseover": {"state": {"target": ["1", "16", "16", "15", "14", "19", "19", "21", "22", "13", "18", "15", "17", "20"], "time": [2954, 3032, 3456, 4482, 4549, 4833, 7211, 7337, 11566, 15152, 15516, 18205, 18880, 22151]}, "edge": {"target": [], "time": []}}, "mouseout": {"state": {"target": ["0", "1", "16", "16", "15", "14", "19", "19", "21", "22", "13", "18", "15", "17", "17", "20"], "time": [2901, 2982, 3052, 4456, 4506, 4627, 6634, 7275, 11324, 12290, 15334, 18142, 18419, 19548, 20199, 23098]}, "edge": {"target": [], "time": []}}}, "displayed_time": "30.86", "trialTime": 31886, "trial_type": "mouselab-mdp", "trial_index": 38, "time_elapsed": 2358425, "internal_node_id": "0.0-6.0-1.0-29.0"}}, {"uniqueid": "w52893686:a43458876", "current_trial": 39, "dateTime": 1693569007096, "trialdata": {"revealed_states": [], "clicked_states": ["31"], "num_clicks_accrued": [0, 0, 0, 0, 0, 0, 0, 0, 0, 0, 0, 0, 0], "stateRewards": ["", 2, 3, -3, 12, -43, 81, -82, -15, 58, -7, -75, -1, -1, 3, -5, 50, -25, -8, 4, 66, 65, -66, 2, -4, 2, -1, -10, 10, 37, 11, 88, -37, 8], "withholdReward": false, "trial_id": "mdp_trial_31", "block": "test", "trialIndex": 32, "score": -28.15, "costs": -2.15, "simulationMode": [null, null, null, null, null], "rewards": [2, -4, 2, 11, -37], "path": ["0", "0", "23", "24", "25", "30", "32"], "rt": [6320, 33, 145, 317, 75], "actions": ["left", "left", "left", "down", "down"], "actionTimes": [8704, 9256, 9908, 10725, 11353], "queries": {"click": {"state": {"target": ["31"], "time": [3976]}, "edge": {"target": [], "time": []}}, "mouseover": {"state": {"target": ["31", "30", "31", "23", "0"], "time": [2505, 2669, 3086, 7970, 8170]}, "edge": {"target": [], "time": []}}, "mouseout": {"state": {"target": ["0", "23", "24", "25", "25", "24", "23", "31", "30", "31", "23", "0"], "time": [104, 652, 703, 735, 945, 1002, 1184, 2587, 3053, 7638, 8103, 8286]}, "edge": {"target": [], "time": []}}}, "displayed_time": "16.39", "trialTime": 17990, "trial_type": "mouselab-mdp", "trial_index": 39, "time_elapsed": 2377510, "internal_node_id": "0.0-6.0-1.0-30.0"}}, {"uniqueid": "w52893686:a43458876", "current_trial": 40, "dateTime": 1693569042424, "trialdata": {"revealed_states": [], "clicked_states": ["27", "32", "31", "33", "29", "28"], "num_clicks_accrued": [0, 0, 0, 0, 0, 0, 0, 0, 0, 0, 0, 0, 0], "stateRewards": ["", 1, 2, -3, 6, -88, 74, -45, 7, -46, 40, -77, 1, -4, 4, 3, 22, -25, -59, 8, -83, 19, -60, -1, -1, -1, -8, 26, -29, 64, -7, -88, -51, -55], "withholdReward": false, "trial_id": "mdp_trial_32", "block": "test", "trialIndex": 33, "score": 40.1, "costs": -12.9, "simulationMode": [null, null, null, null, null], "rewards": [-1, -1, -1, -8, 64], "path": ["0", "0", "23", "24", "25", "26", "29"], "rt": [26821, 79, 156, 481, 566], "actions": ["left", "left", "left", "up", "left"], "actionTimes": [29426, 30018, 30679, 31699, 32771], "queries": {"click": {"state": {"target": ["27", "32", "31", "33", "29", "28"], "time": [4440, 9075, 12886, 17050, 21460, 25043]}, "edge": {"target": [], "time": []}}, "mouseover": {"state": {"target": ["23", "24", "26", "27", "29", "25", "32", "31", "33", "33", "29", "26", "28", "24", "23"], "time": [3433, 3482, 3617, 4000, 5330, 8083, 8666, 12535, 16317, 16668, 20709, 22860, 22977, 27951, 28451]}, "edge": {"target": [], "time": []}}, "mouseout": {"state": {"target": ["0", "23", "24", "26", "27", "27", "29", "25", "32", "31", "33", "33", "29", "26", "28", "24", "23"], "time": [3409, 3452, 3532, 3800, 4633, 5081, 7983, 8133, 9266, 16267, 16384, 20384, 22837, 22889, 27836, 28351, 28684]}, "edge": {"target": [], "time": []}}}, "displayed_time": "33.27", "trialTime": 34165, "trial_type": "mouselab-mdp", "trial_index": 40, "time_elapsed": 2412838, "internal_node_id": "0.0-6.0-1.0-31.0"}}, {"uniqueid": "w52893686:a43458876", "current_trial": 41, "dateTime": 1693569076332, "trialdata": {"revealed_states": [], "clicked_states": ["20", "17", "16", "21", "22", "18"], "num_clicks_accrued": [0, 0, 0, 0, 0, 0, 0, 0, 0, 0, 0, 0, 0], "stateRewards": ["", 1, 1, 6, -14, -40, 37, 16, -13, 33, -68, 49, 2, 4, 3, 6, 55, 27, 32, 10, -65, 20, -87, 2, 1, -6, -5, -42, 12, 29, -8, 16, 76, -33], "withholdReward": false, "trial_id": "mdp_trial_33", "block": "test", "trialIndex": 34, "score": 57.1, "costs": -12.9, "simulationMode": [null, null, null, null, null], "rewards": [2, 4, 3, 6, 55], "path": ["0", "0", "12", "13", "14", "15", "16"], "rt": [25787, 362, 102, 1175, 89], "actions": ["right", "right", "right", "up", "up"], "actionTimes": [27773, 28645, 29265, 30940, 31537], "queries": {"click": {"state": {"target": ["20", "17", "16", "21", "22", "18"], "time": [3831, 7958, 12225, 16087, 20082, 24110]}, "edge": {"target": [], "time": []}}, "mouseover": {"state": {"target": ["13", "14", "19", "20", "17", "16", "16", "15", "14", "19", "21", "22", "13", "18"], "time": [2275, 2312, 2392, 3052, 7512, 11352, 11727, 15092, 15176, 15326, 15676, 19376, 23474, 23619]}, "edge": {"target": [], "time": []}}, "mouseout": {"state": {"target": ["23", "0", "13", "14", "19", "20", "17", "16", "16", "15", "14", "19", "21", "22", "13"], "time": [643, 1065, 2294, 2332, 2737, 4015, 11277, 11393, 15015, 15142, 15243, 15426, 19278, 23434, 23526]}, "edge": {"target": [], "time": []}}}, "displayed_time": "32.09", "trialTime": 32818, "trial_type": "mouselab-mdp", "trial_index": 41, "time_elapsed": 2446748, "internal_node_id": "0.0-6.0-1.0-32.0"}}, {"uniqueid": "w52893686:a43458876", "current_trial": 42, "dateTime": 1693569105051, "trialdata": {"revealed_states": [], "clicked_states": ["11", "10", "9", "5", "6"], "num_clicks_accrued": [0, 0, 0, 0, 0, 0, 0, 0, 0, 0, 0, 0, 0], "stateRewards": ["", -1, 4, -8, 12, 14, 69, -8, 5, -72, -14, 56, -1, -1, -1, 9, 67, 19, 11, -9, -88, -58, 3, 2, -4, -8, 4, 62, 77, -74, 5, -31, 65, 88], "withholdReward": false, "trial_id": "mdp_trial_34", "block": "test", "trialIndex": 35, "score": 65.25, "costs": -10.75, "simulationMode": [null, null, null, null, null], "rewards": [-1, 4, -8, 12, 69], "path": ["0", "0", "1", "2", "3", "4", "6"], "rt": [20654, 533, 359, 243, 205], "actions": ["up", "up", "up", "right", "right"], "actionTimes": [23068, 24110, 24983, 25738, 26446], "queries": {"click": {"state": {"target": ["11", "10", "9", "5", "6"], "time": [4144, 7602, 11667, 15110, 18633]}, "edge": {"target": [], "time": []}}, "mouseover": {"state": {"target": ["10", "11", "3", "2", "10", "8", "9", "4", "5", "4", "7", "6", "7", "2", "1"], "time": [2902, 3318, 5128, 5484, 6681, 11070, 11255, 12429, 12835, 16011, 16511, 17256, 19804, 22303, 22470]}, "edge": {"target": [], "time": []}}, "mouseout": {"state": {"target": ["18", "0", "10", "11", "3", "2", "10", "8", "9", "4", "5", "4", "7", "6", "7", "2"], "time": [908, 2744, 2936, 4337, 5225, 5544, 7801, 11103, 12341, 12636, 15918, 16317, 17138, 19377, 22203, 22386]}, "edge": {"target": [], "time": []}}}, "displayed_time": "26.99", "trialTime": 27576, "trial_type": "mouselab-mdp", "trial_index": 42, "time_elapsed": 2475465, "internal_node_id": "0.0-6.0-1.0-33.0"}}, {"uniqueid": "w52893686:a43458876", "current_trial": 43, "dateTime": 1693569143866, "trialdata": {"revealed_states": [], "clicked_states": [], "num_clicks_accrued": [0, 0, 0, 0, 0, 0, 0, 0, 0, 0, 0, 0, 0], "stateRewards": ["", 2, 3, -1, 6, 44, -4, -59, -14, -3, 64, 16, 1, -3, 3, 6, 3, 49, 19, 3, -49, -14, -86, 1, 2, -3, -8, -33, 14, 32, -13, -77, -47, -67], "withholdReward": false, "trial_id": "mdp_trial_35", "block": "test", "trialIndex": 36, "score": -13, "costs": 0, "simulationMode": [null, null, null, null, null], "rewards": [2, 3, -1, -14, -3], "path": ["0", "0", "1", "2", "3", "8", "9"], "rt": [8427, 931, 614, 709, 370], "actions": ["up", "up", "up", "left", "up"], "actionTimes": [30528, 31983, 33114, 34344, 35237], "queries": {"click": {"state": {"target": [], "time": []}, "edge": {"target": [], "time": []}}, "mouseover": {"state": {"target": [], "time": []}, "edge": {"target": [], "time": []}}, "mouseout": {"state": {"target": ["1", "24", "1"], "time": [7401, 15779, 16946]}, "edge": {"target": [], "time": []}}}, "displayed_time": "36.10", "trialTime": 37732, "trial_type": "mouselab-mdp", "trial_index": 43, "time_elapsed": 2514280, "internal_node_id": "0.0-6.0-1.0-34.0"}}, {"uniqueid": "w52893686:a43458876", "current_trial": 44, "dateTime": 1693569175487, "trialdata": {"revealed_states": [], "clicked_states": ["27", "29", "28", "33", "31", "32"], "num_clicks_accrued": [0, 0, 0, 0, 0, 0, 0, 0, 0, 0, 0, 0, 0], "stateRewards": ["", -1, -4, -6, -15, 21, -67, -63, 9, 51, 69, -14, -1, 3, 8, -8, 39, 72, 63, 15, 19, 47, 15, 1, 4, 5, 16, -18, 34, 35, -14, -80, 40, 1], "withholdReward": false, "trial_id": "mdp_trial_36", "block": "test", "trialIndex": 37, "score": 23.1, "costs": -12.9, "simulationMode": [null, null, null, null, null], "rewards": [1, 4, 5, -14, 40], "path": ["0", "0", "23", "24", "25", "30", "32"], "rt": [22936, 202, 145, 677, 53], "actions": ["left", "left", "left", "down", "down"], "actionTimes": [26135, 26856, 27497, 28680, 29238], "queries": {"click": {"state": {"target": ["27", "29", "28", "33", "31", "32"], "time": [4969, 8243, 11882, 15572, 18889, 22279]}, "edge": {"target": [], "time": []}}, "mouseover": {"state": {"target": ["23", "24", "26", "27", "29", "26", "28", "25", "33", "30", "31", "32"], "time": [3983, 4049, 4264, 4517, 5818, 9947, 10137, 14416, 14714, 17377, 17850, 21086]}, "edge": {"target": [], "time": []}}, "mouseout": {"state": {"target": ["0", "23", "24", "26", "27", "29", "26", "28", "25", "33", "30", "31", "32", "31"], "time": [3949, 4031, 4116, 4315, 5638, 9869, 10057, 14229, 14527, 17336, 17400, 20905, 23604, 24184]}, "edge": {"target": [], "time": []}}}, "displayed_time": "29.83", "trialTime": 30372, "trial_type": "mouselab-mdp", "trial_index": 44, "time_elapsed": 2545901, "internal_node_id": "0.0-6.0-1.0-35.0"}}, {"uniqueid": "w52893686:a43458876", "current_trial": 45, "dateTime": 1693569200443, "trialdata": {"revealed_states": [], "clicked_states": [], "num_clicks_accrued": [0, 0, 0, 0, 0, 0, 0, 0, 0, 0, 0, 0, 0], "stateRewards": ["", -2, 2, -2, -7, -50, -62, -45, 7, 36, -24, -72, -1, -1, 8, -1, -67, 20, -52, 2, 35, -50, 80, -1, 1, 6, -6, -70, 6, 88, 8, -47, 74, -19], "withholdReward": false, "trial_id": "mdp_trial_37", "block": "test", "trialIndex": 38, "score": -33, "costs": 0, "simulationMode": [null, null, null, null, null], "rewards": [-1, 1, 6, 8, -47], "path": ["0", "0", "23", "24", "25", "30", "31"], "rt": [8047, 177, 343, 583, 234], "actions": ["left", "left", "left", "down", "right"], "actionTimes": [16834, 17567, 18410, 19501, 20293], "queries": {"click": {"state": {"target": [], "time": []}, "edge": {"target": [], "time": []}}, "mouseover": {"state": {"target": ["18", "16", "18", "1", "11", "11"], "time": [9947, 10542, 10698, 10831, 11763, 14132]}, "edge": {"target": [], "time": []}}, "mouseout": {"state": {"target": ["23", "0", "18", "16", "18", "1", "11", "11"], "time": [7498, 9747, 10030, 10649, 10716, 10947, 13881, 15164]}, "edge": {"target": [], "time": []}}}, "displayed_time": "22.79", "trialTime": 23826, "trial_type": "mouselab-mdp", "trial_index": 45, "time_elapsed": 2570857, "internal_node_id": "0.0-6.0-1.0-36.0"}}, {"uniqueid": "w52893686:a43458876", "current_trial": 46, "dateTime": 1693569249738, "trialdata": {"revealed_states": [], "clicked_states": ["29", "28", "27", "32", "33", "31", "22", "18", "16", "17"], "num_clicks_accrued": [0, 0, 0, 0, 0, 0, 0, 0, 0, 0, 0, 0, 0], "stateRewards": ["", 1, 2, -3, -6, 50, -7, 7, -7, -80, 21, -1, 2, 2, 4, -1, 33, 84, 1, 14, -53, 81, 6, -2, -2, -3, -9, -87, -38, -59, -5, -74, -3, -71], "withholdReward": false, "trial_id": "mdp_trial_38", "block": "test", "trialIndex": 39, "score": 69.5, "costs": -21.499999999999996, "simulationMode": [null, null, null, null, null], "rewards": [2, 2, 4, -1, 84], "path": ["0", "0", "12", "13", "14", "15", "17"], "rt": [41328, 496, 187, 497, 110], "actions": ["right", "right", "right", "up", "right"], "actionTimes": [43403, 44475, 45171, 46181, 46802], "queries": {"click": {"state": {"target": ["29", "28", "27", "32", "33", "31", "22", "18", "16", "17"], "time": [3326, 8201, 12512, 16335, 20136, 23875, 27522, 31569, 35266, 38737]}, "edge": {"target": [], "time": []}}, "mouseover": {"state": {"target": ["26", "26", "28", "28", "26", "29", "26", "28", "28", "27", "25", "30", "32", "33", "30", "31", "31", "22", "13", "18", "16", "17", "20", "14", "13"], "time": [2104, 2310, 2374, 2579, 2646, 2779, 4902, 4985, 7826, 11779, 15350, 15562, 15962, 19678, 20924, 21117, 22780, 27096, 30480, 31200, 34913, 36970, 42252, 42630, 42897]}, "edge": {"target": [], "time": []}}, "mouseout": {"state": {"target": ["0", "0", "26", "26", "28", "28", "26", "29", "26", "28", "28", "27", "25", "30", "32", "33", "30", "31", "31", "22", "13", "18", "16", "17", "20", "14"], "time": [17, 2099, 2146, 2363, 2396, 2597, 2679, 3515, 4944, 5198, 11746, 15254, 15417, 15829, 18936, 20883, 21018, 21212, 25689, 28817, 30597, 31755, 36533, 41818, 42527, 42763]}, "edge": {"target": [], "time": []}}}, "displayed_time": "47.30", "trialTime": 47936, "trial_type": "mouselab-mdp", "trial_index": 46, "time_elapsed": 2620152, "internal_node_id": "0.0-6.0-1.0-37.0"}}, {"uniqueid": "w52893686:a43458876", "current_trial": 47, "dateTime": 1693569302017, "trialdata": {"revealed_states": [], "clicked_states": ["18", "17", "16", "20", "21", "22", "27", "32", "31", "33", "28"], "num_clicks_accrued": [0, 0, 0, 0, 0, 0, 0, 0, 0, 0, 0, 0, 0], "stateRewards": ["", 2, -3, -4, -1, 25, -16, 16, 10, -71, -20, -55, 1, 3, -4, -9, 1, 32, 11, -6, 32, -50, -41, -1, 4, 4, -8, 7, -81, 70, 2, -52, 45, -10], "withholdReward": false, "trial_id": "mdp_trial_39", "block": "test", "trialIndex": 40, "score": 30.350000000000005, "costs": -23.649999999999995, "simulationMode": [null, null, null, null, null], "rewards": [-1, 4, 4, 2, 45], "path": ["0", "0", "23", "24", "25", "30", "32"], "rt": [44718, 128, 179, 7, 138], "actions": ["left", "left", "left", "down", "down"], "actionTimes": [47369, 48012, 48695, 49275, 49920], "queries": {"click": {"state": {"target": ["18", "17", "16", "20", "21", "22", "27", "32", "31", "33", "28"], "time": [4545, 8105, 11755, 15273, 19670, 23187, 26951, 30912, 34900, 38734, 42870]}, "edge": {"target": [], "time": []}}, "mouseover": {"state": {"target": ["18", "15", "18", "18", "15", "17", "16", "15", "20", "21", "22", "31", "25", "26", "27", "26", "25", "30", "32", "31", "30", "33", "26", "28", "28", "24"], "time": [2893, 3077, 3243, 4183, 5337, 6400, 11241, 12844, 13818, 19000, 22093, 25401, 25893, 25998, 26444, 27636, 27744, 27911, 30602, 34461, 38118, 38261, 42151, 42182, 42489, 43658]}, "edge": {"target": [], "time": []}}, "mouseout": {"state": {"target": ["13", "0", "18", "15", "18", "18", "15", "17", "16", "16", "15", "20", "21", "22", "31", "25", "26", "27", "26", "25", "30", "32", "31", "30", "33", "26", "28", "28", "24"], "time": [1144, 2710, 2977, 3193, 3327, 5296, 5532, 11027, 11944, 12800, 12888, 18778, 21941, 24275, 25865, 25952, 26029, 27584, 27668, 27835, 28052, 31120, 38102, 38161, 42097, 42177, 42311, 43585, 43728]}, "edge": {"target": [], "time": []}}}, "displayed_time": "50.42", "trialTime": 51045, "trial_type": "mouselab-mdp", "trial_index": 47, "time_elapsed": 2672431, "internal_node_id": "0.0-6.0-1.0-38.0"}}, {"uniqueid": "w52893686:a43458876", "current_trial": 48, "dateTime": 1693569321606, "trialdata": {"revealed_states": [], "clicked_states": ["31"], "num_clicks_accrued": [0, 0, 0, 0, 0, 0, 0, 0, 0, 0, 0, 0, 0], "stateRewards": ["", 1, -3, -4, -11, -56, 61, -47, -16, -28, -9, 69, -2, -3, -4, -8, 40, -86, 59, -4, 80, 27, 54, -1, 3, -1, 8, 67, 23, 50, 6, 83, -43, -29], "withholdReward": false, "trial_id": "mdp_trial_40", "block": "test", "trialIndex": 41, "score": 87.85, "costs": -2.15, "simulationMode": [null, null, null, null, null], "rewards": [-1, 3, -1, 6, 83], "path": ["0", "0", "23", "24", "25", "30", "31"], "rt": [6459, 182, 163, 429, 411], "actions": ["left", "left", "left", "down", "right"], "actionTimes": [8983, 9681, 10361, 11312, 12229], "queries": {"click": {"state": {"target": ["31"], "time": [4219]}, "edge": {"target": [], "time": []}}, "mouseover": {"state": {"target": ["23", "24", "28", "24", "31", "28", "0"], "time": [2750, 2844, 2944, 3211, 3821, 7986, 8328]}, "edge": {"target": [], "time": []}}, "mouseout": {"state": {"target": ["1", "0", "23", "24", "28", "24", "31", "28"], "time": [1127, 1583, 2794, 2862, 3094, 3361, 5041, 8034]}, "edge": {"target": [], "time": []}}}, "displayed_time": "16.53", "trialTime": 18415, "trial_type": "mouselab-mdp", "trial_index": 48, "time_elapsed": 2692019, "internal_node_id": "0.0-6.0-1.0-39.0"}}, {"uniqueid": "w52893686:a43458876", "current_trial": 49, "dateTime": 1693569529852, "trialdata": {"rt": 208187, "response": {"Q0": "$-2 to $2", "Q1": "$-16 to $16", "Q2": "$-32 to $32", "Q3": "The cost for clicking on nodes varied between nodes.", "Q4": "Very motivated"}, "question_order": [0, 1, 2, 3, 4], "trial_id": "final_quiz_control", "trial_type": "survey-multi-choice", "trial_index": 49, "time_elapsed": 2900267, "internal_node_id": "0.0-6.0-2.0"}}, {"uniqueid": "w52893686:a43458876", "current_trial": 50, "dateTime": 1693569698573, "trialdata": {"rt": 168630, "response": {"Q0": "I was anly checking nods at the end of the web, the moment i got a big number i just went to that nod.", "Q1": "No, my strategy was the same through out the game.", "Q2": " it was not difficult, it was actually enjoyable"}, "trial_id": "self_report_control", "trial_type": "survey-text", "trial_index": 50, "time_elapsed": 3068989, "internal_node_id": "0.0-6.0-3.0"}}, {"uniqueid": "w52893686:a43458876", "current_trial": 51, "dateTime": 1693569777856, "trialdata": {"rt": 79244, "response": {"Q0": "Disagree", "Q1": "Disagree", "Q2": "Agree", "Q3": "Agree", "Q4": "Agree", "Q5": "Agree", "Q6": "Disagree"}, "question_order": [0, 1, 2, 3, 4, 5, 6], "trial_id": "self_report_2", "trial_type": "survey-multi-choice", "trial_index": 51, "time_elapsed": 3148272, "internal_node_id": "0.0-6.0-4.0"}}, {"uniqueid": "w52893686:a43458876", "current_trial": 52, "dateTime": 1693569851942, "trialdata": {"rt": 74048, "response": {"gender": "female", "age": "26", "colorblind": "0", "effort": "0"}, "trial_type": "survey-html-form", "trial_index": 52, "time_elapsed": 3222357, "internal_node_id": "0.0-6.0-5.0"}}, {"uniqueid": "w52893686:a43458876", "current_trial": 53, "dateTime": 1693569994695, "trialdata": {"rt": 142702, "response": {"Q0": "No, it was not difficult.", "Q1": "No, i have never participated in this game before.", "Q2": "it was actually fun."}, "trial_type": "survey-text", "trial_index": 53, "time_elapsed": 3365111, "internal_node_id": "0.0-6.0-6.0"}}, {"uniqueid": "w52893686:a43458876", "current_trial": 54, "dateTime": 1693570144534, "trialdata": {"rt": 149812, "stimulus": "<h1>Completion Code Instructions (1/2)</h1>\n<br><br><br><br>\nYou have reached the end of the experiment! The completion code consists of two parts: (1) a code with 2 characters (2) a code with 6 characters. On this page, you will receive the second part of the code. The first part of the completion code will be on the next page.\n<br><br>\nThe second part of your completion code is: <b>EWEK22</b>\n<br><br>\nPlease note this down. Then, press 'Finish HIT' in order to find the first part of your completion code. Once the data has been saved, you will receive this code either in this window or in the original browser window where you started the experiment.\n", "response": 0, "trial_type": "html-button-response", "trial_index": 54, "time_elapsed": 3514950, "internal_node_id": "0.0-6.0-7.0"}}, {"uniqueid": "w52893686:a43458876", "current_trial": 55, "dateTime": 1693570145558, "trialdata": {"success": true, "trial_type": "fullscreen", "trial_index": 55, "time_elapsed": 3515974, "internal_node_id": "0.0-7.0"}}], "questiondata": {"params": {"CODE": "C6DMOQA6", "MIN_TIME": 14, "inspectCost": 1, "startTime": "Fri Sep 01 2023 13:10:27 GMT+0200 (South Africa Standard Time)", "bonusRate": 0.002, "variance": "1_2_4_8_44", "branching": "31123"}, "final_score": 1871.15}, "eventdata": [{"eventtype": "initialized", "value": null, "timestamp": 1693566626560, "interval": 0}, {"eventtype": "window_resize", "value": [1024, 654], "timestamp": 1693566626560, "interval": 0}, {"eventtype": "window_resize", "value": [1024, 654], "timestamp": 1693566627247, "interval": 687}, {"eventtype": "window_resize", "value": [1366, 768], "timestamp": 1693566646559, "interval": 19312}, {"eventtype": "window_resize", "value": [1024, 654], "timestamp": 1693570145007, "interval": 3498448}], "useragent": "Mozilla/5.0 (Windows NT 10.0; Win64; x64) AppleWebKit/537.36 (KHTML, like Gecko) Chrome/116.0.0.0 Safari/537.36", "mode": "live", "id": "w52893686:a43458876", "status": "user data saved", "Beginhit": "2023-09-01 11:10:21.516682", "Beginexp": "2023-09-01 11:10:46.729986", "Endhit": "2023-09-01 12:09:05.998271", "psiturkStatus": 3, "browser": "<redacted>", "platform": "windows", "language": "en-US"}