{"condition": 1, "counterbalance": 0, "assignmentId": "a77189431", "workerId": "w55299912", "hitId": "h28740660", "currenttrial": 9, "bonus": 0, "data": [{"uniqueid": "w55299912:a77189431", "current_trial": 0, "dateTime": 1691071091356, "trialdata": {"success": true, "trial_type": "fullscreen", "trial_index": 0, "time_elapsed": 11224, "internal_node_id": "0.0-0.0"}}, {"uniqueid": "w55299912:a77189431", "current_trial": 1, "dateTime": 1691071154178, "trialdata": {"view_history": [{"page_index": 0, "viewing_time": 62801}], "rt": 62802, "trial_id": "exp_instructions_misaligned", "trial_type": "instructions", "trial_index": 1, "time_elapsed": 74049, "internal_node_id": "0.0-1.0"}}, {"uniqueid": "w55299912:a77189431", "current_trial": 2, "dateTime": 1691071160057, "trialdata": {"success": true, "trial_type": "fullscreen", "trial_index": 2, "time_elapsed": 79928, "internal_node_id": "0.0-2.0-0.0"}}, {"uniqueid": "w55299912:a77189431", "current_trial": 3, "dateTime": 1691071424860, "trialdata": {"view_history": [{"page_index": 0, "viewing_time": 164836}, {"page_index": 1, "viewing_time": 17620}, {"page_index": 0, "viewing_time": 12101}, {"page_index": 1, "viewing_time": 26865}, {"page_index": 2, "viewing_time": 35887}, {"page_index": 3, "viewing_time": 7489}], "rt": 264798, "trial_id": "mouselab_instructions_1_misaligned", "trial_type": "instructions", "trial_index": 3, "time_elapsed": 344730, "internal_node_id": "0.0-2.0-1.0"}}, {"uniqueid": "w55299912:a77189431", "current_trial": 4, "dateTime": 1691071450730, "trialdata": {"revealed_states": [], "clicked_states": [], "num_clicks_accrued": [0, 0, 0, 0, 0, 0, 0, 0, 0, 0, 0, 0, 0], "stateRewards": ["", -10, -10, 10, -10, -10, -10, 10, -10, -10, -10, -10, -10, 10, -10, 10, -10, 10, -10, 10, 10, 10, -10, -10, -10, 10, -10, 10, -10, 10, -10, -10, -10, -10], "withholdReward": false, "trial_id": "practice_1", "block": "test", "trialIndex": 0, "score": 13.5, "costs": 0, "simulationMode": [null, null, null, null, null], "rewards": [-10, 10, -10, 10, 10], "path": ["0", "0", "12", "13", "14", "19", "21"], "rt": [2209, 252, 517, 1578, 4986], "actions": ["right", "right", "right", "down", "down"], "actionTimes": [8283, 9049, 10090, 12179, 17675], "queries": {"click": {"state": {"target": [], "time": []}, "edge": {"target": [], "time": []}}, "mouseover": {"state": {"target": [], "time": []}, "edge": {"target": [], "time": []}}, "mouseout": {"state": {"target": ["0", "12", "0", "0", "12"], "time": [2643, 3068, 4544, 18936, 19081]}, "edge": {"target": [], "time": []}}}, "displayed_time": "18.20", "trialTime": 24841, "trial_type": "mouselab-mdp", "trial_index": 4, "time_elapsed": 370599, "internal_node_id": "0.0-2.0-2.0-0.0"}}, {"uniqueid": "w55299912:a77189431", "current_trial": 5, "dateTime": 1691071469028, "trialdata": {"revealed_states": [], "clicked_states": [], "num_clicks_accrued": [0, 0, 0, 0, 0, 0, 0, 0, 0, 0, 0, 0, 0], "stateRewards": ["", -10, -10, -10, -10, 10, -10, 10, 10, 10, 10, 10, 10, -10, 10, 10, -10, 10, -10, -10, -10, 10, 10, 10, 10, -10, -10, 10, -10, 10, -10, 10, 10, 10], "withholdReward": false, "trial_id": "practice_2", "block": "test", "trialIndex": 1, "score": -26.5, "costs": 0, "simulationMode": [null, null, null, null, null], "rewards": [-10, -10, -10, -10, 10], "path": ["0", "0", "1", "2", "3", "4", "5"], "rt": [3488, 272, 377, 1, 315], "actions": ["up", "up", "up", "right", "up"], "actionTimes": [6377, 7164, 8064, 8582, 9427], "queries": {"click": {"state": {"target": [], "time": []}, "edge": {"target": [], "time": []}}, "mouseover": {"state": {"target": [], "time": []}, "edge": {"target": [], "time": []}}, "mouseout": {"state": {"target": ["22", "12", "0"], "time": [1486, 1954, 2208]}, "edge": {"target": [], "time": []}}}, "displayed_time": "9.94", "trialTime": 17868, "trial_type": "mouselab-mdp", "trial_index": 5, "time_elapsed": 388899, "internal_node_id": "0.0-2.0-2.0-1.0"}}, {"uniqueid": "w55299912:a77189431", "current_trial": 6, "dateTime": 1691071495918, "trialdata": {"view_history": [{"page_index": 0, "viewing_time": 22259}, {"page_index": 1, "viewing_time": 4625}], "rt": 26885, "trial_id": "mouselab_instructions_2_misaligned", "trial_type": "instructions", "trial_index": 6, "time_elapsed": 415789, "internal_node_id": "0.0-2.0-3.0"}}, {"uniqueid": "w55299912:a77189431", "current_trial": 7, "dateTime": 1691071558077, "trialdata": {"rt": 62152, "response": {"Q0": "The cost for clicking on nodes may vary between nodes.", "Q1": "The better I perform the higher my bonus will be.", "Q2": "No, the amount of cash at each node of the web may be different each time.", "Q3": "To get the highest total score.", "Q4": "Only after moving the spider.", "Q5": "3 seconds"}, "question_order": [0, 1, 2, 3, 4, 5], "correct": {"Q0": "The cost for clicking on nodes may vary between nodes.", "Q1": "The better I perform the higher my bonus will be.", "Q2": "No, the amount of cash at each node of the web may be different each time.", "Q3": "To get the highest total score.", "Q4": "Only before moving the spider.", "Q5": "3 seconds"}, "trial_id": "mouselab_quiz_misaligned", "trial_type": "survey-multi-choice", "trial_index": 7, "time_elapsed": 477947, "internal_node_id": "0.0-2.0-4.0"}}, {"uniqueid": "w55299912:a77189431", "current_trial": 8, "dateTime": 1691071567734, "trialdata": {"success": true, "trial_type": "fullscreen", "trial_index": 8, "time_elapsed": 487604, "internal_node_id": "0.0-2.1-0.1"}}], "questiondata": {"params": {"CODE": "C6DMOQA6", "MIN_TIME": 14, "inspectCost": 1, "startTime": "Thu Aug 03 2023 15:57:57 GMT+0200 (South Africa Standard Time)", "bonusRate": 0.002, "variance": "1_2_4_8_44", "branching": "31123"}}, "eventdata": [{"eventtype": "initialized", "value": null, "timestamp": 1691071076947, "interval": 0}, {"eventtype": "window_resize", "value": [1366, 670], "timestamp": 1691071076947, "interval": 0}, {"eventtype": "window_resize", "value": [1366, 670], "timestamp": 1691071077436, "interval": 489}, {"eventtype": "window_resize", "value": [1366, 768], "timestamp": 1691071090565, "interval": 13129}, {"eventtype": "focus", "value": "off", "timestamp": 1691071564397, "interval": 473832}, {"eventtype": "focus", "value": "on", "timestamp": 1691071564398, "interval": 1}, {"eventtype": "window_resize", "value": [1366, 670], "timestamp": 1691071564607, "interval": 209}, {"eventtype": "window_resize", "value": [1366, 768], "timestamp": 1691071566962, "interval": 2355}, {"eventtype": "window_resize", "value": [1366, 670], "timestamp": 1691071570538, "interval": 3576}], "useragent": "Mozilla/5.0 (Windows NT 10.0; Win64; x64) AppleWebKit/537.36 (KHTML, like Gecko) Chrome/115.0.0.0 Safari/537.36", "mode": "live", "id": "w55299912:a77189431", "status": "user data saved", "Beginhit": "2023-08-03 13:57:55.282015", "Beginexp": "2023-08-03 13:58:13.501454", "Endhit": null, "psiturkStatus": 6, "browser": "<redacted>", "platform": "windows", "language": "en-GB", "excludeReason": "quizfail"}