{"condition": 0, "counterbalance": 0, "assignmentId": "a23807144", "workerId": "w70674374", "hitId": "h93542377", "currenttrial": 30, "bonus": 0, "data": [{"uniqueid": "w70674374:a23807144", "current_trial": 0, "dateTime": 1693838103729, "trialdata": {"success": true, "trial_type": "fullscreen", "trial_index": 0, "time_elapsed": 9926, "internal_node_id": "0.0-0.0"}}, {"uniqueid": "w70674374:a23807144", "current_trial": 1, "dateTime": 1693838167730, "trialdata": {"view_history": [{"page_index": 0, "viewing_time": 63993}], "rt": 63994, "trial_id": "exp_instructions_misaligned", "trial_type": "instructions", "trial_index": 1, "time_elapsed": 73928, "internal_node_id": "0.0-1.0"}}, {"uniqueid": "w70674374:a23807144", "current_trial": 2, "dateTime": 1693838831540, "trialdata": {"view_history": [{"page_index": 0, "viewing_time": 169943}, {"page_index": 1, "viewing_time": 386854}, {"page_index": 2, "viewing_time": 42584}, {"page_index": 3, "viewing_time": 64422}], "rt": 663803, "trial_id": "mouselab_instructions_1_misaligned", "trial_type": "instructions", "trial_index": 2, "time_elapsed": 737738, "internal_node_id": "0.0-2.0-1.0"}}, {"uniqueid": "w70674374:a23807144", "current_trial": 3, "dateTime": 1693838874633, "trialdata": {"revealed_states": [], "clicked_states": ["1", "2", "3", "8", "9"], "num_clicks_accrued": [0, 0, 0, 0, 0, 0, 0, 0, 0, 0, 0, 0, 0], "stateRewards": ["", -10, -10, 10, 10, -10, 10, -10, -10, 10, -10, 10, 10, -10, 10, -10, 10, -10, 10, -10, 10, 10, -10, 10, 10, -10, -10, 10, -10, 10, -10, -10, 10, -10], "withholdReward": false, "trial_id": "practice_1", "block": "test", "trialIndex": 0, "score": -9, "costs": -2.5, "simulationMode": [null, null, null, null, null], "rewards": [-10, -10, 10, 10, -10], "path": ["0", "0", "1", "2", "3", "4", "5"], "rt": [26441, 357, 497, 666, 445], "actions": ["up", "up", "up", "right", "up"], "actionTimes": [29805, 30680, 31671, 32840, 33784], "queries": {"click": {"state": {"target": ["1", "2", "3", "8", "9"], "time": [7985, 13427, 17885, 20247, 22016]}, "edge": {"target": [], "time": []}}, "mouseover": {"state": {"target": ["1", "2", "3", "8", "9", "8", "2", "1", "0"], "time": [7489, 10707, 17520, 19691, 21691, 28087, 28258, 28288, 28354]}, "edge": {"target": [], "time": []}}, "mouseout": {"state": {"target": ["12", "12", "0", "1", "2", "3", "8", "9", "8", "2", "1", "0"], "time": [2073, 2625, 7191, 10473, 17257, 19608, 20970, 24977, 28104, 28275, 28304, 28369]}, "edge": {"target": [], "time": []}}}, "displayed_time": "34.31", "trialTime": 41226, "trial_type": "mouselab-mdp", "trial_index": 3, "time_elapsed": 780830, "internal_node_id": "0.0-2.0-2.0-0.0"}}, {"uniqueid": "w70674374:a23807144", "current_trial": 4, "dateTime": 1693838897896, "trialdata": {"revealed_states": [], "clicked_states": ["12", "1", "23"], "num_clicks_accrued": [0, 0, 0, 0, 0, 0, 0, 0, 0, 0, 0, 0, 0], "stateRewards": ["", -10, 10, 10, -10, -10, 10, 10, 10, -10, -10, 10, -10, -10, 10, -10, -10, 10, 10, -10, 10, 10, -10, -10, -10, 10, -10, -10, -10, -10, 10, -10, -10, -10], "withholdReward": false, "trial_id": "practice_2", "block": "test", "trialIndex": 1, "score": -28, "costs": -1.5, "simulationMode": [null, null, null, null, null], "rewards": [-10, -10, 10, -10, -10], "path": ["0", "0", "23", "24", "25", "26", "27"], "rt": [8643, 309, 485, 1375, 1155], "actions": ["left", "left", "left", "up", "up"], "actionTimes": [12778, 13578, 14553, 16442, 18090], "queries": {"click": {"state": {"target": ["12", "1", "23"], "time": [6155, 8031, 9202]}, "edge": {"target": [], "time": []}}, "mouseover": {"state": {"target": ["12", "13", "1", "1", "1", "23", "24", "24"], "time": [4868, 6865, 7265, 7469, 7685, 8633, 9881, 11535]}, "edge": {"target": [], "time": []}}, "mouseout": {"state": {"target": ["0", "12", "13", "1", "1", "1", "23", "24", "24", "23"], "time": [3418, 6765, 7252, 7282, 7503, 8532, 9849, 11133, 11601, 11770]}, "edge": {"target": [], "time": []}}}, "displayed_time": "18.58", "trialTime": 23052, "trial_type": "mouselab-mdp", "trial_index": 4, "time_elapsed": 804093, "internal_node_id": "0.0-2.0-2.0-1.0"}}, {"uniqueid": "w70674374:a23807144", "current_trial": 5, "dateTime": 1693838974730, "trialdata": {"view_history": [{"page_index": 0, "viewing_time": 60080}, {"page_index": 1, "viewing_time": 16752}], "rt": 76832, "trial_id": "mouselab_instructions_2_misaligned", "trial_type": "instructions", "trial_index": 5, "time_elapsed": 880928, "internal_node_id": "0.0-2.0-3.0"}}, {"uniqueid": "w70674374:a23807144", "current_trial": 6, "dateTime": 1693839055361, "trialdata": {"rt": 80627, "response": {"Q0": "The cost for clicking on nodes may vary between nodes.", "Q1": "The better I perform the higher my bonus will be.", "Q2": "No, the amount of cash at each node of the web may be different each time.", "Q3": "To get the highest total score.", "Q4": "Only before moving the spider.", "Q5": "3 seconds"}, "question_order": [0, 1, 2, 3, 4, 5], "correct": {"Q0": "The cost for clicking on nodes may vary between nodes.", "Q1": "The better I perform the higher my bonus will be.", "Q2": "No, the amount of cash at each node of the web may be different each time.", "Q3": "To get the highest total score.", "Q4": "Only before moving the spider.", "Q5": "3 seconds"}, "trial_id": "mouselab_quiz_misaligned", "trial_type": "survey-multi-choice", "trial_index": 6, "time_elapsed": 961559, "internal_node_id": "0.0-2.0-4.0"}}, {"uniqueid": "w70674374:a23807144", "current_trial": 7, "dateTime": 1693839068369, "trialdata": {"rt": 13001, "response": {"Q0": "No"}, "question_order": [0], "trial_id": "repeat_check", "trial_type": "survey-multi-choice", "trial_index": 7, "time_elapsed": 974566, "internal_node_id": "0.0-4.0-0.0"}}, {"uniqueid": "w70674374:a23807144", "current_trial": 8, "dateTime": 1693839097942, "trialdata": {"rt": 29567, "stimulus": "\n<h1> Get ready to start the game! </h1>\n\nThank you for reading the instructions. Get ready start with the 40 rounds of this game.\n<br><br>\nIf you need to take a break, feel free to take one after the end of a round, before continuing to the next one.\n<br><br>\nRemember, the more money the spider gets, the bigger your bonus will be!\n<br><br>\n<div style='text-align: center;'>Press <code>space</code> to begin.</div>\n\n<br><br>\n(If, at any point, the <code>space</code> key does not take you to the next page, click once on the text and try again.)", "response": " ", "trial_id": "mdp_ready", "trial_type": "html-keyboard-response", "trial_index": 8, "time_elapsed": 1004140, "internal_node_id": "0.0-6.0-0.0"}}, {"uniqueid": "w70674374:a23807144", "current_trial": 9, "dateTime": 1693839131978, "trialdata": {"revealed_states": [], "clicked_states": ["1", "12", "23"], "num_clicks_accrued": [0, 0, 0, 0, 0, 0, 0, 0, 0, 0, 0, 0, 0], "stateRewards": ["", 1, -4, -6, 11, -20, 8, -30, 1, -38, 88, 42, 2, 3, 5, -12, -8, -74, 30, -8, 67, -19, 42, 2, -1, 4, 13, 50, -68, 2, -8, -15, 87, -46], "withholdReward": false, "trial_id": "mdp_trial_1", "block": "test", "trialIndex": 2, "score": -17.25, "costs": 0.75, "simulationMode": [null, null, null, null, null], "rewards": [1, -4, -6, 11, -20], "path": ["0", "0", "1", "2", "3", "4", "5"], "rt": [5606, 242, 325, 499, 74], "actions": ["up", "up", "up", "right", "up"], "actionTimes": [11519, 12252, 13068, 14060, 14636], "queries": {"click": {"state": {"target": ["1", "12", "23"], "time": [7523, 8714, 9833]}, "edge": {"target": [], "time": []}}, "mouseover": {"state": {"target": ["1", "0", "12", "0", "23", "23", "0"], "time": [7295, 7925, 8308, 9058, 9107, 9393, 11041]}, "edge": {"target": [], "time": []}}, "mouseout": {"state": {"target": ["18", "12", "0", "1", "0", "12", "0", "23", "23", "0"], "time": [878, 4459, 5293, 7858, 7941, 9041, 9091, 9207, 10524, 11075]}, "edge": {"target": [], "time": []}}}, "displayed_time": "19.92", "trialTime": 33790, "trial_type": "mouselab-mdp", "trial_index": 9, "time_elapsed": 1038174, "internal_node_id": "0.0-6.0-1.0-0.0"}}, {"uniqueid": "w70674374:a23807144", "current_trial": 10, "dateTime": 1693839166410, "trialdata": {"revealed_states": [], "clicked_states": ["12", "13", "14", "19", "21"], "num_clicks_accrued": [0, 0, 0, 0, 0, 0, 0, 0, 0, 0, 0, 0, 0], "stateRewards": ["", -1, -4, -6, -15, 21, -67, -63, 9, 51, 69, -14, -1, 3, 8, -8, 39, 72, 63, 15, 19, 47, 15, 1, 4, 5, 16, -18, 34, 35, -14, -80, 40, 1], "withholdReward": false, "trial_id": "mdp_trial_2", "block": "test", "trialIndex": 3, "score": 67.25, "costs": -4.75, "simulationMode": [null, null, null, null, null], "rewards": [-1, 3, 8, 15, 47], "path": ["0", "0", "12", "13", "14", "19", "21"], "rt": [8467, 151, 891, 2595, 1721], "actions": ["right", "right", "right", "down", "down"], "actionTimes": [10963, 11631, 13039, 16128, 18352], "queries": {"click": {"state": {"target": ["12", "13", "14", "19", "21"], "time": [3158, 3820, 4433, 5793, 6508]}, "edge": {"target": [], "time": []}}, "mouseover": {"state": {"target": ["12", "13", "14", "22", "19", "21", "15", "16", "15", "13", "12"], "time": [2867, 3646, 4229, 5113, 5429, 6129, 7496, 8313, 8596, 9550, 9768]}, "edge": {"target": [], "time": []}}, "mouseout": {"state": {"target": ["0", "12", "12", "13", "14", "22", "19", "21", "19", "14", "15", "16", "15", "13", "12"], "time": [1698, 3197, 3413, 4063, 5029, 5229, 6079, 7063, 7163, 7379, 8230, 8447, 9313, 9733, 9983]}, "edge": {"target": [], "time": []}}}, "displayed_time": "18.87", "trialTime": 34178, "trial_type": "mouselab-mdp", "trial_index": 10, "time_elapsed": 1072607, "internal_node_id": "0.0-6.0-1.0-1.0"}}, {"uniqueid": "w70674374:a23807144", "current_trial": 11, "dateTime": 1693839188935, "trialdata": {"revealed_states": [], "clicked_states": ["23", "24", "25", "26", "27"], "num_clicks_accrued": [0, 0, 0, 0, 0, 0, 0, 0, 0, 0, 0, 0, 0], "stateRewards": ["", 2, 3, -2, -8, -8, -41, 74, 15, -23, -80, 1, 1, 3, 3, -15, -63, -78, 67, 13, 75, -41, 86, 2, -2, 6, -3, -8, -49, 50, -6, 83, 74, 80], "withholdReward": false, "trial_id": "mdp_trial_3", "block": "test", "trialIndex": 4, "score": 14.25, "costs": -4.75, "simulationMode": [null, null, null, null, null], "rewards": [2, 3, -2, 15, 1], "path": ["0", "0", "1", "2", "3", "8", "11"], "rt": [6184, 596, 456, 2001, 206], "actions": ["up", "up", "up", "left", "left"], "actionTimes": [7377, 8495, 9455, 11968, 12671], "queries": {"click": {"state": {"target": ["23", "24", "25", "26", "27"], "time": [1824, 2276, 2964, 3427, 3954]}, "edge": {"target": [], "time": []}}, "mouseover": {"state": {"target": ["23", "24", "25", "25", "26", "27", "28", "29", "23", "0"], "time": [1517, 1981, 2430, 2747, 3164, 3830, 4563, 5363, 5680, 5914]}, "edge": {"target": [], "time": []}}, "mouseout": {"state": {"target": ["23", "24", "25", "25", "26", "27", "28", "26", "29", "23", "0"], "time": [1964, 2413, 2530, 3080, 3580, 4080, 5197, 5315, 5497, 5814, 5963]}, "edge": {"target": [], "time": []}}}, "displayed_time": "15.19", "trialTime": 22271, "trial_type": "mouselab-mdp", "trial_index": 11, "time_elapsed": 1095132, "internal_node_id": "0.0-6.0-1.0-2.0"}}, {"uniqueid": "w70674374:a23807144", "current_trial": 12, "dateTime": 1693839212187, "trialdata": {"revealed_states": [], "clicked_states": ["1", "2", "3", "12", "13", "23", "24", "25"], "num_clicks_accrued": [0, 0, 0, 0, 0, 0, 0, 0, 0, 0, 0, 0, 0], "stateRewards": ["", -2, -3, -7, 7, -54, -69, -4, -14, -77, 22, 40, -2, -1, 5, 6, -35, 50, -60, 10, -28, 75, 57, 1, -4, -2, 2, 68, 34, -18, 12, 3, -21, -43], "withholdReward": false, "trial_id": "mdp_trial_4", "block": "test", "trialIndex": 5, "score": -61.2, "costs": -2.2, "simulationMode": [null, null, null, null, null], "rewards": [-2, -3, -7, 7, -54], "path": ["0", "0", "1", "2", "3", "4", "5"], "rt": [9215, 841, 546, 2202, 334], "actions": ["up", "up", "up", "right", "up"], "actionTimes": [11120, 12476, 13532, 16236, 17068], "queries": {"click": {"state": {"target": ["1", "2", "3", "12", "13", "23", "24", "25"], "time": [2694, 3228, 3872, 5310, 5957, 7155, 7712, 8278]}, "edge": {"target": [], "time": []}}, "mouseover": {"state": {"target": ["1", "2", "3", "7", "13", "12", "12", "13", "23", "24", "25", "0"], "time": [2422, 3066, 3681, 4183, 4516, 4782, 5102, 5683, 6865, 7448, 8082, 8732]}, "edge": {"target": [], "time": []}}, "mouseout": {"state": {"target": ["0", "1", "2", "3", "7", "13", "12", "12", "13", "23", "24", "25", "24", "23", "0"], "time": [869, 2832, 3449, 4082, 4200, 4765, 4815, 5633, 6216, 7382, 7965, 8498, 8599, 8665, 8765]}, "edge": {"target": [], "time": []}}}, "displayed_time": "17.57", "trialTime": 23006, "trial_type": "mouselab-mdp", "trial_index": 12, "time_elapsed": 1118383, "internal_node_id": "0.0-6.0-1.0-3.0"}}, {"uniqueid": "w70674374:a23807144", "current_trial": 13, "dateTime": 1693839235627, "trialdata": {"revealed_states": [], "clicked_states": [], "num_clicks_accrued": [0, 0, 0, 0, 0, 0, 0, 0, 0, 0, 0, 0, 0], "stateRewards": ["", -2, -3, -5, 8, 27, 11, 43, -6, -24, -87, 69, -2, 1, 1, 9, 19, 48, -37, 9, -14, 45, 62, 1, 2, 1, 16, -81, -41, 22, 4, -6, -63, 47], "withholdReward": false, "trial_id": "mdp_trial_5", "block": "test", "trialIndex": 6, "score": 54, "costs": 0, "simulationMode": [null, null, null, null, null], "rewards": [-2, 1, 1, 9, 45], "path": ["0", "0", "12", "13", "14", "19", "21"], "rt": [3909, 507, 402, 462, 380], "actions": ["right", "right", "right", "down", "down"], "actionTimes": [6654, 7660, 8556, 9516, 10398], "queries": {"click": {"state": {"target": [], "time": []}, "edge": {"target": [], "time": []}}, "mouseover": {"state": {"target": ["0"], "time": [2847]}, "edge": {"target": [], "time": []}}, "mouseout": {"state": {"target": ["23", "0"], "time": [1837, 2936]}, "edge": {"target": [], "time": []}}}, "displayed_time": "16.75", "trialTime": 23198, "trial_type": "mouselab-mdp", "trial_index": 13, "time_elapsed": 1141823, "internal_node_id": "0.0-6.0-1.0-4.0"}}, {"uniqueid": "w70674374:a23807144", "current_trial": 14, "dateTime": 1693839256187, "trialdata": {"revealed_states": [], "clicked_states": [], "num_clicks_accrued": [0, 0, 0, 0, 0, 0, 0, 0, 0, 0, 0, 0, 0], "stateRewards": ["", -1, -2, -1, -10, -57, 73, -72, -16, 75, -14, -46, -2, -3, -7, -1, -61, -60, 76, -4, 50, 4, 14, 2, 2, -7, 12, -65, -32, 15, -8, -76, -25, -61], "withholdReward": false, "trial_id": "mdp_trial_6", "block": "test", "trialIndex": 7, "score": -87, "costs": 0, "simulationMode": [null, null, null, null, null], "rewards": [2, 2, -7, -8, -76], "path": ["0", "0", "23", "24", "25", "30", "31"], "rt": [1440, 286, 575, 2084, 700], "actions": ["left", "left", "left", "down", "right"], "actionTimes": [3923, 4722, 5794, 8371, 9570], "queries": {"click": {"state": {"target": [], "time": []}, "edge": {"target": [], "time": []}}, "mouseover": {"state": {"target": [], "time": []}, "edge": {"target": [], "time": []}}, "mouseout": {"state": {"target": [], "time": []}, "edge": {"target": [], "time": []}}}, "displayed_time": "16.49", "trialTime": 20308, "trial_type": "mouselab-mdp", "trial_index": 14, "time_elapsed": 1162383, "internal_node_id": "0.0-6.0-1.0-5.0"}}, {"uniqueid": "w70674374:a23807144", "current_trial": 15, "dateTime": 1693839278807, "trialdata": {"revealed_states": [], "clicked_states": [], "num_clicks_accrued": [0, 0, 0, 0, 0, 0, 0, 0, 0, 0, 0, 0, 0], "stateRewards": ["", -2, 2, -5, -6, 10, -66, -58, -10, -11, -63, -70, -1, -4, -5, 7, 66, -64, -43, -3, 45, -37, 4, -2, -2, -6, -4, -30, 33, 43, 15, -32, -65, -59], "withholdReward": false, "trial_id": "mdp_trial_7", "block": "test", "trialIndex": 8, "score": -69, "costs": 0, "simulationMode": [null, null, null, null, null], "rewards": [-2, 2, -5, -6, -58], "path": ["0", "0", "1", "2", "3", "4", "7"], "rt": [1370, 154, 402, 348, 363], "actions": ["up", "up", "up", "right", "down"], "actionTimes": [4250, 4904, 5801, 6665, 7529], "queries": {"click": {"state": {"target": [], "time": []}, "edge": {"target": [], "time": []}}, "mouseover": {"state": {"target": [], "time": []}, "edge": {"target": [], "time": []}}, "mouseout": {"state": {"target": [], "time": []}, "edge": {"target": [], "time": []}}}, "displayed_time": "16.88", "trialTime": 22362, "trial_type": "mouselab-mdp", "trial_index": 15, "time_elapsed": 1185005, "internal_node_id": "0.0-6.0-1.0-6.0"}}, {"uniqueid": "w70674374:a23807144", "current_trial": 16, "dateTime": 1693839305893, "trialdata": {"revealed_states": [], "clicked_states": ["1", "2", "3", "12", "13", "14", "7", "8", "4", "5"], "num_clicks_accrued": [0, 0, 0, 0, 0, 0, 0, 0, 0, 0, 0, 0, 0], "stateRewards": ["", -1, 4, -5, 9, 29, -75, -42, -16, 24, -28, -41, 2, -3, 1, 10, 60, 47, 55, -1, -53, 22, -40, 2, -3, -6, 4, -26, 44, 54, 15, -76, 42, 14], "withholdReward": false, "trial_id": "mdp_trial_8", "block": "test", "trialIndex": 9, "score": 26.5, "costs": -9.5, "simulationMode": [null, null, null, null, null], "rewards": [-1, 4, -5, 9, 29], "path": ["0", "0", "1", "2", "3", "4", "5"], "rt": [17767, 316, 253, 509, 261], "actions": ["up", "up", "up", "right", "up"], "actionTimes": [18380, 19193, 19945, 20969, 21738], "queries": {"click": {"state": {"target": ["1", "2", "3", "12", "13", "14", "7", "8", "4", "5"], "time": [1457, 2198, 2748, 3640, 4130, 4637, 6501, 9586, 10718, 11514]}, "edge": {"target": [], "time": []}}, "mouseover": {"state": {"target": ["1", "2", "3", "7", "12", "13", "14", "19", "22", "2", "7", "10", "1", "10", "8", "3", "4", "5", "6", "6", "4", "3", "2", "12"], "time": [1180, 1843, 2542, 3075, 3341, 3908, 4458, 5044, 5358, 5810, 6242, 7742, 8758, 9142, 9379, 10092, 10492, 11208, 12261, 13475, 13908, 14074, 14410, 14578]}, "edge": {"target": [], "time": []}}, "mouseout": {"state": {"target": ["0", "1", "2", "3", "7", "12", "13", "14", "14", "19", "22", "12", "2", "7", "10", "1", "10", "8", "3", "4", "5", "6", "6", "4", "3", "2", "12"], "time": [812, 1657, 2358, 3008, 3257, 3758, 4325, 4792, 4941, 5308, 5391, 5457, 5929, 7358, 8675, 8808, 9259, 10025, 10374, 11058, 11893, 12877, 13892, 13992, 14276, 14459, 14611]}, "edge": {"target": [], "time": []}}}, "displayed_time": "22.26", "trialTime": 26825, "trial_type": "mouselab-mdp", "trial_index": 16, "time_elapsed": 1212091, "internal_node_id": "0.0-6.0-1.0-7.0"}}, {"uniqueid": "w70674374:a23807144", "current_trial": 17, "dateTime": 1693839328044, "trialdata": {"revealed_states": [], "clicked_states": ["16", "15", "14"], "num_clicks_accrued": [0, 0, 0, 0, 0, 0, 0, 0, 0, 0, 0, 0, 0], "stateRewards": ["", 2, 3, 8, 14, 69, -27, 17, 2, -71, -65, -10, 2, -3, 7, 8, 65, -10, 65, -12, 73, -12, 13, -2, -2, 6, 10, -79, -69, -18, 10, -85, 67, 74], "withholdReward": false, "trial_id": "mdp_trial_9", "block": "test", "trialIndex": 10, "score": 74.35, "costs": -4.65, "simulationMode": [null, null, null, null, null], "rewards": [2, -3, 7, 8, 65], "path": ["0", "0", "12", "13", "14", "15", "16"], "rt": [6248, 304, 403, 479, 280], "actions": ["right", "right", "right", "up", "up"], "actionTimes": [7533, 8332, 9244, 10220, 11004], "queries": {"click": {"state": {"target": ["16", "15", "14"], "time": [2032, 4835, 5959]}, "edge": {"target": [], "time": []}}, "mouseover": {"state": {"target": ["12", "16", "17", "20", "21", "21", "19", "14", "15", "13", "14"], "time": [1377, 1811, 2306, 2790, 3673, 3972, 4339, 4422, 4589, 5289, 5689]}, "edge": {"target": [], "time": []}}, "mouseout": {"state": {"target": ["12", "12", "0", "12", "16", "17", "20", "21", "21", "19", "14", "15", "13", "14", "21", "31"], "time": [591, 725, 1294, 1440, 2173, 2723, 3590, 3872, 4322, 4372, 4456, 5140, 5473, 6239, 18411, 18910]}, "edge": {"target": [], "time": []}}}, "displayed_time": "15.29", "trialTime": 21905, "trial_type": "mouselab-mdp", "trial_index": 17, "time_elapsed": 1234241, "internal_node_id": "0.0-6.0-1.0-8.0"}}, {"uniqueid": "w70674374:a23807144", "current_trial": 18, "dateTime": 1693839360123, "trialdata": {"revealed_states": [], "clicked_states": ["23", "24", "25", "29", "12", "13", "14", "15", "16", "1", "2", "3", "4", "5"], "num_clicks_accrued": [0, 0, 0, 0, 0, 0, 0, 0, 0, 0, 0, 0, 0], "stateRewards": ["", -2, 2, 3, -7, 76, 63, 21, 15, 35, -8, -44, 1, 1, -2, -12, 23, 24, 76, -9, 46, 66, -49, -2, -1, 7, 12, 40, -71, -45, -6, 38, -49, 46], "withholdReward": false, "trial_id": "mdp_trial_10", "block": "test", "trialIndex": 11, "score": -1.6999999999999993, "costs": -12.7, "simulationMode": [null, null, null, null, null, null], "rewards": [1, 1, -2, -12, 23], "path": ["0", "0", "12", "13", "14", "15", "16"], "rt": [16510, 1293, 243, 328, 324, 228], "actions": ["right", "right", "right", "right", "up", "up"], "actionTimes": [17681, 18977, 19713, 20531, 21345, 22065], "queries": {"click": {"state": {"target": ["23", "24", "25", "29", "12", "13", "14", "15", "16", "1", "2", "3", "4", "5"], "time": [1864, 2258, 2684, 3304, 6849, 7485, 8009, 8625, 9108, 13960, 14536, 15015, 15580, 16084]}, "edge": {"target": [], "time": []}}, "mouseover": {"state": {"target": ["23", "24", "25", "29", "26", "27", "26", "31", "22", "20", "14", "13", "12", "13", "14", "15", "16", "18", "1", "2", "1", "2", "3", "18", "19", "20", "1", "1", "2", "3", "4", "5", "6", "17"], "time": [1454, 2018, 2401, 3068, 3568, 3735, 4318, 4418, 4685, 4968, 5768, 6407, 6707, 7268, 7868, 8418, 8802, 9502, 9769, 10335, 10702, 11085, 11635, 12087, 12204, 12723, 13206, 13523, 14318, 14801, 15284, 15851, 16502, 16568]}, "edge": {"target": [], "time": []}}, "mouseout": {"state": {"target": ["0", "23", "24", "25", "29", "26", "27", "26", "24", "31", "22", "20", "14", "13", "12", "13", "14", "15", "16", "18", "1", "2", "1", "2", "3", "18", "19", "20", "1", "1", "1", "2", "3", "4", "5", "6", "17"], "time": [1439, 1985, 2385, 2818, 3535, 3585, 4268, 4351, 4401, 4435, 4853, 5552, 6390, 6524, 7169, 7702, 8202, 8735, 9435, 9536, 10252, 10535, 11019, 11552, 11936, 12120, 12222, 12736, 13221, 14039, 14234, 14625, 15185, 15735, 16435, 16535, 16586]}, "edge": {"target": [], "time": []}}}, "displayed_time": "22.57", "trialTime": 31812, "trial_type": "mouselab-mdp", "trial_index": 18, "time_elapsed": 1266320, "internal_node_id": "0.0-6.0-1.0-9.0"}}, {"uniqueid": "w70674374:a23807144", "current_trial": 19, "dateTime": 1693839381899, "trialdata": {"revealed_states": [], "clicked_states": [], "num_clicks_accrued": [0, 0, 0, 0, 0, 0, 0, 0, 0, 0, 0, 0, 0], "stateRewards": ["", 2, -1, -4, -13, 74, 77, 3, 2, -43, -2, -11, 2, 3, 7, 11, -26, -29, -33, -3, -3, -13, -3, 1, 3, -7, 14, -59, 33, 9, -5, 34, 79, 68], "withholdReward": false, "trial_id": "mdp_trial_11", "block": "test", "trialIndex": 12, "score": -44, "costs": 0, "simulationMode": [null, null, null, null, null], "rewards": [2, -1, -4, 2, -43], "path": ["0", "0", "1", "2", "3", "8", "9"], "rt": [1838, 158, 212, 905, 271], "actions": ["up", "up", "up", "left", "up"], "actionTimes": [4607, 5262, 5966, 7374, 8142], "queries": {"click": {"state": {"target": [], "time": []}, "edge": {"target": [], "time": []}}, "mouseover": {"state": {"target": ["0", "12"], "time": [2952, 3305]}, "edge": {"target": [], "time": []}}, "mouseout": {"state": {"target": ["12", "12", "13", "12", "0", "12", "28"], "time": [1803, 1887, 2038, 2137, 3001, 3319, 21324]}, "edge": {"target": [], "time": []}}}, "displayed_time": "16.77", "trialTime": 21504, "trial_type": "mouselab-mdp", "trial_index": 19, "time_elapsed": 1288095, "internal_node_id": "0.0-6.0-1.0-10.0"}}, {"uniqueid": "w70674374:a23807144", "current_trial": 20, "dateTime": 1693839404795, "trialdata": {"revealed_states": [], "clicked_states": ["23", "29", "24", "30", "32"], "num_clicks_accrued": [0, 0, 0, 0, 0, 0, 0, 0, 0, 0, 0, 0, 0], "stateRewards": ["", 2, -4, -4, 13, -80, 62, 13, -11, 57, -13, -44, 1, 4, 3, -4, -29, -88, 15, 16, -58, 68, -45, -1, -3, -1, -9, -44, -86, -19, -7, -36, 59, 66], "withholdReward": false, "trial_id": "mdp_trial_12", "block": "test", "trialIndex": 13, "score": 41.05, "costs": -5.949999999999999, "simulationMode": [null, null, null, null, null], "rewards": [-1, -3, -1, -7, 59], "path": ["0", "0", "23", "24", "25", "30", "32"], "rt": [11551, 318, 351, 876, 357], "actions": ["left", "left", "left", "down", "down"], "actionTimes": [12816, 13630, 14478, 15854, 16702], "queries": {"click": {"state": {"target": ["23", "29", "24", "30", "32"], "time": [1920, 2883, 6139, 7015, 7661]}, "edge": {"target": [], "time": []}}, "mouseover": {"state": {"target": ["23", "24", "26", "29", "26", "27", "28", "24", "31", "31", "25", "30", "25", "24", "31", "30", "32", "23", "0", "12", "0", "0", "12", "12", "22"], "time": [1681, 2259, 2325, 2525, 3293, 3392, 3993, 4059, 4143, 4526, 4843, 5126, 5393, 5894, 6477, 6692, 7276, 8492, 8728, 9226, 10579, 10645, 11092, 11581, 11960]}, "edge": {"target": [], "time": []}}, "mouseout": {"state": {"target": ["24", "23", "0", "23", "24", "26", "29", "26", "27", "28", "24", "31", "31", "25", "30", "25", "24", "31", "30", "32", "30", "24", "23", "0", "12", "0", "0", "12", "12", "22"], "time": [62, 678, 826, 2209, 2293, 2342, 3259, 3342, 3860, 4043, 4093, 4276, 4610, 5077, 5360, 5813, 6426, 6510, 7210, 8176, 8276, 8443, 8662, 8943, 10547, 10611, 11076, 11108, 11880, 12097]}, "edge": {"target": [], "time": []}}}, "displayed_time": "17.20", "trialTime": 22608, "trial_type": "mouselab-mdp", "trial_index": 20, "time_elapsed": 1310992, "internal_node_id": "0.0-6.0-1.0-11.0"}}, {"uniqueid": "w70674374:a23807144", "current_trial": 21, "dateTime": 1693839427979, "trialdata": {"revealed_states": [], "clicked_states": ["12", "13", "14", "19", "21", "1", "2", "3", "4", "5"], "num_clicks_accrued": [0, 0, 0, 0, 0, 0, 0, 0, 0, 0, 0, 0, 0], "stateRewards": ["", 1, 2, -5, 14, 54, -14, -25, 16, -5, -87, 78, -1, 1, 3, -3, 52, 53, 53, -10, 73, -69, -48, 2, 3, 1, 8, -62, -7, 85, 7, 82, 52, -28], "withholdReward": false, "trial_id": "mdp_trial_13", "block": "test", "trialIndex": 14, "score": 56.5, "costs": -9.5, "simulationMode": [null, null, null, null, null], "rewards": [1, 2, -5, 14, 54], "path": ["0", "0", "1", "2", "3", "4", "5"], "rt": [14705, 126, 149, 362, 89], "actions": ["up", "up", "up", "right", "up"], "actionTimes": [15948, 16570, 17226, 18089, 18682], "queries": {"click": {"state": {"target": ["12", "13", "14", "19", "21", "1", "2", "3", "4", "5"], "time": [1843, 2482, 3148, 3852, 4298, 8803, 9352, 10002, 10552, 11274]}, "edge": {"target": [], "time": []}}, "mouseover": {"state": {"target": ["12", "13", "13", "14", "14", "19", "19", "21", "21", "20", "15", "16", "15", "16", "15", "13", "12", "0", "1", "2", "3", "4", "5", "8", "8", "9", "8", "22"], "time": [1563, 2024, 2258, 2680, 2924, 3291, 3624, 4009, 4225, 4725, 4892, 4975, 5559, 6591, 7310, 7595, 7875, 8395, 8594, 9108, 9541, 10308, 11042, 12091, 13091, 13575, 14661, 14876]}, "edge": {"target": [], "time": []}}, "mouseout": {"state": {"target": ["0", "12", "13", "13", "14", "14", "19", "19", "21", "21", "20", "15", "16", "15", "16", "15", "13", "12", "0", "1", "2", "3", "4", "5", "3", "8", "8", "9", "8", "22"], "time": [774, 1992, 2075, 2626, 2692, 3259, 3325, 3974, 4059, 4674, 4741, 4941, 5508, 6508, 7263, 7343, 7625, 8308, 8476, 8913, 9474, 10258, 10842, 11492, 11958, 12558, 13508, 14563, 14760, 14909]}, "edge": {"target": [], "time": []}}}, "displayed_time": "19.18", "trialTime": 22924, "trial_type": "mouselab-mdp", "trial_index": 21, "time_elapsed": 1334176, "internal_node_id": "0.0-6.0-1.0-12.0"}}, {"uniqueid": "w70674374:a23807144", "current_trial": 22, "dateTime": 1693839447738, "trialdata": {"revealed_states": [], "clicked_states": ["12", "13", "14", "15", "16", "23"], "num_clicks_accrued": [0, 0, 0, 0, 0, 0, 0, 0, 0, 0, 0, 0, 0], "stateRewards": ["", 1, -3, -2, 14, 49, -40, -39, 2, 26, -61, 73, 1, -4, -8, 12, 79, 29, -65, -13, 55, -26, 27, -1, 3, 3, 9, -17, -60, -18, -8, 35, -88, 69], "withholdReward": false, "trial_id": "mdp_trial_14", "block": "test", "trialIndex": 15, "score": 75.5, "costs": -4.5, "simulationMode": [null, null, null, null, null], "rewards": [1, -4, -8, 12, 79], "path": ["0", "0", "12", "13", "14", "15", "16"], "rt": [7288, 2, 95, 217, 89], "actions": ["right", "right", "right", "up", "up"], "actionTimes": [8612, 9137, 9746, 10468, 11073], "queries": {"click": {"state": {"target": ["12", "13", "14", "15", "16", "23"], "time": [1877, 2423, 2991, 3700, 4066, 7341]}, "edge": {"target": [], "time": []}}, "mouseover": {"state": {"target": ["0", "12", "13", "14", "15", "15", "16", "18", "1", "1", "2", "1", "23", "13", "22"], "time": [1404, 1602, 2248, 2582, 3150, 3482, 3832, 4398, 4665, 5582, 6032, 6482, 7135, 7733, 7782]}, "edge": {"target": [], "time": []}}, "mouseout": {"state": {"target": ["0", "0", "12", "12", "13", "14", "15", "15", "16", "16", "18", "1", "1", "2", "1", "23", "13", "22"], "time": [869, 1551, 1899, 2015, 2565, 3115, 3199, 3706, 4166, 4265, 4415, 5232, 5932, 6448, 6632, 7453, 7750, 7799]}, "edge": {"target": [], "time": []}}}, "displayed_time": "15.32", "trialTime": 19507, "trial_type": "mouselab-mdp", "trial_index": 22, "time_elapsed": 1353935, "internal_node_id": "0.0-6.0-1.0-13.0"}}, {"uniqueid": "w70674374:a23807144", "current_trial": 23, "dateTime": 1693839472012, "trialdata": {"revealed_states": [], "clicked_states": ["23", "24", "25", "26", "27", "32", "30", "33"], "num_clicks_accrued": [0, 0, 0, 0, 0, 0, 0, 0, 0, 0, 0, 0, 0], "stateRewards": ["", -2, 1, -7, 9, 8, 25, 61, -7, -17, 69, -81, 1, 4, -4, -11, 16, 67, 44, 3, 6, -45, -54, -2, 3, 6, -11, -15, 32, -47, 3, -39, -6, -88], "withholdReward": false, "trial_id": "mdp_trial_15", "block": "test", "trialIndex": 16, "score": -4.600000000000001, "costs": -10.600000000000001, "simulationMode": [null, null, null, null, null, null], "rewards": [1, 4, -4, -11, 16], "path": ["0", "0", "12", "13", "14", "15", "16"], "rt": [14439, 508, 116, 41, 438, 718], "actions": ["right", "right", "right", "right", "up", "up"], "actionTimes": [15937, 16448, 17073, 17616, 18561, 19793], "queries": {"click": {"state": {"target": ["23", "24", "25", "26", "27", "32", "30", "33"], "time": [2552, 3196, 3732, 4379, 5213, 9020, 12839, 13612]}, "edge": {"target": [], "time": []}}, "mouseover": {"state": {"target": ["23", "23", "24", "25", "26", "27", "27", "29", "24", "30", "32", "30", "25", "25", "24", "23", "0", "33", "30", "33", "0", "12", "13", "12", "13", "20"], "time": [2022, 2293, 3022, 3505, 4138, 4572, 4922, 5788, 7455, 8309, 8793, 9322, 10022, 10989, 11272, 11839, 12040, 12341, 12573, 13306, 14139, 14172, 14190, 14988, 15188, 15256]}, "edge": {"target": [], "time": []}}, "mouseout": {"state": {"target": ["19", "0", "23", "23", "24", "25", "26", "27", "27", "29", "24", "30", "32", "30", "25", "25", "24", "23", "0", "33", "30", "33", "0", "12", "13", "12", "13", "20"], "time": [324, 2010, 2056, 2772, 3422, 4039, 4488, 4722, 5506, 7355, 7490, 8560, 9131, 9905, 10838, 11105, 11822, 12009, 12243, 12509, 13138, 13972, 14155, 14189, 14955, 15172, 15206, 15272]}, "edge": {"target": [], "time": []}}}, "displayed_time": "20.31", "trialTime": 23987, "trial_type": "mouselab-mdp", "trial_index": 23, "time_elapsed": 1378209, "internal_node_id": "0.0-6.0-1.0-14.0"}}, {"uniqueid": "w70674374:a23807144", "current_trial": 24, "dateTime": 1693839496012, "trialdata": {"revealed_states": [], "clicked_states": ["1", "2", "3", "4", "5", "6"], "num_clicks_accrued": [0, 0, 0, 0, 0, 0, 0, 0, 0, 0, 0, 0, 0], "stateRewards": ["", -2, -3, 4, 1, 33, -53, 15, 9, -12, 61, -6, -2, 4, 6, -11, 47, -43, -7, -11, 46, 23, -28, -1, -1, 3, -10, 11, 76, -76, 10, 18, -38, 87], "withholdReward": false, "trial_id": "mdp_trial_16", "block": "test", "trialIndex": 17, "score": 26.1, "costs": -6.9, "simulationMode": [null, null, null, null, null, null], "rewards": [-2, -3, 4, 1, 33], "path": ["0", "0", "1", "2", "3", "4", "5"], "rt": [8856, 409, 405, 658, 627, 184], "actions": ["up", "up", "up", "up", "right", "up"], "actionTimes": [11672, 12083, 13011, 14196, 15316, 16003], "queries": {"click": {"state": {"target": ["1", "2", "3", "4", "5", "6"], "time": [4486, 5059, 5643, 6704, 7318, 10397]}, "edge": {"target": [], "time": []}}, "mouseover": {"state": {"target": ["1", "1", "2", "3", "4", "5", "4", "5", "8", "6", "6", "16"], "time": [3973, 4247, 4769, 5419, 5902, 6136, 6452, 6886, 8535, 9852, 10172, 10752]}, "edge": {"target": [], "time": []}}, "mouseout": {"state": {"target": ["0", "23", "0", "0", "1", "1", "2", "3", "4", "5", "4", "5", "5", "3", "8", "6", "6", "16"], "time": [1739, 1904, 1953, 3272, 4089, 4636, 5236, 5823, 5952, 6402, 6838, 7409, 7702, 8385, 9736, 10002, 10702, 10769]}, "edge": {"target": [], "time": []}}}, "displayed_time": "16.82", "trialTime": 23750, "trial_type": "mouselab-mdp", "trial_index": 24, "time_elapsed": 1402209, "internal_node_id": "0.0-6.0-1.0-15.0"}}, {"uniqueid": "w70674374:a23807144", "current_trial": 25, "dateTime": 1693839514794, "trialdata": {"revealed_states": [], "clicked_states": ["1", "2", "3", "8", "10"], "num_clicks_accrued": [0, 0, 0, 0, 0, 0, 0, 0, 0, 0, 0, 0, 0], "stateRewards": ["", -2, 3, 8, -9, 59, 41, -50, -1, 82, 66, 33, 2, -2, 7, 8, 1, -38, 12, -16, 24, -37, 67, 1, 4, -2, 5, 35, -83, 28, 8, -27, 69, -64], "withholdReward": false, "trial_id": "mdp_trial_17", "block": "test", "trialIndex": 18, "score": 69.25, "costs": -4.75, "simulationMode": [null, null, null, null, null], "rewards": [-2, 3, 8, -1, 66], "path": ["0", "0", "1", "2", "3", "8", "10"], "rt": [7698, 221, 31, 618, 446], "actions": ["up", "up", "up", "left", "down"], "actionTimes": [9157, 9877, 10403, 11539, 12484], "queries": {"click": {"state": {"target": ["1", "2", "3", "8", "10"], "time": [2230, 2729, 3278, 3879, 4789]}, "edge": {"target": [], "time": []}}, "mouseover": {"state": {"target": ["1", "2", "3", "8", "10", "10", "9", "11", "8", "2", "12"], "time": [1909, 2538, 3104, 3637, 4070, 4553, 6170, 7470, 7673, 8373, 8454]}, "edge": {"target": [], "time": []}}, "mouseout": {"state": {"target": ["21", "0", "1", "2", "3", "3", "8", "10", "10", "8", "9", "11", "8", "2", "12"], "time": [472, 1691, 2354, 2903, 3361, 3587, 4037, 4337, 5137, 5436, 7354, 7587, 8292, 8389, 8470]}, "edge": {"target": [], "time": []}}}, "displayed_time": "15.46", "trialTime": 18500, "trial_type": "mouselab-mdp", "trial_index": 25, "time_elapsed": 1420991, "internal_node_id": "0.0-6.0-1.0-16.0"}}, {"uniqueid": "w70674374:a23807144", "current_trial": 26, "dateTime": 1693839535659, "trialdata": {"revealed_states": [], "clicked_states": ["12", "13", "14", "19", "21", "20"], "num_clicks_accrued": [0, 0, 0, 0, 0, 0, 0, 0, 0, 0, 0, 0, 0], "stateRewards": ["", -2, -4, -2, 10, -8, -15, -47, 7, -84, 53, 5, -1, 2, -7, 3, 83, 31, 47, -1, 30, -8, 69, 2, -4, -1, 8, -7, 12, -8, -8, -13, 30, -84], "withholdReward": false, "trial_id": "mdp_trial_18", "block": "test", "trialIndex": 19, "score": 16.1, "costs": -6.9, "simulationMode": [null, null, null, null, null, null], "rewards": [-1, 2, -7, -1, 30], "path": ["0", "0", "12", "13", "14", "19", "20"], "rt": [8971, 429, 39, 2, 444, 260], "actions": ["right", "right", "right", "right", "down", "right"], "actionTimes": [10490, 10922, 11465, 11978, 12937, 13689], "queries": {"click": {"state": {"target": ["12", "13", "14", "19", "21", "20"], "time": [2484, 3116, 3550, 4484, 5000, 7882]}, "edge": {"target": [], "time": []}}, "mouseover": {"state": {"target": ["12", "13", "12", "13", "14", "19", "19", "19", "21", "20", "14", "15", "20", "14", "15", "16", "15", "19"], "time": [1876, 2002, 2277, 2725, 3259, 3691, 3925, 4225, 4675, 5575, 6842, 6992, 7709, 8259, 8858, 9542, 9708, 9727]}, "edge": {"target": [], "time": []}}, "mouseout": {"state": {"target": ["0", "12", "13", "12", "13", "14", "19", "19", "19", "21", "20", "19", "14", "15", "19", "20", "14", "15", "16", "15", "19", "21"], "time": [1862, 1926, 2094, 2710, 3242, 3675, 3708, 4008, 4625, 5392, 6376, 6575, 6892, 7126, 7592, 8125, 8291, 9375, 9675, 9725, 9742, 9758]}, "edge": {"target": [], "time": []}}}, "displayed_time": "15.52", "trialTime": 20586, "trial_type": "mouselab-mdp", "trial_index": 26, "time_elapsed": 1441855, "internal_node_id": "0.0-6.0-1.0-17.0"}}, {"uniqueid": "w70674374:a23807144", "current_trial": 27, "dateTime": 1693839556010, "trialdata": {"revealed_states": [], "clicked_states": ["1", "3", "2", "4", "7"], "num_clicks_accrued": [0, 0, 0, 0, 0, 0, 0, 0, 0, 0, 0, 0, 0], "stateRewards": ["", -2, 2, 8, -6, -25, 3, 87, 2, -62, -2, 74, -2, -1, 2, -1, 79, 49, -37, -14, 5, 67, -9, -1, 2, -2, 5, 15, 38, 32, -14, -38, -38, 30], "withholdReward": false, "trial_id": "mdp_trial_19", "block": "test", "trialIndex": 20, "score": 84.25, "costs": -4.75, "simulationMode": [null, null, null, null, null], "rewards": [-2, 2, 8, -6, 87], "path": ["0", "0", "1", "2", "3", "4", "7"], "rt": [7223, 222, 339, 962, 341], "actions": ["up", "up", "up", "right", "down"], "actionTimes": [8641, 9359, 10191, 11649, 12511], "queries": {"click": {"state": {"target": ["1", "3", "2", "4", "7"], "time": [2157, 3592, 4226, 5044, 5681]}, "edge": {"target": [], "time": []}}, "mouseover": {"state": {"target": ["1", "2", "3", "2", "4", "7", "5", "6", "16"], "time": [1907, 2418, 2901, 3853, 4868, 5269, 6770, 7601, 7634]}, "edge": {"target": [], "time": []}}, "mouseout": {"state": {"target": ["0", "1", "2", "3", "2", "4", "7", "5", "6", "16", "15", "13"], "time": [1050, 2172, 2568, 3785, 4368, 5234, 6068, 7534, 7618, 7651, 19721, 19769]}, "edge": {"target": [], "time": []}}}, "displayed_time": "15.42", "trialTime": 20064, "trial_type": "mouselab-mdp", "trial_index": 27, "time_elapsed": 1462207, "internal_node_id": "0.0-6.0-1.0-18.0"}}, {"uniqueid": "w70674374:a23807144", "current_trial": 28, "dateTime": 1693839576812, "trialdata": {"revealed_states": [], "clicked_states": ["23", "24", "25", "30", "32"], "num_clicks_accrued": [0, 0, 0, 0, 0, 0, 0, 0, 0, 0, 0, 0, 0], "stateRewards": ["", 1, -1, 4, -2, -75, -75, 84, -9, -60, -79, 59, 2, -4, 8, 9, -17, -82, 80, 14, -4, 49, 49, -1, 3, 6, -11, -33, 34, 55, 9, -57, 5, 59], "withholdReward": false, "trial_id": "mdp_trial_20", "block": "test", "trialIndex": 21, "score": 17.25, "costs": -4.75, "simulationMode": [null, null, null, null, null], "rewards": [-1, 3, 6, 9, 5], "path": ["0", "0", "23", "24", "25", "30", "32"], "rt": [6315, 23, 49, 941, 178], "actions": ["left", "left", "left", "down", "down"], "actionTimes": [8031, 8571, 9132, 10589, 11260], "queries": {"click": {"state": {"target": ["23", "24", "25", "30", "32"], "time": [2623, 3140, 3638, 4347, 4891]}, "edge": {"target": [], "time": []}}, "mouseover": {"state": {"target": ["23", "24", "25", "30", "32", "31"], "time": [2102, 2897, 3380, 4104, 4664, 5930]}, "edge": {"target": [], "time": []}}, "mouseout": {"state": {"target": ["0", "23", "24", "25", "30", "30", "32", "31"], "time": [1839, 2797, 3330, 3864, 4437, 4547, 5164, 6530]}, "edge": {"target": [], "time": []}}}, "displayed_time": "15.72", "trialTime": 20495, "trial_type": "mouselab-mdp", "trial_index": 28, "time_elapsed": 1483009, "internal_node_id": "0.0-6.0-1.0-19.0"}}, {"uniqueid": "w70674374:a23807144", "current_trial": 29, "dateTime": 1693839598429, "trialdata": {"revealed_states": [], "clicked_states": ["1", "2", "3", "8", "10"], "num_clicks_accrued": [0, 0, 0, 0, 0, 0, 0, 0, 0, 0, 0, 0, 0], "stateRewards": ["", 1, -2, -3, 14, -42, -87, -37, -11, -50, 33, -44, -2, 4, -7, 13, 48, -75, -66, 12, 23, -2, 82, 1, -4, 3, 12, 51, -15, -26, -11, -52, -29, 82], "withholdReward": false, "trial_id": "mdp_trial_21", "block": "test", "trialIndex": 22, "score": 13.25, "costs": -4.75, "simulationMode": [null, null, null, null, null], "rewards": [1, -2, -3, -11, 33], "path": ["0", "0", "1", "2", "3", "8", "10"], "rt": [8059, 226, 417, 466, 235], "actions": ["up", "up", "up", "left", "down"], "actionTimes": [10191, 10923, 11834, 12795, 13531], "queries": {"click": {"state": {"target": ["1", "2", "3", "8", "10"], "time": [2820, 3394, 4401, 4984, 5654]}, "edge": {"target": [], "time": []}}, "mouseover": {"state": {"target": ["1", "2", "3", "8", "10", "9", "11", "11", "8", "2"], "time": [2582, 3194, 4078, 4728, 5311, 6611, 7277, 7461, 9000, 9294]}, "edge": {"target": [], "time": []}}, "mouseout": {"state": {"target": ["20", "20", "19", "12", "1", "2", "3", "8", "10", "8", "9", "11", "11", "8", "2"], "time": [1064, 1179, 1295, 1588, 3028, 3644, 4662, 5145, 5994, 6261, 7227, 7294, 8762, 9264, 9310]}, "edge": {"target": [], "time": []}}}, "displayed_time": "16.13", "trialTime": 21342, "trial_type": "mouselab-mdp", "trial_index": 29, "time_elapsed": 1504625, "internal_node_id": "0.0-6.0-1.0-20.0"}}], "questiondata": {"params": {"CODE": "C6DMOQA6", "MIN_TIME": 14, "inspectCost": 1, "startTime": "Mon Sep 04 2023 16:34:51 GMT+0200 (South Africa Standard Time)", "bonusRate": 0.002, "variance": "1_2_4_8_44", "branching": "31123"}}, "eventdata": [{"eventtype": "initialized", "value": null, "timestamp": 1693838090854, "interval": 0}, {"eventtype": "window_resize", "value": [1920, 982], "timestamp": 1693838090854, "interval": 0}, {"eventtype": "window_resize", "value": [1920, 982], "timestamp": 1693838091355, "interval": 501}, {"eventtype": "window_resize", "value": [1920, 1080], "timestamp": 1693838102945, "interval": 11590}], "useragent": "Mozilla/5.0 (Windows NT 10.0; Win64; x64) AppleWebKit/537.36 (KHTML, like Gecko) Chrome/116.0.0.0 Safari/537.36", "mode": "live", "id": "w70674374:a23807144", "status": "user data saved", "Beginhit": "2023-09-04 14:34:47.753633", "Beginexp": "2023-09-04 14:35:03.961349", "Endhit": null, "psiturkStatus": 2, "browser": "<redacted>", "platform": "windows", "language": "en-US", "excludeReason": "dataincomplete"}