{"condition": 1, "counterbalance": 0, "assignmentId": "a10813276", "workerId": "w47039169", "hitId": "h93450299", "currenttrial": 74, "bonus": 0, "data": [{"uniqueid": "w47039169:a10813276", "current_trial": 0, "dateTime": 1691070758103, "trialdata": {"success": true, "trial_type": "fullscreen", "trial_index": 0, "time_elapsed": 3290, "internal_node_id": "0.0-0.0"}}, {"uniqueid": "w47039169:a10813276", "current_trial": 1, "dateTime": 1691070773830, "trialdata": {"view_history": [{"page_index": 0, "viewing_time": 15721}], "rt": 15722, "trial_id": "exp_instructions_misaligned", "trial_type": "instructions", "trial_index": 1, "time_elapsed": 19018, "internal_node_id": "0.0-1.0"}}, {"uniqueid": "w47039169:a10813276", "current_trial": 2, "dateTime": 1691070781935, "trialdata": {"success": true, "trial_type": "fullscreen", "trial_index": 2, "time_elapsed": 27123, "internal_node_id": "0.0-2.0-0.0"}}, {"uniqueid": "w47039169:a10813276", "current_trial": 3, "dateTime": 1691070990285, "trialdata": {"view_history": [{"page_index": 0, "viewing_time": 88502}, {"page_index": 1, "viewing_time": 80486}, {"page_index": 2, "viewing_time": 35297}, {"page_index": 3, "viewing_time": 4058}], "rt": 208343, "trial_id": "mouselab_instructions_1_misaligned", "trial_type": "instructions", "trial_index": 3, "time_elapsed": 235472, "internal_node_id": "0.0-2.0-1.0"}}, {"uniqueid": "w47039169:a10813276", "current_trial": 4, "dateTime": 1691071112285, "trialdata": {"revealed_states": [], "clicked_states": ["26", "19", "5", "33", "20", "11", "29", "31", "23", "1", "17", "16", "7", "30", "25", "28", "27", "24", "32", "12", "13", "14", "22", "21", "15", "18", "2", "3", "10", "9", "8", "6", "4"], "num_clicks_accrued": [0, 0, 0, 0, 0, 0, 0, 0, 0, 0, 0, 0, 0], "stateRewards": ["", -10, 10, 10, -10, -10, -10, 10, -10, 10, 10, 10, 10, -10, -10, -10, -10, -10, 10, 10, -10, 10, 10, 10, 10, 10, 10, 10, 10, 10, -10, 10, 10, 10], "withholdReward": false, "trial_id": "practice_1", "block": "test", "trialIndex": 0, "score": -43, "costs": -16.5, "simulationMode": [null, null, null, null, null], "rewards": [10, -10, -10, -10, -10], "path": ["0", "0", "12", "13", "14", "15", "16"], "rt": [107354, 662, 1, 1473, 1100], "actions": ["right", "right", "right", "up", "up"], "actionTimes": [112812, 113988, 114482, 116467, 118061], "queries": {"click": {"state": {"target": ["26", "19", "5", "33", "20", "11", "29", "31", "23", "1", "17", "16", "7", "30", "25", "28", "27", "24", "32", "12", "13", "14", "22", "21", "15", "18", "2", "3", "10", "9", "8", "6", "4"], "time": [8693, 13623, 17671, 20066, 23044, 27121, 28800, 30843, 33975, 35208, 38930, 40779, 42508, 44094, 45310, 46820, 51255, 57238, 59679, 61949, 63324, 64998, 67065, 70444, 71944, 73011, 76521, 78139, 81731, 83867, 85242, 87346, 89324]}, "edge": {"target": [], "time": []}}, "mouseover": {"state": {"target": ["23", "24", "26", "25", "24", "23", "13", "19", "19", "21", "19", "13", "12", "1", "2", "3", "5", "8", "26", "25", "33", "30", "20", "20", "19", "22", "0", "1", "2", "3", "8", "11", "29", "26", "24", "31", "23", "1", "18", "15", "17", "13", "12", "12", "13", "17", "14", "18", "16", "7", "7", "2", "24", "30", "25", "26", "28", "28", "27", "10", "0", "0", "23", "24", "25", "26", "26", "25", "30", "32", "31", "0", "12", "0", "12", "13", "14", "19", "22", "19", "21", "15", "18", "16", "2", "2", "3", "8", "10", "10", "8", "9", "8", "4", "4", "6", "4", "2", "1", "0", "12", "0", "12", "0"], "time": [7202, 7302, 7657, 10237, 10737, 10771, 11448, 11571, 11938, 12673, 12940, 14825, 14874, 15809, 16342, 16775, 17108, 18427, 18526, 18576, 19377, 21261, 21896, 22612, 23963, 23997, 24113, 25931, 26014, 26097, 26581, 26715, 28265, 29501, 29551, 29851, 33538, 34671, 36021, 36072, 36355, 36856, 36874, 38089, 38107, 38373, 39891, 40042, 40291, 41374, 42109, 43127, 43310, 43560, 44712, 46061, 46212, 46362, 50248, 52570, 56002, 56085, 56386, 56769, 58120, 58437, 58971, 59053, 59171, 59254, 60372, 60505, 60572, 61023, 61489, 62690, 64158, 65725, 66109, 69807, 69994, 71413, 72597, 73530, 75849, 76050, 77332, 78617, 79967, 81111, 82203, 83253, 84738, 85922, 86289, 86841, 87891, 90076, 90193, 107073, 107237, 107520, 107987, 110289]}, "edge": {"target": [], "time": []}}, "mouseout": {"state": {"target": ["12", "1", "10", "23", "24", "26", "25", "24", "23", "13", "19", "19", "21", "19", "13", "12", "1", "2", "3", "5", "8", "26", "25", "33", "30", "20", "20", "19", "22", "0", "1", "2", "3", "8", "11", "29", "26", "24", "31", "23", "1", "18", "15", "17", "13", "12", "23", "12", "13", "17", "14", "18", "16", "7", "7", "7", "2", "24", "30", "25", "26", "28", "28", "27", "10", "0", "0", "23", "24", "25", "26", "26", "25", "30", "32", "31", "0", "12", "0", "12", "13", "14", "19", "22", "19", "21", "15", "18", "16", "2", "2", "3", "8", "10", "10", "8", "9", "9", "8", "4", "4", "6", "6", "4", "2", "1", "0", "12", "0", "12"], "time": [870, 950, 1321, 7252, 7319, 10120, 10720, 10770, 10787, 11505, 11623, 12105, 12856, 14709, 14840, 14957, 15840, 16708, 16942, 18360, 18444, 18543, 19044, 21245, 21278, 22195, 23930, 23980, 24030, 24647, 25981, 26065, 26565, 26648, 27966, 29484, 29517, 29584, 33203, 34191, 35972, 36055, 36090, 36572, 36872, 36888, 38040, 38106, 38122, 39740, 39942, 40057, 41309, 41508, 42729, 43110, 43160, 43327, 44677, 45528, 46079, 46247, 47037, 51476, 55701, 56052, 56235, 56712, 58087, 58170, 58470, 59020, 59121, 59186, 60339, 60404, 60539, 60857, 61455, 62623, 64124, 65642, 65842, 67844, 69878, 71030, 72497, 73234, 75397, 75882, 77300, 78367, 79935, 80035, 82153, 83221, 84087, 84506, 85857, 85939, 86806, 87566, 87857, 89976, 90092, 90242, 107138, 107387, 107786, 110205]}, "edge": {"target": [], "time": []}}}, "displayed_time": "118.56", "trialTime": 121383, "trial_type": "mouselab-mdp", "trial_index": 4, "time_elapsed": 357472, "internal_node_id": "0.0-2.0-2.0-0.0"}}, {"uniqueid": "w47039169:a10813276", "current_trial": 5, "dateTime": 1691071137066, "trialdata": {"revealed_states": [], "clicked_states": [], "num_clicks_accrued": [0, 0, 0, 0, 0, 0, 0, 0, 0, 0, 0, 0, 0], "stateRewards": ["", -10, 10, 10, -10, 10, 10, 10, -10, 10, 10, 10, -10, -10, -10, -10, 10, 10, -10, 10, 10, 10, 10, -10, 10, 10, 10, 10, -10, -10, -10, -10, 10, 10], "withholdReward": false, "trial_id": "practice_2", "block": "test", "trialIndex": 1, "score": -26.5, "costs": 0, "simulationMode": [null, null, null, null, null], "rewards": [-10, -10, -10, -10, 10], "path": ["0", "0", "12", "13", "14", "15", "16"], "rt": [1252, 5309, 680, 1025, 1497], "actions": ["right", "right", "right", "up", "up"], "actionTimes": [9095, 14896, 16073, 17604, 19608], "queries": {"click": {"state": {"target": [], "time": []}, "edge": {"target": [], "time": []}}, "mouseover": {"state": {"target": [], "time": []}, "edge": {"target": [], "time": []}}, "mouseout": {"state": {"target": ["0"], "time": [null]}, "edge": {"target": [], "time": []}}}, "displayed_time": "20.11", "trialTime": 24612, "trial_type": "mouselab-mdp", "trial_index": 5, "time_elapsed": 382253, "internal_node_id": "0.0-2.0-2.0-1.0"}}, {"uniqueid": "w47039169:a10813276", "current_trial": 6, "dateTime": 1691071166088, "trialdata": {"view_history": [{"page_index": 0, "viewing_time": 19619}, {"page_index": 1, "viewing_time": 9400}], "rt": 29020, "trial_id": "mouselab_instructions_2_misaligned", "trial_type": "instructions", "trial_index": 6, "time_elapsed": 411275, "internal_node_id": "0.0-2.0-3.0"}}, {"uniqueid": "w47039169:a10813276", "current_trial": 7, "dateTime": 1691071228840, "trialdata": {"rt": 62745, "response": {"Q0": "The cost for clicking on nodes may vary between nodes.", "Q1": "The better I perform the higher my bonus will be.", "Q2": "No, the amount of cash at each node of the web may be different each time.", "Q3": "To get the highest total score.", "Q4": "Only after moving the spider.", "Q5": "10 seconds"}, "question_order": [0, 1, 2, 3, 4, 5], "correct": {"Q0": "The cost for clicking on nodes may vary between nodes.", "Q1": "The better I perform the higher my bonus will be.", "Q2": "No, the amount of cash at each node of the web may be different each time.", "Q3": "To get the highest total score.", "Q4": "Only before moving the spider.", "Q5": "3 seconds"}, "trial_id": "mouselab_quiz_misaligned", "trial_type": "survey-multi-choice", "trial_index": 7, "time_elapsed": 474028, "internal_node_id": "0.0-2.0-4.0"}}, {"uniqueid": "w47039169:a10813276", "current_trial": 8, "dateTime": 1691071235593, "trialdata": {"success": true, "trial_type": "fullscreen", "trial_index": 8, "time_elapsed": 480781, "internal_node_id": "0.0-2.1-0.1"}}, {"uniqueid": "w47039169:a10813276", "current_trial": 9, "dateTime": 1691071337102, "trialdata": {"view_history": [{"page_index": 0, "viewing_time": 41363}, {"page_index": 1, "viewing_time": 22983}, {"page_index": 2, "viewing_time": 15201}, {"page_index": 3, "viewing_time": 21955}], "rt": 101502, "trial_id": "mouselab_instructions_1_misaligned", "trial_type": "instructions", "trial_index": 9, "time_elapsed": 582289, "internal_node_id": "0.0-2.1-1.1"}}, {"uniqueid": "w47039169:a10813276", "current_trial": 10, "dateTime": 1691071352313, "trialdata": {"revealed_states": [], "clicked_states": [], "num_clicks_accrued": [0, 0, 0, 0, 0, 0, 0, 0, 0, 0, 0, 0, 0], "stateRewards": ["", -10, 10, 10, -10, -10, -10, 10, -10, 10, 10, 10, 10, -10, -10, -10, -10, -10, 10, 10, -10, 10, 10, 10, 10, 10, 10, 10, 10, 10, -10, 10, 10, 10], "withholdReward": false, "trial_id": "practice_1", "block": "test", "trialIndex": 2, "score": 13.5, "costs": 0, "simulationMode": [null, null, null, null, null], "rewards": [10, -10, -10, 10, 10], "path": ["0", "0", "12", "13", "14", "19", "21"], "rt": [5247, 390, 75, 827, 84], "actions": ["right", "right", "right", "down", "down"], "actionTimes": [8824, 9707, 10274, 11594, 12169], "queries": {"click": {"state": {"target": [], "time": []}, "edge": {"target": [], "time": []}}, "mouseover": {"state": {"target": ["0", "0", "12"], "time": [6577, 7781, 7914]}, "edge": {"target": [], "time": []}}, "mouseout": {"state": {"target": ["12", "0", "0", "0", "12"], "time": [2009, 6343, 6594, 7796, 7963]}, "edge": {"target": [], "time": []}}}, "displayed_time": "12.67", "trialTime": 15003, "trial_type": "mouselab-mdp", "trial_index": 10, "time_elapsed": 597500, "internal_node_id": "0.0-2.1-2.1-0.1"}}, {"uniqueid": "w47039169:a10813276", "current_trial": 11, "dateTime": 1691071367701, "trialdata": {"revealed_states": [], "clicked_states": [], "num_clicks_accrued": [0, 0, 0, 0, 0, 0, 0, 0, 0, 0, 0, 0, 0], "stateRewards": ["", -10, 10, 10, -10, 10, 10, 10, -10, 10, 10, 10, -10, -10, -10, -10, 10, 10, -10, 10, 10, 10, 10, -10, 10, 10, 10, 10, -10, -10, -10, -10, 10, 10], "withholdReward": false, "trial_id": "practice_2", "block": "test", "trialIndex": 3, "score": 13.5, "costs": 0, "simulationMode": [null, null, null, null, null], "rewards": [-10, 10, 10, -10, 10], "path": ["0", "0", "1", "2", "3", "4", "6"], "rt": [1501, 453, 581, 1124, 2311], "actions": ["up", "up", "up", "right", "right"], "actionTimes": [5344, 6299, 7378, 9006, 11810], "queries": {"click": {"state": {"target": [], "time": []}, "edge": {"target": [], "time": []}}, "mouseover": {"state": {"target": [], "time": []}, "edge": {"target": [], "time": []}}, "mouseout": {"state": {"target": ["12", "0"], "time": [2975, 3091]}, "edge": {"target": [], "time": []}}}, "displayed_time": "12.30", "trialTime": 15230, "trial_type": "mouselab-mdp", "trial_index": 11, "time_elapsed": 612888, "internal_node_id": "0.0-2.1-2.1-1.1"}}, {"uniqueid": "w47039169:a10813276", "current_trial": 12, "dateTime": 1691071375918, "trialdata": {"view_history": [{"page_index": 0, "viewing_time": 5467}, {"page_index": 1, "viewing_time": 2746}], "rt": 8213, "trial_id": "mouselab_instructions_2_misaligned", "trial_type": "instructions", "trial_index": 12, "time_elapsed": 621106, "internal_node_id": "0.0-2.1-3.1"}}, {"uniqueid": "w47039169:a10813276", "current_trial": 13, "dateTime": 1691071468138, "trialdata": {"rt": 92214, "response": {"Q0": "The cost for clicking on nodes may vary between nodes.", "Q1": "The better I perform the higher my bonus will be.", "Q2": "Yes.", "Q3": "To get the highest total score.", "Q4": "Only before moving the spider.", "Q5": "3 seconds"}, "question_order": [0, 1, 2, 3, 4, 5], "correct": {"Q0": "The cost for clicking on nodes may vary between nodes.", "Q1": "The better I perform the higher my bonus will be.", "Q2": "No, the amount of cash at each node of the web may be different each time.", "Q3": "To get the highest total score.", "Q4": "Only before moving the spider.", "Q5": "3 seconds"}, "trial_id": "mouselab_quiz_misaligned", "trial_type": "survey-multi-choice", "trial_index": 13, "time_elapsed": 713326, "internal_node_id": "0.0-2.1-4.1"}}, {"uniqueid": "w47039169:a10813276", "current_trial": 14, "dateTime": 1691071475470, "trialdata": {"success": true, "trial_type": "fullscreen", "trial_index": 14, "time_elapsed": 720658, "internal_node_id": "0.0-2.2-0.2"}}, {"uniqueid": "w47039169:a10813276", "current_trial": 15, "dateTime": 1691071655407, "trialdata": {"view_history": [{"page_index": 0, "viewing_time": 59623}, {"page_index": 1, "viewing_time": 65499}, {"page_index": 2, "viewing_time": 16268}, {"page_index": 3, "viewing_time": 38542}], "rt": 179933, "trial_id": "mouselab_instructions_1_misaligned", "trial_type": "instructions", "trial_index": 15, "time_elapsed": 900595, "internal_node_id": "0.0-2.2-1.2"}}, {"uniqueid": "w47039169:a10813276", "current_trial": 16, "dateTime": 1691071663908, "trialdata": {"revealed_states": [], "clicked_states": [], "num_clicks_accrued": [0, 0, 0, 0, 0, 0, 0, 0, 0, 0, 0, 0, 0], "stateRewards": ["", -10, 10, 10, -10, -10, -10, 10, -10, 10, 10, 10, 10, -10, -10, -10, -10, -10, 10, 10, -10, 10, 10, 10, 10, 10, 10, 10, 10, 10, -10, 10, 10, 10], "withholdReward": false, "trial_id": "practice_1", "block": "test", "trialIndex": 4, "score": 13.5, "costs": 0, "simulationMode": [null, null, null, null, null], "rewards": [10, -10, -10, 10, 10], "path": ["0", "0", "12", "13", "14", "19", "21"], "rt": [1577, 54, 111, 810, 650], "actions": ["right", "right", "right", "down", "down"], "actionTimes": [3557, 4112, 4735, 6036, 7177], "queries": {"click": {"state": {"target": [], "time": []}, "edge": {"target": [], "time": []}}, "mouseover": {"state": {"target": [], "time": []}, "edge": {"target": [], "time": []}}, "mouseout": {"state": {"target": ["0"], "time": [1087]}, "edge": {"target": [], "time": []}}}, "displayed_time": "7.68", "trialTime": 8281, "trial_type": "mouselab-mdp", "trial_index": 16, "time_elapsed": 909095, "internal_node_id": "0.0-2.2-2.2-0.2"}}, {"uniqueid": "w47039169:a10813276", "current_trial": 17, "dateTime": 1691071675505, "trialdata": {"revealed_states": [], "clicked_states": [], "num_clicks_accrued": [0, 0, 0, 0, 0, 0, 0, 0, 0, 0, 0, 0, 0], "stateRewards": ["", -10, 10, 10, -10, 10, 10, 10, -10, 10, 10, 10, -10, -10, -10, -10, 10, 10, -10, 10, 10, 10, 10, -10, 10, 10, 10, 10, -10, -10, -10, -10, 10, 10], "withholdReward": false, "trial_id": "practice_2", "block": "test", "trialIndex": 5, "score": -26.5, "costs": 0, "simulationMode": [null, null, null, null, null], "rewards": [-10, -10, -10, -10, 10], "path": ["0", "0", "12", "13", "14", "15", "16"], "rt": [1163, 6, 669, 677, 507], "actions": ["right", "right", "right", "up", "up"], "actionTimes": [4576, 5080, 6259, 7435, 8433], "queries": {"click": {"state": {"target": [], "time": []}, "edge": {"target": [], "time": []}}, "mouseover": {"state": {"target": [], "time": []}, "edge": {"target": [], "time": []}}, "mouseout": {"state": {"target": ["0"], "time": [3293]}, "edge": {"target": [], "time": []}}}, "displayed_time": "8.93", "trialTime": 11423, "trial_type": "mouselab-mdp", "trial_index": 17, "time_elapsed": 920693, "internal_node_id": "0.0-2.2-2.2-1.2"}}, {"uniqueid": "w47039169:a10813276", "current_trial": 18, "dateTime": 1691071683548, "trialdata": {"view_history": [{"page_index": 0, "viewing_time": 5969}, {"page_index": 1, "viewing_time": 2071}], "rt": 8041, "trial_id": "mouselab_instructions_2_misaligned", "trial_type": "instructions", "trial_index": 18, "time_elapsed": 928736, "internal_node_id": "0.0-2.2-3.2"}}, {"uniqueid": "w47039169:a10813276", "current_trial": 19, "dateTime": 1691071758430, "trialdata": {"rt": 74875, "response": {"Q0": "The cost for clicking on nodes may vary between nodes.", "Q1": "The better I perform the higher my bonus will be.", "Q2": "Yes.", "Q3": "To get the highest total score.", "Q4": "Only before moving the spider.", "Q5": "3 seconds"}, "question_order": [0, 1, 2, 3, 4, 5], "correct": {"Q0": "The cost for clicking on nodes may vary between nodes.", "Q1": "The better I perform the higher my bonus will be.", "Q2": "No, the amount of cash at each node of the web may be different each time.", "Q3": "To get the highest total score.", "Q4": "Only before moving the spider.", "Q5": "3 seconds"}, "trial_id": "mouselab_quiz_misaligned", "trial_type": "survey-multi-choice", "trial_index": 19, "time_elapsed": 1003618, "internal_node_id": "0.0-2.2-4.2"}}, {"uniqueid": "w47039169:a10813276", "current_trial": 20, "dateTime": 1691071767748, "trialdata": {"success": true, "trial_type": "fullscreen", "trial_index": 20, "time_elapsed": 1012936, "internal_node_id": "0.0-2.3-0.3"}}, {"uniqueid": "w47039169:a10813276", "current_trial": 21, "dateTime": 1691071816791, "trialdata": {"view_history": [{"page_index": 0, "viewing_time": 26803}, {"page_index": 1, "viewing_time": 14619}, {"page_index": 2, "viewing_time": 2436}, {"page_index": 3, "viewing_time": 5180}], "rt": 49038, "trial_id": "mouselab_instructions_1_misaligned", "trial_type": "instructions", "trial_index": 21, "time_elapsed": 1061979, "internal_node_id": "0.0-2.3-1.3"}}, {"uniqueid": "w47039169:a10813276", "current_trial": 22, "dateTime": 1691071827900, "trialdata": {"revealed_states": [], "clicked_states": [], "num_clicks_accrued": [0, 0, 0, 0, 0, 0, 0, 0, 0, 0, 0, 0, 0], "stateRewards": ["", -10, 10, 10, -10, -10, -10, 10, -10, 10, 10, 10, 10, -10, -10, -10, -10, -10, 10, 10, -10, 10, 10, 10, 10, 10, 10, 10, 10, 10, -10, 10, 10, 10], "withholdReward": false, "trial_id": "practice_1", "block": "test", "trialIndex": 6, "score": 13.5, "costs": 0, "simulationMode": [null, null, null, null, null], "rewards": [10, -10, -10, 10, 10], "path": ["0", "0", "12", "13", "14", "19", "21"], "rt": [2212, 208, 55, 641, 501], "actions": ["right", "right", "right", "down", "down"], "actionTimes": [4723, 5451, 6000, 7153, 8147], "queries": {"click": {"state": {"target": [], "time": []}, "edge": {"target": [], "time": []}}, "mouseover": {"state": {"target": ["12", "0"], "time": [3440, 3824]}, "edge": {"target": [], "time": []}}, "mouseout": {"state": {"target": ["12", "12"], "time": [805, 3624]}, "edge": {"target": [], "time": []}}}, "displayed_time": "8.64", "trialTime": 10915, "trial_type": "mouselab-mdp", "trial_index": 22, "time_elapsed": 1073088, "internal_node_id": "0.0-2.3-2.3-0.3"}}, {"uniqueid": "w47039169:a10813276", "current_trial": 23, "dateTime": 1691071838889, "trialdata": {"revealed_states": [], "clicked_states": [], "num_clicks_accrued": [0, 0, 0, 0, 0, 0, 0, 0, 0, 0, 0, 0, 0], "stateRewards": ["", -10, 10, 10, -10, 10, 10, 10, -10, 10, 10, 10, -10, -10, -10, -10, 10, 10, -10, 10, 10, 10, 10, -10, 10, 10, 10, 10, -10, -10, -10, -10, 10, 10], "withholdReward": false, "trial_id": "practice_2", "block": "test", "trialIndex": 7, "score": 13.5, "costs": 0, "simulationMode": [null, null, null, null, null], "rewards": [-10, 10, 10, -10, 10], "path": ["0", "0", "1", "2", "3", "8", "9"], "rt": [1540, 1046, 360, 1044, 1153], "actions": ["up", "up", "up", "left", "up"], "actionTimes": [3612, 5159, 6023, 7559, 9202], "queries": {"click": {"state": {"target": [], "time": []}, "edge": {"target": [], "time": []}}, "mouseover": {"state": {"target": [], "time": []}, "edge": {"target": [], "time": []}}, "mouseout": {"state": {"target": [], "time": []}, "edge": {"target": [], "time": []}}}, "displayed_time": "9.71", "trialTime": 10799, "trial_type": "mouselab-mdp", "trial_index": 23, "time_elapsed": 1084077, "internal_node_id": "0.0-2.3-2.3-1.3"}}, {"uniqueid": "w47039169:a10813276", "current_trial": 24, "dateTime": 1691071844587, "trialdata": {"view_history": [{"page_index": 0, "viewing_time": 2997}, {"page_index": 1, "viewing_time": 2695}], "rt": 5694, "trial_id": "mouselab_instructions_2_misaligned", "trial_type": "instructions", "trial_index": 24, "time_elapsed": 1089774, "internal_node_id": "0.0-2.3-3.3"}}, {"uniqueid": "w47039169:a10813276", "current_trial": 25, "dateTime": 1691071937560, "trialdata": {"rt": 92967, "response": {"Q0": "The cost for clicking on nodes may vary between nodes.", "Q1": "The better I perform the higher my bonus will be.", "Q2": "No, the amount of cash at each node of the web may be different each time.", "Q3": "To get the highest total score.", "Q4": "Only before moving the spider.", "Q5": "3 seconds"}, "question_order": [0, 1, 2, 3, 4, 5], "correct": {"Q0": "The cost for clicking on nodes may vary between nodes.", "Q1": "The better I perform the higher my bonus will be.", "Q2": "No, the amount of cash at each node of the web may be different each time.", "Q3": "To get the highest total score.", "Q4": "Only before moving the spider.", "Q5": "3 seconds"}, "trial_id": "mouselab_quiz_misaligned", "trial_type": "survey-multi-choice", "trial_index": 25, "time_elapsed": 1182747, "internal_node_id": "0.0-2.3-4.3"}}, {"uniqueid": "w47039169:a10813276", "current_trial": 26, "dateTime": 1691071946427, "trialdata": {"rt": 8860, "stimulus": "\n<h1> Get ready to start the game! </h1>\n\nThank you for reading the instructions. Get ready start with the 40 rounds of this game.\n<br><br>\nIf you need to take a break, feel free to take one after the end of a round, before continuing to the next one.\n<br><br>\nRemember, the more money the spider gets, the bigger your bonus will be!\n<br><br>\n<div style='text-align: center;'>Press <code>space</code> to begin.</div>\n\n<br><br>\n(If, at any point, the <code>space</code> key does not take you to the next page, click once on the text and try again.)", "response": " ", "trial_id": "mdp_ready", "trial_type": "html-keyboard-response", "trial_index": 26, "time_elapsed": 1191615, "internal_node_id": "0.0-4.0-0.0"}}, {"uniqueid": "w47039169:a10813276", "current_trial": 27, "dateTime": 1691071965723, "trialdata": {"revealed_states": [], "clicked_states": [], "num_clicks_accrued": [0, 0, 0, 0, 0, 0, 0, 0, 0, 0, 0, 0, 0], "stateRewards": ["", 1, -2, -3, 14, -42, -87, -37, -11, -50, 33, -44, -2, 4, -7, 13, 48, -75, -66, 12, 23, -2, 82, 1, -4, 3, 12, 51, -15, -26, -11, -52, -29, 82], "withholdReward": false, "trial_id": "mdp_trial_1", "block": "test", "trialIndex": 8, "score": 5, "costs": 0, "simulationMode": [null, null, null, null, null], "rewards": [-2, 4, -7, 12, -2], "path": ["0", "0", "12", "13", "14", "19", "21"], "rt": [1494, 83, 444, 601, 297], "actions": ["right", "right", "right", "down", "down"], "actionTimes": [3983, 4569, 5513, 6605, 7402], "queries": {"click": {"state": {"target": [], "time": []}, "edge": {"target": [], "time": []}}, "mouseover": {"state": {"target": [], "time": []}, "edge": {"target": [], "time": []}}, "mouseout": {"state": {"target": ["0"], "time": [1332]}, "edge": {"target": [], "time": []}}}, "displayed_time": "16.49", "trialTime": 19076, "trial_type": "mouselab-mdp", "trial_index": 27, "time_elapsed": 1210911, "internal_node_id": "0.0-4.0-1.0-0.0"}}, {"uniqueid": "w47039169:a10813276", "current_trial": 28, "dateTime": 1691071984954, "trialdata": {"revealed_states": [], "clicked_states": [], "num_clicks_accrued": [0, 0, 0, 0, 0, 0, 0, 0, 0, 0, 0, 0, 0], "stateRewards": ["", -1, -4, -6, -15, 21, -67, -63, 9, 51, 69, -14, -1, 3, 8, -8, 39, 72, 63, 15, 19, 47, 15, 1, 4, 5, 16, -18, 34, 35, -14, -80, 40, 1], "withholdReward": false, "trial_id": "mdp_trial_2", "block": "test", "trialIndex": 9, "score": -16, "costs": 0, "simulationMode": [null, null, null, null, null], "rewards": [-1, -4, -6, 9, -14], "path": ["0", "0", "1", "2", "3", "8", "11"], "rt": [1489, 109, 378, 779, 452], "actions": ["up", "up", "up", "left", "left"], "actionTimes": [4533, 5143, 6011, 7281, 8237], "queries": {"click": {"state": {"target": [], "time": []}, "edge": {"target": [], "time": []}}, "mouseover": {"state": {"target": [], "time": []}, "edge": {"target": [], "time": []}}, "mouseout": {"state": {"target": [], "time": []}, "edge": {"target": [], "time": []}}}, "displayed_time": "17.05", "trialTime": 19022, "trial_type": "mouselab-mdp", "trial_index": 28, "time_elapsed": 1230141, "internal_node_id": "0.0-4.0-1.0-1.0"}}, {"uniqueid": "w47039169:a10813276", "current_trial": 29, "dateTime": 1691072006642, "trialdata": {"revealed_states": [], "clicked_states": [], "num_clicks_accrued": [0, 0, 0, 0, 0, 0, 0, 0, 0, 0, 0, 0, 0], "stateRewards": ["", -2, -4, -2, 10, -8, -15, -47, 7, -84, 53, 5, -1, 2, -7, 3, 83, 31, 47, -1, 30, -8, 69, 2, -4, -1, 8, -7, 12, -8, -8, -13, 30, -84], "withholdReward": false, "trial_id": "mdp_trial_3", "block": "test", "trialIndex": 10, "score": 19, "costs": 0, "simulationMode": [null, null, null, null, null], "rewards": [2, -4, -1, -8, 30], "path": ["0", "0", "23", "24", "25", "30", "32"], "rt": [1306, 1, 158, 704, 47], "actions": ["left", "left", "left", "down", "down"], "actionTimes": [4801, 5298, 5972, 7168, 7713], "queries": {"click": {"state": {"target": [], "time": []}, "edge": {"target": [], "time": []}}, "mouseover": {"state": {"target": [], "time": []}, "edge": {"target": [], "time": []}}, "mouseout": {"state": {"target": [], "time": []}, "edge": {"target": [], "time": []}}}, "displayed_time": "17.50", "trialTime": 21461, "trial_type": "mouselab-mdp", "trial_index": 29, "time_elapsed": 1251829, "internal_node_id": "0.0-4.0-1.0-2.0"}}, {"uniqueid": "w47039169:a10813276", "current_trial": 30, "dateTime": 1691072030057, "trialdata": {"revealed_states": [], "clicked_states": [], "num_clicks_accrued": [0, 0, 0, 0, 0, 0, 0, 0, 0, 0, 0, 0, 0], "stateRewards": ["", -1, 2, -2, 5, 80, -61, -27, 12, 44, -26, -75, -2, -4, 1, -16, 42, -49, -50, 4, -44, 2, 80, -2, -2, 5, -2, 59, 10, 24, 7, -48, -86, -44], "withholdReward": false, "trial_id": "mdp_trial_4", "block": "test", "trialIndex": 11, "score": 23, "costs": 0, "simulationMode": [null, null, null, null, null], "rewards": [-2, -2, 5, -2, 24], "path": ["0", "0", "23", "24", "25", "26", "29"], "rt": [2126, 196, 497, 692, 828], "actions": ["left", "left", "left", "up", "left"], "actionTimes": [4986, 5682, 6682, 7863, 9182], "queries": {"click": {"state": {"target": [], "time": []}, "edge": {"target": [], "time": []}}, "mouseover": {"state": {"target": [], "time": []}, "edge": {"target": [], "time": []}}, "mouseout": {"state": {"target": [], "time": []}, "edge": {"target": [], "time": []}}}, "displayed_time": "16.86", "trialTime": 23150, "trial_type": "mouselab-mdp", "trial_index": 30, "time_elapsed": 1275244, "internal_node_id": "0.0-4.0-1.0-3.0"}}, {"uniqueid": "w47039169:a10813276", "current_trial": 31, "dateTime": 1691072052268, "trialdata": {"revealed_states": [], "clicked_states": [], "num_clicks_accrued": [0, 0, 0, 0, 0, 0, 0, 0, 0, 0, 0, 0, 0], "stateRewards": ["", -2, 1, -7, -8, -37, -76, -87, 11, 30, -63, 80, -1, 4, 2, -1, 42, 17, 52, -3, -75, -80, -68, 2, -3, -5, -15, -48, 82, 24, -7, 5, -22, -71], "withholdReward": false, "trial_id": "mdp_trial_5", "block": "test", "trialIndex": 12, "score": -92, "costs": 0, "simulationMode": [null, null, null, null, null], "rewards": [-2, 1, -7, -8, -76], "path": ["0", "0", "1", "2", "3", "4", "6"], "rt": [4316, 134, 432, 884, 18], "actions": ["up", "up", "up", "right", "right"], "actionTimes": [5992, 6620, 7551, 8937, 9454], "queries": {"click": {"state": {"target": [], "time": []}, "edge": {"target": [], "time": []}}, "mouseover": {"state": {"target": [], "time": []}, "edge": {"target": [], "time": []}}, "mouseout": {"state": {"target": ["0"], "time": [4349]}, "edge": {"target": [], "time": []}}}, "displayed_time": "15.68", "trialTime": 21929, "trial_type": "mouselab-mdp", "trial_index": 31, "time_elapsed": 1297455, "internal_node_id": "0.0-4.0-1.0-4.0"}}, {"uniqueid": "w47039169:a10813276", "current_trial": 32, "dateTime": 1691072080995, "trialdata": {"revealed_states": [], "clicked_states": [], "num_clicks_accrued": [0, 0, 0, 0, 0, 0, 0, 0, 0, 0, 0, 0, 0], "stateRewards": ["", 2, 4, 7, 7, -79, -2, -21, -5, -53, 47, -21, 1, -3, -1, 7, 83, 7, 84, -7, 80, -37, 69, 2, -4, 5, 2, 4, -20, -30, 7, 71, 44, -81], "withholdReward": false, "trial_id": "mdp_trial_6", "block": "test", "trialIndex": 13, "score": 18, "costs": 0, "simulationMode": [null, null, null, null, null], "rewards": [2, 4, 7, 7, -2], "path": ["0", "0", "1", "2", "3", "4", "6"], "rt": [1502, 59, 84, 522, 670], "actions": ["up", "up", "up", "right", "right"], "actionTimes": [12787, 13341, 13933, 14957, 16122], "queries": {"click": {"state": {"target": [], "time": []}, "edge": {"target": [], "time": []}}, "mouseover": {"state": {"target": [], "time": []}, "edge": {"target": [], "time": []}}, "mouseout": {"state": {"target": ["0", "0"], "time": [10399, 10765]}, "edge": {"target": [], "time": []}}}, "displayed_time": "25.29", "trialTime": 28452, "trial_type": "mouselab-mdp", "trial_index": 32, "time_elapsed": 1326182, "internal_node_id": "0.0-4.0-1.0-5.0"}}, {"uniqueid": "w47039169:a10813276", "current_trial": 33, "dateTime": 1691072108802, "trialdata": {"revealed_states": [], "clicked_states": [], "num_clicks_accrued": [0, 0, 0, 0, 0, 0, 0, 0, 0, 0, 0, 0, 0], "stateRewards": ["", 1, -1, 1, -14, -10, 67, -28, -11, 72, 40, -65, -1, 1, 1, -2, 8, -55, 34, -10, 61, 33, -15, 2, -4, 7, 4, -75, 63, -21, -16, 61, 19, 21], "withholdReward": false, "trial_id": "mdp_trial_7", "block": "test", "trialIndex": 14, "score": 10, "costs": 0, "simulationMode": [null, null, null, null, null], "rewards": [2, -4, 7, -16, 21], "path": ["0", "0", "23", "24", "25", "30", "33"], "rt": [2967, 97, 1, 532, 4508], "actions": ["left", "left", "left", "down", "left"], "actionTimes": [5882, 6478, 6984, 8031, 13041], "queries": {"click": {"state": {"target": [], "time": []}, "edge": {"target": [], "time": []}}, "mouseover": {"state": {"target": [], "time": []}, "edge": {"target": [], "time": []}}, "mouseout": {"state": {"target": ["0"], "time": [2701]}, "edge": {"target": [], "time": []}}}, "displayed_time": "16.92", "trialTime": 27523, "trial_type": "mouselab-mdp", "trial_index": 33, "time_elapsed": 1353989, "internal_node_id": "0.0-4.0-1.0-6.0"}}, {"uniqueid": "w47039169:a10813276", "current_trial": 34, "dateTime": 1691072138767, "trialdata": {"revealed_states": [], "clicked_states": [], "num_clicks_accrued": [0, 0, 0, 0, 0, 0, 0, 0, 0, 0, 0, 0, 0], "stateRewards": ["", -1, -2, -8, 8, -27, -82, 19, -14, -62, 4, 1, -2, 2, 6, 10, 73, -51, -2, 2, 73, -48, 54, -1, 2, -4, 11, -25, 47, 86, 15, 33, 43, -42], "withholdReward": false, "trial_id": "mdp_trial_8", "block": "test", "trialIndex": 15, "score": -87, "costs": 0, "simulationMode": [null, null, null, null, null], "rewards": [-1, -2, -8, -14, -62], "path": ["0", "0", "1", "2", "3", "8", "9"], "rt": [1757, 1161, 95, 732, 1508], "actions": ["up", "up", "up", "left", "up"], "actionTimes": [8857, 10520, 11105, 12326, 14343], "queries": {"click": {"state": {"target": [], "time": []}, "edge": {"target": [], "time": []}}, "mouseover": {"state": {"target": [], "time": []}, "edge": {"target": [], "time": []}}, "mouseout": {"state": {"target": ["0"], "time": [6942]}, "edge": {"target": [], "time": []}}}, "displayed_time": "21.10", "trialTime": 29680, "trial_type": "mouselab-mdp", "trial_index": 34, "time_elapsed": 1383954, "internal_node_id": "0.0-4.0-1.0-7.0"}}, {"uniqueid": "w47039169:a10813276", "current_trial": 35, "dateTime": 1691072172905, "trialdata": {"revealed_states": [], "clicked_states": [], "num_clicks_accrued": [0, 0, 0, 0, 0, 0, 0, 0, 0, 0, 0, 0, 0], "stateRewards": ["", -1, 4, -3, 3, 57, -61, 5, -11, 23, -1, 34, -2, -4, -1, -13, 27, 38, -36, 4, -45, 21, 88, 1, -2, -1, 1, -69, -5, -78, -12, -9, 38, -54], "withholdReward": false, "trial_id": "mdp_trial_9", "block": "test", "trialIndex": 16, "score": -56, "costs": 0, "simulationMode": [null, null, null, null, null], "rewards": [-2, -4, -1, -13, -36], "path": ["0", "0", "12", "13", "14", "15", "18"], "rt": [7388, 90, 81, 1077, 500], "actions": ["right", "right", "right", "up", "left"], "actionTimes": [17120, 17713, 18288, 19867, 20858], "queries": {"click": {"state": {"target": [], "time": []}, "edge": {"target": [], "time": []}}, "mouseover": {"state": {"target": [], "time": []}, "edge": {"target": [], "time": []}}, "mouseout": {"state": {"target": ["0", "1", "7", "0"], "time": [8602, 8649, 8749, 9033]}, "edge": {"target": [], "time": []}}}, "displayed_time": "23.73", "trialTime": 33905, "trial_type": "mouselab-mdp", "trial_index": 35, "time_elapsed": 1418092, "internal_node_id": "0.0-4.0-1.0-8.0"}}, {"uniqueid": "w47039169:a10813276", "current_trial": 36, "dateTime": 1691072199231, "trialdata": {"revealed_states": [], "clicked_states": [], "num_clicks_accrued": [0, 0, 0, 0, 0, 0, 0, 0, 0, 0, 0, 0, 0], "stateRewards": ["", -1, 1, -2, 5, 73, 15, 61, 8, 7, 38, 76, 2, 2, -4, -6, -6, -26, 43, -5, -45, -85, -35, -2, 1, -4, 15, -10, 69, 72, -11, 84, -49, -38], "withholdReward": false, "trial_id": "mdp_trial_10", "block": "test", "trialIndex": 17, "score": 82, "costs": 0, "simulationMode": [null, null, null, null, null], "rewards": [-1, 1, -2, 8, 76], "path": ["0", "0", "1", "2", "3", "8", "11"], "rt": [2814, 472, 2228, 2037, 1265], "actions": ["up", "up", "up", "left", "left"], "actionTimes": [5496, 6469, 9193, 11721, 13483], "queries": {"click": {"state": {"target": [], "time": []}, "edge": {"target": [], "time": []}}, "mouseover": {"state": {"target": [], "time": []}, "edge": {"target": [], "time": []}}, "mouseout": {"state": {"target": ["0", "1"], "time": [1629, 1812]}, "edge": {"target": [], "time": []}}}, "displayed_time": "16.68", "trialTime": 26041, "trial_type": "mouselab-mdp", "trial_index": 36, "time_elapsed": 1444418, "internal_node_id": "0.0-4.0-1.0-9.0"}}, {"uniqueid": "w47039169:a10813276", "current_trial": 37, "dateTime": 1691072245882, "trialdata": {"revealed_states": [], "clicked_states": [], "num_clicks_accrued": [0, 0, 0, 0, 0, 0, 0, 0, 0, 0, 0, 0, 0], "stateRewards": ["", 2, -3, -2, 14, -4, 85, 46, 15, -28, 41, 31, -1, -1, -1, 5, 62, 79, 57, 12, -73, -64, 86, -1, 1, -3, -5, 68, 11, -32, 8, -80, -21, -56], "withholdReward": false, "trial_id": "mdp_trial_11", "block": "test", "trialIndex": 18, "score": -16, "costs": 0, "simulationMode": [null, null, null, null, null], "rewards": [-1, 1, -3, 8, -21], "path": ["0", "0", "23", "24", "25", "30", "32"], "rt": [3599, 12, 125, 470, 146], "actions": ["left", "left", "left", "down", "down"], "actionTimes": [16575, 17085, 17715, 18678, 19321], "queries": {"click": {"state": {"target": [], "time": []}, "edge": {"target": [], "time": []}}, "mouseover": {"state": {"target": [], "time": []}, "edge": {"target": [], "time": []}}, "mouseout": {"state": {"target": ["0", "0"], "time": [11520, 14553]}, "edge": {"target": [], "time": []}}}, "displayed_time": "26.98", "trialTime": 46391, "trial_type": "mouselab-mdp", "trial_index": 37, "time_elapsed": 1491069, "internal_node_id": "0.0-4.0-1.0-10.0"}}, {"uniqueid": "w47039169:a10813276", "current_trial": 38, "dateTime": 1691072283603, "trialdata": {"revealed_states": [], "clicked_states": [], "num_clicks_accrued": [0, 0, 0, 0, 0, 0, 0, 0, 0, 0, 0, 0, 0], "stateRewards": ["", 2, 4, 4, 9, -88, -10, 44, 16, -54, 64, 78, 1, 2, 5, 16, 80, 36, 7, -4, 9, -47, -70, -1, -3, 6, -16, 11, 80, 28, 8, -1, 34, -17], "withholdReward": false, "trial_id": "mdp_trial_12", "block": "test", "trialIndex": 19, "score": -69, "costs": 0, "simulationMode": [null, null, null, null, null], "rewards": [2, 4, 4, 9, -88], "path": ["0", "0", "1", "2", "3", "4", "5"], "rt": [1271, 47, 92, 486, 1032], "actions": ["up", "up", "up", "right", "up"], "actionTimes": [3209, 3764, 4370, 5350, 6880], "queries": {"click": {"state": {"target": [], "time": []}, "edge": {"target": [], "time": []}}, "mouseover": {"state": {"target": [], "time": []}, "edge": {"target": [], "time": []}}, "mouseout": {"state": {"target": [], "time": []}, "edge": {"target": [], "time": []}}}, "displayed_time": "15.94", "trialTime": 37426, "trial_type": "mouselab-mdp", "trial_index": 38, "time_elapsed": 1528790, "internal_node_id": "0.0-4.0-1.0-11.0"}}, {"uniqueid": "w47039169:a10813276", "current_trial": 39, "dateTime": 1691072323358, "trialdata": {"revealed_states": [], "clicked_states": [], "num_clicks_accrued": [0, 0, 0, 0, 0, 0, 0, 0, 0, 0, 0, 0, 0], "stateRewards": ["", 1, 2, -6, -13, -51, 22, -4, -12, -44, -12, 6, -2, -2, -2, -14, -46, -4, -77, -2, 36, -79, 41, 2, -4, 2, -6, -55, 59, 70, -5, 39, -19, 24], "withholdReward": false, "trial_id": "mdp_trial_13", "block": "test", "trialIndex": 20, "score": -24, "costs": 0, "simulationMode": [null, null, null, null, null], "rewards": [2, -4, 2, -5, -19], "path": ["0", "0", "23", "24", "25", "30", "32"], "rt": [3647, 16, 381, 669, 69], "actions": ["left", "left", "left", "down", "down"], "actionTimes": [11479, 11997, 12897, 14069, 14636], "queries": {"click": {"state": {"target": [], "time": []}, "edge": {"target": [], "time": []}}, "mouseover": {"state": {"target": [], "time": []}, "edge": {"target": [], "time": []}}, "mouseout": {"state": {"target": [], "time": []}, "edge": {"target": [], "time": []}}}, "displayed_time": "21.83", "trialTime": 39473, "trial_type": "mouselab-mdp", "trial_index": 39, "time_elapsed": 1568545, "internal_node_id": "0.0-4.0-1.0-12.0"}}, {"uniqueid": "w47039169:a10813276", "current_trial": 40, "dateTime": 1691072344761, "trialdata": {"revealed_states": [], "clicked_states": [], "num_clicks_accrued": [0, 0, 0, 0, 0, 0, 0, 0, 0, 0, 0, 0, 0], "stateRewards": ["", -2, -3, -3, 9, 79, 67, 22, -15, -56, 27, -85, -2, 4, -4, -15, -20, -32, 60, 15, 71, 57, 17, 1, 2, -8, 15, -37, -81, 82, 15, 21, -3, 2], "withholdReward": false, "trial_id": "mdp_trial_14", "block": "test", "trialIndex": 21, "score": -79, "costs": 0, "simulationMode": [null, null, null, null, null], "rewards": [-2, -3, -3, -15, -56], "path": ["0", "0", "1", "2", "3", "8", "9"], "rt": [1471, 61, 57, 637, 1326], "actions": ["up", "up", "up", "left", "up"], "actionTimes": [3988, 4542, 5104, 6251, 8075], "queries": {"click": {"state": {"target": [], "time": []}, "edge": {"target": [], "time": []}}, "mouseover": {"state": {"target": [], "time": []}, "edge": {"target": [], "time": []}}, "mouseout": {"state": {"target": [], "time": []}, "edge": {"target": [], "time": []}}}, "displayed_time": "16.52", "trialTime": 21102, "trial_type": "mouselab-mdp", "trial_index": 40, "time_elapsed": 1589947, "internal_node_id": "0.0-4.0-1.0-13.0"}}, {"uniqueid": "w47039169:a10813276", "current_trial": 41, "dateTime": 1691072374344, "trialdata": {"revealed_states": [], "clicked_states": [], "num_clicks_accrued": [0, 0, 0, 0, 0, 0, 0, 0, 0, 0, 0, 0, 0], "stateRewards": ["", -1, 1, 8, -3, -24, 11, -65, -6, -77, 48, 44, -2, 1, -2, -7, -55, -35, 33, 8, -28, 19, -53, -1, -1, -5, -5, -70, 10, 44, 8, -58, -70, 51], "withholdReward": false, "trial_id": "mdp_trial_15", "block": "test", "trialIndex": 22, "score": 52, "costs": 0, "simulationMode": [null, null, null, null, null], "rewards": [-1, -1, -5, 8, 51], "path": ["0", "0", "23", "24", "25", "30", "33"], "rt": [2666, 117, 15, 491, 1159], "actions": ["left", "left", "left", "down", "left"], "actionTimes": [5236, 5864, 6376, 7370, 9022], "queries": {"click": {"state": {"target": [], "time": []}, "edge": {"target": [], "time": []}}, "mouseover": {"state": {"target": [], "time": []}, "edge": {"target": [], "time": []}}, "mouseout": {"state": {"target": ["0", "0", "23", "31", "30", "33", "33", "30"], "time": [22624, 22773, 22823, 23391, 23457, 23506, 24358, 24407]}, "edge": {"target": [], "time": []}}}, "displayed_time": "16.57", "trialTime": 29268, "trial_type": "mouselab-mdp", "trial_index": 41, "time_elapsed": 1619531, "internal_node_id": "0.0-4.0-1.0-14.0"}}, {"uniqueid": "w47039169:a10813276", "current_trial": 42, "dateTime": 1691072398301, "trialdata": {"revealed_states": [], "clicked_states": [], "num_clicks_accrued": [0, 0, 0, 0, 0, 0, 0, 0, 0, 0, 0, 0, 0], "stateRewards": ["", 2, 3, -2, -8, -8, -41, 74, 15, -23, -80, 1, 1, 3, 3, -15, -63, -78, 67, 13, 75, -41, 86, 2, -2, 6, -3, -8, -49, 50, -6, 83, 74, 80], "withholdReward": false, "trial_id": "mdp_trial_16", "block": "test", "trialIndex": 23, "score": -13, "costs": 0, "simulationMode": [null, null, null, null, null], "rewards": [2, 3, -2, -8, -8], "path": ["0", "0", "1", "2", "3", "4", "5"], "rt": [1739, 32, 194, 519, 1007], "actions": ["up", "up", "up", "right", "up"], "actionTimes": [3976, 4500, 5196, 6207, 7711], "queries": {"click": {"state": {"target": [], "time": []}, "edge": {"target": [], "time": []}}, "mouseover": {"state": {"target": [], "time": []}, "edge": {"target": [], "time": []}}, "mouseout": {"state": {"target": ["24", "23"], "time": [1097, 1147]}, "edge": {"target": [], "time": []}}}, "displayed_time": "16.24", "trialTime": 23664, "trial_type": "mouselab-mdp", "trial_index": 42, "time_elapsed": 1643488, "internal_node_id": "0.0-4.0-1.0-15.0"}}, {"uniqueid": "w47039169:a10813276", "current_trial": 43, "dateTime": 1691072425801, "trialdata": {"revealed_states": [], "clicked_states": [], "num_clicks_accrued": [0, 0, 0, 0, 0, 0, 0, 0, 0, 0, 0, 0, 0], "stateRewards": ["", -1, -3, 3, 5, 56, 39, 50, -1, -80, 33, -46, 1, -2, -6, -8, 87, 48, 54, -11, -20, -64, -54, -2, 3, -7, -3, 12, 88, 35, -16, -46, -70, -3], "withholdReward": false, "trial_id": "mdp_trial_17", "block": "test", "trialIndex": 24, "score": -38, "costs": 0, "simulationMode": [null, null, null, null, null], "rewards": [1, -2, -6, -11, -20], "path": ["0", "0", "12", "13", "14", "19", "20"], "rt": [1380, 117, 14, 811, 651], "actions": ["right", "right", "right", "down", "right"], "actionTimes": [3022, 3634, 4146, 5460, 6601], "queries": {"click": {"state": {"target": [], "time": []}, "edge": {"target": [], "time": []}}, "mouseover": {"state": {"target": [], "time": []}, "edge": {"target": [], "time": []}}, "mouseout": {"state": {"target": ["0", "0", "13", "14", "19", "22"], "time": [null, 17590, 19023, 22275, 22726, 22909]}, "edge": {"target": [], "time": []}}}, "displayed_time": "15.64", "trialTime": 27193, "trial_type": "mouselab-mdp", "trial_index": 43, "time_elapsed": 1670988, "internal_node_id": "0.0-4.0-1.0-16.0"}}, {"uniqueid": "w47039169:a10813276", "current_trial": 44, "dateTime": 1691072469523, "trialdata": {"revealed_states": [], "clicked_states": [], "num_clicks_accrued": [0, 0, 0, 0, 0, 0, 0, 0, 0, 0, 0, 0, 0], "stateRewards": ["", -2, -1, -4, -15, -14, -67, 32, -3, -59, 63, 31, 2, -1, -7, -15, 71, -66, -27, -3, -54, -39, 72, 2, 1, 1, -13, 77, -40, 35, -9, 35, 75, 57], "withholdReward": false, "trial_id": "mdp_trial_18", "block": "test", "trialIndex": 25, "score": 30, "costs": 0, "simulationMode": [null, null, null, null, null], "rewards": [2, 1, 1, -9, 35], "path": ["0", "0", "23", "24", "25", "30", "31"], "rt": [3508, 42, 500, 763, 737], "actions": ["left", "left", "left", "down", "right"], "actionTimes": [6091, 6627, 7619, 8883, 10140], "queries": {"click": {"state": {"target": [], "time": []}, "edge": {"target": [], "time": []}}, "mouseover": {"state": {"target": [], "time": []}, "edge": {"target": [], "time": []}}, "mouseout": {"state": {"target": ["0"], "time": [1345]}, "edge": {"target": [], "time": []}}}, "displayed_time": "16.58", "trialTime": 43431, "trial_type": "mouselab-mdp", "trial_index": 44, "time_elapsed": 1714710, "internal_node_id": "0.0-4.0-1.0-17.0"}}, {"uniqueid": "w47039169:a10813276", "current_trial": 45, "dateTime": 1691072497774, "trialdata": {"revealed_states": [], "clicked_states": [], "num_clicks_accrued": [0, 0, 0, 0, 0, 0, 0, 0, 0, 0, 0, 0, 0], "stateRewards": ["", -1, 2, 6, 11, 21, -21, -21, -6, 48, -71, 88, -1, -3, 3, 7, 64, 2, 9, -4, 37, -67, 72, 2, 2, -8, -8, -10, 71, -40, -3, 73, 80, 47], "withholdReward": false, "trial_id": "mdp_trial_19", "block": "test", "trialIndex": 26, "score": 15, "costs": 0, "simulationMode": [null, null, null, null, null], "rewards": [-1, -3, 3, 7, 9], "path": ["0", "0", "12", "13", "14", "15", "18"], "rt": [1591, 53, 95, 595, 125], "actions": ["right", "right", "right", "up", "left"], "actionTimes": [4673, 5222, 5829, 6915, 7549], "queries": {"click": {"state": {"target": [], "time": []}, "edge": {"target": [], "time": []}}, "mouseover": {"state": {"target": [], "time": []}, "edge": {"target": [], "time": []}}, "mouseout": {"state": {"target": ["0"], "time": [2895]}, "edge": {"target": [], "time": []}}}, "displayed_time": "17.08", "trialTime": 27938, "trial_type": "mouselab-mdp", "trial_index": 45, "time_elapsed": 1742962, "internal_node_id": "0.0-4.0-1.0-18.0"}}, {"uniqueid": "w47039169:a10813276", "current_trial": 46, "dateTime": 1691072527537, "trialdata": {"revealed_states": [], "clicked_states": [], "num_clicks_accrued": [0, 0, 0, 0, 0, 0, 0, 0, 0, 0, 0, 0, 0], "stateRewards": ["", -1, 3, 1, -11, -22, -36, 19, -5, -70, -52, 50, -2, -4, 4, -2, -41, -83, 29, -2, 22, 10, -6, -2, 3, -2, 14, 54, 44, 77, -9, -65, -37, -40], "withholdReward": false, "trial_id": "mdp_trial_20", "block": "test", "trialIndex": 27, "score": -47, "costs": 0, "simulationMode": [null, null, null, null, null], "rewards": [-2, 3, -2, -9, -37], "path": ["0", "0", "23", "24", "25", "30", "32"], "rt": [5327, 70, 89, 571, 50], "actions": ["left", "left", "left", "down", "down"], "actionTimes": [13975, 14547, 15133, 16202, 16744], "queries": {"click": {"state": {"target": [], "time": []}, "edge": {"target": [], "time": []}}, "mouseover": {"state": {"target": [], "time": []}, "edge": {"target": [], "time": []}}, "mouseout": {"state": {"target": ["0"], "time": [8483]}, "edge": {"target": [], "time": []}}}, "displayed_time": "22.65", "trialTime": 29449, "trial_type": "mouselab-mdp", "trial_index": 46, "time_elapsed": 1772724, "internal_node_id": "0.0-4.0-1.0-19.0"}}, {"uniqueid": "w47039169:a10813276", "current_trial": 47, "dateTime": 1691072575887, "trialdata": {"revealed_states": [], "clicked_states": [], "num_clicks_accrued": [0, 0, 0, 0, 0, 0, 0, 0, 0, 0, 0, 0, 0], "stateRewards": ["", 1, 2, -3, -6, 50, -7, 7, -7, -80, 21, -1, 2, 2, 4, -1, 33, 84, 1, 14, -53, 81, 6, -2, -2, -3, -9, -87, -38, -59, -5, -74, -3, -71], "withholdReward": false, "trial_id": "mdp_trial_21", "block": "test", "trialIndex": 28, "score": -86, "costs": 0, "simulationMode": [null, null, null, null, null], "rewards": [-2, -2, -3, -5, -74], "path": ["0", "0", "23", "24", "25", "30", "31"], "rt": [14794, 58, 175, 391, 603], "actions": ["left", "left", "left", "down", "right"], "actionTimes": [41803, 42387, 43072, 43972, 45081], "queries": {"click": {"state": {"target": [], "time": []}, "edge": {"target": [], "time": []}}, "mouseover": {"state": {"target": [], "time": []}, "edge": {"target": [], "time": []}}, "mouseout": {"state": {"target": ["0"], "time": [26782]}, "edge": {"target": [], "time": []}}}, "displayed_time": "45.58", "trialTime": 48008, "trial_type": "mouselab-mdp", "trial_index": 47, "time_elapsed": 1821074, "internal_node_id": "0.0-4.0-1.0-20.0"}}, {"uniqueid": "w47039169:a10813276", "current_trial": 48, "dateTime": 1691072602408, "trialdata": {"revealed_states": [], "clicked_states": [], "num_clicks_accrued": [0, 0, 0, 0, 0, 0, 0, 0, 0, 0, 0, 0, 0], "stateRewards": ["", 1, 1, -7, -9, -44, 24, -83, -15, 44, -24, 72, -2, -3, 4, -5, 57, 55, 29, -11, 22, 12, -25, -1, 2, 7, 12, 33, -8, 47, -4, 8, 50, -4], "withholdReward": false, "trial_id": "mdp_trial_22", "block": "test", "trialIndex": 29, "score": 10, "costs": 0, "simulationMode": [null, null, null, null, null], "rewards": [1, 1, -7, -9, 24], "path": ["0", "0", "1", "2", "3", "4", "6"], "rt": [6803, 524, 369, 503, 575], "actions": ["up", "up", "up", "right", "right"], "actionTimes": [8857, 9880, 10742, 11759, 12833], "queries": {"click": {"state": {"target": [], "time": []}, "edge": {"target": [], "time": []}}, "mouseover": {"state": {"target": [], "time": []}, "edge": {"target": [], "time": []}}, "mouseout": {"state": {"target": ["0"], "time": [1868]}, "edge": {"target": [], "time": []}}}, "displayed_time": "16.05", "trialTime": 26215, "trial_type": "mouselab-mdp", "trial_index": 48, "time_elapsed": 1847595, "internal_node_id": "0.0-4.0-1.0-21.0"}}, {"uniqueid": "w47039169:a10813276", "current_trial": 49, "dateTime": 1691072624986, "trialdata": {"revealed_states": [], "clicked_states": [], "num_clicks_accrued": [0, 0, 0, 0, 0, 0, 0, 0, 0, 0, 0, 0, 0], "stateRewards": ["", 1, 1, 5, 6, -29, -7, 3, -16, 9, -46, 65, -1, 4, -1, -16, -63, -77, -87, 8, 80, -50, 43, -1, -1, -5, 5, -38, -71, -62, 9, 81, -50, -52], "withholdReward": false, "trial_id": "mdp_trial_23", "block": "test", "trialIndex": 30, "score": -73, "costs": 0, "simulationMode": [null, null, null, null, null], "rewards": [-1, -1, -5, 5, -71], "path": ["0", "0", "23", "24", "25", "26", "28"], "rt": [3064, 313, 347, 874, 466], "actions": ["left", "left", "left", "up", "right"], "actionTimes": [8433, 9253, 10104, 11482, 12443], "queries": {"click": {"state": {"target": [], "time": []}, "edge": {"target": [], "time": []}}, "mouseover": {"state": {"target": [], "time": []}, "edge": {"target": [], "time": []}}, "mouseout": {"state": {"target": ["0"], "time": [5106]}, "edge": {"target": [], "time": []}}}, "displayed_time": "19.37", "trialTime": 22212, "trial_type": "mouselab-mdp", "trial_index": 49, "time_elapsed": 1870173, "internal_node_id": "0.0-4.0-1.0-22.0"}}, {"uniqueid": "w47039169:a10813276", "current_trial": 50, "dateTime": 1691072647581, "trialdata": {"revealed_states": [], "clicked_states": [], "num_clicks_accrued": [0, 0, 0, 0, 0, 0, 0, 0, 0, 0, 0, 0, 0], "stateRewards": ["", 1, 2, -3, -5, 66, -50, -47, -5, 1, 28, -27, 1, 1, -1, -6, 37, -25, 56, 1, -82, -66, -40, -1, -4, -7, 15, -61, -23, 26, 10, 14, -56, 29], "withholdReward": false, "trial_id": "mdp_trial_24", "block": "test", "trialIndex": 31, "score": 51, "costs": 0, "simulationMode": [null, null, null, null, null], "rewards": [1, 1, -1, -6, 56], "path": ["0", "0", "12", "13", "14", "15", "18"], "rt": [5309, 114, 399, 522, 1167], "actions": ["right", "right", "right", "up", "left"], "actionTimes": [9812, 10423, 11324, 12349, 14011], "queries": {"click": {"state": {"target": [], "time": []}, "edge": {"target": [], "time": []}}, "mouseover": {"state": {"target": [], "time": []}, "edge": {"target": [], "time": []}}, "mouseout": {"state": {"target": ["0"], "time": [4272]}, "edge": {"target": [], "time": []}}}, "displayed_time": "18.51", "trialTime": 22243, "trial_type": "mouselab-mdp", "trial_index": 50, "time_elapsed": 1892769, "internal_node_id": "0.0-4.0-1.0-23.0"}}, {"uniqueid": "w47039169:a10813276", "current_trial": 51, "dateTime": 1691072669312, "trialdata": {"revealed_states": [], "clicked_states": [], "num_clicks_accrued": [0, 0, 0, 0, 0, 0, 0, 0, 0, 0, 0, 0, 0], "stateRewards": ["", -1, -2, 4, 9, 10, -75, 39, 16, -43, 88, -19, -1, 1, 2, 4, -31, 10, 73, 12, 41, -64, -81, -2, 2, -6, 1, -81, -1, -26, 3, -59, -3, -20], "withholdReward": false, "trial_id": "mdp_trial_25", "block": "test", "trialIndex": 32, "score": -6, "costs": 0, "simulationMode": [null, null, null, null, null], "rewards": [-2, 2, -6, 1, -1], "path": ["0", "0", "23", "24", "25", "26", "28"], "rt": [8516, 1473, 947, 619, 673], "actions": ["left", "left", "left", "up", "right"], "actionTimes": [10034, 12027, 13470, 14591, 15762], "queries": {"click": {"state": {"target": [], "time": []}, "edge": {"target": [], "time": []}}, "mouseover": {"state": {"target": [], "time": []}, "edge": {"target": [], "time": []}}, "mouseout": {"state": {"target": ["0"], "time": [1269]}, "edge": {"target": [], "time": []}}}, "displayed_time": "16.26", "trialTime": 21402, "trial_type": "mouselab-mdp", "trial_index": 51, "time_elapsed": 1914499, "internal_node_id": "0.0-4.0-1.0-24.0"}}, {"uniqueid": "w47039169:a10813276", "current_trial": 52, "dateTime": 1691072688709, "trialdata": {"revealed_states": [], "clicked_states": [], "num_clicks_accrued": [0, 0, 0, 0, 0, 0, 0, 0, 0, 0, 0, 0, 0], "stateRewards": ["", 2, 4, -5, 7, 81, 35, 6, 11, 14, -72, 42, -1, 2, 3, -7, -77, -44, -40, -15, -85, 51, -32, -2, -1, -5, 7, -74, 47, 52, 16, -49, 48, -46], "withholdReward": false, "trial_id": "mdp_trial_26", "block": "test", "trialIndex": 33, "score": 43, "costs": 0, "simulationMode": [null, null, null, null, null], "rewards": [2, 4, -5, 7, 35], "path": ["0", "0", "1", "2", "3", "4", "6"], "rt": [1459, 29, 69, 1065, 447], "actions": ["up", "up", "up", "right", "right"], "actionTimes": [3787, 4316, 4908, 6487, 7437], "queries": {"click": {"state": {"target": [], "time": []}, "edge": {"target": [], "time": []}}, "mouseover": {"state": {"target": [], "time": []}, "edge": {"target": [], "time": []}}, "mouseout": {"state": {"target": ["0"], "time": [1285]}, "edge": {"target": [], "time": []}}}, "displayed_time": "16.33", "trialTime": 19072, "trial_type": "mouselab-mdp", "trial_index": 52, "time_elapsed": 1933895, "internal_node_id": "0.0-4.0-1.0-25.0"}}, {"uniqueid": "w47039169:a10813276", "current_trial": 53, "dateTime": 1691072727197, "trialdata": {"revealed_states": [], "clicked_states": [], "num_clicks_accrued": [0, 0, 0, 0, 0, 0, 0, 0, 0, 0, 0, 0, 0], "stateRewards": ["", 2, -4, 1, -12, -59, -53, -74, 16, -88, -66, 66, 1, -2, 8, -9, -14, 22, 25, -1, -39, 47, -14, -1, -1, -2, 1, -4, 52, -26, 15, -7, 46, 43], "withholdReward": false, "trial_id": "mdp_trial_27", "block": "test", "trialIndex": 34, "score": -7, "costs": 0, "simulationMode": [null, null, null, null, null], "rewards": [-1, -1, -2, 1, -4], "path": ["0", "0", "23", "24", "25", "26", "27"], "rt": [5603, 78, 66, 819, 619], "actions": ["left", "left", "left", "up", "up"], "actionTimes": [13040, 13612, 14185, 15506, 16620], "queries": {"click": {"state": {"target": [], "time": []}, "edge": {"target": [], "time": []}}, "mouseover": {"state": {"target": [], "time": []}, "edge": {"target": [], "time": []}}, "mouseout": {"state": {"target": [], "time": []}, "edge": {"target": [], "time": []}}}, "displayed_time": "21.44", "trialTime": 38069, "trial_type": "mouselab-mdp", "trial_index": 53, "time_elapsed": 1972384, "internal_node_id": "0.0-4.0-1.0-26.0"}}, {"uniqueid": "w47039169:a10813276", "current_trial": 54, "dateTime": 1691072753300, "trialdata": {"revealed_states": [], "clicked_states": [], "num_clicks_accrued": [0, 0, 0, 0, 0, 0, 0, 0, 0, 0, 0, 0, 0], "stateRewards": ["", -2, 4, -5, -12, 85, -24, -18, -15, -78, -22, 26, -1, -1, 2, 14, -45, 52, -23, 7, -33, 24, -6, -2, -4, 5, -7, -16, 36, -39, 5, 71, -87, -23], "withholdReward": false, "trial_id": "mdp_trial_28", "block": "test", "trialIndex": 35, "score": -9, "costs": 0, "simulationMode": [null, null, null, null, null], "rewards": [-1, -1, 2, 14, -23], "path": ["0", "0", "12", "13", "14", "15", "18"], "rt": [2432, 4, 143, 609, 384], "actions": ["right", "right", "right", "up", "left"], "actionTimes": [7075, 7576, 8233, 9335, 10224], "queries": {"click": {"state": {"target": [], "time": []}, "edge": {"target": [], "time": []}}, "mouseover": {"state": {"target": [], "time": []}, "edge": {"target": [], "time": []}}, "mouseout": {"state": {"target": [], "time": []}, "edge": {"target": [], "time": []}}}, "displayed_time": "18.64", "trialTime": 25724, "trial_type": "mouselab-mdp", "trial_index": 54, "time_elapsed": 1998487, "internal_node_id": "0.0-4.0-1.0-27.0"}}, {"uniqueid": "w47039169:a10813276", "current_trial": 55, "dateTime": 1691072812766, "trialdata": {"revealed_states": [], "clicked_states": [], "num_clicks_accrued": [0, 0, 0, 0, 0, 0, 0, 0, 0, 0, 0, 0, 0], "stateRewards": ["", 1, -4, -4, 8, 1, -79, 68, -10, -79, 8, -74, -1, -3, -6, 14, 43, 23, 9, 5, -51, 63, 61, -2, 4, 6, -10, 69, -32, 57, 15, -80, -80, -77], "withholdReward": false, "trial_id": "mdp_trial_29", "block": "test", "trialIndex": 36, "score": -56, "costs": 0, "simulationMode": [null, null, null, null, null], "rewards": [-1, -3, -6, 5, -51], "path": ["0", "0", "12", "13", "14", "19", "20"], "rt": [5337, 75, 82, 496, 768], "actions": ["right", "right", "right", "down", "right"], "actionTimes": [24357, 24935, 25524, 26523, 27792], "queries": {"click": {"state": {"target": [], "time": []}, "edge": {"target": [], "time": []}}, "mouseover": {"state": {"target": [], "time": []}, "edge": {"target": [], "time": []}}, "mouseout": {"state": {"target": [], "time": []}, "edge": {"target": [], "time": []}}}, "displayed_time": "33.02", "trialTime": 59060, "trial_type": "mouselab-mdp", "trial_index": 55, "time_elapsed": 2057953, "internal_node_id": "0.0-4.0-1.0-28.0"}}, {"uniqueid": "w47039169:a10813276", "current_trial": 56, "dateTime": 1691072831689, "trialdata": {"revealed_states": [], "clicked_states": [], "num_clicks_accrued": [0, 0, 0, 0, 0, 0, 0, 0, 0, 0, 0, 0, 0], "stateRewards": ["", 2, 3, -1, 16, -78, -11, 46, 2, -20, 79, -67, 2, 3, 2, 11, -83, -42, -58, -11, -67, -22, 55, 2, -1, -1, -16, -83, -82, 23, -11, -29, 13, 13], "withholdReward": false, "trial_id": "mdp_trial_30", "block": "test", "trialIndex": 37, "score": 9, "costs": 0, "simulationMode": [null, null, null, null, null], "rewards": [2, 3, -1, 16, -11], "path": ["0", "0", "1", "2", "3", "4", "6"], "rt": [5788, 82, 10, 881, 421], "actions": ["up", "up", "up", "right", "right"], "actionTimes": [8912, 9495, 10006, 11395, 12318], "queries": {"click": {"state": {"target": [], "time": []}, "edge": {"target": [], "time": []}}, "mouseover": {"state": {"target": [], "time": []}, "edge": {"target": [], "time": []}}, "mouseout": {"state": {"target": ["0"], "time": [1974]}, "edge": {"target": [], "time": []}}}, "displayed_time": "17.12", "trialTime": 18528, "trial_type": "mouselab-mdp", "trial_index": 56, "time_elapsed": 2076876, "internal_node_id": "0.0-4.0-1.0-29.0"}}, {"uniqueid": "w47039169:a10813276", "current_trial": 57, "dateTime": 1691072856350, "trialdata": {"revealed_states": [], "clicked_states": [], "num_clicks_accrued": [0, 0, 0, 0, 0, 0, 0, 0, 0, 0, 0, 0, 0], "stateRewards": ["", 1, 1, 1, 15, -76, 52, -32, 14, -57, 37, 49, 1, -4, -3, 6, 83, -76, 25, 9, 36, -1, -17, -1, 4, 4, -2, -22, -21, 58, -15, -57, 49, -24], "withholdReward": false, "trial_id": "mdp_trial_31", "block": "test", "trialIndex": 38, "score": 66, "costs": 0, "simulationMode": [null, null, null, null, null], "rewards": [1, 1, 1, 14, 49], "path": ["0", "0", "1", "2", "3", "8", "11"], "rt": [1306, 3, 19, 686, 1447], "actions": ["up", "up", "up", "left", "left"], "actionTimes": [2695, 3198, 3736, 4919, 6879], "queries": {"click": {"state": {"target": [], "time": []}, "edge": {"target": [], "time": []}}, "mouseover": {"state": {"target": [], "time": []}, "edge": {"target": [], "time": []}}, "mouseout": {"state": {"target": [], "time": []}, "edge": {"target": [], "time": []}}}, "displayed_time": "15.39", "trialTime": 24279, "trial_type": "mouselab-mdp", "trial_index": 57, "time_elapsed": 2101537, "internal_node_id": "0.0-4.0-1.0-30.0"}}, {"uniqueid": "w47039169:a10813276", "current_trial": 58, "dateTime": 1691072880314, "trialdata": {"revealed_states": [], "clicked_states": [], "num_clicks_accrued": [0, 0, 0, 0, 0, 0, 0, 0, 0, 0, 0, 0, 0], "stateRewards": ["", 2, -1, 5, 6, 10, 86, 55, 10, -45, 63, -71, 1, -2, 5, -8, -50, -72, 36, 15, 61, 12, 33, -1, -4, 6, 5, 79, -56, -21, -16, -87, 60, -81], "withholdReward": false, "trial_id": "mdp_trial_32", "block": "test", "trialIndex": 39, "score": 98, "costs": 0, "simulationMode": [null, null, null, null, null], "rewards": [2, -1, 5, 6, 86], "path": ["0", "0", "1", "2", "3", "4", "6"], "rt": [3684, 51, 88, 822, 351], "actions": ["up", "up", "up", "right", "right"], "actionTimes": [7045, 7587, 8191, 9509, 10355], "queries": {"click": {"state": {"target": [], "time": []}, "edge": {"target": [], "time": []}}, "mouseover": {"state": {"target": [], "time": []}, "edge": {"target": [], "time": []}}, "mouseout": {"state": {"target": [], "time": []}, "edge": {"target": [], "time": []}}}, "displayed_time": "17.36", "trialTime": 23547, "trial_type": "mouselab-mdp", "trial_index": 58, "time_elapsed": 2125501, "internal_node_id": "0.0-4.0-1.0-31.0"}}, {"uniqueid": "w47039169:a10813276", "current_trial": 59, "dateTime": 1691072901445, "trialdata": {"revealed_states": [], "clicked_states": [], "num_clicks_accrued": [0, 0, 0, 0, 0, 0, 0, 0, 0, 0, 0, 0, 0], "stateRewards": ["", 1, 2, -5, 14, 54, -14, -25, 16, -5, -87, 78, -1, 1, 3, -3, 52, 53, 53, -10, 73, -69, -48, 2, 3, 1, 8, -62, -7, 85, 7, 82, 52, -28], "withholdReward": false, "trial_id": "mdp_trial_33", "block": "test", "trialIndex": 40, "score": 65, "costs": 0, "simulationMode": [null, null, null, null, null], "rewards": [2, 3, 1, 7, 52], "path": ["0", "0", "23", "24", "25", "30", "32"], "rt": [1294, 1055, 920, 612, 38], "actions": ["left", "left", "left", "down", "down"], "actionTimes": [5554, 7115, 8532, 9642, 10183], "queries": {"click": {"state": {"target": [], "time": []}, "edge": {"target": [], "time": []}}, "mouseover": {"state": {"target": [], "time": []}, "edge": {"target": [], "time": []}}, "mouseout": {"state": {"target": [], "time": []}, "edge": {"target": [], "time": []}}}, "displayed_time": "18.26", "trialTime": 20706, "trial_type": "mouselab-mdp", "trial_index": 59, "time_elapsed": 2146633, "internal_node_id": "0.0-4.0-1.0-32.0"}}, {"uniqueid": "w47039169:a10813276", "current_trial": 60, "dateTime": 1691072920014, "trialdata": {"revealed_states": [], "clicked_states": [], "num_clicks_accrued": [0, 0, 0, 0, 0, 0, 0, 0, 0, 0, 0, 0, 0], "stateRewards": ["", -2, -4, 2, 10, -17, 18, 73, 11, -32, 23, -13, -2, -4, 7, 12, -25, 66, -23, 15, 40, -76, -9, 1, 2, -7, -5, -20, 24, 3, -5, 16, -73, 70], "withholdReward": false, "trial_id": "mdp_trial_34", "block": "test", "trialIndex": 41, "score": -25, "costs": 0, "simulationMode": [null, null, null, null, null], "rewards": [-2, -4, 2, 11, -32], "path": ["0", "0", "1", "2", "3", "8", "9"], "rt": [1357, 176, 37, 612, 1514], "actions": ["up", "up", "up", "left", "up"], "actionTimes": [3077, 3748, 4291, 5401, 7435], "queries": {"click": {"state": {"target": [], "time": []}, "edge": {"target": [], "time": []}}, "mouseover": {"state": {"target": [], "time": []}, "edge": {"target": [], "time": []}}, "mouseout": {"state": {"target": [], "time": []}, "edge": {"target": [], "time": []}}}, "displayed_time": "15.72", "trialTime": 18170, "trial_type": "mouselab-mdp", "trial_index": 60, "time_elapsed": 2165201, "internal_node_id": "0.0-4.0-1.0-33.0"}}, {"uniqueid": "w47039169:a10813276", "current_trial": 61, "dateTime": 1691072940042, "trialdata": {"revealed_states": [], "clicked_states": [], "num_clicks_accrued": [0, 0, 0, 0, 0, 0, 0, 0, 0, 0, 0, 0, 0], "stateRewards": ["", -2, 2, 2, -6, 9, 37, 50, -13, -7, -18, -75, -2, -4, 4, 7, 23, -57, -66, -7, -81, -48, -76, 1, 1, -8, 1, 51, -2, 70, 14, 59, 71, -37], "withholdReward": false, "trial_id": "mdp_trial_35", "block": "test", "trialIndex": 42, "score": -7, "costs": 0, "simulationMode": [null, null, null, null, null], "rewards": [1, 1, -8, 1, -2], "path": ["0", "0", "23", "24", "25", "26", "28"], "rt": [1029, 50, 51, 740, 1324], "actions": ["left", "left", "left", "up", "right"], "actionTimes": [2352, 2902, 3469, 4726, 6545], "queries": {"click": {"state": {"target": [], "time": []}, "edge": {"target": [], "time": []}}, "mouseover": {"state": {"target": [], "time": []}, "edge": {"target": [], "time": []}}, "mouseout": {"state": {"target": ["0"], "time": [16729]}, "edge": {"target": [], "time": []}}}, "displayed_time": "15.33", "trialTime": 19601, "trial_type": "mouselab-mdp", "trial_index": 61, "time_elapsed": 2185229, "internal_node_id": "0.0-4.0-1.0-34.0"}}, {"uniqueid": "w47039169:a10813276", "current_trial": 62, "dateTime": 1691072959779, "trialdata": {"revealed_states": [], "clicked_states": [], "num_clicks_accrued": [0, 0, 0, 0, 0, 0, 0, 0, 0, 0, 0, 0, 0], "stateRewards": ["", 2, 4, 4, -8, -36, -33, 38, 16, -51, 57, 57, 1, 3, 4, -6, 45, 68, 87, 1, 63, 24, -55, -2, 2, -6, -13, -63, -50, 8, 2, 80, 6, 60], "withholdReward": false, "trial_id": "mdp_trial_36", "block": "test", "trialIndex": 43, "score": 89, "costs": 0, "simulationMode": [null, null, null, null, null], "rewards": [1, 3, 4, -6, 87], "path": ["0", "0", "12", "13", "14", "15", "18"], "rt": [6071, 206, 35, 996, 963], "actions": ["right", "right", "right", "up", "left"], "actionTimes": [8706, 9410, 9947, 11434, 12901], "queries": {"click": {"state": {"target": [], "time": []}, "edge": {"target": [], "time": []}}, "mouseover": {"state": {"target": [], "time": []}, "edge": {"target": [], "time": []}}, "mouseout": {"state": {"target": ["28", "2", "7"], "time": [1114, 1195, 1246]}, "edge": {"target": [], "time": []}}}, "displayed_time": "16.64", "trialTime": 19321, "trial_type": "mouselab-mdp", "trial_index": 62, "time_elapsed": 2204966, "internal_node_id": "0.0-4.0-1.0-35.0"}}, {"uniqueid": "w47039169:a10813276", "current_trial": 63, "dateTime": 1691072980524, "trialdata": {"revealed_states": [], "clicked_states": [], "num_clicks_accrued": [0, 0, 0, 0, 0, 0, 0, 0, 0, 0, 0, 0, 0], "stateRewards": ["", 2, 3, -1, 6, 44, -4, -59, -14, -3, 64, 16, 1, -3, 3, 6, 3, 49, 19, 3, -49, -14, -86, 1, 2, -3, -8, -33, 14, 32, -13, -77, -47, -67], "withholdReward": false, "trial_id": "mdp_trial_37", "block": "test", "trialIndex": 44, "score": -45, "costs": 0, "simulationMode": [null, null, null, null, null], "rewards": [1, -3, 3, 3, -49], "path": ["0", "0", "12", "13", "14", "19", "20"], "rt": [7672, 103, 96, 570, 933], "actions": ["right", "right", "right", "down", "right"], "actionTimes": [12030, 12626, 13219, 14292, 15723], "queries": {"click": {"state": {"target": [], "time": []}, "edge": {"target": [], "time": []}}, "mouseover": {"state": {"target": [], "time": []}, "edge": {"target": [], "time": []}}, "mouseout": {"state": {"target": ["0"], "time": [4119]}, "edge": {"target": [], "time": []}}}, "displayed_time": "18.36", "trialTime": 20320, "trial_type": "mouselab-mdp", "trial_index": 63, "time_elapsed": 2225711, "internal_node_id": "0.0-4.0-1.0-36.0"}}, {"uniqueid": "w47039169:a10813276", "current_trial": 64, "dateTime": 1691072999748, "trialdata": {"revealed_states": [], "clicked_states": [], "num_clicks_accrued": [0, 0, 0, 0, 0, 0, 0, 0, 0, 0, 0, 0, 0], "stateRewards": ["", 1, -3, -2, 14, 49, -40, -39, 2, 26, -61, 73, 1, -4, -8, 12, 79, 29, -65, -13, 55, -26, 27, -1, 3, 3, 9, -17, -60, -18, -8, 35, -88, 69], "withholdReward": false, "trial_id": "mdp_trial_38", "block": "test", "trialIndex": 45, "score": -29, "costs": 0, "simulationMode": [null, null, null, null, null], "rewards": [1, -3, -2, 14, -39], "path": ["0", "0", "1", "2", "3", "4", "7"], "rt": [1028, 4, 96, 439, 492], "actions": ["up", "up", "up", "right", "down"], "actionTimes": [2990, 3485, 4094, 5038, 6025], "queries": {"click": {"state": {"target": [], "time": []}, "edge": {"target": [], "time": []}}, "mouseover": {"state": {"target": [], "time": []}, "edge": {"target": [], "time": []}}, "mouseout": {"state": {"target": ["0"], "time": [1743]}, "edge": {"target": [], "time": []}}}, "displayed_time": "15.96", "trialTime": 18811, "trial_type": "mouselab-mdp", "trial_index": 64, "time_elapsed": 2244935, "internal_node_id": "0.0-4.0-1.0-37.0"}}, {"uniqueid": "w47039169:a10813276", "current_trial": 65, "dateTime": 1691073017660, "trialdata": {"revealed_states": [], "clicked_states": [], "num_clicks_accrued": [0, 0, 0, 0, 0, 0, 0, 0, 0, 0, 0, 0, 0], "stateRewards": ["", 2, -1, 1, 10, -52, 86, -22, -2, -14, -63, 38, 1, 3, 7, -8, 11, -32, -27, 9, -71, 40, -87, -2, -1, 5, -7, 12, 31, -57, 13, 86, -58, 29], "withholdReward": false, "trial_id": "mdp_trial_39", "block": "test", "trialIndex": 46, "score": -43, "costs": 0, "simulationMode": [null, null, null, null, null], "rewards": [-2, -1, 5, 13, -58], "path": ["0", "0", "23", "24", "25", "30", "32"], "rt": [1399, 86, 83, 917, 14], "actions": ["left", "left", "left", "down", "down"], "actionTimes": [3163, 3750, 4330, 5748, 6261], "queries": {"click": {"state": {"target": [], "time": []}, "edge": {"target": [], "time": []}}, "mouseover": {"state": {"target": [], "time": []}, "edge": {"target": [], "time": []}}, "mouseout": {"state": {"target": ["0"], "time": [1493]}, "edge": {"target": [], "time": []}}}, "displayed_time": "15.77", "trialTime": 17460, "trial_type": "mouselab-mdp", "trial_index": 65, "time_elapsed": 2262847, "internal_node_id": "0.0-4.0-1.0-38.0"}}, {"uniqueid": "w47039169:a10813276", "current_trial": 66, "dateTime": 1691073038638, "trialdata": {"revealed_states": [], "clicked_states": [], "num_clicks_accrued": [0, 0, 0, 0, 0, 0, 0, 0, 0, 0, 0, 0, 0], "stateRewards": ["", -1, -4, -3, 1, -45, -67, -24, 14, 32, 22, 22, -1, 1, -5, -7, 72, 84, -79, -5, 19, -40, -2, -1, -2, 8, -3, 84, -25, -28, 11, 64, -66, 77], "withholdReward": false, "trial_id": "mdp_trial_40", "block": "test", "trialIndex": 47, "score": -50, "costs": 0, "simulationMode": [null, null, null, null, null], "rewards": [-1, 1, -5, -5, -40], "path": ["0", "0", "12", "13", "14", "19", "21"], "rt": [1490, 80, 115, 632, 104], "actions": ["right", "right", "right", "down", "down"], "actionTimes": [3349, 3931, 4550, 5685, 6293], "queries": {"click": {"state": {"target": [], "time": []}, "edge": {"target": [], "time": []}}, "mouseover": {"state": {"target": [], "time": []}, "edge": {"target": [], "time": []}}, "mouseout": {"state": {"target": ["0"], "time": [1631]}, "edge": {"target": [], "time": []}}}, "displayed_time": "15.86", "trialTime": 20582, "trial_type": "mouselab-mdp", "trial_index": 66, "time_elapsed": 2283825, "internal_node_id": "0.0-4.0-1.0-39.0"}}, {"uniqueid": "w47039169:a10813276", "current_trial": 67, "dateTime": 1691073114959, "trialdata": {"rt": 76309, "response": {"Q0": "$-88 to $88", "Q1": "$-16 to $16", "Q2": "$-32 to $32", "Q3": "The cost for clicking on nodes varied between nodes.", "Q4": "Very motivated"}, "question_order": [0, 1, 2, 3, 4], "trial_id": "final_quiz_control", "trial_type": "survey-multi-choice", "trial_index": 67, "time_elapsed": 2360147, "internal_node_id": "0.0-4.0-2.0"}}, {"uniqueid": "w47039169:a10813276", "current_trial": 68, "dateTime": 1691073193139, "trialdata": {"rt": 78169, "response": {"Q0": "moving 5 steps to the end", "Q1": "not really", "Q2": "not knowing how much  you would score or lend on made it difficult"}, "trial_id": "self_report_control", "trial_type": "survey-text", "trial_index": 68, "time_elapsed": 2438326, "internal_node_id": "0.0-4.0-3.0"}}, {"uniqueid": "w47039169:a10813276", "current_trial": 69, "dateTime": 1691073241112, "trialdata": {"rt": 47965, "response": {"Q0": "Agree", "Q1": "Neither disagree nor agree", "Q2": "Neither disagree nor agree", "Q3": "Agree", "Q4": "Agree", "Q5": "Agree", "Q6": "Disagree"}, "question_order": [0, 1, 2, 3, 4, 5, 6], "trial_id": "self_report_2", "trial_type": "survey-multi-choice", "trial_index": 69, "time_elapsed": 2486300, "internal_node_id": "0.0-4.0-4.0"}}, {"uniqueid": "w47039169:a10813276", "current_trial": 70, "dateTime": 1691073274801, "trialdata": {"rt": 33679, "response": {"gender": "female", "age": "31", "colorblind": "0", "effort": "0"}, "trial_type": "survey-html-form", "trial_index": 70, "time_elapsed": 2519989, "internal_node_id": "0.0-4.0-5.0"}}, {"uniqueid": "w47039169:a10813276", "current_trial": 71, "dateTime": 1691073300710, "trialdata": {"rt": 25901, "response": {"Q0": "no", "Q1": "no", "Q2": ""}, "trial_type": "survey-text", "trial_index": 71, "time_elapsed": 2545898, "internal_node_id": "0.0-4.0-6.0"}}, {"uniqueid": "w47039169:a10813276", "current_trial": 72, "dateTime": 1691073303441, "trialdata": {"rt": 2725, "stimulus": "Press 'Finish HIT' in order to reach the completion code. Once the data has been saved, you will receive the code either in this window or in the original browser window where you started the experiment.\n", "response": 0, "trial_type": "html-button-response", "trial_index": 72, "time_elapsed": 2548629, "internal_node_id": "0.0-5.0"}}, {"uniqueid": "w47039169:a10813276", "current_trial": 73, "dateTime": 1691073304445, "trialdata": {"success": true, "trial_type": "fullscreen", "trial_index": 73, "time_elapsed": 2549633, "internal_node_id": "0.0-6.0"}}], "questiondata": {"params": {"CODE": "C6DMOQA6", "MIN_TIME": 14, "inspectCost": 1, "startTime": "Thu Aug 03 2023 15:52:31 GMT+0200 (South Africa Standard Time)", "bonusRate": 0.002, "variance": "1_2_4_8_44", "branching": "31123"}, "final_score": -288}, "eventdata": [{"eventtype": "initialized", "value": null, "timestamp": 1691070750954, "interval": 0}, {"eventtype": "window_resize", "value": [1024, 767], "timestamp": 1691070750954, "interval": 0}, {"eventtype": "window_resize", "value": [1920, 1174], "timestamp": 1691070751483, "interval": 529}, {"eventtype": "window_resize", "value": [1920, 1280], "timestamp": 1691070757304, "interval": 5821}, {"eventtype": "focus", "value": "off", "timestamp": 1691071232076, "interval": 474772}, {"eventtype": "focus", "value": "on", "timestamp": 1691071232076, "interval": 0}, {"eventtype": "window_resize", "value": [1920, 1174], "timestamp": 1691071232281, "interval": 205}, {"eventtype": "window_resize", "value": [1920, 1280], "timestamp": 1691071234812, "interval": 2531}, {"eventtype": "focus", "value": "off", "timestamp": 1691071472560, "interval": 237748}, {"eventtype": "focus", "value": "on", "timestamp": 1691071472560, "interval": 0}, {"eventtype": "window_resize", "value": [1920, 1174], "timestamp": 1691071472770, "interval": 210}, {"eventtype": "window_resize", "value": [1920, 1280], "timestamp": 1691071474689, "interval": 1919}, {"eventtype": "focus", "value": "off", "timestamp": 1691071763571, "interval": 288882}, {"eventtype": "focus", "value": "on", "timestamp": 1691071763571, "interval": 0}, {"eventtype": "window_resize", "value": [1920, 1174], "timestamp": 1691071763781, "interval": 210}, {"eventtype": "window_resize", "value": [1920, 1280], "timestamp": 1691071766971, "interval": 3190}, {"eventtype": "window_resize", "value": [1920, 1174], "timestamp": 1691073303669, "interval": 1536698}], "useragent": "Mozilla/5.0 (Windows NT 10.0; Win64; x64) AppleWebKit/537.36 (KHTML, like Gecko) Chrome/115.0.0.0 Safari/537.36", "mode": "live", "id": "w47039169:a10813276", "status": "user data saved", "Beginhit": "2023-08-03 13:52:26.358697", "Beginexp": "2023-08-03 13:52:38.033952", "Endhit": "2023-08-03 14:35:05.314877", "psiturkStatus": 3, "browser": "<redacted>", "platform": "windows", "language": "en-US"}