{"condition": 1, "counterbalance": 0, "assignmentId": "a41969711", "workerId": "w22471558", "hitId": "h78328474", "currenttrial": 10, "bonus": 0, "data": [{"uniqueid": "w22471558:a41969711", "current_trial": 0, "dateTime": 1693388334178, "trialdata": {"success": true, "trial_type": "fullscreen", "trial_index": 0, "time_elapsed": 1937, "internal_node_id": "0.0-0.0"}}, {"uniqueid": "w22471558:a41969711", "current_trial": 1, "dateTime": 1693388335004, "trialdata": {"view_history": [{"page_index": 0, "viewing_time": 824}], "rt": 824, "trial_id": "exp_instructions_misaligned", "trial_type": "instructions", "trial_index": 1, "time_elapsed": 2764, "internal_node_id": "0.0-1.0"}}, {"uniqueid": "w22471558:a41969711", "current_trial": 2, "dateTime": 1693388338359, "trialdata": {"view_history": [{"page_index": 0, "viewing_time": 1014}, {"page_index": 1, "viewing_time": 1131}, {"page_index": 2, "viewing_time": 730}, {"page_index": 3, "viewing_time": 479}], "rt": 3354, "trial_id": "mouselab_instructions_1_misaligned", "trial_type": "instructions", "trial_index": 2, "time_elapsed": 6119, "internal_node_id": "0.0-2.0-1.0"}}, {"uniqueid": "w22471558:a41969711", "current_trial": 3, "dateTime": 1693388344809, "trialdata": {"revealed_states": [], "clicked_states": ["12", "18"], "num_clicks_accrued": [0, 0, 0, 0, 0, 0, 0, 0, 0, 0, 0, 0, 0], "stateRewards": ["", 10, 10, -10, -10, 10, -10, 10, 10, -10, 10, 10, -10, -10, -10, 10, 10, 10, -10, 10, 10, -10, 10, -10, 10, 10, 10, 10, 10, -10, -10, 10, 10, 10], "withholdReward": false, "trial_id": "practice_1", "block": "test", "trialIndex": 0, "score": -7.5, "costs": -1, "simulationMode": [null, null, null, null, null, null], "rewards": [-10, -10, -10, 10, 10], "path": ["0", "0", "12", "13", "14", "15", "16"], "rt": [1820, 189, 147, 130, 112, 120], "actions": ["right", "right", "right", "right", "up", "up"], "actionTimes": [2543, 2735, 3407, 4054, 4703, 5343], "queries": {"click": {"state": {"target": ["12", "18"], "time": [1241, 2309]}, "edge": {"target": [], "time": []}}, "mouseover": {"state": {"target": ["12", "13", "15", "18"], "time": [1099, 1392, 1426, 1675]}, "edge": {"target": [], "time": []}}, "mouseout": {"state": {"target": ["12", "0", "12", "13", "15", "18", "15", "15", "13", "12"], "time": [375, 842, 1376, 1408, 1643, 4888, 5387, 5437, 5521, 5570]}, "edge": {"target": [], "time": []}}}, "displayed_time": "5.86", "trialTime": 6047, "trial_type": "mouselab-mdp", "trial_index": 3, "time_elapsed": 12569, "internal_node_id": "0.0-2.0-2.0-0.0"}}, {"uniqueid": "w22471558:a41969711", "current_trial": 4, "dateTime": 1693388349898, "trialdata": {"revealed_states": [], "clicked_states": [], "num_clicks_accrued": [0, 0, 0, 0, 0, 0, 0, 0, 0, 0, 0, 0, 0], "stateRewards": ["", -10, 10, 10, -10, 10, -10, 10, -10, 10, -10, -10, -10, 10, -10, 10, -10, -10, -10, -10, -10, 10, 10, -10, -10, 10, -10, -10, -10, 10, 10, 10, 10, -10], "withholdReward": false, "trial_id": "practice_2", "block": "test", "trialIndex": 1, "score": -6.5, "costs": 0, "simulationMode": [null, null, null, null, null], "rewards": [-10, 10, -10, -10, 10], "path": ["0", "0", "12", "13", "14", "19", "21"], "rt": [320, 147, 120, 136, 152], "actions": ["right", "right", "right", "down", "down"], "actionTimes": [1608, 2272, 2911, 3559, 4225], "queries": {"click": {"state": {"target": [], "time": []}, "edge": {"target": [], "time": []}}, "mouseover": {"state": {"target": ["0"], "time": [1312]}, "edge": {"target": [], "time": []}}, "mouseout": {"state": {"target": ["0", "0", "0", "0"], "time": [907, 1090, 1324, 1768]}, "edge": {"target": [], "time": []}}}, "displayed_time": "4.72", "trialTime": 4856, "trial_type": "mouselab-mdp", "trial_index": 4, "time_elapsed": 17658, "internal_node_id": "0.0-2.0-2.0-1.0"}}, {"uniqueid": "w22471558:a41969711", "current_trial": 5, "dateTime": 1693388352206, "trialdata": {"view_history": [{"page_index": 0, "viewing_time": 1289}, {"page_index": 1, "viewing_time": 1018}], "rt": 2307, "trial_id": "mouselab_instructions_2_misaligned", "trial_type": "instructions", "trial_index": 5, "time_elapsed": 19966, "internal_node_id": "0.0-2.0-3.0"}}, {"uniqueid": "w22471558:a41969711", "current_trial": 6, "dateTime": 1693388357399, "trialdata": {"rt": 5190, "response": {"Q0": "The cost for clicking on nodes may vary between nodes.", "Q1": "The better I perform the higher my bonus will be.", "Q2": "No, the amount of cash at each node of the web may be different each time.", "Q3": "To get the highest total score.", "Q4": "Only before moving the spider.", "Q5": "3 seconds"}, "question_order": [0, 1, 2, 3, 4, 5], "correct": {"Q0": "The cost for clicking on nodes may vary between nodes.", "Q1": "The better I perform the higher my bonus will be.", "Q2": "No, the amount of cash at each node of the web may be different each time.", "Q3": "To get the highest total score.", "Q4": "Only before moving the spider.", "Q5": "3 seconds"}, "trial_id": "mouselab_quiz_misaligned", "trial_type": "survey-multi-choice", "trial_index": 6, "time_elapsed": 25159, "internal_node_id": "0.0-2.0-4.0"}}, {"uniqueid": "w22471558:a41969711", "current_trial": 7, "dateTime": 1693388359497, "trialdata": {"rt": 2094, "response": {"Q0": "Not sure"}, "question_order": [0], "trial_id": "repeat_check", "trial_type": "survey-multi-choice", "trial_index": 7, "time_elapsed": 27257, "internal_node_id": "0.0-4.0-0.0"}}, {"uniqueid": "w22471558:a41969711", "current_trial": 8, "dateTime": 1693388360409, "trialdata": {"rt": 909, "stimulus": "\n<h1> Get ready to start the game! </h1>\n\nThank you for reading the instructions. Get ready start with the 40 rounds of this game.\n<br><br>\nIf you need to take a break, feel free to take one after the end of a round, before continuing to the next one.\n<br><br>\nRemember, the more money the spider gets, the bigger your bonus will be!\n<br><br>\n<div style='text-align: center;'>Press <code>space</code> to begin.</div>\n\n<br><br>\n(If, at any point, the <code>space</code> key does not take you to the next page, click once on the text and try again.)", "response": " ", "trial_id": "mdp_ready", "trial_type": "html-keyboard-response", "trial_index": 8, "time_elapsed": 28169, "internal_node_id": "0.0-6.0-0.0"}}, {"uniqueid": "w22471558:a41969711", "current_trial": 9, "dateTime": 1693388376602, "trialdata": {"revealed_states": [], "clicked_states": ["13", "18", "15"], "num_clicks_accrued": [0, 0, 0, 0, 0, 0, 0, 0, 0, 0, 0, 0, 0], "stateRewards": ["", 2, -1, 1, 10, -52, 86, -22, -2, -14, -63, 38, 1, 3, 7, -8, 11, -32, -27, 9, -71, 40, -87, -2, -1, 5, -7, 12, 31, -57, 13, 86, -58, 29], "withholdReward": false, "trial_id": "mdp_trial_1", "block": "test", "trialIndex": 2, "score": 9.95, "costs": -4.05, "simulationMode": [null, null, null, null, null], "rewards": [1, 3, 7, -8, 11], "path": ["0", "0", "12", "13", "14", "15", "16"], "rt": [3920, 12, 111, 113, 156], "actions": ["right", "right", "right", "up", "up"], "actionTimes": [4480, 5024, 5655, 6288, 6966], "queries": {"click": {"state": {"target": ["13", "18", "15"], "time": [1067, 1309, 4310]}, "edge": {"target": [], "time": []}}, "mouseover": {"state": {"target": ["0", "12", "13", "18", "15", "16", "15"], "time": [572, 662, 729, 1222, 1895, 2409, 3025]}, "edge": {"target": [], "time": []}}, "mouseout": {"state": {"target": ["2", "1", "0", "12", "13", "18", "15", "16", "15", "17", "14", "19"], "time": [125, 312, 611, 696, 1112, 1855, 2176, 2995, 4525, 4575, 7756, 7788]}, "edge": {"target": [], "time": []}}}, "displayed_time": "14.56", "trialTime": 15972, "trial_type": "mouselab-mdp", "trial_index": 9, "time_elapsed": 44362, "internal_node_id": "0.0-6.0-1.0-0.0"}}], "questiondata": {"params": {"CODE": "C6DMOQA6", "MIN_TIME": 14, "inspectCost": 1, "startTime": "Wed Aug 30 2023 11:38:51 GMT+0200 (Central European Summer Time)", "bonusRate": 0.002, "variance": "1_2_4_8_44", "branching": "31123"}}, "eventdata": [{"eventtype": "initialized", "value": null, "timestamp": 1693388331152, "interval": 0}, {"eventtype": "window_resize", "value": [1024, 741], "timestamp": 1693388331152, "interval": 0}, {"eventtype": "window_resize", "value": [1024, 741], "timestamp": 1693388331486, "interval": 334}, {"eventtype": "window_resize", "value": [1440, 900], "timestamp": 1693388333430, "interval": 1944}, {"eventtype": "window_resize", "value": [1024, 741], "timestamp": 1693388375719, "interval": 42289}], "useragent": "Mozilla/5.0 (Macintosh; Intel Mac OS X 10_15_7) AppleWebKit/537.36 (KHTML, like Gecko) Chrome/115.0.0.0 Safari/537.36", "mode": "live", "id": "w22471558:a41969711", "status": "user data saved", "Beginhit": "2023-08-30 09:38:50.354629", "Beginexp": "2023-08-30 09:38:54.29739", "Endhit": null, "psiturkStatus": 6, "browser": "<redacted>", "platform": "macos", "language": "en-US", "excludeReason": "dataincomplete"}