{"condition": 0, "counterbalance": 0, "assignmentId": "a60149184", "workerId": "w13663617", "hitId": "h59564105", "currenttrial": 28, "bonus": 0, "data": [{"uniqueid": "w13663617:a60149184", "current_trial": 0, "dateTime": 1693564948663, "trialdata": {"success": true, "trial_type": "fullscreen", "trial_index": 0, "time_elapsed": 9606, "internal_node_id": "0.0-0.0"}}, {"uniqueid": "w13663617:a60149184", "current_trial": 1, "dateTime": 1693564987699, "trialdata": {"view_history": [{"page_index": 0, "viewing_time": 39002}], "rt": 39005, "trial_id": "exp_instructions_control", "trial_type": "instructions", "trial_index": 1, "time_elapsed": 48643, "internal_node_id": "0.0-1.0"}}, {"uniqueid": "w13663617:a60149184", "current_trial": 2, "dateTime": 1693565811806, "trialdata": {"view_history": [{"page_index": 0, "viewing_time": 39541}, {"page_index": 1, "viewing_time": 6618}, {"page_index": 0, "viewing_time": 37674}, {"page_index": 1, "viewing_time": 660222}, {"page_index": 2, "viewing_time": 22202}, {"page_index": 1, "viewing_time": 236}, {"page_index": 0, "viewing_time": 2139}, {"page_index": 1, "viewing_time": 620}, {"page_index": 0, "viewing_time": 499}, {"page_index": 1, "viewing_time": 7714}, {"page_index": 0, "viewing_time": 12727}, {"page_index": 1, "viewing_time": 223}, {"page_index": 2, "viewing_time": 536}, {"page_index": 3, "viewing_time": 33163}], "rt": 824116, "trial_id": "mouselab_instructions_1_control", "trial_type": "instructions", "trial_index": 2, "time_elapsed": 872749, "internal_node_id": "0.0-2.0-1.0"}}, {"uniqueid": "w13663617:a60149184", "current_trial": 3, "dateTime": 1693565853207, "trialdata": {"revealed_states": [], "clicked_states": [], "num_clicks_accrued": [0, 0, 0, 0, 0, 0, 0, 0, 0, 0, 0, 0, 0], "stateRewards": ["", -10, -10, -10, -10, 10, -10, 10, -10, -10, -10, 10, 10, 10, 10, -10, 10, -10, 10, 10, 10, -10, -10, -10, -10, 10, 10, -10, 10, -10, -10, 10, 10, -10], "withholdReward": false, "trial_id": "practice_1", "block": "test", "trialIndex": 0, "score": -26.5, "costs": 0, "simulationMode": [null, null, null, null, null], "rewards": [-10, -10, -10, -10, 10], "path": ["0", "0", "1", "2", "3", "4", "7"], "rt": [2658, 4086, 1125, 115, 510], "actions": ["up", "up", "up", "right", "down"], "actionTimes": [16151, 20784, 22462, 23102, 24144], "queries": {"click": {"state": {"target": [], "time": []}, "edge": {"target": [], "time": []}}, "mouseover": {"state": {"target": [], "time": []}, "edge": {"target": [], "time": []}}, "mouseout": {"state": {"target": ["14", "13", "12", "0"], "time": [9022, 9185, 9254, 9668]}, "edge": {"target": [], "time": []}}}, "displayed_time": "24.69", "trialTime": 39292, "trial_type": "mouselab-mdp", "trial_index": 3, "time_elapsed": 914149, "internal_node_id": "0.0-2.0-2.0-0.0"}}, {"uniqueid": "w13663617:a60149184", "current_trial": 4, "dateTime": 1693565931425, "trialdata": {"revealed_states": [], "clicked_states": [], "num_clicks_accrued": [0, 0, 0, 0, 0, 0, 0, 0, 0, 0, 0, 0, 0], "stateRewards": ["", -10, 10, 10, -10, 10, -10, 10, 10, -10, 10, 10, -10, 10, -10, 10, -10, 10, 10, -10, -10, 10, 10, 10, 10, -10, 10, -10, 10, 10, 10, 10, -10, -10], "withholdReward": false, "trial_id": "practice_2", "block": "test", "trialIndex": 1, "score": -6.5, "costs": 0, "simulationMode": [null, null, null, null, null], "rewards": [-10, 10, -10, -10, 10], "path": ["0", "0", "12", "13", "14", "19", "21"], "rt": [3155, 908, 262, 478, 3553], "actions": ["right", "right", "right", "down", "down"], "actionTimes": [13662, 15100, 15901, 16908, 20987], "queries": {"click": {"state": {"target": [], "time": []}, "edge": {"target": [], "time": []}}, "mouseover": {"state": {"target": [], "time": []}, "edge": {"target": [], "time": []}}, "mouseout": {"state": {"target": ["0"], "time": [9657]}, "edge": {"target": [], "time": []}}}, "displayed_time": "21.53", "trialTime": 77135, "trial_type": "mouselab-mdp", "trial_index": 4, "time_elapsed": 992367, "internal_node_id": "0.0-2.0-2.0-1.0"}}, {"uniqueid": "w13663617:a60149184", "current_trial": 5, "dateTime": 1693566036197, "trialdata": {"view_history": [{"page_index": 0, "viewing_time": 81629}, {"page_index": 1, "viewing_time": 23128}], "rt": 104758, "trial_id": "mouselab_instructions_2_control", "trial_type": "instructions", "trial_index": 5, "time_elapsed": 1097141, "internal_node_id": "0.0-2.0-3.0"}}, {"uniqueid": "w13663617:a60149184", "current_trial": 6, "dateTime": 1693566145699, "trialdata": {"rt": 109483, "response": {"Q0": "The cost for clicking on nodes may vary between nodes.", "Q1": "The better I perform the higher my bonus will be.", "Q2": "No, the amount of cash at each node of the web may be different each time.", "Q3": "To finish the game in the shortest amount of time.", "Q4": "Any time during the round.", "Q5": "Unlimited time"}, "question_order": [0, 1, 2, 3, 4, 5], "correct": {"Q0": "The cost for clicking on nodes may vary between nodes.", "Q1": "The better I perform the higher my bonus will be.", "Q2": "No, the amount of cash at each node of the web may be different each time.", "Q3": "To get the highest total score.", "Q4": "Only before moving the spider.", "Q5": "3 seconds"}, "trial_id": "mouselab_quiz_control", "trial_type": "survey-multi-choice", "trial_index": 6, "time_elapsed": 1206642, "internal_node_id": "0.0-2.0-4.0"}}, {"uniqueid": "w13663617:a60149184", "current_trial": 7, "dateTime": 1693566178707, "trialdata": {"success": true, "trial_type": "fullscreen", "trial_index": 7, "time_elapsed": 1239651, "internal_node_id": "0.0-2.1-0.1-0.1"}}, {"uniqueid": "w13663617:a60149184", "current_trial": 8, "dateTime": 1693566715389, "trialdata": {"view_history": [{"page_index": 0, "viewing_time": 273039}, {"page_index": 1, "viewing_time": 113407}, {"page_index": 2, "viewing_time": 35488}, {"page_index": 3, "viewing_time": 114738}], "rt": 536674, "trial_id": "mouselab_instructions_1_control", "trial_type": "instructions", "trial_index": 8, "time_elapsed": 1776333, "internal_node_id": "0.0-2.1-1.1"}}, {"uniqueid": "w13663617:a60149184", "current_trial": 9, "dateTime": 1693566742558, "trialdata": {"revealed_states": [], "clicked_states": [], "num_clicks_accrued": [0, 0, 0, 0, 0, 0, 0, 0, 0, 0, 0, 0, 0], "stateRewards": ["", -10, -10, -10, -10, 10, -10, 10, -10, -10, -10, 10, 10, 10, 10, -10, 10, -10, 10, 10, 10, -10, -10, -10, -10, 10, 10, -10, 10, -10, -10, 10, 10, -10], "withholdReward": false, "trial_id": "practice_1", "block": "test", "trialIndex": 2, "score": -6.5, "costs": 0, "simulationMode": [null, null, null, null, null], "rewards": [-10, -10, 10, 10, -10], "path": ["0", "0", "23", "24", "25", "26", "27"], "rt": [10161, 3, 42, 240, 2879], "actions": ["left", "left", "left", "up", "up"], "actionTimes": [15177, 15732, 16323, 17103, 20522], "queries": {"click": {"state": {"target": [], "time": []}, "edge": {"target": [], "time": []}}, "mouseover": {"state": {"target": ["1", "0"], "time": [8097, 10081]}, "edge": {"target": [], "time": []}}, "mouseout": {"state": {"target": ["10", "0", "1", "0"], "time": [2879, 3694, 8431, 11702]}, "edge": {"target": [], "time": []}}}, "displayed_time": "21.06", "trialTime": 25904, "trial_type": "mouselab-mdp", "trial_index": 9, "time_elapsed": 1803500, "internal_node_id": "0.0-2.1-2.1-0.1"}}, {"uniqueid": "w13663617:a60149184", "current_trial": 10, "dateTime": 1693566766434, "trialdata": {"revealed_states": [], "clicked_states": [], "num_clicks_accrued": [0, 0, 0, 0, 0, 0, 0, 0, 0, 0, 0, 0, 0], "stateRewards": ["", -10, 10, 10, -10, 10, -10, 10, 10, -10, 10, 10, -10, 10, -10, 10, -10, 10, 10, -10, -10, 10, 10, 10, 10, -10, 10, -10, 10, 10, 10, 10, -10, -10], "withholdReward": false, "trial_id": "practice_2", "block": "test", "trialIndex": 3, "score": 33.5, "costs": 0, "simulationMode": [null, null, null, null, null], "rewards": [-10, 10, 10, 10, 10], "path": ["0", "0", "1", "2", "3", "8", "10"], "rt": [4492, 614, 113, 4, 1358], "actions": ["up", "up", "up", "left", "down"], "actionTimes": [9705, 10867, 11518, 12066, 13977], "queries": {"click": {"state": {"target": [], "time": []}, "edge": {"target": [], "time": []}}, "mouseover": {"state": {"target": [], "time": []}, "edge": {"target": [], "time": []}}, "mouseout": {"state": {"target": [], "time": []}, "edge": {"target": [], "time": []}}}, "displayed_time": "14.54", "trialTime": 22734, "trial_type": "mouselab-mdp", "trial_index": 10, "time_elapsed": 1827377, "internal_node_id": "0.0-2.1-2.1-1.1"}}, {"uniqueid": "w13663617:a60149184", "current_trial": 11, "dateTime": 1693566786309, "trialdata": {"view_history": [{"page_index": 0, "viewing_time": 16988}, {"page_index": 1, "viewing_time": 2876}], "rt": 19866, "trial_id": "mouselab_instructions_2_control", "trial_type": "instructions", "trial_index": 11, "time_elapsed": 1847253, "internal_node_id": "0.0-2.1-3.1"}}, {"uniqueid": "w13663617:a60149184", "current_trial": 12, "dateTime": 1693566940065, "trialdata": {"rt": 153740, "response": {"Q0": "The cost for clicking on nodes may vary between nodes.", "Q1": "The better I perform the higher my bonus will be.", "Q2": "No, the structure of the web will be different each time.", "Q3": "To finish the game in the shortest amount of time.", "Q4": "Only before moving the spider.", "Q5": "3 seconds"}, "question_order": [0, 1, 2, 3, 4, 5], "correct": {"Q0": "The cost for clicking on nodes may vary between nodes.", "Q1": "The better I perform the higher my bonus will be.", "Q2": "No, the amount of cash at each node of the web may be different each time.", "Q3": "To get the highest total score.", "Q4": "Only before moving the spider.", "Q5": "3 seconds"}, "trial_id": "mouselab_quiz_control", "trial_type": "survey-multi-choice", "trial_index": 12, "time_elapsed": 2001009, "internal_node_id": "0.0-2.1-4.1"}}, {"uniqueid": "w13663617:a60149184", "current_trial": 13, "dateTime": 1693566951698, "trialdata": {"success": true, "trial_type": "fullscreen", "trial_index": 13, "time_elapsed": 2012642, "internal_node_id": "0.0-2.2-0.2-0.2"}}, {"uniqueid": "w13663617:a60149184", "current_trial": 14, "dateTime": 1693567339194, "trialdata": {"view_history": [{"page_index": 0, "viewing_time": 99279}, {"page_index": 1, "viewing_time": 97584}, {"page_index": 0, "viewing_time": 128646}, {"page_index": 1, "viewing_time": 37000}, {"page_index": 2, "viewing_time": 8470}, {"page_index": 3, "viewing_time": 16523}], "rt": 387504, "trial_id": "mouselab_instructions_1_control", "trial_type": "instructions", "trial_index": 14, "time_elapsed": 2400138, "internal_node_id": "0.0-2.2-1.2"}}, {"uniqueid": "w13663617:a60149184", "current_trial": 15, "dateTime": 1693567367291, "trialdata": {"revealed_states": [], "clicked_states": [], "num_clicks_accrued": [0, 0, 0, 0, 0, 0, 0, 0, 0, 0, 0, 0, 0], "stateRewards": ["", -10, -10, -10, -10, 10, -10, 10, -10, -10, -10, 10, 10, 10, 10, -10, 10, -10, 10, 10, 10, -10, -10, -10, -10, 10, 10, -10, 10, -10, -10, 10, 10, -10], "withholdReward": false, "trial_id": "practice_1", "block": "test", "trialIndex": 4, "score": -26.5, "costs": 0, "simulationMode": [null, null, null, null, null], "rewards": [-10, -10, -10, -10, 10], "path": ["0", "0", "1", "2", "3", "4", "7"], "rt": [1693, 121, 35, 296, 112], "actions": ["up", "up", "up", "right", "down"], "actionTimes": [18762, 19443, 20034, 20894, 21541], "queries": {"click": {"state": {"target": [], "time": []}, "edge": {"target": [], "time": []}}, "mouseover": {"state": {"target": [], "time": []}, "edge": {"target": [], "time": []}}, "mouseout": {"state": {"target": [], "time": []}, "edge": {"target": [], "time": []}}}, "displayed_time": "22.08", "trialTime": 26882, "trial_type": "mouselab-mdp", "trial_index": 15, "time_elapsed": 2428233, "internal_node_id": "0.0-2.2-2.2-0.2"}}, {"uniqueid": "w13663617:a60149184", "current_trial": 16, "dateTime": 1693567379144, "trialdata": {"revealed_states": [], "clicked_states": [], "num_clicks_accrued": [0, 0, 0, 0, 0, 0, 0, 0, 0, 0, 0, 0, 0], "stateRewards": ["", -10, 10, 10, -10, 10, -10, 10, 10, -10, 10, 10, -10, 10, -10, 10, -10, 10, 10, -10, -10, 10, 10, 10, 10, -10, 10, -10, 10, 10, 10, 10, -10, -10], "withholdReward": false, "trial_id": "practice_2", "block": "test", "trialIndex": 5, "score": 33.5, "costs": 0, "simulationMode": [null, null, null, null, null], "rewards": [-10, 10, 10, 10, 10], "path": ["0", "0", "1", "2", "3", "8", "10"], "rt": [369, 79, 66, 14, 161], "actions": ["up", "up", "up", "left", "down"], "actionTimes": [3923, 4555, 5163, 5727, 6431], "queries": {"click": {"state": {"target": [], "time": []}, "edge": {"target": [], "time": []}}, "mouseover": {"state": {"target": [], "time": []}, "edge": {"target": [], "time": []}}, "mouseout": {"state": {"target": ["0", "23"], "time": [1632, 1935]}, "edge": {"target": [], "time": []}}}, "displayed_time": "6.99", "trialTime": 10573, "trial_type": "mouselab-mdp", "trial_index": 16, "time_elapsed": 2440086, "internal_node_id": "0.0-2.2-2.2-1.2"}}, {"uniqueid": "w13663617:a60149184", "current_trial": 17, "dateTime": 1693567593015, "trialdata": {"view_history": [{"page_index": 0, "viewing_time": 210993}, {"page_index": 1, "viewing_time": 2863}], "rt": 213858, "trial_id": "mouselab_instructions_2_control", "trial_type": "instructions", "trial_index": 17, "time_elapsed": 2653959, "internal_node_id": "0.0-2.2-3.2"}}, {"uniqueid": "w13663617:a60149184", "current_trial": 18, "dateTime": 1693567700127, "trialdata": {"rt": 107100, "response": {"Q0": "The cost for clicking on nodes may vary between nodes.", "Q1": "The better I perform the higher my bonus will be.", "Q2": "No, the structure of the web will be different each time.", "Q3": "To get the highest total score.", "Q4": "Any time during the round.", "Q5": "3 seconds"}, "question_order": [0, 1, 2, 3, 4, 5], "correct": {"Q0": "The cost for clicking on nodes may vary between nodes.", "Q1": "The better I perform the higher my bonus will be.", "Q2": "No, the amount of cash at each node of the web may be different each time.", "Q3": "To get the highest total score.", "Q4": "Only before moving the spider.", "Q5": "3 seconds"}, "trial_id": "mouselab_quiz_control", "trial_type": "survey-multi-choice", "trial_index": 18, "time_elapsed": 2761071, "internal_node_id": "0.0-2.2-4.2"}}, {"uniqueid": "w13663617:a60149184", "current_trial": 19, "dateTime": 1693567724758, "trialdata": {"success": true, "trial_type": "fullscreen", "trial_index": 19, "time_elapsed": 2785702, "internal_node_id": "0.0-2.3-0.3-0.3"}}, {"uniqueid": "w13663617:a60149184", "current_trial": 20, "dateTime": 1693568009566, "trialdata": {"view_history": [{"page_index": 0, "viewing_time": 134484}, {"page_index": 1, "viewing_time": 98023}, {"page_index": 2, "viewing_time": 4319}, {"page_index": 3, "viewing_time": 9646}, {"page_index": 2, "viewing_time": 835}, {"page_index": 1, "viewing_time": 14704}, {"page_index": 2, "viewing_time": 694}, {"page_index": 3, "viewing_time": 22095}], "rt": 284801, "trial_id": "mouselab_instructions_1_control", "trial_type": "instructions", "trial_index": 20, "time_elapsed": 3070510, "internal_node_id": "0.0-2.3-1.3"}}, {"uniqueid": "w13663617:a60149184", "current_trial": 21, "dateTime": 1693568023123, "trialdata": {"revealed_states": [], "clicked_states": [], "num_clicks_accrued": [0, 0, 0, 0, 0, 0, 0, 0, 0, 0, 0, 0, 0], "stateRewards": ["", -10, -10, -10, -10, 10, -10, 10, -10, -10, -10, 10, 10, 10, 10, -10, 10, -10, 10, 10, 10, -10, -10, -10, -10, 10, 10, -10, 10, -10, -10, 10, 10, -10], "withholdReward": false, "trial_id": "practice_1", "block": "test", "trialIndex": 6, "score": -46.5, "costs": 0, "simulationMode": [null, null, null, null, null], "rewards": [-10, -10, -10, -10, -10], "path": ["0", "0", "1", "2", "3", "8", "10"], "rt": [593, 108, 78, 119, 83], "actions": ["up", "up", "up", "left", "down"], "actionTimes": [7104, 7741, 8351, 9004, 9636], "queries": {"click": {"state": {"target": [], "time": []}, "edge": {"target": [], "time": []}}, "mouseover": {"state": {"target": [], "time": []}, "edge": {"target": [], "time": []}}, "mouseout": {"state": {"target": ["3", "1"], "time": [4799, 4868]}, "edge": {"target": [], "time": []}}}, "displayed_time": "10.17", "trialTime": 12318, "trial_type": "mouselab-mdp", "trial_index": 21, "time_elapsed": 3084063, "internal_node_id": "0.0-2.3-2.3-0.3"}}, {"uniqueid": "w13663617:a60149184", "current_trial": 22, "dateTime": 1693568041529, "trialdata": {"revealed_states": [], "clicked_states": [], "num_clicks_accrued": [0, 0, 0, 0, 0, 0, 0, 0, 0, 0, 0, 0, 0], "stateRewards": ["", -10, 10, 10, -10, 10, -10, 10, 10, -10, 10, 10, -10, 10, -10, 10, -10, 10, 10, -10, -10, 10, 10, 10, 10, -10, 10, -10, 10, 10, 10, 10, -10, -10], "withholdReward": false, "trial_id": "practice_2", "block": "test", "trialIndex": 7, "score": 13.5, "costs": 0, "simulationMode": [null, null, null, null, null], "rewards": [10, 10, -10, 10, -10], "path": ["0", "0", "23", "24", "25", "26", "27"], "rt": [785, 597, 615, 52, 99], "actions": ["left", "left", "left", "up", "up"], "actionTimes": [8241, 9368, 10542, 11143, 11792], "queries": {"click": {"state": {"target": [], "time": []}, "edge": {"target": [], "time": []}}, "mouseover": {"state": {"target": [], "time": []}, "edge": {"target": [], "time": []}}, "mouseout": {"state": {"target": ["0"], "time": [6077]}, "edge": {"target": [], "time": []}}}, "displayed_time": "12.34", "trialTime": 17155, "trial_type": "mouselab-mdp", "trial_index": 22, "time_elapsed": 3102472, "internal_node_id": "0.0-2.3-2.3-1.3"}}, {"uniqueid": "w13663617:a60149184", "current_trial": 23, "dateTime": 1693568269433, "trialdata": {"view_history": [{"page_index": 0, "viewing_time": 225867}, {"page_index": 1, "viewing_time": 2022}], "rt": 227890, "trial_id": "mouselab_instructions_2_control", "trial_type": "instructions", "trial_index": 23, "time_elapsed": 3330376, "internal_node_id": "0.0-2.3-3.3"}}, {"uniqueid": "w13663617:a60149184", "current_trial": 24, "dateTime": 1693568308997, "trialdata": {"rt": 39548, "response": {"Q0": "The cost for clicking on nodes may vary between nodes.", "Q1": "The better I perform the higher my bonus will be.", "Q2": "No, the amount of cash at each node of the web may be different each time.", "Q3": "To get the highest total score.", "Q4": "Any time during the round.", "Q5": "3 seconds"}, "question_order": [0, 1, 2, 3, 4, 5], "correct": {"Q0": "The cost for clicking on nodes may vary between nodes.", "Q1": "The better I perform the higher my bonus will be.", "Q2": "No, the amount of cash at each node of the web may be different each time.", "Q3": "To get the highest total score.", "Q4": "Only before moving the spider.", "Q5": "3 seconds"}, "trial_id": "mouselab_quiz_control", "trial_type": "survey-multi-choice", "trial_index": 24, "time_elapsed": 3369941, "internal_node_id": "0.0-2.3-4.3"}}, {"uniqueid": "w13663617:a60149184", "current_trial": 25, "dateTime": 1693568704457, "trialdata": {"rt": 395293, "response": {"Q0": "i dont know actually  because i tried so many times to understand the  game instructions  i even wrote  down but still i could not get the answers correct  im  disappointed in me  but luck or understanding next time please  give me another opportunity next time.", "Q1": "28", "Q2": "male", "Q3": "no", "Q4": " thanks for the study better luck next time "}, "trial_id": "finish_fail", "trial_type": "survey-text", "trial_index": 25, "time_elapsed": 3765401, "internal_node_id": "0.0-3.0-0.0"}}, {"uniqueid": "w13663617:a60149184", "current_trial": 26, "dateTime": 1693568748284, "trialdata": {"rt": 43808, "stimulus": "<h1>Completion Code Instructions (1/2)</h1>\n<br><br><br><br>\nYou have reached the end of the experiment! The completion code consists of two parts: (1) a code with 2 characters (2) a code with 6 characters. On this page, you will receive the second part of the code. The first part of the completion code will be on the next page.\n<br><br>\nThe second part of your completion code is: <b>AYIWIP</b>\n<br><br>\nPlease note this down. Then, press 'Finish HIT' in order to find the first part of your completion code. Once the data has been saved, you will receive this code either in this window or in the original browser window where you started the experiment.\n", "response": 0, "trial_type": "html-button-response", "trial_index": 26, "time_elapsed": 3809228, "internal_node_id": "0.0-3.0-1.0"}}, {"uniqueid": "w13663617:a60149184", "current_trial": 27, "dateTime": 1693568749406, "trialdata": {"success": true, "trial_type": "fullscreen", "trial_index": 27, "time_elapsed": 3810349, "internal_node_id": "0.0-7.0"}}], "questiondata": {"params": {"CODE": "C6DMOQA6", "MIN_TIME": 14, "inspectCost": 1, "startTime": "Fri Sep 01 2023 12:42:16 GMT+0200 (South Africa Standard Time)", "bonusRate": 0.002, "variance": "1_2_4_8_44", "branching": "31123"}}, "eventdata": [{"eventtype": "initialized", "value": null, "timestamp": 1693564935757, "interval": 0}, {"eventtype": "window_resize", "value": [1024, 654], "timestamp": 1693564935758, "interval": 1}, {"eventtype": "window_resize", "value": [1024, 654], "timestamp": 1693564936333, "interval": 575}, {"eventtype": "window_resize", "value": [1366, 768], "timestamp": 1693564947986, "interval": 11653}, {"eventtype": "focus", "value": "off", "timestamp": 1693565202018, "interval": 254032}, {"eventtype": "focus", "value": "on", "timestamp": 1693565713347, "interval": 511329}, {"eventtype": "focus", "value": "off", "timestamp": 1693566173331, "interval": 459984}, {"eventtype": "focus", "value": "on", "timestamp": 1693566173335, "interval": 4}, {"eventtype": "window_resize", "value": [1024, 654], "timestamp": 1693566173575, "interval": 240}, {"eventtype": "window_resize", "value": [1366, 670], "timestamp": 1693566175746, "interval": 2171}, {"eventtype": "window_resize", "value": [1366, 768], "timestamp": 1693566177966, "interval": 2220}, {"eventtype": "focus", "value": "off", "timestamp": 1693566948395, "interval": 770429}, {"eventtype": "focus", "value": "on", "timestamp": 1693566948396, "interval": 1}, {"eventtype": "window_resize", "value": [1366, 670], "timestamp": 1693566948615, "interval": 219}, {"eventtype": "window_resize", "value": [1366, 768], "timestamp": 1693566950940, "interval": 2325}, {"eventtype": "focus", "value": "off", "timestamp": 1693567015857, "interval": 64917}, {"eventtype": "focus", "value": "on", "timestamp": 1693567035638, "interval": 19781}, {"eventtype": "focus", "value": "off", "timestamp": 1693567721235, "interval": 685597}, {"eventtype": "focus", "value": "on", "timestamp": 1693567721237, "interval": 2}, {"eventtype": "window_resize", "value": [1366, 670], "timestamp": 1693567721456, "interval": 219}, {"eventtype": "window_resize", "value": [1366, 768], "timestamp": 1693567724009, "interval": 2553}, {"eventtype": "window_resize", "value": [1366, 670], "timestamp": 1693568748673, "interval": 1024664}], "useragent": "Mozilla/5.0 (Windows NT 10.0; Win64; x64) AppleWebKit/537.36 (KHTML, like Gecko) Chrome/116.0.0.0 Safari/537.36", "mode": "live", "id": "w13663617:a60149184", "status": "user data saved", "Beginhit": "2023-09-01 10:42:10.779047", "Beginexp": "2023-09-01 10:42:28.650091", "Endhit": "2023-09-01 11:45:49.930236", "psiturkStatus": 3, "browser": "<redacted>", "platform": "windows", "language": "en-US", "excludeReason": "quizfail"}