{"condition": 1, "counterbalance": 0, "assignmentId": "a49356215", "workerId": "w29689221", "hitId": "h84111129", "currenttrial": 62, "bonus": 0, "data": [{"uniqueid": "w29689221:a49356215", "current_trial": 0, "dateTime": 1693564646421, "trialdata": {"success": true, "trial_type": "fullscreen", "trial_index": 0, "time_elapsed": 28150, "internal_node_id": "0.0-0.0"}}, {"uniqueid": "w29689221:a49356215", "current_trial": 1, "dateTime": 1693564668313, "trialdata": {"view_history": [{"page_index": 0, "viewing_time": 21858}], "rt": 21859, "trial_id": "exp_instructions_misaligned", "trial_type": "instructions", "trial_index": 1, "time_elapsed": 50043, "internal_node_id": "0.0-1.0"}}, {"uniqueid": "w29689221:a49356215", "current_trial": 2, "dateTime": 1693565138036, "trialdata": {"view_history": [{"page_index": 0, "viewing_time": 93516}, {"page_index": 1, "viewing_time": 254460}, {"page_index": 2, "viewing_time": 56224}, {"page_index": 3, "viewing_time": 65516}], "rt": 469718, "trial_id": "mouselab_instructions_1_misaligned", "trial_type": "instructions", "trial_index": 2, "time_elapsed": 519766, "internal_node_id": "0.0-2.0-1.0"}}, {"uniqueid": "w29689221:a49356215", "current_trial": 3, "dateTime": 1693565201833, "trialdata": {"revealed_states": [], "clicked_states": ["12", "13", "14", "15", "16", "23", "24", "25"], "num_clicks_accrued": [0, 0, 0, 0, 0, 0, 0, 0, 0, 0, 0, 0, 0], "stateRewards": ["", 10, -10, -10, 10, -10, -10, -10, -10, -10, 10, -10, 10, 10, 10, -10, 10, 10, 10, -10, -10, 10, 10, 10, 10, 10, -10, -10, -10, 10, 10, -10, -10, -10], "withholdReward": false, "trial_id": "practice_1", "block": "test", "trialIndex": 0, "score": 9.5, "costs": -4, "simulationMode": [null, null, null, null, null], "rewards": [10, 10, 10, -10, -10], "path": ["0", "0", "23", "24", "25", "26", "27"], "rt": [43238, 773, 611, 1342, 290], "actions": ["left", "left", "left", "up", "up"], "actionTimes": [50527, 51806, 52942, 54789, 55604], "queries": {"click": {"state": {"target": ["12", "13", "14", "15", "16", "23", "24", "25"], "time": [11475, 12541, 14110, 17686, 19059, 21603, 22799, 25047]}, "edge": {"target": [], "time": []}}, "mouseover": {"state": {"target": ["12", "13", "14", "14", "23", "18", "15", "16", "24", "23", "24", "25", "24", "23", "0", "0", "23"], "time": [11061, 12165, 13048, 13661, 15547, 16628, 17193, 18432, 20061, 20715, 22334, 23565, 28125, 28202, 28244, 44726, 46993]}, "edge": {"target": [], "time": []}}, "mouseout": {"state": {"target": ["0", "0", "12", "13", "13", "14", "14", "23", "18", "15", "16", "24", "23", "24", "25", "24", "23", "0", "0", "23"], "time": [3353, 10911, 11893, 12742, 13029, 13065, 14302, 16545, 17076, 18248, 19979, 20080, 22182, 23482, 27879, 28176, 28217, 28509, 44770, 49272]}, "edge": {"target": [], "time": []}}}, "displayed_time": "56.13", "trialTime": 61364, "trial_type": "mouselab-mdp", "trial_index": 3, "time_elapsed": 583560, "internal_node_id": "0.0-2.0-2.0-0.0"}}, {"uniqueid": "w29689221:a49356215", "current_trial": 4, "dateTime": 1693565247132, "trialdata": {"revealed_states": [], "clicked_states": ["1", "23", "12", "13", "24", "2", "25", "14", "19", "21"], "num_clicks_accrued": [0, 0, 0, 0, 0, 0, 0, 0, 0, 0, 0, 0, 0], "stateRewards": ["", 10, -10, -10, 10, 10, 10, 10, -10, -10, -10, -10, 10, -10, 10, 10, 10, 10, 10, 10, 10, 10, -10, -10, -10, -10, 10, -10, 10, 10, -10, -10, -10, 10], "withholdReward": false, "trial_id": "practice_2", "block": "test", "trialIndex": 1, "score": 28.5, "costs": -5, "simulationMode": [null, null, null, null, null], "rewards": [10, -10, 10, 10, 10], "path": ["0", "0", "12", "13", "14", "19", "21"], "rt": [33129, 984, 448, 727, 297], "actions": ["right", "right", "right", "down", "down"], "actionTimes": [35773, 37283, 38244, 39489, 40310], "queries": {"click": {"state": {"target": ["1", "23", "12", "13", "24", "2", "25", "14", "19", "21"], "time": [4295, 5669, 8917, 11247, 14427, 16571, 22220, 24668, 29594, 32113]}, "edge": {"target": [], "time": []}}, "mouseover": {"state": {"target": ["1", "23", "3", "7", "12", "13", "10", "28", "24", "2", "3", "7", "18", "13", "14", "13", "23", "24", "25", "12", "13", "14", "14", "22", "12", "0", "0", "19", "21", "22"], "time": [3560, 5013, 6809, 7514, 8042, 10648, 12912, 13225, 13558, 16009, 19162, 19410, 19458, 19509, 20008, 20242, 20442, 20542, 21343, 23709, 23925, 23999, 24327, 27008, 27058, 27720, 28699, 29093, 30626, 34225]}, "edge": {"target": [], "time": []}}, "mouseout": {"state": {"target": ["0", "1", "23", "3", "7", "12", "13", "10", "28", "24", "2", "2", "3", "7", "18", "13", "14", "13", "23", "24", "25", "12", "13", "14", "14", "14", "22", "12", "0", "0", "19", "19", "21", "22"], "time": [3533, 4898, 6380, 7492, 7529, 9111, 12858, 12942, 13244, 15345, 18658, 18825, 19394, 19426, 19476, 19987, 20224, 20283, 20510, 20849, 23634, 23754, 23994, 24042, 24867, 26624, 27037, 27558, 27954, 28734, 29782, 30563, 34167, 34308]}, "edge": {"target": [], "time": []}}}, "displayed_time": "40.83", "trialTime": 44750, "trial_type": "mouselab-mdp", "trial_index": 4, "time_elapsed": 628859, "internal_node_id": "0.0-2.0-2.0-1.0"}}, {"uniqueid": "w29689221:a49356215", "current_trial": 5, "dateTime": 1693565275124, "trialdata": {"view_history": [{"page_index": 0, "viewing_time": 10684}, {"page_index": 1, "viewing_time": 17289}], "rt": 27974, "trial_id": "mouselab_instructions_2_misaligned", "trial_type": "instructions", "trial_index": 5, "time_elapsed": 656854, "internal_node_id": "0.0-2.0-3.0"}}, {"uniqueid": "w29689221:a49356215", "current_trial": 6, "dateTime": 1693565354680, "trialdata": {"rt": 79544, "response": {"Q0": "The cost for clicking on nodes may vary between nodes.", "Q1": "The better I perform the higher my bonus will be.", "Q2": "No, the amount of cash at each node of the web may be different each time.", "Q3": "To click on the least number of nodes.", "Q4": "Only before moving the spider.", "Q5": "3 seconds"}, "question_order": [0, 1, 2, 3, 4, 5], "correct": {"Q0": "The cost for clicking on nodes may vary between nodes.", "Q1": "The better I perform the higher my bonus will be.", "Q2": "No, the amount of cash at each node of the web may be different each time.", "Q3": "To get the highest total score.", "Q4": "Only before moving the spider.", "Q5": "3 seconds"}, "trial_id": "mouselab_quiz_misaligned", "trial_type": "survey-multi-choice", "trial_index": 6, "time_elapsed": 736410, "internal_node_id": "0.0-2.0-4.0"}}, {"uniqueid": "w29689221:a49356215", "current_trial": 7, "dateTime": 1693565365790, "trialdata": {"success": true, "trial_type": "fullscreen", "trial_index": 7, "time_elapsed": 747520, "internal_node_id": "0.0-2.1-0.1-0.1"}}, {"uniqueid": "w29689221:a49356215", "current_trial": 8, "dateTime": 1693565459359, "trialdata": {"view_history": [{"page_index": 0, "viewing_time": 46073}, {"page_index": 1, "viewing_time": 12605}, {"page_index": 2, "viewing_time": 12742}, {"page_index": 3, "viewing_time": 22137}], "rt": 93558, "trial_id": "mouselab_instructions_1_misaligned", "trial_type": "instructions", "trial_index": 8, "time_elapsed": 841089, "internal_node_id": "0.0-2.1-1.1"}}, {"uniqueid": "w29689221:a49356215", "current_trial": 9, "dateTime": 1693565532407, "trialdata": {"revealed_states": [], "clicked_states": ["23", "24", "25", "26", "30", "32", "31", "33", "12", "13", "14", "15", "16", "19", "21"], "num_clicks_accrued": [0, 0, 0, 0, 0, 0, 0, 0, 0, 0, 0, 0, 0], "stateRewards": ["", 10, -10, -10, 10, -10, -10, -10, -10, -10, 10, -10, 10, 10, 10, -10, 10, 10, 10, -10, -10, 10, 10, 10, 10, 10, -10, -10, -10, 10, 10, -10, -10, -10], "withholdReward": false, "trial_id": "practice_1", "block": "test", "trialIndex": 2, "score": 26, "costs": -7.5, "simulationMode": [null, null, null, null, null], "rewards": [10, 10, 10, 10, -10], "path": ["0", "0", "23", "24", "25", "30", "32"], "rt": [40853, 577, 140, 1761, 2850], "actions": ["left", "left", "left", "down", "down"], "actionTimes": [44244, 45342, 45988, 48276, 51647], "queries": {"click": {"state": {"target": ["23", "24", "25", "26", "30", "32", "31", "33", "12", "13", "14", "15", "16", "19", "21"], "time": [5916, 7199, 8835, 10874, 13316, 15809, 18397, 20674, 25265, 27081, 28606, 30713, 32516, 34765, 39999]}, "edge": {"target": [], "time": []}}, "mouseover": {"state": {"target": ["23", "24", "25", "26", "30", "32", "30", "32", "30", "31", "30", "33", "25", "26", "27", "22", "13", "12", "13", "14", "15", "15", "16", "14", "19", "14", "21", "21", "23"], "time": [5328, 6516, 8282, 10498, 11767, 12364, 12927, 15410, 17878, 17944, 20044, 20242, 22430, 22511, 22961, 23645, 23877, 24920, 25901, 28193, 29964, 30356, 32114, 33907, 34397, 36246, 39277, 39673, 43527]}, "edge": {"target": [], "time": []}}, "mouseout": {"state": {"target": ["0", "23", "24", "25", "26", "25", "30", "32", "30", "32", "30", "31", "30", "33", "25", "26", "27", "22", "13", "12", "13", "14", "15", "15", "16", "15", "14", "19", "14", "21", "21", "23", "32", "31", "30"], "time": [1920, 6110, 7391, 10285, 11633, 11732, 11897, 12844, 15294, 17731, 17893, 20027, 20079, 22351, 22464, 22527, 23130, 23810, 24732, 25882, 27763, 29907, 29994, 30903, 33810, 33868, 33927, 34945, 39242, 39293, 42640, 61823, 63879, 67492, 71841]}, "edge": {"target": [], "time": []}}}, "displayed_time": "52.15", "trialTime": 72472, "trial_type": "mouselab-mdp", "trial_index": 9, "time_elapsed": 914135, "internal_node_id": "0.0-2.1-2.1-0.1"}}, {"uniqueid": "w29689221:a49356215", "current_trial": 10, "dateTime": 1693565578458, "trialdata": {"revealed_states": [], "clicked_states": ["1", "2", "13", "12", "24", "23", "14", "15", "16"], "num_clicks_accrued": [0, 0, 0, 0, 0, 0, 0, 0, 0, 0, 0, 0, 0], "stateRewards": ["", 10, -10, -10, 10, 10, 10, 10, -10, -10, -10, -10, 10, -10, 10, 10, 10, 10, 10, 10, 10, 10, -10, -10, -10, -10, 10, -10, 10, 10, -10, -10, -10, 10], "withholdReward": false, "trial_id": "practice_2", "block": "test", "trialIndex": 3, "score": 29, "costs": -4.5, "simulationMode": [null, null, null, null, null], "rewards": [10, -10, 10, 10, 10], "path": ["0", "0", "12", "13", "14", "15", "16"], "rt": [32151, 483, 284, 508, 336], "actions": ["right", "right", "right", "up", "up"], "actionTimes": [35205, 36206, 37006, 38015, 38868], "queries": {"click": {"state": {"target": ["1", "2", "13", "12", "24", "23", "14", "15", "16"], "time": [6802, 8425, 12710, 14559, 16625, 19841, 27177, 29917, 32095]}, "edge": {"target": [], "time": []}}, "mouseover": {"state": {"target": ["12", "1", "2", "3", "7", "13", "12", "23", "24", "23", "24", "23", "22", "22", "13", "13", "14", "14", "15", "16", "12", "0"], "time": [5289, 6280, 7490, 10470, 11471, 12174, 14085, 16059, 16142, 19267, 23835, 24372, 24437, 24769, 24814, 25967, 26073, 26430, 29401, 31643, 33958, 34268]}, "edge": {"target": [], "time": []}}, "mouseout": {"state": {"target": ["0", "12", "1", "2", "3", "7", "13", "13", "12", "23", "24", "23", "24", "23", "22", "22", "13", "13", "14", "14", "15", "16", "16", "12", "0"], "time": [2317, 5955, 7240, 10168, 10858, 11515, 12894, 13971, 16004, 16105, 19234, 23807, 24232, 24422, 24469, 24809, 24834, 26008, 26103, 29243, 31599, 32285, 33885, 33985, 34290]}, "edge": {"target": [], "time": []}}}, "displayed_time": "39.37", "trialTime": 45436, "trial_type": "mouselab-mdp", "trial_index": 10, "time_elapsed": 960187, "internal_node_id": "0.0-2.1-2.1-1.1"}}, {"uniqueid": "w29689221:a49356215", "current_trial": 11, "dateTime": 1693565588588, "trialdata": {"view_history": [{"page_index": 0, "viewing_time": 7992}, {"page_index": 1, "viewing_time": 2111}], "rt": 10104, "trial_id": "mouselab_instructions_2_misaligned", "trial_type": "instructions", "trial_index": 11, "time_elapsed": 970318, "internal_node_id": "0.0-2.1-3.1"}}, {"uniqueid": "w29689221:a49356215", "current_trial": 12, "dateTime": 1693565665123, "trialdata": {"rt": 76517, "response": {"Q0": "The cost for clicking on nodes may vary between nodes.", "Q1": "The better I perform the higher my bonus will be.", "Q2": "No, the amount of cash at each node of the web may be different each time.", "Q3": "To get the highest total score.", "Q4": "Only before moving the spider.", "Q5": "3 seconds"}, "question_order": [0, 1, 2, 3, 4, 5], "correct": {"Q0": "The cost for clicking on nodes may vary between nodes.", "Q1": "The better I perform the higher my bonus will be.", "Q2": "No, the amount of cash at each node of the web may be different each time.", "Q3": "To get the highest total score.", "Q4": "Only before moving the spider.", "Q5": "3 seconds"}, "trial_id": "mouselab_quiz_misaligned", "trial_type": "survey-multi-choice", "trial_index": 12, "time_elapsed": 1046852, "internal_node_id": "0.0-2.1-4.1"}}, {"uniqueid": "w29689221:a49356215", "current_trial": 13, "dateTime": 1693565679058, "trialdata": {"rt": 13919, "response": {"Q0": "Not sure"}, "question_order": [0], "trial_id": "repeat_check", "trial_type": "survey-multi-choice", "trial_index": 13, "time_elapsed": 1060787, "internal_node_id": "0.0-4.0-0.0"}}, {"uniqueid": "w29689221:a49356215", "current_trial": 14, "dateTime": 1693566015783, "trialdata": {"rt": 336701, "stimulus": "\n<h1> Get ready to start the game! </h1>\n\nThank you for reading the instructions. Get ready start with the 40 rounds of this game.\n<br><br>\nIf you need to take a break, feel free to take one after the end of a round, before continuing to the next one.\n<br><br>\nRemember, the more money the spider gets, the bigger your bonus will be!\n<br><br>\n<div style='text-align: center;'>Press <code>space</code> to begin.</div>\n\n<br><br>\n(If, at any point, the <code>space</code> key does not take you to the next page, click once on the text and try again.)", "response": " ", "trial_id": "mdp_ready", "trial_type": "html-keyboard-response", "trial_index": 14, "time_elapsed": 1397512, "internal_node_id": "0.0-6.0-0.0"}}, {"uniqueid": "w29689221:a49356215", "current_trial": 15, "dateTime": 1693566062074, "trialdata": {"revealed_states": [], "clicked_states": ["12", "13", "1", "2"], "num_clicks_accrued": [0, 0, 0, 0, 0, 0, 0, 0, 0, 0, 0, 0, 0], "stateRewards": ["", 2, -3, 5, 11, -79, 54, 11, -9, -78, 33, 22, -2, -1, 2, 14, 43, 34, 1, 10, 49, -65, 39, -1, 1, -1, 3, -16, -2, 11, 2, 12, 48, -65], "withholdReward": false, "trial_id": "mdp_trial_1", "block": "test", "trialIndex": 4, "score": 16.8, "costs": -0.19999999999999996, "simulationMode": [null, null, null, null, null], "rewards": [2, -3, 5, -9, 22], "path": ["0", "0", "1", "2", "3", "8", "11"], "rt": [14908, 308, 827, 1169, 493], "actions": ["up", "up", "up", "left", "left"], "actionTimes": [18470, 19301, 20651, 22343, 23317], "queries": {"click": {"state": {"target": ["12", "13", "1", "2"], "time": [5150, 6631, 8563, 10741]}, "edge": {"target": [], "time": []}}, "mouseover": {"state": {"target": ["12", "13", "1", "2", "2", "23", "1"], "time": [4761, 5856, 8170, 9225, 10403, 12469, 17049]}, "edge": {"target": [], "time": []}}, "mouseout": {"state": {"target": ["24", "0", "12", "13", "1", "2", "2", "2", "23", "1", "14"], "time": [1913, 4471, 5458, 7886, 9192, 9524, 10927, 11988, 15885, 43034, 43085]}, "edge": {"target": [], "time": []}}}, "displayed_time": "23.84", "trialTime": 45632, "trial_type": "mouselab-mdp", "trial_index": 15, "time_elapsed": 1443802, "internal_node_id": "0.0-6.0-1.0-0.0"}}, {"uniqueid": "w29689221:a49356215", "current_trial": 16, "dateTime": 1693566123535, "trialdata": {"revealed_states": [], "clicked_states": ["23", "1", "12", "13", "14", "2", "3", "24", "25", "26", "27", "16", "15", "9", "5", "21", "32", "30"], "num_clicks_accrued": [0, 0, 0, 0, 0, 0, 0, 0, 0, 0, 0, 0, 0], "stateRewards": ["", -1, -3, 1, 13, -64, -29, 12, -4, -33, 50, 56, 2, -3, 4, 11, -64, -58, -55, 12, 47, 38, -25, -2, 2, 5, -15, 85, 7, 84, 10, 8, 57, 26], "withholdReward": false, "trial_id": "mdp_trial_2", "block": "test", "trialIndex": 5, "score": 51.3, "costs": -20.7, "simulationMode": [null, null, null, null, null], "rewards": [-2, 2, 5, 10, 57], "path": ["0", "0", "23", "24", "25", "30", "32"], "rt": [49246, 176, 154, 483, 166], "actions": ["left", "left", "left", "down", "down"], "actionTimes": [51843, 52545, 53222, 54228, 54928], "queries": {"click": {"state": {"target": ["23", "1", "12", "13", "14", "2", "3", "24", "25", "26", "27", "16", "15", "9", "5", "21", "32", "30"], "time": [3748, 4863, 6631, 7545, 8595, 10107, 11120, 13580, 14688, 16786, 18043, 22844, 26711, 29062, 32785, 37962, 42037, 47598]}, "edge": {"target": [], "time": []}}, "mouseover": {"state": {"target": ["0", "23", "1", "2", "13", "12", "13", "14", "18", "3", "3", "2", "3", "23", "24", "25", "26", "27", "14", "15", "16", "15", "4", "5", "9", "5", "5", "26", "25", "31", "21", "32", "32", "25", "30", "23"], "time": [2908, 3390, 4429, 5243, 5760, 6125, 7146, 8217, 9098, 9163, 9460, 9594, 10594, 11945, 12755, 14384, 16430, 17433, 19317, 19716, 19885, 23918, 27863, 28063, 28614, 30451, 30801, 36748, 36794, 36897, 37595, 40150, 41580, 46996, 47196, 50982]}, "edge": {"target": [], "time": []}}, "mouseout": {"state": {"target": ["0", "0", "23", "1", "2", "13", "12", "13", "14", "18", "3", "3", "2", "3", "2", "23", "24", "25", "26", "27", "14", "15", "16", "15", "4", "5", "9", "5", "5", "26", "25", "31", "21", "21", "32", "32", "25", "30", "23"], "time": [1305, 3224, 4213, 5176, 5644, 5991, 7113, 8046, 9077, 9116, 9196, 9545, 10411, 11560, 11596, 12724, 14253, 15931, 17283, 19249, 19632, 19865, 23485, 27699, 28047, 28513, 29247, 30583, 36298, 36788, 36813, 36913, 38149, 38785, 41312, 45895, 47113, 50931, 51079]}, "edge": {"target": [], "time": []}}}, "displayed_time": "55.43", "trialTime": 60600, "trial_type": "mouselab-mdp", "trial_index": 16, "time_elapsed": 1505263, "internal_node_id": "0.0-6.0-1.0-1.0"}}, {"uniqueid": "w29689221:a49356215", "current_trial": 17, "dateTime": 1693566182202, "trialdata": {"revealed_states": [], "clicked_states": ["21", "32", "30", "25", "24", "23", "9", "5", "29", "27", "28", "26"], "num_clicks_accrued": [0, 0, 0, 0, 0, 0, 0, 0, 0, 0, 0, 0, 0], "stateRewards": ["", 1, 1, -5, 10, -31, 73, 14, -8, -23, 63, -70, -1, 2, 8, 7, 25, -59, 27, -10, -40, -71, -15, -2, 3, -8, -5, -19, 77, -34, 7, 67, 63, 19], "withholdReward": false, "trial_id": "mdp_trial_3", "block": "test", "trialIndex": 6, "score": 45.8, "costs": -19.2, "simulationMode": [null, null, null, null, null], "rewards": [-2, 3, -8, -5, 77], "path": ["0", "0", "23", "24", "25", "26", "28"], "rt": [38203, 257, 184, 612, 871], "actions": ["left", "left", "left", "up", "right"], "actionTimes": [46446, 47221, 47903, 49015, 50407], "queries": {"click": {"state": {"target": ["21", "32", "30", "25", "24", "23", "9", "5", "29", "27", "28", "26"], "time": [10057, 13741, 18015, 19880, 21208, 22532, 24307, 27565, 31465, 35638, 39549, 43469]}, "edge": {"target": [], "time": []}}, "mouseover": {"state": {"target": ["0", "21", "21", "19", "22", "32", "30", "27", "26", "30", "25", "24", "23", "10", "8", "9", "5", "11", "27", "29", "26", "27", "28", "26", "23"], "time": [9220, 9336, 9722, 10640, 10978, 11439, 14472, 14986, 17402, 17465, 19407, 20704, 22058, 23535, 23572, 23933, 26984, 28802, 29351, 31101, 34807, 35257, 37867, 43098, 45027]}, "edge": {"target": [], "time": []}}, "mouseout": {"state": {"target": ["0", "21", "21", "19", "22", "32", "30", "27", "26", "30", "25", "24", "23", "10", "8", "9", "5", "11", "27", "29", "26", "27", "27", "28", "28", "26", "23", "18", "13", "22"], "time": [9252, 9353, 10591, 10974, 11012, 14453, 14505, 17383, 17438, 18207, 20686, 22021, 23485, 23554, 23586, 25218, 28717, 29250, 29468, 34768, 35214, 35839, 37285, 39740, 41984, 44402, 56031, 56214, 56730, 56797]}, "edge": {"target": [], "time": []}}}, "displayed_time": "50.90", "trialTime": 57975, "trial_type": "mouselab-mdp", "trial_index": 17, "time_elapsed": 1563930, "internal_node_id": "0.0-6.0-1.0-2.0"}}, {"uniqueid": "w29689221:a49356215", "current_trial": 18, "dateTime": 1693566259839, "trialdata": {"revealed_states": [], "clicked_states": ["16", "17", "20", "22", "21", "19", "14", "13", "12", "5", "6", "4", "3", "8", "2", "9"], "num_clicks_accrued": [0, 0, 0, 0, 0, 0, 0, 0, 0, 0, 0, 0, 0], "stateRewards": ["", 2, -4, -4, 13, -80, 62, 13, -11, 57, -13, -44, 1, 4, 3, -4, -29, -88, 15, 16, -58, 68, -45, -1, -3, -1, -9, -44, -86, -19, -7, -36, 59, 66], "withholdReward": false, "trial_id": "mdp_trial_4", "block": "test", "trialIndex": 7, "score": 67.8, "costs": -24.2, "simulationMode": [null, null, null, null, null], "rewards": [1, 4, 3, 16, 68], "path": ["0", "0", "12", "13", "14", "19", "21"], "rt": [59426, 359, 473, 831, 3654], "actions": ["right", "right", "right", "down", "down"], "actionTimes": [65640, 66516, 67511, 68868, 73038], "queries": {"click": {"state": {"target": ["16", "17", "20", "22", "21", "19", "14", "13", "12", "5", "6", "4", "3", "8", "2", "9"], "time": [7784, 11218, 15958, 19893, 23665, 27971, 29484, 31031, 32347, 35296, 39906, 44101, 45214, 46597, 48312, 50416]}, "edge": {"target": [], "time": []}}, "mouseover": {"state": {"target": ["12", "16", "17", "15", "20", "21", "21", "22", "21", "19", "14", "13", "12", "2", "3", "5", "6", "6", "7", "4", "3", "8", "10", "2", "1", "9", "11", "10"], "time": [6769, 7229, 8336, 14918, 15605, 17937, 19450, 19560, 20989, 27468, 29173, 30700, 31924, 34251, 34324, 34951, 36487, 39602, 43484, 43650, 44904, 46135, 47352, 47983, 49208, 50131, 52286, 54983]}, "edge": {"target": [], "time": []}}, "mouseout": {"state": {"target": ["0", "12", "16", "17", "15", "20", "21", "21", "22", "22", "21", "19", "14", "13", "12", "2", "3", "5", "6", "6", "7", "4", "3", "8", "8", "10", "2", "1", "2", "9", "11", "10"], "time": [5024, 6801, 8269, 14799, 15118, 17555, 19268, 19487, 20087, 20850, 27315, 29146, 29702, 31870, 34065, 34284, 34370, 36397, 39001, 43265, 43618, 44885, 45409, 46886, 47318, 47866, 49025, 49582, 49650, 51370, 54964, 55016]}, "edge": {"target": [], "time": []}}}, "displayed_time": "73.55", "trialTime": 76781, "trial_type": "mouselab-mdp", "trial_index": 18, "time_elapsed": 1641567, "internal_node_id": "0.0-6.0-1.0-3.0"}}, {"uniqueid": "w29689221:a49356215", "current_trial": 19, "dateTime": 1693566287366, "trialdata": {"revealed_states": [], "clicked_states": ["20", "21", "19", "14", "13", "12"], "num_clicks_accrued": [0, 0, 0, 0, 0, 0, 0, 0, 0, 0, 0, 0, 0], "stateRewards": ["", 1, 1, -3, 7, 49, 78, 26, -5, 26, 48, -43, -1, -3, 2, -5, 4, -1, -60, 10, -35, 51, 81, -2, 1, -7, -5, -39, -86, -54, 4, -3, 74, 77], "withholdReward": false, "trial_id": "mdp_trial_5", "block": "test", "trialIndex": 8, "score": 52.1, "costs": -6.8999999999999995, "simulationMode": [null, null, null, null, null], "rewards": [-1, -3, 2, 10, 51], "path": ["0", "0", "12", "13", "14", "19", "21"], "rt": [16332, 253, 200, 416, 526], "actions": ["right", "right", "right", "down", "down"], "actionTimes": [21418, 22185, 22897, 23813, 24858], "queries": {"click": {"state": {"target": ["20", "21", "19", "14", "13", "12"], "time": [7367, 11032, 15399, 16628, 17935, 19071]}, "edge": {"target": [], "time": []}}, "mouseover": {"state": {"target": ["12", "13", "14", "20", "21", "21", "19", "14", "13", "12"], "time": [5660, 5710, 6024, 6989, 8232, 9078, 14959, 16252, 17384, 18661]}, "edge": {"target": [], "time": []}}, "mouseout": {"state": {"target": ["0", "12", "13", "14", "20", "21", "21", "19", "14", "14", "13"], "time": [5593, 5676, 5760, 6061, 7563, 8261, 14909, 16231, 16819, 17363, 18578]}, "edge": {"target": [], "time": []}}}, "displayed_time": "25.38", "trialTime": 26739, "trial_type": "mouselab-mdp", "trial_index": 19, "time_elapsed": 1669094, "internal_node_id": "0.0-6.0-1.0-4.0"}}, {"uniqueid": "w29689221:a49356215", "current_trial": 20, "dateTime": 1693566328393, "trialdata": {"revealed_states": [], "clicked_states": ["1", "2", "3", "12", "27", "29", "28", "26", "25"], "num_clicks_accrued": [0, 0, 0, 0, 0, 0, 0, 0, 0, 0, 0, 0, 0], "stateRewards": ["", -1, -3, 4, -10, -5, 79, -87, -2, 53, 29, -20, -2, -1, -5, 10, 27, 86, 46, -16, -29, 40, 3, 2, 4, -1, -6, 37, 79, -29, 7, 86, -62, 29], "withholdReward": false, "trial_id": "mdp_trial_6", "block": "test", "trialIndex": 9, "score": 68.25, "costs": -9.75, "simulationMode": [null, null, null, null, null], "rewards": [2, 4, -1, -6, 79], "path": ["0", "0", "23", "24", "25", "26", "28"], "rt": [28666, 205, 93, 282, 649], "actions": ["left", "left", "left", "up", "right"], "actionTimes": [34263, 34991, 35610, 36415, 37582], "queries": {"click": {"state": {"target": ["1", "2", "3", "12", "27", "29", "28", "26", "25"], "time": [6948, 8269, 9398, 10762, 12844, 16806, 21119, 24969, 26432]}, "edge": {"target": [], "time": []}}, "mouseover": {"state": {"target": ["1", "2", "3", "12", "13", "22", "25", "26", "27", "29", "26", "28", "26", "25", "24", "32", "31", "23", "23"], "time": [6633, 7927, 8953, 10418, 11677, 11836, 12354, 12402, 12452, 13968, 19287, 19383, 24646, 26001, 28172, 28924, 30936, 31112, 31996]}, "edge": {"target": [], "time": []}}, "mouseout": {"state": {"target": ["12", "1", "2", "3", "12", "12", "13", "22", "25", "26", "27", "29", "26", "28", "28", "26", "25", "24", "32", "31", "23"], "time": [4526, 7588, 8819, 9919, 10952, 11636, 11711, 11852, 12397, 12423, 13519, 19260, 19325, 21319, 23330, 25935, 28030, 28594, 30894, 31012, 31195]}, "edge": {"target": [], "time": []}}}, "displayed_time": "38.10", "trialTime": 40008, "trial_type": "mouselab-mdp", "trial_index": 20, "time_elapsed": 1710122, "internal_node_id": "0.0-6.0-1.0-5.0"}}, {"uniqueid": "w29689221:a49356215", "current_trial": 21, "dateTime": 1693566348803, "trialdata": {"revealed_states": [], "clicked_states": [], "num_clicks_accrued": [0, 0, 0, 0, 0, 0, 0, 0, 0, 0, 0, 0, 0], "stateRewards": ["", -2, 3, -1, -9, 44, 48, -37, -3, 71, -39, 87, -1, 3, -4, 4, -21, 59, -15, -8, -1, 28, -38, 2, 4, 4, 8, -85, -72, -63, 14, 58, 63, -46], "withholdReward": false, "trial_id": "mdp_trial_7", "block": "test", "trialIndex": 10, "score": 87, "costs": 0, "simulationMode": [null, null, null, null, null], "rewards": [2, 4, 4, 14, 63], "path": ["0", "0", "23", "24", "25", "30", "32"], "rt": [9481, 280, 643, 294, 194], "actions": ["left", "left", "left", "down", "down"], "actionTimes": [12413, 13214, 14376, 15194, 15910], "queries": {"click": {"state": {"target": [], "time": []}, "edge": {"target": [], "time": []}}, "mouseover": {"state": {"target": ["1", "4", "5", "18", "13", "21", "32", "31"], "time": [4012, 4179, 4200, 4678, 4715, 5111, 5809, 9211]}, "edge": {"target": [], "time": []}}, "mouseout": {"state": {"target": ["23", "1", "4", "5", "18", "13", "21", "32", "31"], "time": [1455, 4062, 4195, 4228, 4710, 5025, 5355, 9177, 9229]}, "edge": {"target": [], "time": []}}}, "displayed_time": "16.94", "trialTime": 19585, "trial_type": "mouselab-mdp", "trial_index": 21, "time_elapsed": 1730531, "internal_node_id": "0.0-6.0-1.0-6.0"}}, {"uniqueid": "w29689221:a49356215", "current_trial": 22, "dateTime": 1693566373382, "trialdata": {"revealed_states": [], "clicked_states": [], "num_clicks_accrued": [0, 0, 0, 0, 0, 0, 0, 0, 0, 0, 0, 0, 0], "stateRewards": ["", 1, -4, 6, -3, 40, 76, -51, 5, -24, -63, 44, -2, -2, 8, 1, 76, -85, -58, 10, 59, 20, 11, -2, 3, -3, 3, -82, -10, 54, -7, -57, -6, -32], "withholdReward": false, "trial_id": "mdp_trial_8", "block": "test", "trialIndex": 11, "score": 73, "costs": 0, "simulationMode": [null, null, null, null, null], "rewards": [-2, -2, 8, 10, 59], "path": ["0", "0", "12", "13", "14", "19", "20"], "rt": [1060, 221, 271, 228, 787], "actions": ["right", "right", "right", "down", "right"], "actionTimes": [6792, 7528, 8310, 9037, 10327], "queries": {"click": {"state": {"target": [], "time": []}, "edge": {"target": [], "time": []}}, "mouseover": {"state": {"target": [], "time": []}, "edge": {"target": [], "time": []}}, "mouseout": {"state": {"target": ["0"], "time": [4546]}, "edge": {"target": [], "time": []}}}, "displayed_time": "19.73", "trialTime": 23639, "trial_type": "mouselab-mdp", "trial_index": 22, "time_elapsed": 1755110, "internal_node_id": "0.0-6.0-1.0-7.0"}}, {"uniqueid": "w29689221:a49356215", "current_trial": 23, "dateTime": 1693566400699, "trialdata": {"revealed_states": [], "clicked_states": [], "num_clicks_accrued": [0, 0, 0, 0, 0, 0, 0, 0, 0, 0, 0, 0, 0], "stateRewards": ["", -1, -4, -1, -5, -28, -23, -15, -15, -38, 59, -87, 2, 2, -5, 9, -55, -39, -71, -6, 85, -85, -11, -1, -2, 5, -10, 1, 25, 41, -4, 69, -35, 86], "withholdReward": false, "trial_id": "mdp_trial_9", "block": "test", "trialIndex": 12, "score": -7, "costs": 0, "simulationMode": [null, null, null, null, null], "rewards": [-1, -2, 5, -10, 1], "path": ["0", "0", "23", "24", "25", "26", "27"], "rt": [3119, 196, 428, 638, 143], "actions": ["left", "left", "left", "up", "up"], "actionTimes": [11446, 12161, 13106, 14268, 14956], "queries": {"click": {"state": {"target": [], "time": []}, "edge": {"target": [], "time": []}}, "mouseover": {"state": {"target": ["1", "7", "4", "7", "1", "0"], "time": [9124, 9192, 9229, 9640, 9924, 10715]}, "edge": {"target": [], "time": []}}, "mouseout": {"state": {"target": ["0", "1", "7", "4", "7", "1"], "time": [9090, 9174, 9223, 9243, 9728, 10524]}, "edge": {"target": [], "time": []}}}, "displayed_time": "22.34", "trialTime": 26442, "trial_type": "mouselab-mdp", "trial_index": 23, "time_elapsed": 1782428, "internal_node_id": "0.0-6.0-1.0-8.0"}}, {"uniqueid": "w29689221:a49356215", "current_trial": 24, "dateTime": 1693566449129, "trialdata": {"revealed_states": [], "clicked_states": ["28", "29", "27", "9", "11", "32", "30", "25", "24", "23"], "num_clicks_accrued": [0, 0, 0, 0, 0, 0, 0, 0, 0, 0, 0, 0, 0], "stateRewards": ["", 2, 3, 6, -5, -74, -53, 17, -12, 46, 44, 18, -2, 4, 1, -8, 22, -23, -49, 9, -45, 55, 81, 1, -1, -7, -16, -83, -71, -45, 2, 51, 82, 61], "withholdReward": false, "trial_id": "mdp_trial_10", "block": "test", "trialIndex": 13, "score": 61.5, "costs": -15.5, "simulationMode": [null, null, null, null, null], "rewards": [1, -1, -7, 2, 82], "path": ["0", "0", "23", "24", "25", "30", "32"], "rt": [33422, 274, 138, 379, 305], "actions": ["left", "left", "left", "down", "down"], "actionTimes": [35349, 36155, 36818, 37726, 38564], "queries": {"click": {"state": {"target": ["28", "29", "27", "9", "11", "32", "30", "25", "24", "23"], "time": [3526, 7064, 10519, 14793, 18373, 23853, 28209, 29749, 31100, 32089]}, "edge": {"target": [], "time": []}}, "mouseover": {"state": {"target": ["28", "29", "27", "11", "9", "11", "28", "24", "31", "32", "30", "25", "24", "23"], "time": [3055, 4790, 8323, 13906, 14354, 16422, 19439, 19479, 19826, 20656, 27920, 29286, 30669, 31674]}, "edge": {"target": [], "time": []}}, "mouseout": {"state": {"target": ["0", "28", "28", "29", "27", "11", "9", "11", "28", "24", "31", "32", "30", "25", "24", "23"], "time": [2839, 3723, 4440, 7924, 13866, 13955, 15890, 19356, 19460, 19807, 19858, 27735, 29221, 30622, 31296, 41860]}, "edge": {"target": [], "time": []}}}, "displayed_time": "39.08", "trialTime": 47588, "trial_type": "mouselab-mdp", "trial_index": 24, "time_elapsed": 1830858, "internal_node_id": "0.0-6.0-1.0-9.0"}}, {"uniqueid": "w29689221:a49356215", "current_trial": 25, "dateTime": 1693566496520, "trialdata": {"revealed_states": [], "clicked_states": ["20", "21", "22", "32"], "num_clicks_accrued": [0, 0, 0, 0, 0, 0, 0, 0, 0, 0, 0, 0, 0], "stateRewards": ["", -2, 2, 3, -7, -31, -33, 29, -8, -57, 50, -83, -1, -1, 5, 13, -23, -62, 25, 5, -66, -85, 14, 1, -2, -1, 16, 71, 33, -19, -14, 5, -43, 79], "withholdReward": false, "trial_id": "mdp_trial_11", "block": "test", "trialIndex": 14, "score": -45.6, "costs": -8.6, "simulationMode": [null, null, null, null, null], "rewards": [-2, 2, 3, -7, -33], "path": ["0", "0", "1", "2", "3", "4", "6"], "rt": [24661, 287, 261, 654, 134], "actions": ["up", "up", "up", "right", "right"], "actionTimes": [38804, 39610, 40399, 41575, 42222], "queries": {"click": {"state": {"target": ["20", "21", "22", "32"], "time": [16809, 20886, 25015, 29745]}, "edge": {"target": [], "time": []}}, "mouseover": {"state": {"target": ["12", "20", "21", "22", "32", "9", "5", "5", "1"], "time": [15098, 16054, 20510, 24536, 29279, 33750, 34269, 35230, 37799]}, "edge": {"target": [], "time": []}}, "mouseout": {"state": {"target": ["0", "12", "20", "21", "22", "22", "32", "9", "5", "5", "1"], "time": [12756, 15152, 20298, 24348, 25201, 28650, 33234, 33795, 34846, 37646, 37816]}, "edge": {"target": [], "time": []}}}, "displayed_time": "42.74", "trialTime": 46589, "trial_type": "mouselab-mdp", "trial_index": 25, "time_elapsed": 1878248, "internal_node_id": "0.0-6.0-1.0-10.0"}}, {"uniqueid": "w29689221:a49356215", "current_trial": 26, "dateTime": 1693566548623, "trialdata": {"revealed_states": [], "clicked_states": ["5", "6", "9", "27", "28", "29", "33", "32"], "num_clicks_accrued": [0, 0, 0, 0, 0, 0, 0, 0, 0, 0, 0, 0, 0], "stateRewards": ["", -1, 4, -5, 9, 29, -75, -42, -16, 24, -28, -41, 2, -3, 1, 10, 60, 47, 55, -1, -53, 22, -40, 2, -3, -6, 4, -26, 44, 54, 15, -76, 42, 14], "withholdReward": false, "trial_id": "mdp_trial_12", "block": "test", "trialIndex": 15, "score": 32.8, "costs": -17.2, "simulationMode": [null, null, null, null, null], "rewards": [2, -3, -6, 15, 42], "path": ["0", "0", "23", "24", "25", "30", "32"], "rt": [40897, 194, 141, 455, 152], "actions": ["left", "left", "left", "down", "down"], "actionTimes": [45130, 45852, 46543, 47493, 48157], "queries": {"click": {"state": {"target": ["5", "6", "9", "27", "28", "29", "33", "32"], "time": [6398, 10644, 15058, 20687, 24696, 28956, 34193, 38233]}, "edge": {"target": [], "time": []}}, "mouseover": {"state": {"target": ["1", "4", "5", "5", "6", "4", "9", "11", "27", "27", "28", "26", "29", "32", "33", "33", "32", "30", "25", "28", "23"], "time": [5031, 5102, 5451, 5985, 10168, 14036, 14466, 19283, 19622, 20216, 24137, 28174, 28533, 32917, 33355, 33680, 37782, 42600, 43051, 44266, 44434]}, "edge": {"target": [], "time": []}}, "mouseout": {"state": {"target": ["0", "1", "4", "5", "5", "6", "4", "9", "11", "27", "27", "28", "26", "29", "32", "33", "33", "32", "30", "25", "28"], "time": [4993, 5053, 5433, 5499, 6587, 10833, 14054, 19184, 19570, 19652, 24050, 28134, 28218, 32417, 33255, 33445, 37658, 42478, 43032, 43184, 44334]}, "edge": {"target": [], "time": []}}}, "displayed_time": "48.67", "trialTime": 51167, "trial_type": "mouselab-mdp", "trial_index": 26, "time_elapsed": 1930351, "internal_node_id": "0.0-6.0-1.0-11.0"}}, {"uniqueid": "w29689221:a49356215", "current_trial": 27, "dateTime": 1693566804671, "trialdata": {"revealed_states": [], "clicked_states": [], "num_clicks_accrued": [0, 0, 0, 0, 0, 0, 0, 0, 0, 0, 0, 0, 0], "stateRewards": ["", 1, 4, 5, -5, 58, -80, 75, 6, 25, -39, 46, 2, -2, 4, 2, 59, 31, -22, -12, -61, 15, 72, 1, -2, -7, 8, 77, 76, -23, -7, 71, -15, -3], "withholdReward": false, "trial_id": "mdp_trial_13", "block": "test", "trialIndex": 16, "score": -30, "costs": 0, "simulationMode": [null, null, null, null, null], "rewards": [1, -2, -7, -7, -15], "path": ["0", "0", "23", "24", "25", "30", "32"], "rt": [6699, 368, 194, 430, 148], "actions": ["left", "left", "left", "down", "down"], "actionTimes": [243791, 244703, 245419, 246355, 247022], "queries": {"click": {"state": {"target": [], "time": []}, "edge": {"target": [], "time": []}}, "mouseover": {"state": {"target": ["0"], "time": [240638]}, "edge": {"target": [], "time": []}}, "mouseout": {"state": {"target": ["23", "0", "12", "13", "22"], "time": [236362, 252570, 252752, 252869, 252919]}, "edge": {"target": [], "time": []}}}, "displayed_time": "251.09", "trialTime": 255176, "trial_type": "mouselab-mdp", "trial_index": 27, "time_elapsed": 2186400, "internal_node_id": "0.0-6.0-1.0-12.0"}}, {"uniqueid": "w29689221:a49356215", "current_trial": 28, "dateTime": 1693566823696, "trialdata": {"revealed_states": [], "clicked_states": [], "num_clicks_accrued": [0, 0, 0, 0, 0, 0, 0, 0, 0, 0, 0, 0, 0], "stateRewards": ["", -1, 4, -3, 3, 57, -61, 5, -11, 23, -1, 34, -2, -4, -1, -13, 27, 38, -36, 4, -45, 21, 88, 1, -2, -1, 1, -69, -5, -78, -12, -9, 38, -54], "withholdReward": false, "trial_id": "mdp_trial_14", "block": "test", "trialIndex": 17, "score": 18, "costs": 0, "simulationMode": [null, null, null, null, null], "rewards": [-2, -4, -1, 4, 21], "path": ["0", "0", "12", "13", "14", "19", "21"], "rt": [5133, 302, 334, 720, 65], "actions": ["right", "right", "right", "down", "down"], "actionTimes": [7516, 8331, 9163, 10400, 10993], "queries": {"click": {"state": {"target": [], "time": []}, "edge": {"target": [], "time": []}}, "mouseover": {"state": {"target": [], "time": []}, "edge": {"target": [], "time": []}}, "mouseout": {"state": {"target": ["19", "19", "12", "0"], "time": [502, 744, 1178, 1266]}, "edge": {"target": [], "time": []}}}, "displayed_time": "16.39", "trialTime": 18073, "trial_type": "mouselab-mdp", "trial_index": 28, "time_elapsed": 2205425, "internal_node_id": "0.0-6.0-1.0-13.0"}}, {"uniqueid": "w29689221:a49356215", "current_trial": 29, "dateTime": 1693566847593, "trialdata": {"revealed_states": [], "clicked_states": ["16", "21", "19", "14", "13", "12"], "num_clicks_accrued": [0, 0, 0, 0, 0, 0, 0, 0, 0, 0, 0, 0, 0], "stateRewards": ["", 1, -2, 7, -14, 88, -56, -44, -14, 64, -51, -57, -2, 3, -4, -9, -11, 19, -77, -1, 68, 75, -67, -1, 1, -2, 5, -37, 70, -34, -10, -72, 63, -41], "withholdReward": false, "trial_id": "mdp_trial_15", "block": "test", "trialIndex": 18, "score": 64.1, "costs": -6.8999999999999995, "simulationMode": [null, null, null, null, null], "rewards": [-2, 3, -4, -1, 75], "path": ["0", "0", "12", "13", "14", "19", "21"], "rt": [15427, 229, 193, 443, 230], "actions": ["right", "right", "right", "down", "down"], "actionTimes": [16999, 17746, 18459, 19409, 20163], "queries": {"click": {"state": {"target": ["16", "21", "19", "14", "13", "12"], "time": [3101, 7967, 12807, 13992, 15209, 16235]}, "edge": {"target": [], "time": []}}, "mouseover": {"state": {"target": ["12", "13", "15", "16", "17", "20", "21", "20", "19", "14", "13", "12"], "time": [2081, 2117, 2412, 2662, 3817, 7315, 7379, 11528, 12431, 13565, 14711, 15901]}, "edge": {"target": [], "time": []}}, "mouseout": {"state": {"target": ["0", "12", "13", "15", "16", "17", "20", "21", "20", "19", "14", "13"], "time": [922, 2113, 2133, 2496, 3683, 6840, 7332, 10853, 12172, 13005, 14187, 15801]}, "edge": {"target": [], "time": []}}}, "displayed_time": "20.68", "trialTime": 22594, "trial_type": "mouselab-mdp", "trial_index": 29, "time_elapsed": 2229321, "internal_node_id": "0.0-6.0-1.0-14.0"}}, {"uniqueid": "w29689221:a49356215", "current_trial": 30, "dateTime": 1693566878455, "trialdata": {"revealed_states": [], "clicked_states": ["5", "29", "27"], "num_clicks_accrued": [0, 0, 0, 0, 0, 0, 0, 0, 0, 0, 0, 0, 0], "stateRewards": ["", -1, -1, 7, -15, -43, -21, -84, -9, -45, -66, 2, 1, -2, 2, 8, -27, 44, -52, -5, -84, 11, 53, 1, 4, -4, 16, 83, -82, -15, -16, 68, -43, 81], "withholdReward": false, "trial_id": "mdp_trial_16", "block": "test", "trialIndex": 19, "score": 93.55, "costs": -6.449999999999999, "simulationMode": [null, null, null, null, null], "rewards": [1, 4, -4, 16, 83], "path": ["0", "0", "23", "24", "25", "26", "27"], "rt": [13956, 204, 341, 469, 166], "actions": ["left", "left", "left", "up", "up"], "actionTimes": [21642, 22362, 23240, 24226, 24889], "queries": {"click": {"state": {"target": ["5", "29", "27"], "time": [9200, 13443, 16857]}, "edge": {"target": [], "time": []}}, "mouseover": {"state": {"target": ["3", "5", "6", "7", "28", "26", "29", "27", "32", "24", "23"], "time": [8403, 8485, 10175, 12284, 12712, 12786, 13053, 14838, 17988, 20467, 21049]}, "edge": {"target": [], "time": []}}, "mouseout": {"state": {"target": ["12", "0", "3", "5", "5", "6", "7", "28", "26", "29", "27", "32", "24", "23"], "time": [6604, 8351, 8435, 9393, 10123, 11302, 12337, 12765, 12903, 13635, 17457, 20384, 20520, 27378]}, "edge": {"target": [], "time": []}}}, "displayed_time": "25.41", "trialTime": 29891, "trial_type": "mouselab-mdp", "trial_index": 30, "time_elapsed": 2260183, "internal_node_id": "0.0-6.0-1.0-15.0"}}, {"uniqueid": "w29689221:a49356215", "current_trial": 31, "dateTime": 1693566912963, "trialdata": {"revealed_states": [], "clicked_states": ["32", "31", "33", "27"], "num_clicks_accrued": [0, 0, 0, 0, 0, 0, 0, 0, 0, 0, 0, 0, 0], "stateRewards": ["", -1, 3, -7, 16, -32, -74, -48, 2, 10, 15, -30, 1, 1, -2, 10, 12, -83, 67, 13, -66, 47, 65, -2, 4, 2, -14, -8, -57, 24, 9, 65, 12, 46], "withholdReward": false, "trial_id": "mdp_trial_17", "block": "test", "trialIndex": 20, "score": 69.4, "costs": -8.6, "simulationMode": [null, null, null, null, null], "rewards": [-2, 4, 2, 9, 65], "path": ["0", "0", "23", "24", "25", "30", "31"], "rt": [20522, 381, 293, 274, 531], "actions": ["left", "left", "left", "down", "right"], "actionTimes": [25556, 26456, 27268, 28065, 29106], "queries": {"click": {"state": {"target": ["32", "31", "33", "27"], "time": [7641, 11565, 17108, 21617]}, "edge": {"target": [], "time": []}}, "mouseover": {"state": {"target": ["23", "24", "25", "30", "32", "31", "31", "30", "25", "28", "28", "25", "33", "27"], "time": [5887, 6104, 6602, 6985, 7284, 10834, 11165, 14954, 15192, 15287, 16285, 16324, 16754, 21269]}, "edge": {"target": [], "time": []}}, "mouseout": {"state": {"target": ["0", "23", "24", "25", "30", "32", "31", "31", "30", "25", "28", "28", "25", "33"], "time": [5854, 6055, 6138, 6654, 7008, 10437, 10886, 14919, 14987, 15207, 15338, 16320, 16340, 20821]}, "edge": {"target": [], "time": []}}}, "displayed_time": "29.63", "trialTime": 33602, "trial_type": "mouselab-mdp", "trial_index": 31, "time_elapsed": 2294692, "internal_node_id": "0.0-6.0-1.0-16.0"}}, {"uniqueid": "w29689221:a49356215", "current_trial": 32, "dateTime": 1693566965418, "trialdata": {"revealed_states": [], "clicked_states": ["5", "9", "29", "17", "16", "21", "20", "22", "32"], "num_clicks_accrued": [0, 0, 0, 0, 0, 0, 0, 0, 0, 0, 0, 0, 0], "stateRewards": ["", 2, -4, 1, -12, -59, -53, -74, 16, -88, -66, 66, 1, -2, 8, -9, -14, 22, 25, -1, -39, 47, -14, -1, -1, -2, 1, -4, 52, -26, 15, -7, 46, 43], "withholdReward": false, "trial_id": "mdp_trial_18", "block": "test", "trialIndex": 21, "score": 37.650000000000006, "costs": -19.349999999999998, "simulationMode": [null, null, null, null, null], "rewards": [-1, -1, -2, 15, 46], "path": ["0", "0", "23", "24", "25", "30", "32"], "rt": [39997, 148, 199, 72, 921], "actions": ["left", "left", "left", "down", "down"], "actionTimes": [45063, 45731, 46447, 47046, 48470], "queries": {"click": {"state": {"target": ["5", "9", "29", "17", "16", "21", "20", "22", "32"], "time": [6813, 10799, 14710, 18943, 22881, 27499, 31635, 35702, 38926]}, "edge": {"target": [], "time": []}}, "mouseover": {"state": {"target": ["4", "5", "9", "27", "29", "17", "16", "14", "19", "21", "20", "19", "22", "32"], "time": [6050, 6114, 10475, 13711, 14257, 18474, 22396, 26416, 26461, 27135, 31041, 34963, 35251, 37512]}, "edge": {"target": [], "time": []}}, "mouseout": {"state": {"target": ["27", "0", "4", "5", "9", "27", "29", "17", "16", "14", "19", "21", "20", "19", "22", "32"], "time": [2716, 6015, 6078, 10143, 13595, 13744, 14903, 22342, 26374, 26443, 26841, 30997, 34927, 35063, 36562, 42932]}, "edge": {"target": [], "time": []}}}, "displayed_time": "48.98", "trialTime": 51598, "trial_type": "mouselab-mdp", "trial_index": 32, "time_elapsed": 2347146, "internal_node_id": "0.0-6.0-1.0-17.0"}}, {"uniqueid": "w29689221:a49356215", "current_trial": 33, "dateTime": 1693566987473, "trialdata": {"revealed_states": [], "clicked_states": ["32"], "num_clicks_accrued": [0, 0, 0, 0, 0, 0, 0, 0, 0, 0, 0, 0, 0], "stateRewards": ["", -1, 3, 8, 10, -86, 61, -36, 10, 17, -60, 24, -1, -3, 3, 11, 50, 60, 33, -3, -20, 58, -6, 1, -4, -4, 13, -70, -71, 43, 14, 52, 82, -11], "withholdReward": false, "trial_id": "mdp_trial_19", "block": "test", "trialIndex": 22, "score": 86.85, "costs": -2.15, "simulationMode": [null, null, null, null, null], "rewards": [1, -4, -4, 14, 82], "path": ["0", "0", "23", "24", "25", "30", "32"], "rt": [6943, 208, 243, 182, 207], "actions": ["left", "left", "left", "down", "down"], "actionTimes": [10099, 10824, 11629, 12330, 13055], "queries": {"click": {"state": {"target": ["32"], "time": [5620]}, "edge": {"target": [], "time": []}}, "mouseover": {"state": {"target": ["1", "2", "3", "5", "5", "4", "1", "23", "31", "32", "31"], "time": [3960, 3984, 4015, 4078, 4408, 4445, 4760, 4807, 4867, 5254, 9125]}, "edge": {"target": [], "time": []}}, "mouseout": {"state": {"target": ["0", "1", "2", "3", "5", "5", "4", "1", "23", "31", "32", "31"], "time": [3935, 3979, 4010, 4044, 4095, 4423, 4463, 4801, 4823, 5061, 5820, 9261]}, "edge": {"target": [], "time": []}}}, "displayed_time": "17.16", "trialTime": 20956, "trial_type": "mouselab-mdp", "trial_index": 33, "time_elapsed": 2369201, "internal_node_id": "0.0-6.0-1.0-18.0"}}, {"uniqueid": "w29689221:a49356215", "current_trial": 34, "dateTime": 1693567028932, "trialdata": {"revealed_states": [], "clicked_states": ["27", "21", "32", "17"], "num_clicks_accrued": [0, 0, 0, 0, 0, 0, 0, 0, 0, 0, 0, 0, 0], "stateRewards": ["", -1, -3, -5, -14, -13, -47, 79, 8, -60, -64, 41, -1, 2, 3, 13, -46, 61, -79, -11, -64, -65, 23, 1, -2, 6, -14, 46, 32, 21, 7, 75, -66, 15], "withholdReward": false, "trial_id": "mdp_trial_20", "block": "test", "trialIndex": 23, "score": 69.4, "costs": -8.6, "simulationMode": [null, null, null, null, null], "rewards": [-1, 2, 3, 13, 61], "path": ["0", "0", "12", "13", "14", "15", "17"], "rt": [27397, 234, 235, 497, 147], "actions": ["right", "right", "right", "up", "right"], "actionTimes": [29502, 30255, 31003, 32015, 32682], "queries": {"click": {"state": {"target": ["27", "21", "32", "17"], "time": [5074, 9890, 15280, 20981]}, "edge": {"target": [], "time": []}}, "mouseover": {"state": {"target": ["22", "31", "24", "26", "27", "27", "26", "24", "21", "32", "32", "31", "0", "17", "14", "15", "18", "12"], "time": [3165, 3984, 4049, 4412, 4481, 4744, 8727, 8798, 9531, 13829, 14828, 19556, 19911, 20609, 24600, 26476, 27014, 28630]}, "edge": {"target": [], "time": []}}, "mouseout": {"state": {"target": ["0", "22", "31", "24", "26", "27", "27", "27", "26", "24", "21", "32", "32", "31", "0", "17", "17", "14", "15", "18"], "time": [2933, 3533, 4031, 4131, 4461, 4553, 5258, 8687, 8748, 9106, 13331, 13882, 19505, 19580, 19962, 21181, 24554, 24702, 26835, 28578]}, "edge": {"target": [], "time": []}}}, "displayed_time": "33.18", "trialTime": 40452, "trial_type": "mouselab-mdp", "trial_index": 34, "time_elapsed": 2410660, "internal_node_id": "0.0-6.0-1.0-19.0"}}, {"uniqueid": "w29689221:a49356215", "current_trial": 35, "dateTime": 1693567050372, "trialdata": {"revealed_states": [], "clicked_states": [], "num_clicks_accrued": [0, 0, 0, 0, 0, 0, 0, 0, 0, 0, 0, 0, 0], "stateRewards": ["", 1, 2, 8, -2, 23, -69, -18, -16, 54, -21, 71, -1, -4, 7, 11, 43, -6, 88, 6, -55, 72, 43, 1, -3, -2, -1, 68, -31, -54, 4, -8, 25, -2], "withholdReward": false, "trial_id": "mdp_trial_21", "block": "test", "trialIndex": 24, "score": 56, "costs": 0, "simulationMode": [null, null, null, null, null], "rewards": [-1, -4, 7, 11, 43], "path": ["0", "0", "12", "13", "14", "15", "16"], "rt": [1375, 783, 362, 6403, 279], "actions": ["right", "right", "right", "up", "up"], "actionTimes": [6074, 7374, 8251, 15210, 16003], "queries": {"click": {"state": {"target": [], "time": []}, "edge": {"target": [], "time": []}}, "mouseover": {"state": {"target": [], "time": []}, "edge": {"target": [], "time": []}}, "mouseout": {"state": {"target": ["12", "0"], "time": [666, 1067]}, "edge": {"target": [], "time": []}}}, "displayed_time": "18.70", "trialTime": 20218, "trial_type": "mouselab-mdp", "trial_index": 35, "time_elapsed": 2432100, "internal_node_id": "0.0-6.0-1.0-20.0"}}, {"uniqueid": "w29689221:a49356215", "current_trial": 36, "dateTime": 1693567073827, "trialdata": {"revealed_states": [], "clicked_states": ["21", "16"], "num_clicks_accrued": [0, 0, 0, 0, 0, 0, 0, 0, 0, 0, 0, 0, 0], "stateRewards": ["", -1, -3, 3, 5, 56, 39, 50, -1, -80, 33, -46, 1, -2, -6, -8, 87, 48, 54, -11, -20, -64, -54, -2, 3, -7, -3, 12, 88, 35, -16, -46, -70, -3], "withholdReward": false, "trial_id": "mdp_trial_22", "block": "test", "trialIndex": 25, "score": 67.7, "costs": -4.3, "simulationMode": [null, null, null, null, null], "rewards": [1, -2, -6, -8, 87], "path": ["0", "0", "12", "13", "14", "15", "16"], "rt": [9346, 90, 154, 360, 500], "actions": ["right", "right", "right", "up", "up"], "actionTimes": [13042, 13646, 14326, 15181, 16221], "queries": {"click": {"state": {"target": ["21", "16"], "time": [5119, 8429]}, "edge": {"target": [], "time": []}}, "mouseover": {"state": {"target": ["21", "21", "19", "16", "16", "17", "17", "14", "13"], "time": [4433, 4748, 5990, 6067, 7015, 10273, 10838, 12149, 12384]}, "edge": {"target": [], "time": []}}, "mouseout": {"state": {"target": ["0", "21", "21", "19", "16", "16", "17", "17", "14"], "time": [4392, 4472, 5964, 6041, 6090, 10236, 10294, 11986, 12301]}, "edge": {"target": [], "time": []}}}, "displayed_time": "17.70", "trialTime": 22223, "trial_type": "mouselab-mdp", "trial_index": 36, "time_elapsed": 2455555, "internal_node_id": "0.0-6.0-1.0-21.0"}}, {"uniqueid": "w29689221:a49356215", "current_trial": 37, "dateTime": 1693567107314, "trialdata": {"revealed_states": [], "clicked_states": ["5"], "num_clicks_accrued": [0, 0, 0, 0, 0, 0, 0, 0, 0, 0, 0, 0, 0], "stateRewards": ["", 1, 2, -3, 6, -88, 74, -45, 7, -46, 40, -77, 1, -4, 4, 3, 22, -25, -59, 8, -83, 19, -60, -1, -1, -1, -8, 26, -29, 64, -7, -88, -51, -55], "withholdReward": false, "trial_id": "mdp_trial_23", "block": "test", "trialIndex": 26, "score": -63.15, "costs": -2.15, "simulationMode": [null, null, null, null, null], "rewards": [-1, -1, -1, -7, -51], "path": ["0", "0", "23", "24", "25", "30", "32"], "rt": [12870, 239, 124, 3678, 225], "actions": ["left", "left", "left", "down", "down"], "actionTimes": [15193, 15947, 16597, 20784, 21541], "queries": {"click": {"state": {"target": ["5"], "time": [4400]}, "edge": {"target": [], "time": []}}, "mouseover": {"state": {"target": ["2", "3", "5", "9", "4", "7", "0"], "time": [3538, 3583, 3990, 9600, 10416, 13754, 14084]}, "edge": {"target": [], "time": []}}, "mouseout": {"state": {"target": ["13", "0", "0", "2", "3", "5", "9", "4", "7", "0", "0", "7", "16"], "time": [910, 1032, 3498, 3566, 3930, 9240, 10048, 13697, 13834, 14151, 29816, 30267, 30800]}, "edge": {"target": [], "time": []}}}, "displayed_time": "22.08", "trialTime": 32110, "trial_type": "mouselab-mdp", "trial_index": 37, "time_elapsed": 2489043, "internal_node_id": "0.0-6.0-1.0-22.0"}}, {"uniqueid": "w29689221:a49356215", "current_trial": 38, "dateTime": 1693567160670, "trialdata": {"revealed_states": [], "clicked_states": ["17", "20", "21", "22", "27", "29", "9", "33", "32", "31"], "num_clicks_accrued": [0, 0, 0, 0, 0, 0, 0, 0, 0, 0, 0, 0, 0], "stateRewards": ["", -1, -3, -3, 1, -38, 2, -53, -2, -1, -81, 70, -1, 1, -5, -9, 46, 15, 35, -1, -22, 38, 59, -2, 4, -8, 13, 1, -83, -43, 4, 76, 13, 48], "withholdReward": false, "trial_id": "mdp_trial_24", "block": "test", "trialIndex": 27, "score": 52.5, "costs": -21.499999999999996, "simulationMode": [null, null, null, null, null], "rewards": [-2, 4, -8, 4, 76], "path": ["0", "0", "23", "24", "25", "30", "31"], "rt": [42928, 175, 117, 157, 272], "actions": ["left", "left", "left", "down", "right"], "actionTimes": [45817, 46516, 47224, 47895, 48694], "queries": {"click": {"state": {"target": ["17", "20", "21", "22", "27", "29", "9", "33", "32", "31"], "time": [4907, 8197, 11464, 14911, 19435, 23627, 28189, 32492, 36703, 40621]}, "edge": {"target": [], "time": []}}, "mouseover": {"state": {"target": ["12", "13", "17", "20", "20", "21", "22", "1", "27", "29", "8", "9", "25", "33", "32", "31", "23"], "time": [4175, 4290, 4540, 5610, 6179, 9169, 13642, 17956, 19073, 23223, 27046, 27823, 31930, 32122, 36172, 40122, 44775]}, "edge": {"target": [], "time": []}}, "mouseout": {"state": {"target": ["16", "18", "12", "0", "12", "13", "17", "20", "20", "21", "22", "1", "27", "29", "8", "9", "9", "25", "33", "32", "31"], "time": [1587, 1633, 1839, 4122, 4216, 4374, 5546, 5667, 9164, 12943, 17906, 17975, 22737, 26997, 27089, 28385, 31532, 31990, 36120, 40092, 44390]}, "edge": {"target": [], "time": []}}}, "displayed_time": "49.19", "trialTime": 52238, "trial_type": "mouselab-mdp", "trial_index": 38, "time_elapsed": 2542397, "internal_node_id": "0.0-6.0-1.0-23.0"}}, {"uniqueid": "w29689221:a49356215", "current_trial": 39, "dateTime": 1693567184673, "trialdata": {"revealed_states": [], "clicked_states": ["5"], "num_clicks_accrued": [0, 0, 0, 0, 0, 0, 0, 0, 0, 0, 0, 0, 0], "stateRewards": ["", 2, -4, 4, 9, 69, 9, -75, 12, -86, 66, 25, -1, 3, 2, -13, -88, -3, 1, 4, -69, 49, -84, 2, -1, 4, 2, -18, -81, -52, -15, -69, -54, 25], "withholdReward": false, "trial_id": "mdp_trial_25", "block": "test", "trialIndex": 28, "score": 77.85, "costs": -2.15, "simulationMode": [null, null, null, null, null], "rewards": [2, -4, 4, 9, 69], "path": ["0", "0", "1", "2", "3", "4", "5"], "rt": [10559, 277, 219, 63, 371], "actions": ["up", "up", "up", "right", "up"], "actionTimes": [16485, 17279, 18004, 18582, 19456], "queries": {"click": {"state": {"target": ["5"], "time": [7620]}, "edge": {"target": [], "time": []}}, "mouseover": {"state": {"target": ["2", "3", "5", "9", "3", "4", "1"], "time": [6533, 6870, 7214, 11443, 12381, 12862, 15765]}, "edge": {"target": [], "time": []}}, "mouseout": {"state": {"target": ["23", "0", "2", "3", "5", "9", "3", "4", "1"], "time": [4430, 6513, 6564, 6911, 11256, 12181, 12414, 15715, 15797]}, "edge": {"target": [], "time": []}}}, "displayed_time": "19.95", "trialTime": 22989, "trial_type": "mouselab-mdp", "trial_index": 39, "time_elapsed": 2566401, "internal_node_id": "0.0-6.0-1.0-24.0"}}, {"uniqueid": "w29689221:a49356215", "current_trial": 40, "dateTime": 1693567250291, "trialdata": {"revealed_states": [], "clicked_states": ["5", "9", "29", "33", "21", "20", "22", "17", "18", "16", "32", "31"], "num_clicks_accrued": [0, 0, 0, 0, 0, 0, 0, 0, 0, 0, 0, 0, 0], "stateRewards": ["", 2, -1, 1, 10, -52, 86, -22, -2, -14, -63, 38, 1, 3, 7, -8, 11, -32, -27, 9, -71, 40, -87, -2, -1, 5, -7, 12, 31, -57, 13, 86, -58, 29], "withholdReward": false, "trial_id": "mdp_trial_26", "block": "test", "trialIndex": 29, "score": 75.2, "costs": -25.799999999999994, "simulationMode": [null, null, null, null, null], "rewards": [-2, -1, 5, 13, 86], "path": ["0", "0", "23", "24", "25", "30", "31"], "rt": [54109, 131, 286, 1032, 311], "actions": ["left", "left", "left", "down", "right"], "actionTimes": [56627, 57281, 58092, 59631, 60459], "queries": {"click": {"state": {"target": ["5", "9", "29", "33", "21", "20", "22", "17", "18", "16", "32", "31"], "time": [4738, 8871, 13513, 18568, 22771, 26982, 31829, 36805, 41088, 44529, 48011, 52022]}, "edge": {"target": [], "time": []}}, "mouseover": {"state": {"target": ["12", "18", "16", "6", "5", "9", "8", "24", "25", "29", "33", "33", "30", "31", "21", "20", "19", "22", "17", "18", "16", "31", "32", "31"], "time": [3214, 3264, 3337, 3764, 4297, 8586, 12400, 12504, 12816, 13148, 16933, 18201, 20455, 20500, 22484, 26598, 30833, 31336, 36376, 40411, 42663, 45932, 46421, 51511]}, "edge": {"target": [], "time": []}}, "mouseout": {"state": {"target": ["0", "12", "18", "16", "6", "5", "9", "8", "24", "25", "29", "33", "33", "30", "31", "21", "20", "19", "22", "17", "18", "16", "31", "32", "32"], "time": [3179, 3232, 3298, 3697, 4129, 4924, 12381, 12452, 12762, 12913, 16873, 16986, 20433, 20478, 20523, 22957, 30774, 31064, 35992, 40327, 42097, 44726, 46315, 48207, 50598]}, "edge": {"target": [], "time": []}}}, "displayed_time": "60.99", "trialTime": 64529, "trial_type": "mouselab-mdp", "trial_index": 40, "time_elapsed": 2632020, "internal_node_id": "0.0-6.0-1.0-25.0"}}, {"uniqueid": "w29689221:a49356215", "current_trial": 41, "dateTime": 1693567282171, "trialdata": {"revealed_states": [], "clicked_states": ["5", "9", "11", "8", "3", "2", "1"], "num_clicks_accrued": [0, 0, 0, 0, 0, 0, 0, 0, 0, 0, 0, 0, 0], "stateRewards": ["", -2, 2, -4, -4, -59, 88, 62, -3, 69, -15, -34, 1, -2, -5, 7, -54, -20, 78, -16, -74, -53, -21, 2, -4, 2, 13, -8, -44, 26, 9, 72, 4, 17], "withholdReward": false, "trial_id": "mdp_trial_27", "block": "test", "trialIndex": 30, "score": 52.95, "costs": -9.049999999999999, "simulationMode": [null, null, null, null, null], "rewards": [-2, 2, -4, -3, 69], "path": ["0", "0", "1", "2", "3", "8", "9"], "rt": [20682, 154, 173, 388, 302], "actions": ["up", "up", "up", "left", "up"], "actionTimes": [24556, 25236, 25921, 26836, 27650], "queries": {"click": {"state": {"target": ["5", "9", "11", "8", "3", "2", "1"], "time": [5918, 9648, 13815, 17608, 19644, 21163, 22532]}, "edge": {"target": [], "time": []}}, "mouseover": {"state": {"target": ["7", "6", "5", "9", "11", "8", "3", "2", "1"], "time": [5034, 5083, 5607, 9318, 11020, 17208, 19139, 20746, 22126]}, "edge": {"target": [], "time": []}}, "mouseout": {"state": {"target": ["31", "23", "0", "7", "6", "5", "9", "11", "8", "3", "2", "1"], "time": [2394, 2492, 4959, 5074, 5116, 6830, 10980, 17190, 18644, 20696, 22081, 30067]}, "edge": {"target": [], "time": []}}}, "displayed_time": "28.16", "trialTime": 30905, "trial_type": "mouselab-mdp", "trial_index": 41, "time_elapsed": 2663899, "internal_node_id": "0.0-6.0-1.0-26.0"}}, {"uniqueid": "w29689221:a49356215", "current_trial": 42, "dateTime": 1693567310394, "trialdata": {"revealed_states": [], "clicked_states": ["29", "17", "20", "19", "14", "13"], "num_clicks_accrued": [0, 0, 0, 0, 0, 0, 0, 0, 0, 0, 0, 0, 0], "stateRewards": ["", 1, 1, 5, 6, -29, -7, 3, -16, 9, -46, 65, -1, 4, -1, -16, -63, -77, -87, 8, 80, -50, 43, -1, -1, -5, 5, -38, -71, -62, 9, 81, -50, -52], "withholdReward": false, "trial_id": "mdp_trial_28", "block": "test", "trialIndex": 31, "score": 80.7, "costs": -9.299999999999999, "simulationMode": [null, null, null, null, null], "rewards": [-1, 4, -1, 8, 80], "path": ["0", "0", "12", "13", "14", "19", "20"], "rt": [19109, 138, 169, 134, 441], "actions": ["right", "right", "right", "down", "right"], "actionTimes": [22189, 22870, 23549, 24198, 25155], "queries": {"click": {"state": {"target": ["29", "17", "20", "19", "14", "13"], "time": [5027, 8410, 11813, 17213, 19161, 20749]}, "edge": {"target": [], "time": []}}, "mouseover": {"state": {"target": ["10", "8", "26", "25", "29", "18", "15", "17", "21", "20", "19", "14", "13", "13"], "time": [3911, 3946, 4161, 4196, 4544, 6026, 6070, 6621, 10387, 11190, 16826, 18796, 19838, 20342]}, "edge": {"target": [], "time": []}}, "mouseout": {"state": {"target": ["1", "0", "10", "8", "26", "25", "29", "18", "15", "17", "21", "20", "19", "14", "13"], "time": [2117, 3834, 3929, 4061, 4179, 4278, 5899, 6048, 6437, 10313, 10413, 15807, 18760, 19815, 19878]}, "edge": {"target": [], "time": []}}}, "displayed_time": "25.66", "trialTime": 27246, "trial_type": "mouselab-mdp", "trial_index": 42, "time_elapsed": 2692122, "internal_node_id": "0.0-6.0-1.0-27.0"}}, {"uniqueid": "w29689221:a49356215", "current_trial": 43, "dateTime": 1693567383727, "trialdata": {"revealed_states": [], "clicked_states": [], "num_clicks_accrued": [0, 0, 0, 0, 0, 0, 0, 0, 0, 0, 0, 0, 0], "stateRewards": ["", 2, -1, -2, -5, -47, -57, -33, -11, 31, -18, -72, -2, 1, -4, -8, -46, -53, -50, 15, -85, -9, 39, -2, -2, 1, 14, -1, -8, 53, -12, -41, -74, 62], "withholdReward": false, "trial_id": "mdp_trial_29", "block": "test", "trialIndex": 32, "score": 19, "costs": 0, "simulationMode": [null, null, null, null, null], "rewards": [2, -1, -2, -11, 31], "path": ["0", "0", "1", "2", "3", "8", "9"], "rt": [5500, 87, 737, 117, 250], "actions": ["up", "up", "up", "left", "up"], "actionTimes": [6968, 7576, 8827, 9489, 10253], "queries": {"click": {"state": {"target": [], "time": []}, "edge": {"target": [], "time": []}}, "mouseover": {"state": {"target": [], "time": []}, "edge": {"target": [], "time": []}}, "mouseout": {"state": {"target": ["13", "12"], "time": [71, 365]}, "edge": {"target": [], "time": []}}}, "displayed_time": "15.47", "trialTime": 72302, "trial_type": "mouselab-mdp", "trial_index": 43, "time_elapsed": 2765455, "internal_node_id": "0.0-6.0-1.0-28.0"}}, {"uniqueid": "w29689221:a49356215", "current_trial": 44, "dateTime": 1693567433884, "trialdata": {"revealed_states": [], "clicked_states": ["5", "9", "29", "27"], "num_clicks_accrued": [0, 0, 0, 0, 0, 0, 0, 0, 0, 0, 0, 0, 0], "stateRewards": ["", 1, 3, 1, -13, 52, -28, 67, -14, 3, 63, -70, -1, -4, 7, -11, -10, 47, -18, 6, 69, -9, -61, 2, 3, -6, 10, 63, -34, 40, -6, -79, -35, -32], "withholdReward": false, "trial_id": "mdp_trial_30", "block": "test", "trialIndex": 33, "score": 63.4, "costs": -8.6, "simulationMode": [null, null, null, null, null], "rewards": [2, 3, -6, 10, 63], "path": ["0", "0", "23", "24", "25", "26", "27"], "rt": [23212, 175, 318, 128, 72], "actions": ["left", "left", "left", "up", "up"], "actionTimes": [41891, 42607, 43431, 44058, 44652], "queries": {"click": {"state": {"target": ["5", "9", "29", "27"], "time": [21005, 24640, 28893, 33438]}, "edge": {"target": [], "time": []}}, "mouseover": {"state": {"target": ["7", "4", "5", "9", "11", "29", "27", "26", "33", "33", "23"], "time": [20190, 20292, 20526, 22350, 28095, 28508, 33025, 38359, 38659, 39138, 40955]}, "edge": {"target": [], "time": []}}, "mouseout": {"state": {"target": ["0", "7", "4", "5", "9", "11", "29", "27", "26", "33", "33", "23"], "time": [19685, 20243, 20326, 21614, 28074, 28138, 32941, 38243, 38442, 38692, 40407, 48014]}, "edge": {"target": [], "time": []}}}, "displayed_time": "45.15", "trialTime": 49018, "trial_type": "mouselab-mdp", "trial_index": 44, "time_elapsed": 2815612, "internal_node_id": "0.0-6.0-1.0-29.0"}}, {"uniqueid": "w29689221:a49356215", "current_trial": 45, "dateTime": 1693567465784, "trialdata": {"revealed_states": [], "clicked_states": ["29", "17", "27"], "num_clicks_accrued": [0, 0, 0, 0, 0, 0, 0, 0, 0, 0, 0, 0, 0], "stateRewards": ["", 1, -3, -6, -5, 47, 80, -29, 11, -71, 10, -29, -2, 3, -6, 12, 2, -78, -6, 8, 34, -16, -5, -1, 3, 3, -13, 84, -36, -62, -3, -27, 66, 15], "withholdReward": false, "trial_id": "mdp_trial_31", "block": "test", "trialIndex": 34, "score": 69.55, "costs": -6.449999999999999, "simulationMode": [null, null, null, null, null], "rewards": [-1, 3, 3, -13, 84], "path": ["0", "0", "23", "24", "25", "26", "27"], "rt": [14954, 174, 134, 337, 470], "actions": ["left", "left", "left", "up", "up"], "actionTimes": [19230, 19927, 20584, 21421, 22388], "queries": {"click": {"state": {"target": ["29", "17", "27"], "time": [6034, 9419, 13536]}, "edge": {"target": [], "time": []}}, "mouseover": {"state": {"target": ["23", "26", "29", "16", "17", "15", "27", "26"], "time": [4880, 4965, 5314, 6736, 7849, 12632, 13096, 17629]}, "edge": {"target": [], "time": []}}, "mouseout": {"state": {"target": ["0", "23", "26", "29", "16", "17", "15", "27", "26", "28"], "time": [4859, 4899, 5282, 6637, 7083, 12614, 12688, 17533, 30145, 30219]}, "edge": {"target": [], "time": []}}}, "displayed_time": "22.90", "trialTime": 30708, "trial_type": "mouselab-mdp", "trial_index": 45, "time_elapsed": 2847512, "internal_node_id": "0.0-6.0-1.0-30.0"}}, {"uniqueid": "w29689221:a49356215", "current_trial": 46, "dateTime": 1693567525695, "trialdata": {"revealed_states": [], "clicked_states": ["9", "5", "17", "29", "27", "33", "32", "21", "20", "16", "28"], "num_clicks_accrued": [0, 0, 0, 0, 0, 0, 0, 0, 0, 0, 0, 0, 0], "stateRewards": ["", 2, 3, -1, 6, 44, -4, -59, -14, -3, 64, 16, 1, -3, 3, 6, 3, 49, 19, 3, -49, -14, -86, 1, 2, -3, -8, -33, 14, 32, -13, -77, -47, -67], "withholdReward": false, "trial_id": "mdp_trial_32", "block": "test", "trialIndex": 35, "score": -36.64999999999999, "costs": -23.649999999999995, "simulationMode": [null, null, null, null, null], "rewards": [2, 3, -1, -14, -3], "path": ["0", "0", "1", "2", "3", "8", "9"], "rt": [49536, 716, 223, 257, 428], "actions": ["up", "up", "up", "left", "up"], "actionTimes": [52158, 53398, 54158, 54937, 55891], "queries": {"click": {"state": {"target": ["9", "5", "17", "29", "27", "33", "32", "21", "20", "16", "28"], "time": [4663, 8979, 13215, 17901, 21450, 25731, 29711, 34317, 38321, 43393, 48014]}, "edge": {"target": [], "time": []}}, "mouseover": {"state": {"target": ["8", "9", "5", "16", "17", "29", "29", "27", "29", "33", "32", "21", "20", "18", "15", "16", "26", "28"], "time": [3815, 4345, 5690, 12314, 12691, 17209, 17516, 20651, 24830, 25264, 29314, 33949, 37868, 42497, 42893, 43010, 47026, 47525]}, "edge": {"target": [], "time": []}}, "mouseout": {"state": {"target": ["0", "8", "9", "5", "16", "17", "29", "29", "27", "29", "33", "32", "21", "20", "18", "15", "16", "26"], "time": [3630, 3834, 5606, 11841, 12334, 13412, 17262, 18098, 21645, 24881, 29129, 33115, 37696, 41821, 42544, 42927, 46951, 47424]}, "edge": {"target": [], "time": []}}}, "displayed_time": "56.40", "trialTime": 58706, "trial_type": "mouselab-mdp", "trial_index": 46, "time_elapsed": 2907424, "internal_node_id": "0.0-6.0-1.0-31.0"}}, {"uniqueid": "w29689221:a49356215", "current_trial": 47, "dateTime": 1693567568731, "trialdata": {"revealed_states": [], "clicked_states": ["5", "9", "27", "29", "33", "32", "21", "20"], "num_clicks_accrued": [0, 0, 0, 0, 0, 0, 0, 0, 0, 0, 0, 0, 0], "stateRewards": ["", 2, 4, 7, 7, -79, -2, -21, -5, -53, 47, -21, 1, -3, -1, 7, 83, 7, 84, -7, 80, -37, 69, 2, -4, 5, 2, 4, -20, -30, 7, 71, 44, -81], "withholdReward": false, "trial_id": "mdp_trial_33", "block": "test", "trialIndex": 36, "score": 52.8, "costs": -17.2, "simulationMode": [null, null, null, null, null], "rewards": [1, -3, -1, -7, 80], "path": ["0", "0", "12", "13", "14", "19", "20"], "rt": [34495, 195, 319, 113, 194], "actions": ["right", "right", "right", "down", "right"], "actionTimes": [37129, 37851, 38675, 39286, 40001], "queries": {"click": {"state": {"target": ["5", "9", "27", "29", "33", "32", "21", "20"], "time": [4371, 8196, 12235, 16000, 20143, 24113, 28210, 32260]}, "edge": {"target": [], "time": []}}, "mouseover": {"state": {"target": ["1", "2", "5", "9", "27", "27", "29", "33", "33", "32", "21", "20", "20"], "time": [3331, 3381, 4014, 7784, 11501, 11829, 15480, 19206, 19797, 23543, 27316, 31580, 31864]}, "edge": {"target": [], "time": []}}, "mouseout": {"state": {"target": ["28", "26", "1", "2", "5", "9", "27", "27", "29", "33", "33", "32", "21", "20", "20"], "time": [112, 538, 3349, 3671, 7697, 11422, 11631, 15312, 19162, 19281, 23473, 25699, 31560, 31814, 33631]}, "edge": {"target": [], "time": []}}}, "displayed_time": "40.52", "trialTime": 41885, "trial_type": "mouselab-mdp", "trial_index": 47, "time_elapsed": 2950460, "internal_node_id": "0.0-6.0-1.0-32.0"}}, {"uniqueid": "w29689221:a49356215", "current_trial": 48, "dateTime": 1693567604209, "trialdata": {"revealed_states": [], "clicked_states": ["5", "9", "17", "16"], "num_clicks_accrued": [0, 0, 0, 0, 0, 0, 0, 0, 0, 0, 0, 0, 0], "stateRewards": ["", 2, 4, 4, 9, -88, -10, 44, 16, -54, 64, 78, 1, 2, 5, 16, 80, 36, 7, -4, 9, -47, -70, -1, -3, 6, -16, 11, 80, 28, 8, -1, 34, -17], "withholdReward": false, "trial_id": "mdp_trial_34", "block": "test", "trialIndex": 37, "score": 95.4, "costs": -8.6, "simulationMode": [null, null, null, null, null], "rewards": [1, 2, 5, 16, 80], "path": ["0", "0", "12", "13", "14", "15", "16"], "rt": [19716, 79, 222, 686, 761], "actions": ["right", "right", "right", "up", "up"], "actionTimes": [23405, 24002, 24727, 25952, 27218], "queries": {"click": {"state": {"target": ["5", "9", "17", "16"], "time": [6688, 10062, 14603, 18766]}, "edge": {"target": [], "time": []}}, "mouseover": {"state": {"target": ["1", "5", "9", "17", "16", "20", "13", "12"], "time": [5836, 6216, 8277, 14064, 18534, 20329, 22617, 22950]}, "edge": {"target": [], "time": []}}, "mouseout": {"state": {"target": ["0", "1", "5", "9", "17", "16", "20", "13"], "time": [2094, 5868, 6893, 13479, 18525, 19554, 22521, 22684]}, "edge": {"target": [], "time": []}}}, "displayed_time": "27.72", "trialTime": 34275, "trial_type": "mouselab-mdp", "trial_index": 48, "time_elapsed": 2985937, "internal_node_id": "0.0-6.0-1.0-33.0"}}, {"uniqueid": "w29689221:a49356215", "current_trial": 49, "dateTime": 1693567631092, "trialdata": {"revealed_states": [], "clicked_states": [], "num_clicks_accrued": [0, 0, 0, 0, 0, 0, 0, 0, 0, 0, 0, 0, 0], "stateRewards": ["", 2, -1, 5, 6, 10, 86, 55, 10, -45, 63, -71, 1, -2, 5, -8, -50, -72, 36, 15, 61, 12, 33, -1, -4, 6, 5, 79, -56, -21, -16, -87, 60, -81], "withholdReward": false, "trial_id": "mdp_trial_35", "block": "test", "trialIndex": 38, "score": -15, "costs": 0, "simulationMode": [null, null, null, null, null], "rewards": [-1, -4, 6, 5, -21], "path": ["0", "0", "23", "24", "25", "26", "29"], "rt": [10090, 173, 177, 192, 441], "actions": ["left", "left", "left", "up", "left"], "actionTimes": [12058, 12744, 13447, 14146, 15112], "queries": {"click": {"state": {"target": [], "time": []}, "edge": {"target": [], "time": []}}, "mouseover": {"state": {"target": ["16", "18", "0"], "time": [4901, 10170, 10648]}, "edge": {"target": [], "time": []}}, "mouseout": {"state": {"target": ["12", "0", "16", "18"], "time": [645, 2938, 10112, 10215]}, "edge": {"target": [], "time": []}}}, "displayed_time": "15.97", "trialTime": 25577, "trial_type": "mouselab-mdp", "trial_index": 49, "time_elapsed": 3012820, "internal_node_id": "0.0-6.0-1.0-34.0"}}, {"uniqueid": "w29689221:a49356215", "current_trial": 50, "dateTime": 1693567670083, "trialdata": {"revealed_states": [], "clicked_states": ["17", "16", "5", "29", "33", "32"], "num_clicks_accrued": [0, 0, 0, 0, 0, 0, 0, 0, 0, 0, 0, 0, 0], "stateRewards": ["", 2, -2, -3, 10, -4, -1, -11, -8, -9, -36, -78, 2, 1, 7, -7, 44, -1, -31, -1, 26, 47, 83, 2, -4, -4, -6, -52, -76, -81, -1, -59, 45, 67], "withholdReward": false, "trial_id": "mdp_trial_36", "block": "test", "trialIndex": 39, "score": 47.1, "costs": -12.9, "simulationMode": [null, null, null, null, null], "rewards": [2, -4, -4, -1, 67], "path": ["0", "0", "23", "24", "25", "30", "33"], "rt": [27679, 216, 202, 154, 409], "actions": ["left", "left", "left", "down", "left"], "actionTimes": [31873, 32606, 33307, 33959, 34865], "queries": {"click": {"state": {"target": ["17", "16", "5", "29", "33", "32"], "time": [6819, 10509, 14611, 18077, 22309, 28085]}, "edge": {"target": [], "time": []}}, "mouseover": {"state": {"target": ["12", "13", "17", "16", "6", "5", "6", "10", "27", "29", "33", "32"], "time": [5269, 5309, 6033, 9802, 13501, 14202, 16086, 16831, 16883, 17418, 21752, 27184]}, "edge": {"target": [], "time": []}}, "mouseout": {"state": {"target": ["0", "0", "12", "13", "17", "16", "6", "5", "6", "10", "27", "29", "33"], "time": [2544, 5201, 5289, 5334, 7018, 13417, 13785, 16042, 16168, 16856, 16908, 21654, 27124]}, "edge": {"target": [], "time": []}}}, "displayed_time": "35.37", "trialTime": 37422, "trial_type": "mouselab-mdp", "trial_index": 50, "time_elapsed": 3051810, "internal_node_id": "0.0-6.0-1.0-35.0"}}, {"uniqueid": "w29689221:a49356215", "current_trial": 51, "dateTime": 1693567705836, "trialdata": {"revealed_states": [], "clicked_states": ["5", "9", "29", "27", "32", "33"], "num_clicks_accrued": [0, 0, 0, 0, 0, 0, 0, 0, 0, 0, 0, 0, 0], "stateRewards": ["", -2, 1, -3, -16, -39, -52, 30, -7, -41, -59, 11, 2, 1, 8, 2, -11, -26, -42, -13, 87, -59, -48, -1, -1, -1, 16, -79, 31, 50, -1, -84, 34, -82], "withholdReward": false, "trial_id": "mdp_trial_37", "block": "test", "trialIndex": 40, "score": 50.1, "costs": -12.9, "simulationMode": [null, null, null, null, null], "rewards": [-1, -1, -1, 16, 50], "path": ["0", "0", "23", "24", "25", "26", "29"], "rt": [24774, 186, 272, 664, 284], "actions": ["left", "left", "left", "up", "left"], "actionTimes": [28046, 28741, 29521, 30716, 31501], "queries": {"click": {"state": {"target": ["5", "9", "29", "27", "32", "33"], "time": [4683, 8440, 12461, 16451, 19825, 23694]}, "edge": {"target": [], "time": []}}, "mouseover": {"state": {"target": ["1", "2", "3", "5", "9", "11", "26", "29", "27", "26", "32", "33"], "time": [3833, 3889, 3952, 4296, 8082, 10672, 11616, 12030, 15490, 17327, 17771, 23228]}, "edge": {"target": [], "time": []}}, "mouseout": {"state": {"target": ["32", "0", "1", "2", "3", "5", "9", "11", "26", "29", "27", "26", "32", "33", "30"], "time": [1078, 3822, 3877, 3938, 3982, 7398, 10309, 11583, 11636, 13699, 17302, 17355, 23194, 27321, 33365]}, "edge": {"target": [], "time": []}}}, "displayed_time": "32.02", "trialTime": 34407, "trial_type": "mouselab-mdp", "trial_index": 51, "time_elapsed": 3087564, "internal_node_id": "0.0-6.0-1.0-36.0"}}, {"uniqueid": "w29689221:a49356215", "current_trial": 52, "dateTime": 1693567729030, "trialdata": {"revealed_states": [], "clicked_states": ["20"], "num_clicks_accrued": [0, 0, 0, 0, 0, 0, 0, 0, 0, 0, 0, 0, 0], "stateRewards": ["", 1, -3, -4, -11, -56, 61, -47, -16, -28, -9, 69, -2, -3, -4, -8, 40, -86, 59, -4, 80, 27, 54, -1, 3, -1, 8, 67, 23, 50, 6, 83, -43, -29], "withholdReward": false, "trial_id": "mdp_trial_38", "block": "test", "trialIndex": 41, "score": 64.85, "costs": -2.15, "simulationMode": [null, null, null, null, null], "rewards": [-2, -3, -4, -4, 80], "path": ["0", "0", "12", "13", "14", "19", "20"], "rt": [7451, 265, 213, 384, 239], "actions": ["right", "right", "right", "down", "right"], "actionTimes": [11568, 12336, 13067, 13956, 14695], "queries": {"click": {"state": {"target": ["20"], "time": [5340]}, "edge": {"target": [], "time": []}}, "mouseover": {"state": {"target": ["19", "20"], "time": [4145, 4914]}, "edge": {"target": [], "time": []}}, "mouseout": {"state": {"target": ["0", "19", "20"], "time": [4140, 4550, 8910]}, "edge": {"target": [], "time": []}}}, "displayed_time": "18.12", "trialTime": 21939, "trial_type": "mouselab-mdp", "trial_index": 52, "time_elapsed": 3110758, "internal_node_id": "0.0-6.0-1.0-37.0"}}, {"uniqueid": "w29689221:a49356215", "current_trial": 53, "dateTime": 1693567749484, "trialdata": {"revealed_states": [], "clicked_states": ["20", "17"], "num_clicks_accrued": [0, 0, 0, 0, 0, 0, 0, 0, 0, 0, 0, 0, 0], "stateRewards": ["", -1, -2, 8, -6, -79, -6, 87, 9, -5, -66, -38, 2, 2, 5, -6, -82, 74, 85, -8, 67, -30, -15, 1, -2, -2, -2, 87, 64, 49, 7, 2, -38, -9], "withholdReward": false, "trial_id": "mdp_trial_39", "block": "test", "trialIndex": 42, "score": 72.7, "costs": -4.3, "simulationMode": [null, null, null, null, null], "rewards": [2, 2, 5, -6, 74], "path": ["0", "0", "12", "13", "14", "15", "17"], "rt": [11397, 244, 260, 404, 147], "actions": ["right", "right", "right", "up", "right"], "actionTimes": [13957, 14728, 15509, 16420, 17064], "queries": {"click": {"state": {"target": ["20", "17"], "time": [4629, 10062]}, "edge": {"target": [], "time": []}}, "mouseover": {"state": {"target": ["19", "20", "17"], "time": [3827, 4245, 9545]}, "edge": {"target": [], "time": []}}, "mouseout": {"state": {"target": ["22", "0", "19", "20"], "time": [1004, 3786, 3860, 9438]}, "edge": {"target": [], "time": []}}}, "displayed_time": "17.57", "trialTime": 19224, "trial_type": "mouselab-mdp", "trial_index": 53, "time_elapsed": 3131213, "internal_node_id": "0.0-6.0-1.0-38.0"}}, {"uniqueid": "w29689221:a49356215", "current_trial": 54, "dateTime": 1693567769819, "trialdata": {"revealed_states": [], "clicked_states": ["33"], "num_clicks_accrued": [0, 0, 0, 0, 0, 0, 0, 0, 0, 0, 0, 0, 0], "stateRewards": ["", -2, -4, 6, 14, -34, 49, 36, -8, -3, 32, -4, 1, -2, 1, -8, -20, -71, -57, -7, -86, -62, -16, -2, -3, -5, 11, 23, -21, 53, 5, -5, 85, 73], "withholdReward": false, "trial_id": "mdp_trial_40", "block": "test", "trialIndex": 43, "score": 65.85, "costs": -2.15, "simulationMode": [null, null, null, null, null], "rewards": [-2, -3, -5, 5, 73], "path": ["0", "0", "23", "24", "25", "30", "33"], "rt": [7675, 80, 460, 27, 592], "actions": ["left", "left", "left", "down", "left"], "actionTimes": [10100, 10700, 11679, 12230, 13329], "queries": {"click": {"state": {"target": ["33"], "time": [3996]}, "edge": {"target": [], "time": []}}, "mouseover": {"state": {"target": ["24", "25", "33"], "time": [3132, 3197, 3539]}, "edge": {"target": [], "time": []}}, "mouseout": {"state": {"target": ["0", "24", "25"], "time": [3099, 3165, 3480]}, "edge": {"target": [], "time": []}}}, "displayed_time": "16.43", "trialTime": 18176, "trial_type": "mouselab-mdp", "trial_index": 54, "time_elapsed": 3151548, "internal_node_id": "0.0-6.0-1.0-39.0"}}, {"uniqueid": "w29689221:a49356215", "current_trial": 55, "dateTime": 1693567861341, "trialdata": {"rt": 90691, "response": {"Q0": "$-2 to $2", "Q1": "$-4 to $4", "Q2": "$-88 to $88", "Q3": "The cost for clicking on nodes varied between nodes.", "Q4": "Neither motivated nor unmotivated"}, "question_order": [0, 1, 2, 3, 4], "trial_id": "final_quiz_control", "trial_type": "survey-multi-choice", "trial_index": 55, "time_elapsed": 3243056, "internal_node_id": "0.0-6.0-2.0"}}, {"uniqueid": "w29689221:a49356215", "current_trial": 56, "dateTime": 1693568098048, "trialdata": {"rt": 236142, "response": {"Q0": "I clicked on the last step and if it was more than 65 I moved the spider to that node.", "Q1": "no, my strategy caused a great amount of deduction.", "Q2": "it was not difficult."}, "trial_id": "self_report_control", "trial_type": "survey-text", "trial_index": 56, "time_elapsed": 3479778, "internal_node_id": "0.0-6.0-3.0"}}, {"uniqueid": "w29689221:a49356215", "current_trial": 57, "dateTime": 1693568173149, "trialdata": {"rt": 75073, "response": {"Q0": "Disagree", "Q1": "Neither disagree nor agree", "Q2": "Neither disagree nor agree", "Q3": "Agree", "Q4": "Agree", "Q5": "Agree", "Q6": "Neither disagree nor agree"}, "question_order": [0, 1, 2, 3, 4, 5, 6], "trial_id": "self_report_2", "trial_type": "survey-multi-choice", "trial_index": 57, "time_elapsed": 3554878, "internal_node_id": "0.0-6.0-4.0"}}, {"uniqueid": "w29689221:a49356215", "current_trial": 58, "dateTime": 1693568213635, "trialdata": {"rt": 40233, "response": {"gender": "female", "age": "23", "colorblind": "0", "effort": "2"}, "trial_type": "survey-html-form", "trial_index": 58, "time_elapsed": 3595364, "internal_node_id": "0.0-6.0-5.0"}}, {"uniqueid": "w29689221:a49356215", "current_trial": 59, "dateTime": 1693568254429, "trialdata": {"rt": 40744, "response": {"Q0": "nono", "Q1": "no", "Q2": "no comments"}, "trial_type": "survey-text", "trial_index": 59, "time_elapsed": 3636159, "internal_node_id": "0.0-6.0-6.0"}}, {"uniqueid": "w29689221:a49356215", "current_trial": 60, "dateTime": 1693568289004, "trialdata": {"rt": 34510, "stimulus": "<h1>Completion Code Instructions (1/2)</h1>\n<br><br><br><br>\nYou have reached the end of the experiment! The completion code consists of two parts: (1) a code with 2 characters (2) a code with 6 characters. On this page, you will receive the second part of the code. The first part of the completion code will be on the next page.\n<br><br>\nThe second part of your completion code is: <b>EWEK22</b>\n<br><br>\nPlease note this down. Then, press 'Finish HIT' in order to find the first part of your completion code. Once the data has been saved, you will receive this code either in this window or in the original browser window where you started the experiment.\n", "response": 0, "trial_type": "html-button-response", "trial_index": 60, "time_elapsed": 3670733, "internal_node_id": "0.0-6.0-7.0"}}, {"uniqueid": "w29689221:a49356215", "current_trial": 61, "dateTime": 1693568290102, "trialdata": {"success": true, "trial_type": "fullscreen", "trial_index": 61, "time_elapsed": 3671831, "internal_node_id": "0.0-7.0"}}], "questiondata": {"params": {"CODE": "C6DMOQA6", "MIN_TIME": 14, "inspectCost": 1, "startTime": "Fri Sep 01 2023 12:36:55 GMT+0200 (South Africa Standard Time)", "bonusRate": 0.002, "variance": "1_2_4_8_44", "branching": "31123"}, "final_score": 1861.55}, "eventdata": [{"eventtype": "initialized", "value": null, "timestamp": 1693564614613, "interval": 0}, {"eventtype": "window_resize", "value": [1024, 646], "timestamp": 1693564614613, "interval": 0}, {"eventtype": "window_resize", "value": [1024, 646], "timestamp": 1693564615185, "interval": 572}, {"eventtype": "window_resize", "value": [1366, 768], "timestamp": 1693564645739, "interval": 30554}, {"eventtype": "focus", "value": "off", "timestamp": 1693565362250, "interval": 716511}, {"eventtype": "focus", "value": "on", "timestamp": 1693565362251, "interval": 1}, {"eventtype": "window_resize", "value": [1024, 646], "timestamp": 1693565362493, "interval": 242}, {"eventtype": "window_resize", "value": [1366, 768], "timestamp": 1693565365085, "interval": 2592}], "useragent": "Mozilla/5.0 (Windows NT 10.0; Win64; x64) AppleWebKit/537.36 (KHTML, like Gecko) Chrome/116.0.0.0 Safari/537.36", "mode": "live", "id": "w29689221:a49356215", "status": "user data saved", "Beginhit": "2023-09-01 10:36:52.658718", "Beginexp": "2023-09-01 10:37:32.733685", "Endhit": "2023-09-01 11:38:19.494477", "psiturkStatus": 3, "browser": "<redacted>", "platform": "windows", "language": "en-GB", "excludeReason": "noeffort"}