{"condition": 0, "counterbalance": 0, "assignmentId": "a61944270", "workerId": "w70160301", "hitId": "h10216426", "currenttrial": 55, "bonus": 0, "data": [{"uniqueid": "w70160301:a61944270", "current_trial": 0, "dateTime": 1691159386729, "trialdata": {"success": true, "trial_type": "fullscreen", "trial_index": 0, "time_elapsed": 7723, "internal_node_id": "0.0-0.0"}}, {"uniqueid": "w70160301:a61944270", "current_trial": 1, "dateTime": 1691159427219, "trialdata": {"view_history": [{"page_index": 0, "viewing_time": 40487}], "rt": 40488, "trial_id": "exp_instructions_control", "trial_type": "instructions", "trial_index": 1, "time_elapsed": 48214, "internal_node_id": "0.0-1.0"}}, {"uniqueid": "w70160301:a61944270", "current_trial": 2, "dateTime": 1691159433078, "trialdata": {"success": true, "trial_type": "fullscreen", "trial_index": 2, "time_elapsed": 54073, "internal_node_id": "0.0-2.0-0.0"}}, {"uniqueid": "w70160301:a61944270", "current_trial": 3, "dateTime": 1691159802912, "trialdata": {"view_history": [{"page_index": 0, "viewing_time": 120132}, {"page_index": 1, "viewing_time": 143862}, {"page_index": 2, "viewing_time": 34484}, {"page_index": 3, "viewing_time": 71355}], "rt": 369833, "trial_id": "mouselab_instructions_1_control", "trial_type": "instructions", "trial_index": 3, "time_elapsed": 423907, "internal_node_id": "0.0-2.0-1.0"}}, {"uniqueid": "w70160301:a61944270", "current_trial": 4, "dateTime": 1691159823706, "trialdata": {"revealed_states": [], "clicked_states": [], "num_clicks_accrued": [0, 0, 0, 0, 0, 0, 0, 0, 0, 0, 0, 0, 0], "stateRewards": ["", -10, -10, -10, 10, 10, -10, 10, 10, 10, 10, 10, -10, -10, 10, -10, 10, -10, -10, 10, -10, 10, 10, -10, 10, -10, 10, -10, 10, 10, -10, -10, -10, 10], "withholdReward": false, "trial_id": "practice_1", "block": "test", "trialIndex": 0, "score": -6.5, "costs": 0, "simulationMode": [null, null, null, null, null], "rewards": [-10, -10, -10, 10, 10], "path": ["0", "0", "1", "2", "3", "8", "9"], "rt": [4085, 2938, 1956, 660, 457], "actions": ["up", "up", "up", "left", "up"], "actionTimes": [7664, 11112, 13573, 14743, 15706], "queries": {"click": {"state": {"target": [], "time": []}, "edge": {"target": [], "time": []}}, "mouseover": {"state": {"target": [], "time": []}, "edge": {"target": [], "time": []}}, "mouseout": {"state": {"target": ["12", "19", "19", "19", "22", "0"], "time": [102, 553, 1352, 2102, 2144, 4040]}, "edge": {"target": [], "time": []}}}, "displayed_time": "16.21", "trialTime": 19547, "trial_type": "mouselab-mdp", "trial_index": 4, "time_elapsed": 444700, "internal_node_id": "0.0-2.0-2.0-0.0"}}, {"uniqueid": "w70160301:a61944270", "current_trial": 5, "dateTime": 1691159845903, "trialdata": {"revealed_states": [], "clicked_states": ["23", "2", "7", "3", "6"], "num_clicks_accrued": [0, 0, 0, 0, 0, 0, 0, 0, 0, 0, 0, 0, 0], "stateRewards": ["", 10, 10, 10, -10, 10, 10, 10, -10, -10, -10, -10, -10, -10, 10, 10, 10, -10, -10, -10, -10, -10, -10, 10, -10, -10, 10, -10, -10, -10, 10, 10, -10, -10], "withholdReward": false, "trial_id": "practice_2", "block": "test", "trialIndex": 1, "score": 31, "costs": -2.5, "simulationMode": [null, null, null, null, null], "rewards": [10, 10, 10, -10, 10], "path": ["0", "0", "1", "2", "3", "4", "6"], "rt": [12578, 187, 134, 647, 252], "actions": ["up", "up", "up", "right", "right"], "actionTimes": [15603, 16299, 16942, 18100, 18858], "queries": {"click": {"state": {"target": ["23", "2", "7", "3", "6"], "time": [3819, 5434, 6922, 9922, 12484]}, "edge": {"target": [], "time": []}}, "mouseover": {"state": {"target": ["23", "1", "2", "7", "7", "1", "1", "3", "4", "6", "4", "16", "17"], "time": [3632, 4375, 5020, 5972, 6180, 7542, 9048, 9562, 10514, 12027, 14006, 14478, 14527]}, "edge": {"target": [], "time": []}}, "mouseout": {"state": {"target": ["23", "24", "24", "23", "0", "23", "1", "2", "7", "7", "1", "1", "2", "3", "4", "6", "4", "6", "16", "17"], "time": [1562, 1582, 1839, 1888, 3270, 3993, 4847, 5937, 6000, 7348, 8847, 9208, 9346, 10430, 11291, 13840, 14374, 14423, 14492, 14541]}, "edge": {"target": [], "time": []}}}, "displayed_time": "19.36", "trialTime": 22010, "trial_type": "mouselab-mdp", "trial_index": 5, "time_elapsed": 466898, "internal_node_id": "0.0-2.0-2.0-1.0"}}, {"uniqueid": "w70160301:a61944270", "current_trial": 6, "dateTime": 1691159926370, "trialdata": {"view_history": [{"page_index": 0, "viewing_time": 52393}, {"page_index": 1, "viewing_time": 28072}], "rt": 80465, "trial_id": "mouselab_instructions_2_control", "trial_type": "instructions", "trial_index": 6, "time_elapsed": 547365, "internal_node_id": "0.0-2.0-3.0"}}, {"uniqueid": "w70160301:a61944270", "current_trial": 7, "dateTime": 1691159981754, "trialdata": {"rt": 55380, "response": {"Q0": "The cost for clicking on nodes may vary between nodes.", "Q1": "The better I perform the higher my bonus will be.", "Q2": "No, the amount of cash at each node of the web may be different each time.", "Q3": "To get the highest total score.", "Q4": "Only before moving the spider.", "Q5": "3 seconds"}, "question_order": [0, 1, 2, 3, 4, 5], "correct": {"Q0": "The cost for clicking on nodes may vary between nodes.", "Q1": "The better I perform the higher my bonus will be.", "Q2": "No, the amount of cash at each node of the web may be different each time.", "Q3": "To get the highest total score.", "Q4": "Only before moving the spider.", "Q5": "3 seconds"}, "trial_id": "mouselab_quiz_control", "trial_type": "survey-multi-choice", "trial_index": 7, "time_elapsed": 602749, "internal_node_id": "0.0-2.0-4.0"}}, {"uniqueid": "w70160301:a61944270", "current_trial": 8, "dateTime": 1691160006494, "trialdata": {"rt": 24734, "stimulus": "\n<h1> Get ready to start the game! </h1>\n\nThank you for reading the instructions. Get ready start with the 40 rounds of this game.\n<br><br>\nIf you need to take a break, feel free to take one after the end of a round, before continuing to the next one.\n<br><br>\nRemember, the more money the spider gets, the bigger your bonus will be!\n<br><br>\n<div style='text-align: center;'>Press <code>space</code> to begin.</div>\n\n<br><br>\n(If, at any point, the <code>space</code> key does not take you to the next page, click once on the text and try again.)", "response": " ", "trial_id": "mdp_ready", "trial_type": "html-keyboard-response", "trial_index": 8, "time_elapsed": 627489, "internal_node_id": "0.0-4.0-0.0"}}, {"uniqueid": "w70160301:a61944270", "current_trial": 9, "dateTime": 1691160028841, "trialdata": {"revealed_states": [], "clicked_states": ["1", "2", "3", "4", "5"], "num_clicks_accrued": [0, 0, 0, 0, 0, 0, 0, 0, 0, 0, 0, 0, 0], "stateRewards": ["", 1, -4, -6, -1, -21, 17, -72, 10, 77, 67, -46, -1, 4, -2, 14, -66, -49, -45, -15, -52, 23, -67, 2, -2, -2, 15, -3, 45, -64, 5, -44, 83, 61], "withholdReward": false, "trial_id": "mdp_trial_1", "block": "test", "trialIndex": 2, "score": -58, "costs": -7, "simulationMode": [null, null, null, null, null], "rewards": [2, -2, -2, 15, -64], "path": ["0", "0", "23", "24", "25", "26", "29"], "rt": [15484, 414, 355, 97, 144], "actions": ["left", "left", "left", "up", "left"], "actionTimes": [16406, 17327, 18192, 18796, 19446], "queries": {"click": {"state": {"target": ["1", "2", "3", "4", "5"], "time": [1810, 3767, 5801, 7635, 11161]}, "edge": {"target": [], "time": []}}, "mouseover": {"state": {"target": ["1", "2", "7", "2", "7", "3", "4", "7", "4", "6", "3", "3", "5", "4", "2", "1", "0", "1"], "time": [1406, 2163, 2732, 3461, 4094, 4865, 6086, 6711, 7198, 9122, 10455, 10766, 11002, 12912, 14134, 14176, 14815, 15870]}, "edge": {"target": [], "time": []}}, "mouseout": {"state": {"target": ["0", "1", "2", "7", "2", "7", "3", "4", "7", "4", "6", "4", "3", "3", "5", "4", "2", "1", "0"], "time": [1239, 1996, 2621, 3059, 4066, 4378, 6052, 6572, 6850, 8871, 10398, 10447, 10482, 10815, 11892, 14037, 14142, 14218, 15301]}, "edge": {"target": [], "time": []}}}, "displayed_time": "19.95", "trialTime": 22151, "trial_type": "mouselab-mdp", "trial_index": 9, "time_elapsed": 649835, "internal_node_id": "0.0-4.0-1.0-0.0"}}, {"uniqueid": "w70160301:a61944270", "current_trial": 10, "dateTime": 1691160045832, "trialdata": {"revealed_states": [], "clicked_states": ["12", "13", "14", "21"], "num_clicks_accrued": [0, 0, 0, 0, 0, 0, 0, 0, 0, 0, 0, 0, 0], "stateRewards": ["", 1, -1, 1, 13, 31, -56, 72, 2, 41, 5, 63, -2, -3, -2, 3, -71, -26, 52, 13, -31, 24, -67, 2, -2, 5, 4, 66, 43, 72, 9, 86, -26, 44], "withholdReward": false, "trial_id": "mdp_trial_2", "block": "test", "trialIndex": 3, "score": 2.4000000000000004, "costs": -5.6, "simulationMode": [null, null, null, null, null], "rewards": [1, -1, 1, 2, 5], "path": ["0", "0", "1", "2", "3", "8", "10"], "rt": [8740, 234, 467, 127, 125], "actions": ["up", "up", "up", "left", "down"], "actionTimes": [9724, 10465, 11439, 12073, 12716], "queries": {"click": {"state": {"target": ["12", "13", "14", "21"], "time": [1706, 3278, 5064, 7913]}, "edge": {"target": [], "time": []}}, "mouseover": {"state": {"target": ["0", "12", "13", "22", "13", "14", "14", "19", "21"], "time": [1021, 1534, 1890, 2396, 2639, 3570, 3784, 5459, 7612]}, "edge": {"target": [], "time": []}}, "mouseout": {"state": {"target": ["1", "0", "12", "13", "22", "13", "14", "14", "19", "21"], "time": [353, 1090, 1841, 2347, 2528, 3549, 3593, 5375, 7277, 8465]}, "edge": {"target": [], "time": []}}}, "displayed_time": "14.99", "trialTime": 16820, "trial_type": "mouselab-mdp", "trial_index": 10, "time_elapsed": 666827, "internal_node_id": "0.0-4.0-1.0-1.0"}}, {"uniqueid": "w70160301:a61944270", "current_trial": 11, "dateTime": 1691160066079, "trialdata": {"revealed_states": [], "clicked_states": [], "num_clicks_accrued": [0, 0, 0, 0, 0, 0, 0, 0, 0, 0, 0, 0, 0], "stateRewards": ["", -2, 2, 5, -14, -56, 64, 84, -5, 52, 39, 85, -2, 1, 7, 8, 21, 29, -78, -9, -10, -69, 10, -2, -1, -7, 15, 72, 20, 41, -2, 52, 80, 22], "withholdReward": false, "trial_id": "mdp_trial_3", "block": "test", "trialIndex": 4, "score": -65, "costs": 0, "simulationMode": [null, null, null, null, null], "rewards": [-2, 2, 5, -14, -56], "path": ["0", "0", "1", "2", "3", "4", "5"], "rt": [1103, 318, 422, 122, 121], "actions": ["up", "up", "up", "right", "up"], "actionTimes": [4248, 5072, 6002, 6633, 7263], "queries": {"click": {"state": {"target": [], "time": []}, "edge": {"target": [], "time": []}}, "mouseover": {"state": {"target": ["22", "19"], "time": [3279, 3356]}, "edge": {"target": [], "time": []}}, "mouseout": {"state": {"target": ["14", "23", "24", "30", "31", "0", "22"], "time": [2307, 2348, 2356, 2487, 2544, 3217, 3321]}, "edge": {"target": [], "time": []}}}, "displayed_time": "17.15", "trialTime": 20069, "trial_type": "mouselab-mdp", "trial_index": 11, "time_elapsed": 687073, "internal_node_id": "0.0-4.0-1.0-2.0"}}, {"uniqueid": "w70160301:a61944270", "current_trial": 12, "dateTime": 1691160093055, "trialdata": {"revealed_states": [], "clicked_states": ["23", "12", "1", "18", "2", "3", "8", "9", "10"], "num_clicks_accrued": [0, 0, 0, 0, 0, 0, 0, 0, 0, 0, 0, 0, 0], "stateRewards": ["", 1, 2, -3, 6, -88, 74, -45, 7, -46, 40, -77, 1, -4, 4, 3, 22, -25, -59, 8, -83, 19, -60, -1, -1, -1, -8, 26, -29, 64, -7, -88, -51, -55], "withholdReward": false, "trial_id": "mdp_trial_4", "block": "test", "trialIndex": 5, "score": 34.4, "costs": -12.600000000000001, "simulationMode": [null, null, null, null, null], "rewards": [1, 2, -3, 7, 40], "path": ["0", "0", "1", "2", "3", "8", "10"], "rt": [20655, 99, 75, 71, 126], "actions": ["up", "up", "up", "left", "down"], "actionTimes": [21906, 22515, 23095, 23673, 24306], "queries": {"click": {"state": {"target": ["23", "12", "1", "18", "2", "3", "8", "9", "10"], "time": [2308, 4665, 6500, 8317, 10071, 12047, 14131, 16092, 18474]}, "edge": {"target": [], "time": []}}, "mouseover": {"state": {"target": ["1", "23", "12", "22", "13", "1", "1", "13", "18", "13", "13", "2", "3", "8", "9", "10", "10", "11", "8", "3", "4", "6"], "time": [1727, 1977, 3146, 5387, 5672, 5984, 6268, 7158, 7430, 8727, 9158, 9536, 11879, 13588, 15893, 18067, 18254, 19437, 20810, 20830, 20852, 20868]}, "edge": {"target": [], "time": []}}, "mouseout": {"state": {"target": ["19", "22", "0", "0", "1", "23", "23", "12", "22", "13", "1", "1", "1", "13", "18", "13", "13", "2", "3", "8", "9", "8", "10", "10", "11", "8", "3", "4", "6"], "time": [282, 324, 727, 1651, 1901, 2413, 2776, 5126, 5394, 5894, 6033, 6505, 6908, 7338, 8667, 8783, 9193, 10574, 13164, 15640, 17991, 18046, 18081, 19166, 20768, 20824, 20844, 20859, 20873]}, "edge": {"target": [], "time": []}}}, "displayed_time": "24.81", "trialTime": 26772, "trial_type": "mouselab-mdp", "trial_index": 12, "time_elapsed": 714050, "internal_node_id": "0.0-4.0-1.0-3.0"}}, {"uniqueid": "w70160301:a61944270", "current_trial": 13, "dateTime": 1691160114618, "trialdata": {"revealed_states": [], "clicked_states": ["12", "23", "1", "32", "9", "5", "7"], "num_clicks_accrued": [0, 0, 0, 0, 0, 0, 0, 0, 0, 0, 0, 0, 0], "stateRewards": ["", -2, 3, -1, 2, -72, 63, 20, -1, 62, -66, 39, -2, 3, -6, 14, 22, 47, 1, 8, -49, -1, -41, 2, 2, -6, -16, -64, -60, -34, 16, 54, 22, -7], "withholdReward": false, "trial_id": "mdp_trial_5", "block": "test", "trialIndex": 6, "score": 51.2, "costs": -9.8, "simulationMode": [null, null, null, null, null], "rewards": [-2, 3, -1, -1, 62], "path": ["0", "0", "1", "2", "3", "8", "9"], "rt": [15119, 88, 56, 71, 101], "actions": ["up", "up", "up", "left", "up"], "actionTimes": [16635, 17231, 17796, 18374, 18980], "queries": {"click": {"state": {"target": ["12", "23", "1", "32", "9", "5", "7"], "time": [2479, 4155, 5925, 8034, 9784, 11837, 13673]}, "edge": {"target": [], "time": []}}, "mouseover": {"state": {"target": ["0", "12", "0", "23", "1", "31", "32", "31", "10", "8", "9", "9", "5", "7", "16"], "time": [1642, 1864, 3149, 3198, 4767, 7530, 7690, 8616, 8718, 8753, 8830, 9371, 11558, 13163, 15878]}, "edge": {"target": [], "time": []}}, "mouseout": {"state": {"target": ["22", "12", "0", "0", "12", "0", "23", "1", "23", "31", "32", "31", "10", "8", "9", "9", "5", "5", "7", "7", "16", "17", "20"], "time": [954, 1176, 1225, 1683, 2955, 3184, 4596, 7323, 7420, 7552, 8560, 8636, 8739, 8791, 8934, 11350, 11842, 12642, 14385, 15635, 15892, 20384, 20433]}, "edge": {"target": [], "time": []}}}, "displayed_time": "19.49", "trialTime": 21348, "trial_type": "mouselab-mdp", "trial_index": 13, "time_elapsed": 735612, "internal_node_id": "0.0-4.0-1.0-4.0"}}, {"uniqueid": "w70160301:a61944270", "current_trial": 14, "dateTime": 1691160131977, "trialdata": {"revealed_states": [], "clicked_states": ["32", "21", "20", "17", "16"], "num_clicks_accrued": [0, 0, 0, 0, 0, 0, 0, 0, 0, 0, 0, 0, 0], "stateRewards": ["", 1, 3, 1, -13, 52, -28, 67, -14, 3, 63, -70, -1, -4, 7, -11, -10, 47, -18, 6, 69, -9, -61, 2, 3, -6, 10, 63, -34, 40, -6, -79, -35, -32], "withholdReward": false, "trial_id": "mdp_trial_6", "block": "test", "trialIndex": 7, "score": 70, "costs": -7, "simulationMode": [null, null, null, null, null], "rewards": [-1, -4, 7, 6, 69], "path": ["0", "0", "12", "13", "14", "19", "20"], "rt": [10773, 115, 86, 73, 78], "actions": ["right", "right", "right", "down", "right"], "actionTimes": [12153, 12773, 13371, 13954, 14542], "queries": {"click": {"state": {"target": ["32", "21", "20", "17", "16"], "time": [2199, 3786, 5608, 7340, 9291]}, "edge": {"target": [], "time": []}}, "mouseover": {"state": {"target": ["31", "32", "21", "19", "20", "17", "16"], "time": [1740, 1886, 2956, 4886, 5060, 6227, 8394]}, "edge": {"target": [], "time": []}}, "mouseout": {"state": {"target": ["0", "31", "32", "32", "21", "19", "20", "17", "16"], "time": [1615, 1775, 2313, 2463, 4442, 5046, 5976, 8102, 11233]}, "edge": {"target": [], "time": []}}}, "displayed_time": "15.38", "trialTime": 17181, "trial_type": "mouselab-mdp", "trial_index": 14, "time_elapsed": 752972, "internal_node_id": "0.0-4.0-1.0-5.0"}}, {"uniqueid": "w70160301:a61944270", "current_trial": 15, "dateTime": 1691160158200, "trialdata": {"revealed_states": [], "clicked_states": ["33", "32", "31", "20", "21", "22", "5", "9", "11"], "num_clicks_accrued": [0, 0, 0, 0, 0, 0, 0, 0, 0, 0, 0, 0, 0], "stateRewards": ["", 1, 2, 7, 13, 88, -71, 27, 3, 60, 5, -53, -2, 2, -6, -1, -30, 79, 47, -4, -14, 46, 68, 1, 1, 8, 10, -14, 86, 48, -11, -67, -44, 5], "withholdReward": false, "trial_id": "mdp_trial_7", "block": "test", "trialIndex": 8, "score": 98.4, "costs": -12.600000000000001, "simulationMode": [null, null, null, null, null], "rewards": [1, 2, 7, 13, 88], "path": ["0", "0", "1", "2", "3", "4", "5"], "rt": [19530, 683, 104, 62, 28], "actions": ["up", "up", "up", "right", "up"], "actionTimes": [20814, 22005, 22620, 23190, 23724], "queries": {"click": {"state": {"target": ["33", "32", "31", "20", "21", "22", "5", "9", "11"], "time": [2265, 4199, 6058, 7834, 9628, 11695, 14160, 16727, 18906]}, "edge": {"target": [], "time": []}}, "mouseover": {"state": {"target": ["31", "30", "33", "32", "31", "22", "19", "20", "20", "21", "22", "13", "7", "4", "5", "9", "11"], "time": [1612, 1647, 1772, 2585, 5605, 6481, 6524, 6552, 6861, 8765, 11093, 12093, 12175, 12244, 12452, 16445, 18668]}, "edge": {"target": [], "time": []}}, "mouseout": {"state": {"target": ["21", "0", "31", "30", "33", "32", "31", "22", "19", "20", "20", "21", "22", "13", "7", "4", "5", "9", "11"], "time": [813, 1466, 1633, 1674, 2474, 4932, 6293, 6517, 6545, 6571, 8224, 9980, 12029, 12112, 12202, 12351, 16348, 17202, 19063]}, "edge": {"target": [], "time": []}}}, "displayed_time": "24.24", "trialTime": 26026, "trial_type": "mouselab-mdp", "trial_index": 15, "time_elapsed": 779195, "internal_node_id": "0.0-4.0-1.0-6.0"}}, {"uniqueid": "w70160301:a61944270", "current_trial": 16, "dateTime": 1691160188268, "trialdata": {"revealed_states": [], "clicked_states": ["9", "5", "10", "7", "32", "33", "31", "21", "20", "22", "29"], "num_clicks_accrued": [0, 0, 0, 0, 0, 0, 0, 0, 0, 0, 0, 0, 0], "stateRewards": ["", -1, 3, 8, 9, -53, 20, -84, 2, -28, -62, -31, -1, -2, -7, 2, 51, 58, 45, -4, -17, -41, 36, 2, -2, -7, -15, 29, -54, -37, -16, -43, 65, -17], "withholdReward": false, "trial_id": "mdp_trial_8", "block": "test", "trialIndex": 9, "score": 26.599999999999994, "costs": -15.400000000000002, "simulationMode": [null, null, null, null, null], "rewards": [2, -2, -7, -16, 65], "path": ["0", "0", "23", "24", "25", "30", "32"], "rt": [23258, 15, 26, 75, 62], "actions": ["left", "left", "left", "down", "down"], "actionTimes": [24925, 25450, 25989, 26578, 27148], "queries": {"click": {"state": {"target": ["9", "5", "10", "7", "32", "33", "31", "21", "20", "22", "29"], "time": [2558, 4191, 6194, 7932, 10084, 12022, 13853, 16123, 17942, 19915, 22319]}, "edge": {"target": [], "time": []}}, "mouseover": {"state": {"target": ["10", "8", "9", "3", "4", "5", "4", "2", "10", "2", "7", "7", "1", "23", "31", "32", "32", "33", "30", "31", "31", "21", "21", "20", "19", "22", "23", "24", "26", "29"], "time": [2107, 2190, 2364, 2871, 3031, 3990, 4601, 5288, 5972, 6587, 6656, 7038, 8305, 8434, 8600, 9038, 9760, 11018, 12336, 12442, 12816, 15753, 16010, 17372, 18204, 18275, 21843, 21878, 21919, 22169]}, "edge": {"target": [], "time": []}}, "mouseout": {"state": {"target": ["4", "2", "23", "31", "0", "10", "8", "9", "9", "3", "4", "5", "4", "2", "10", "2", "7", "7", "1", "23", "31", "32", "32", "33", "30", "31", "31", "21", "21", "20", "19", "22", "23", "24", "26", "29"], "time": [794, 815, 864, 933, 1989, 2156, 2288, 2657, 2824, 2906, 3117, 4545, 4802, 5700, 6531, 6629, 6781, 8260, 8372, 8524, 8685, 9524, 10729, 12311, 12378, 12476, 15615, 15829, 17038, 18177, 18246, 21620, 21863, 21892, 21940, 23455]}, "edge": {"target": [], "time": []}}}, "displayed_time": "27.66", "trialTime": 29854, "trial_type": "mouselab-mdp", "trial_index": 16, "time_elapsed": 809263, "internal_node_id": "0.0-4.0-1.0-7.0"}}, {"uniqueid": "w70160301:a61944270", "current_trial": 17, "dateTime": 1691160208475, "trialdata": {"revealed_states": [], "clicked_states": ["32", "21", "20", "17", "5", "9"], "num_clicks_accrued": [0, 0, 0, 0, 0, 0, 0, 0, 0, 0, 0, 0, 0], "stateRewards": ["", 1, 1, 1, -3, -7, -1, -41, -10, 20, -72, -63, 1, -4, -2, 2, -66, 30, -84, -2, 49, 23, 71, -1, -4, 4, -12, 67, 5, 18, -16, 88, 56, -5], "withholdReward": false, "trial_id": "mdp_trial_9", "block": "test", "trialIndex": 10, "score": 30.6, "costs": -8.4, "simulationMode": [null, null, null, null, null], "rewards": [-1, -4, 4, -16, 56], "path": ["0", "0", "23", "24", "25", "30", "32"], "rt": [13717, 365, 67, 51, 113], "actions": ["left", "left", "left", "down", "down"], "actionTimes": [15277, 16149, 16729, 17287, 17903], "queries": {"click": {"state": {"target": ["32", "21", "20", "17", "5", "9"], "time": [2603, 4460, 6296, 8372, 10644, 12666]}, "edge": {"target": [], "time": []}}, "mouseover": {"state": {"target": ["32", "21", "21", "20", "17", "17", "15", "18", "4", "5", "9", "8", "11", "11"], "time": [2213, 3381, 3707, 5735, 6881, 7374, 10053, 10199, 10310, 10470, 12302, 13082, 13297, 13395]}, "edge": {"target": [], "time": []}}, "mouseout": {"state": {"target": ["29", "26", "23", "0", "32", "21", "21", "20", "17", "17", "15", "18", "4", "5", "9", "8", "11", "11"], "time": [831, 859, 915, 1853, 3013, 3432, 5158, 6762, 6937, 9998, 10172, 10213, 10373, 11103, 13054, 13150, 13339, 13512]}, "edge": {"target": [], "time": []}}}, "displayed_time": "18.41", "trialTime": 20009, "trial_type": "mouselab-mdp", "trial_index": 17, "time_elapsed": 829469, "internal_node_id": "0.0-4.0-1.0-8.0"}}, {"uniqueid": "w70160301:a61944270", "current_trial": 18, "dateTime": 1691160227680, "trialdata": {"revealed_states": [], "clicked_states": ["9", "5", "21", "32"], "num_clicks_accrued": [0, 0, 0, 0, 0, 0, 0, 0, 0, 0, 0, 0, 0], "stateRewards": ["", -1, 1, -2, 5, 73, 15, 61, 8, 7, 38, 76, 2, 2, -4, -6, -6, -26, 43, -5, -45, -85, -35, -2, 1, -4, 15, -10, 69, 72, -11, 84, -49, -38], "withholdReward": false, "trial_id": "mdp_trial_10", "block": "test", "trialIndex": 11, "score": 70.4, "costs": -5.6, "simulationMode": [null, null, null, null, null], "rewards": [-1, 1, -2, 5, 73], "path": ["0", "0", "1", "2", "3", "4", "5"], "rt": [8642, 83, 586, 146, 116], "actions": ["up", "up", "up", "right", "up"], "actionTimes": [11673, 12266, 13360, 14016, 14640], "queries": {"click": {"state": {"target": ["9", "5", "21", "32"], "time": [3931, 5484, 7222, 8992]}, "edge": {"target": [], "time": []}}, "mouseover": {"state": {"target": ["8", "9", "5", "4", "18", "19", "21", "32"], "time": [3494, 3634, 4439, 6064, 6210, 6343, 6460, 7848]}, "edge": {"target": [], "time": []}}, "mouseout": {"state": {"target": ["30", "12", "0", "8", "9", "5", "4", "18", "19", "21", "32"], "time": [404, 722, 3307, 3535, 4217, 6029, 6105, 6244, 6391, 7564, 9564]}, "edge": {"target": [], "time": []}}}, "displayed_time": "17.03", "trialTime": 18995, "trial_type": "mouselab-mdp", "trial_index": 18, "time_elapsed": 848675, "internal_node_id": "0.0-4.0-1.0-9.0"}}, {"uniqueid": "w70160301:a61944270", "current_trial": 19, "dateTime": 1691160254860, "trialdata": {"revealed_states": [], "clicked_states": ["5", "9", "10", "7", "17", "16", "18", "21", "20", "22"], "num_clicks_accrued": [0, 0, 0, 0, 0, 0, 0, 0, 0, 0, 0, 0, 0], "stateRewards": ["", -1, 2, 5, -6, 13, -64, -47, 8, -79, -80, -33, 1, 2, -2, -16, 56, -71, -10, 3, 29, 44, 85, -1, 4, 5, 4, -36, -56, 19, 8, 52, -13, -2], "withholdReward": false, "trial_id": "mdp_trial_11", "block": "test", "trialIndex": 12, "score": 75, "costs": -14.000000000000002, "simulationMode": [null, null, null, null, null], "rewards": [1, 2, -2, 3, 85], "path": ["0", "0", "12", "13", "14", "19", "22"], "rt": [21213, 78, 119, 92, 172], "actions": ["right", "right", "right", "down", "left"], "actionTimes": [22278, 22864, 23488, 24087, 24764], "queries": {"click": {"state": {"target": ["5", "9", "10", "7", "17", "16", "18", "21", "20", "22"], "time": [2238, 3954, 5673, 7497, 10398, 12037, 13825, 15647, 17459, 19314]}, "edge": {"target": [], "time": []}}, "mouseover": {"state": {"target": ["1", "2", "4", "5", "9", "8", "10", "2", "7", "13", "15", "17", "17", "16", "15", "18", "14", "19", "21", "20", "19", "22"], "time": [1715, 1743, 1791, 1951, 2988, 4257, 4341, 5972, 6084, 9375, 9800, 10013, 10354, 11000, 12437, 12791, 14410, 14604, 14806, 16104, 17778, 17952]}, "edge": {"target": [], "time": []}}, "mouseout": {"state": {"target": ["0", "1", "2", "4", "5", "9", "8", "10", "2", "7", "13", "15", "17", "17", "16", "15", "18", "14", "19", "21", "20", "19", "22"], "time": [1250, 1736, 1751, 1833, 2592, 4229, 4299, 5945, 6042, 9217, 9402, 9895, 10028, 10757, 12382, 12500, 14355, 14557, 14729, 15938, 17749, 17813, 21075]}, "edge": {"target": [], "time": []}}}, "displayed_time": "25.27", "trialTime": 26980, "trial_type": "mouselab-mdp", "trial_index": 19, "time_elapsed": 875855, "internal_node_id": "0.0-4.0-1.0-10.0"}}, {"uniqueid": "w70160301:a61944270", "current_trial": 20, "dateTime": 1691160279721, "trialdata": {"revealed_states": [], "clicked_states": ["9", "5", "6", "16", "17", "18", "20", "21", "22"], "num_clicks_accrued": [0, 0, 0, 0, 0, 0, 0, 0, 0, 0, 0, 0, 0], "stateRewards": ["", 1, -1, 4, 5, -32, 18, 20, 6, -88, -74, 9, -2, 1, -2, -14, 34, -77, -38, -1, 80, -36, 73, 2, 3, -8, 10, -48, -73, -71, -11, -22, 20, 54], "withholdReward": false, "trial_id": "mdp_trial_12", "block": "test", "trialIndex": 13, "score": 63.4, "costs": -12.600000000000001, "simulationMode": [null, null, null, null, null], "rewards": [-2, 1, -2, -1, 80], "path": ["0", "0", "12", "13", "14", "19", "20"], "rt": [17330, 484, 143, 111, 145], "actions": ["right", "right", "right", "down", "right"], "actionTimes": [18516, 19506, 20159, 20781, 21431], "queries": {"click": {"state": {"target": ["9", "5", "6", "16", "17", "18", "20", "21", "22"], "time": [2112, 3907, 5640, 7424, 9042, 10859, 12660, 14560, 16373]}, "edge": {"target": [], "time": []}}, "mouseover": {"state": {"target": ["0", "0", "10", "8", "9", "3", "5", "5", "6", "16", "17", "15", "18", "14", "20", "21", "22"], "time": [1362, 1556, 1632, 1681, 1855, 2421, 2751, 3106, 4319, 6350, 7871, 10056, 10441, 11751, 12424, 13554, 15411]}, "edge": {"target": [], "time": []}}, "mouseout": {"state": {"target": ["0", "0", "0", "10", "8", "9", "3", "5", "5", "6", "16", "17", "15", "18", "14", "20", "20", "21", "22"], "time": [945, 1403, 1570, 1660, 1751, 2377, 2515, 2946, 4223, 6015, 7793, 10015, 10150, 11273, 12078, 12789, 13364, 15037, 16668]}, "edge": {"target": [], "time": []}}}, "displayed_time": "21.94", "trialTime": 24654, "trial_type": "mouselab-mdp", "trial_index": 20, "time_elapsed": 900715, "internal_node_id": "0.0-4.0-1.0-11.0"}}, {"uniqueid": "w70160301:a61944270", "current_trial": 21, "dateTime": 1691160301585, "trialdata": {"revealed_states": [], "clicked_states": ["9", "5", "32", "21", "20", "22"], "num_clicks_accrued": [0, 0, 0, 0, 0, 0, 0, 0, 0, 0, 0, 0, 0], "stateRewards": ["", 1, -3, -6, -5, 47, 80, -29, 11, -71, 10, -29, -2, 3, -6, 12, 2, -78, -6, 8, 34, -16, -5, -1, 3, 3, -13, 84, -36, -62, -3, -27, 66, 15], "withholdReward": false, "trial_id": "mdp_trial_13", "block": "test", "trialIndex": 14, "score": 59.6, "costs": -8.4, "simulationMode": [null, null, null, null, null], "rewards": [-1, 3, 3, -3, 66], "path": ["0", "0", "23", "24", "25", "30", "32"], "rt": [14862, 45, 191, 97, 83], "actions": ["left", "left", "left", "down", "down"], "actionTimes": [16363, 16919, 17619, 18221, 18811], "queries": {"click": {"state": {"target": ["9", "5", "32", "21", "20", "22"], "time": [3042, 5531, 7543, 9522, 11679, 13737]}, "edge": {"target": [], "time": []}}, "mouseover": {"state": {"target": ["0", "1", "2", "8", "9", "5", "3", "10", "24", "32", "21", "20", "19", "22"], "time": [2316, 2427, 2469, 2524, 2851, 3381, 5845, 5909, 5977, 6242, 8144, 11532, 13372, 13525]}, "edge": {"target": [], "time": []}}, "mouseout": {"state": {"target": ["23", "0", "0", "1", "2", "8", "9", "5", "3", "10", "24", "32", "21", "20", "19", "22"], "time": [999, 1768, 2399, 2448, 2490, 2552, 3276, 5817, 5880, 5922, 6004, 7879, 11316, 13330, 13427, 15594]}, "edge": {"target": [], "time": []}}}, "displayed_time": "19.32", "trialTime": 21648, "trial_type": "mouselab-mdp", "trial_index": 21, "time_elapsed": 922580, "internal_node_id": "0.0-4.0-1.0-12.0"}}, {"uniqueid": "w70160301:a61944270", "current_trial": 22, "dateTime": 1691160325356, "trialdata": {"revealed_states": [], "clicked_states": ["5", "9", "11", "27", "29", "33", "32", "31"], "num_clicks_accrued": [0, 0, 0, 0, 0, 0, 0, 0, 0, 0, 0, 0, 0], "stateRewards": ["", 2, -1, 1, 10, -52, 86, -22, -2, -14, -63, 38, 1, 3, 7, -8, 11, -32, -27, 9, -71, 40, -87, -2, -1, 5, -7, 12, 31, -57, 13, 86, -58, 29], "withholdReward": false, "trial_id": "mdp_trial_14", "block": "test", "trialIndex": 15, "score": 89.8, "costs": -11.200000000000001, "simulationMode": [null, null, null, null, null], "rewards": [-2, -1, 5, 13, 86], "path": ["0", "0", "23", "24", "25", "30", "31"], "rt": [17155, 40, 53, 74, 192], "actions": ["left", "left", "left", "down", "right"], "actionTimes": [18642, 19186, 19749, 20332, 21033], "queries": {"click": {"state": {"target": ["5", "9", "11", "27", "29", "33", "32", "31"], "time": [2570, 4630, 6321, 8057, 9799, 11670, 13661, 15456]}, "edge": {"target": [], "time": []}}, "mouseover": {"state": {"target": ["0", "23", "2", "5", "9", "11", "27", "29", "33", "32", "31"], "time": [1694, 1888, 2027, 2388, 2965, 5854, 7404, 8798, 11309, 13117, 14652]}, "edge": {"target": [], "time": []}}, "mouseout": {"state": {"target": ["0", "0", "23", "2", "5", "9", "11", "27", "29", "33", "32", "32", "31"], "time": [1124, 1798, 1923, 2069, 2803, 5071, 7326, 8514, 10888, 12603, 13823, 14221, 16212]}, "edge": {"target": [], "time": []}}}, "displayed_time": "21.54", "trialTime": 23561, "trial_type": "mouselab-mdp", "trial_index": 22, "time_elapsed": 946351, "internal_node_id": "0.0-4.0-1.0-13.0"}}, {"uniqueid": "w70160301:a61944270", "current_trial": 23, "dateTime": 1691160342965, "trialdata": {"revealed_states": [], "clicked_states": ["5", "9"], "num_clicks_accrued": [0, 0, 0, 0, 0, 0, 0, 0, 0, 0, 0, 0, 0], "stateRewards": ["", 2, -1, 5, 8, 75, -35, -77, 1, -9, -81, -58, 1, 2, -7, 5, 77, -16, 19, 16, -10, -18, 40, -2, 3, 7, -5, 64, 1, -62, 10, 27, 10, 65], "withholdReward": false, "trial_id": "mdp_trial_15", "block": "test", "trialIndex": 16, "score": 86.2, "costs": -2.8, "simulationMode": [null, null, null, null, null], "rewards": [2, -1, 5, 8, 75], "path": ["0", "0", "1", "2", "3", "4", "5"], "rt": [9629, 40, 16, 133, 92], "actions": ["up", "up", "up", "right", "up"], "actionTimes": [10924, 11475, 11998, 12638, 13234], "queries": {"click": {"state": {"target": ["5", "9"], "time": [2193, 6256]}, "edge": {"target": [], "time": []}}, "mouseover": {"state": {"target": ["0", "13", "18", "6", "5", "9", "8", "2", "18", "7", "2", "8", "9", "11"], "time": [1357, 1648, 1676, 1752, 2023, 2727, 5363, 5412, 5475, 5606, 5628, 5676, 5919, 7088]}, "edge": {"target": [], "time": []}}, "mouseout": {"state": {"target": ["12", "0", "13", "18", "6", "5", "9", "8", "2", "18", "7", "2", "8", "9", "9", "11", "9", "3"], "time": [863, 1551, 1655, 1704, 1808, 2628, 5329, 5391, 5419, 5530, 5614, 5648, 5745, 6684, 6905, 9071, 16154, 16647]}, "edge": {"target": [], "time": []}}}, "displayed_time": "15.30", "trialTime": 17403, "trial_type": "mouselab-mdp", "trial_index": 23, "time_elapsed": 963960, "internal_node_id": "0.0-4.0-1.0-14.0"}}, {"uniqueid": "w70160301:a61944270", "current_trial": 24, "dateTime": 1691160369982, "trialdata": {"revealed_states": [], "clicked_states": ["5", "9", "20", "21", "22", "17", "16", "18", "32", "31"], "num_clicks_accrued": [0, 0, 0, 0, 0, 0, 0, 0, 0, 0, 0, 0, 0], "stateRewards": ["", 1, 1, -5, 10, -31, 73, 14, -8, -23, 63, -70, -1, 2, 8, 7, 25, -59, 27, -10, -40, -71, -15, -2, 3, -8, -5, -19, 77, -34, 7, 67, 63, 19], "withholdReward": false, "trial_id": "mdp_trial_16", "block": "test", "trialIndex": 17, "score": 53, "costs": -14.000000000000002, "simulationMode": [null, null, null, null, null], "rewards": [-2, 3, -8, 7, 67], "path": ["0", "0", "23", "24", "25", "30", "31"], "rt": [19928, 78, 695, 86, 148], "actions": ["left", "left", "left", "down", "right"], "actionTimes": [21571, 22156, 23356, 23950, 24609], "queries": {"click": {"state": {"target": ["5", "9", "20", "21", "22", "17", "16", "18", "32", "31"], "time": [2874, 4678, 6976, 8522, 10264, 12067, 13863, 15654, 18022, 20021]}, "edge": {"target": [], "time": []}}, "mouseover": {"state": {"target": ["0", "1", "2", "4", "5", "9", "3", "4", "15", "14", "20", "21", "22", "17", "16", "18", "12", "0", "31", "32", "31"], "time": [2146, 2208, 2299, 2472, 2671, 3382, 5015, 5050, 5202, 5246, 5310, 7583, 9410, 10861, 13479, 14912, 17091, 17146, 17479, 17798, 18668]}, "edge": {"target": [], "time": []}}, "mouseout": {"state": {"target": ["3", "0", "0", "1", "2", "4", "5", "9", "3", "4", "15", "14", "20", "21", "22", "17", "16", "18", "12", "0", "31", "32", "31"], "time": [937, 1951, 2159, 2270, 2333, 2541, 3251, 4958, 5037, 5079, 5224, 5268, 7361, 9097, 10576, 13077, 14335, 17014, 17114, 17174, 17538, 18380, 20702]}, "edge": {"target": [], "time": []}}}, "displayed_time": "25.12", "trialTime": 26800, "trial_type": "mouselab-mdp", "trial_index": 24, "time_elapsed": 990976, "internal_node_id": "0.0-4.0-1.0-15.0"}}, {"uniqueid": "w70160301:a61944270", "current_trial": 25, "dateTime": 1691160399088, "trialdata": {"revealed_states": [], "clicked_states": ["5", "9", "11", "27", "10", "7", "16", "18", "17", "20"], "num_clicks_accrued": [0, 0, 0, 0, 0, 0, 0, 0, 0, 0, 0, 0, 0], "stateRewards": ["", -1, 3, 1, -7, 56, 76, 57, 3, 11, -9, 14, 1, -2, 2, 8, -77, -3, 79, -5, 88, 24, -66, -2, -1, 7, -7, -30, 14, -76, 11, -36, 28, -6], "withholdReward": false, "trial_id": "mdp_trial_17", "block": "test", "trialIndex": 18, "score": 70, "costs": -14.000000000000002, "simulationMode": [null, null, null, null, null], "rewards": [1, -2, 2, -5, 88], "path": ["0", "0", "12", "13", "14", "19", "20"], "rt": [21847, 311, 20, 46, 211], "actions": ["right", "right", "right", "down", "right"], "actionTimes": [23748, 24569, 25097, 25658, 26378], "queries": {"click": {"state": {"target": ["5", "9", "11", "27", "10", "7", "16", "18", "17", "20"], "time": [2830, 4852, 6574, 8363, 10101, 11896, 14406, 16416, 18363, 20666]}, "edge": {"target": [], "time": []}}, "mouseover": {"state": {"target": ["0", "0", "1", "4", "5", "9", "11", "27", "10", "2", "7", "16", "18", "15", "17", "14", "20", "19", "22"], "time": [2145, 2422, 2457, 2548, 2596, 3648, 5231, 7533, 8873, 10533, 10750, 14124, 15104, 16735, 16911, 19911, 20519, 21383, 21778]}, "edge": {"target": [], "time": []}}, "mouseout": {"state": {"target": ["0", "0", "0", "1", "4", "5", "9", "11", "27", "10", "2", "7", "16", "18", "15", "17", "14", "20", "19", "22"], "time": [707, 2201, 2432, 2478, 2555, 3132, 5179, 7381, 8667, 10493, 10656, 13665, 14911, 16698, 16824, 18886, 20394, 21285, 21490, 22964]}, "edge": {"target": [], "time": []}}}, "displayed_time": "26.88", "trialTime": 28843, "trial_type": "mouselab-mdp", "trial_index": 25, "time_elapsed": 1020083, "internal_node_id": "0.0-4.0-1.0-16.0"}}, {"uniqueid": "w70160301:a61944270", "current_trial": 26, "dateTime": 1691160423461, "trialdata": {"revealed_states": [], "clicked_states": ["9", "5", "11", "27", "32", "21", "20", "22"], "num_clicks_accrued": [0, 0, 0, 0, 0, 0, 0, 0, 0, 0, 0, 0, 0], "stateRewards": ["", -2, -3, -5, 8, 27, 11, 43, -6, -24, -87, 69, -2, 1, 1, 9, 19, 48, -37, 9, -14, 45, 62, 1, 2, 1, 16, -81, -41, 22, 4, -6, -63, 47], "withholdReward": false, "trial_id": "mdp_trial_18", "block": "test", "trialIndex": 19, "score": 41.8, "costs": -11.200000000000001, "simulationMode": [null, null, null, null, null], "rewards": [-2, -3, -5, -6, 69], "path": ["0", "0", "1", "2", "3", "8", "11"], "rt": [17927, 271, 22, 32, 39], "actions": ["up", "up", "up", "left", "left"], "actionTimes": [19654, 20435, 20963, 21508, 22060], "queries": {"click": {"state": {"target": ["9", "5", "11", "27", "32", "21", "20", "22"], "time": [2749, 4726, 6642, 8586, 10427, 12448, 14297, 16072]}, "edge": {"target": [], "time": []}}, "mouseover": {"state": {"target": ["0", "0", "1", "2", "3", "9", "5", "3", "8", "11", "27", "26", "25", "30", "32", "21", "20", "19", "22"], "time": [2065, 2225, 2260, 2301, 2343, 2620, 3241, 5210, 5281, 5368, 7691, 9396, 9478, 9520, 9729, 12252, 13510, 14584, 14631]}, "edge": {"target": [], "time": []}}, "mouseout": {"state": {"target": ["12", "0", "0", "0", "1", "2", "3", "9", "9", "5", "3", "8", "11", "27", "26", "25", "30", "32", "21", "20", "19", "22", "30"], "time": [1162, 1446, 2079, 2232, 2282, 2330, 2384, 2851, 3046, 5135, 5253, 5329, 7538, 9318, 9457, 9498, 9686, 11900, 13190, 14562, 14614, 17912, 23113]}, "edge": {"target": [], "time": []}}}, "displayed_time": "22.57", "trialTime": 24137, "trial_type": "mouselab-mdp", "trial_index": 26, "time_elapsed": 1044455, "internal_node_id": "0.0-4.0-1.0-17.0"}}, {"uniqueid": "w70160301:a61944270", "current_trial": 27, "dateTime": 1691160450538, "trialdata": {"revealed_states": [], "clicked_states": ["32", "9", "5", "7", "10", "11", "6", "18", "17", "16"], "num_clicks_accrued": [0, 0, 0, 0, 0, 0, 0, 0, 0, 0, 0, 0, 0], "stateRewards": ["", -2, -4, -2, 10, -8, -15, -47, 7, -84, 53, 5, -1, 2, -7, 3, 83, 31, 47, -1, 30, -8, 69, 2, -4, -1, 8, -7, 12, -8, -8, -13, 30, -84], "withholdReward": false, "trial_id": "mdp_trial_19", "block": "test", "trialIndex": 20, "score": 66, "costs": -14.000000000000002, "simulationMode": [null, null, null, null, null], "rewards": [-1, 2, -7, 3, 83], "path": ["0", "0", "12", "13", "14", "15", "16"], "rt": [20644, 287, 53, 215, 10], "actions": ["right", "right", "right", "up", "up"], "actionTimes": [22242, 23036, 23601, 24324, 24842], "queries": {"click": {"state": {"target": ["32", "9", "5", "7", "10", "11", "6", "18", "17", "16"], "time": [2418, 3994, 5800, 7772, 9552, 11565, 13451, 15767, 17481, 19278]}, "edge": {"target": [], "time": []}}, "mouseover": {"state": {"target": ["31", "30", "32", "31", "24", "9", "5", "4", "7", "10", "11", "8", "6", "18", "15", "17", "16", "15", "14", "14", "20"], "time": [1983, 2025, 2240, 2760, 2788, 3096, 5101, 7455, 7560, 8459, 11240, 12419, 12751, 14651, 16605, 17018, 17882, 20173, 20312, 20539, 20872]}, "edge": {"target": [], "time": []}}, "mouseout": {"state": {"target": ["22", "14", "18", "0", "31", "30", "32", "31", "24", "9", "9", "5", "4", "7", "10", "11", "8", "6", "18", "15", "17", "16", "15", "14", "14", "20"], "time": [712, 746, 850, 1900, 2004, 2087, 2736, 2778, 2803, 4138, 4786, 7351, 7518, 8298, 10951, 12297, 12460, 14064, 16523, 16700, 17608, 20081, 20269, 20337, 20691, 21434]}, "edge": {"target": [], "time": []}}}, "displayed_time": "25.35", "trialTime": 26868, "trial_type": "mouselab-mdp", "trial_index": 27, "time_elapsed": 1071532, "internal_node_id": "0.0-4.0-1.0-18.0"}}, {"uniqueid": "w70160301:a61944270", "current_trial": 28, "dateTime": 1691160470265, "trialdata": {"revealed_states": [], "clicked_states": ["5", "9", "32", "21"], "num_clicks_accrued": [0, 0, 0, 0, 0, 0, 0, 0, 0, 0, 0, 0, 0], "stateRewards": ["", 2, -2, -8, 9, -20, 55, -58, 14, 42, 2, 36, 1, -3, -5, 5, -58, 57, 60, 16, 57, 30, -70, -2, 1, 3, 10, 59, 23, 77, -13, -26, 88, -72], "withholdReward": false, "trial_id": "mdp_trial_20", "block": "test", "trialIndex": 21, "score": 71.4, "costs": -5.6, "simulationMode": [null, null, null, null, null], "rewards": [-2, 1, 3, -13, 88], "path": ["0", "0", "23", "24", "25", "30", "32"], "rt": [8504, 44, 58, 56, 64], "actions": ["left", "left", "left", "down", "down"], "actionTimes": [9723, 10273, 10841, 11402, 11974], "queries": {"click": {"state": {"target": ["5", "9", "32", "21"], "time": [2272, 4178, 5771, 7524]}, "edge": {"target": [], "time": []}}, "mouseover": {"state": {"target": ["1", "4", "5", "9", "8", "25", "30", "32", "21", "21"], "time": [1671, 1782, 1839, 2914, 4774, 4986, 5057, 5210, 6558, 6957]}, "edge": {"target": [], "time": []}}, "mouseout": {"state": {"target": ["0", "0", "1", "4", "5", "9", "8", "25", "30", "32", "32", "21", "21"], "time": [872, 1636, 1699, 1796, 2613, 4725, 4811, 5018, 5160, 5934, 6330, 6583, 8192]}, "edge": {"target": [], "time": []}}}, "displayed_time": "15.22", "trialTime": 19471, "trial_type": "mouselab-mdp", "trial_index": 28, "time_elapsed": 1091259, "internal_node_id": "0.0-4.0-1.0-19.0"}}, {"uniqueid": "w70160301:a61944270", "current_trial": 29, "dateTime": 1691160513786, "trialdata": {"revealed_states": [], "clicked_states": ["5", "9", "21", "32", "20", "17", "16", "18", "22", "31", "33", "29", "28", "27", "11", "10", "7", "6"], "num_clicks_accrued": [0, 0, 0, 0, 0, 0, 0, 0, 0, 0, 0, 0, 0], "stateRewards": ["", 2, 3, -1, 6, 44, -4, -59, -14, -3, 64, 16, 1, -3, 3, 6, 3, 49, 19, 3, -49, -14, -86, 1, 2, -3, -8, -33, 14, 32, -13, -77, -47, -67], "withholdReward": false, "trial_id": "mdp_trial_21", "block": "test", "trialIndex": 22, "score": 28.80000000000001, "costs": -25.199999999999992, "simulationMode": [null, null, null, null, null], "rewards": [2, 3, -1, -14, 64], "path": ["0", "0", "1", "2", "3", "8", "10"], "rt": [35286, 375, 12, 163, 201], "actions": ["up", "up", "up", "left", "down"], "actionTimes": [37111, 37998, 38519, 39191, 39903], "queries": {"click": {"state": {"target": ["5", "9", "21", "32", "20", "17", "16", "18", "22", "31", "33", "29", "28", "27", "11", "10", "7", "6"], "time": [2890, 4595, 6383, 8124, 10107, 11870, 13768, 15584, 17676, 19570, 21334, 23488, 25683, 27543, 29353, 31205, 33201, 35152]}, "edge": {"target": [], "time": []}}, "mouseover": {"state": {"target": ["12", "7", "5", "9", "3", "2", "13", "19", "21", "21", "32", "20", "17", "16", "18", "22", "31", "30", "33", "29", "26", "28", "27", "11", "10", "2", "7", "6"], "time": [2424, 2479, 2694, 4087, 5081, 5105, 5168, 5208, 5525, 5703, 7246, 9609, 11127, 13553, 14483, 17520, 18671, 20246, 20313, 23456, 25408, 25547, 27297, 28793, 30138, 32519, 32825, 34949]}, "edge": {"target": [], "time": []}}, "mouseout": {"state": {"target": ["21", "19", "12", "0", "12", "7", "5", "9", "3", "2", "13", "19", "21", "21", "32", "21", "20", "17", "16", "18", "22", "31", "30", "33", "29", "26", "28", "27", "11", "10", "2", "7", "7", "6"], "time": [936, 1006, 1186, 2278, 2444, 2493, 3271, 5032, 5094, 5118, 5188, 5234, 5558, 6526, 9298, 9461, 10256, 13213, 14170, 17270, 18467, 20223, 20284, 23123, 25220, 25491, 26193, 27904, 29648, 32148, 32707, 33638, 34776, 35467]}, "edge": {"target": [], "time": []}}}, "displayed_time": "40.41", "trialTime": 43246, "trial_type": "mouselab-mdp", "trial_index": 29, "time_elapsed": 1134780, "internal_node_id": "0.0-4.0-1.0-20.0"}}, {"uniqueid": "w70160301:a61944270", "current_trial": 30, "dateTime": 1691160531342, "trialdata": {"revealed_states": [], "clicked_states": ["32", "31", "33"], "num_clicks_accrued": [0, 0, 0, 0, 0, 0, 0, 0, 0, 0, 0, 0, 0], "stateRewards": ["", 1, 1, 4, 11, 83, -66, 18, -16, -23, 5, 25, 1, -3, 1, -12, 18, 24, -86, -11, -64, 36, 40, 2, 1, -6, 13, 55, 29, 72, -2, 81, -72, -41], "withholdReward": false, "trial_id": "mdp_trial_22", "block": "test", "trialIndex": 23, "score": 71.8, "costs": -4.199999999999999, "simulationMode": [null, null, null, null, null], "rewards": [2, 1, -6, -2, 81], "path": ["0", "0", "23", "24", "25", "30", "31"], "rt": [6238, 69, 57, 56, 99], "actions": ["left", "left", "left", "down", "right"], "actionTimes": [7651, 8226, 8789, 9351, 9957], "queries": {"click": {"state": {"target": ["32", "31", "33"], "time": [2290, 3956, 5810]}, "edge": {"target": [], "time": []}}, "mouseover": {"state": {"target": ["23", "31", "32", "31", "30", "33", "30"], "time": [1745, 1870, 2085, 3107, 4374, 5037, 6206]}, "edge": {"target": [], "time": []}}, "mouseout": {"state": {"target": ["15", "13", "12", "0", "23", "31", "32", "31", "30", "33", "30", "31"], "time": [508, 544, 894, 1704, 1759, 1932, 2510, 4335, 4680, 6169, 6247, 6337]}, "edge": {"target": [], "time": []}}}, "displayed_time": "15.41", "trialTime": 17327, "trial_type": "mouselab-mdp", "trial_index": 30, "time_elapsed": 1152336, "internal_node_id": "0.0-4.0-1.0-21.0"}}, {"uniqueid": "w70160301:a61944270", "current_trial": 31, "dateTime": 1691160548958, "trialdata": {"revealed_states": [], "clicked_states": ["5", "9", "32", "21"], "num_clicks_accrued": [0, 0, 0, 0, 0, 0, 0, 0, 0, 0, 0, 0, 0], "stateRewards": ["", 2, 3, 6, -5, -74, -53, 17, -12, 46, 44, 18, -2, 4, 1, -8, 22, -23, -49, 9, -45, 55, 81, 1, -1, -7, -16, -83, -71, -45, 2, 51, 82, 61], "withholdReward": false, "trial_id": "mdp_trial_23", "block": "test", "trialIndex": 24, "score": 71.4, "costs": -5.6, "simulationMode": [null, null, null, null, null], "rewards": [1, -1, -7, 2, 82], "path": ["0", "0", "23", "24", "25", "30", "32"], "rt": [8524, 442, 143, 141, 186], "actions": ["left", "left", "left", "down", "down"], "actionTimes": [10058, 11005, 11658, 12308, 12998], "queries": {"click": {"state": {"target": ["5", "9", "32", "21"], "time": [2663, 4487, 6264, 8086]}, "edge": {"target": [], "time": []}}, "mouseover": {"state": {"target": ["1", "2", "4", "5", "5", "3", "8", "9", "28", "30", "32", "21"], "time": [2054, 2103, 2166, 2284, 2497, 3102, 3571, 3755, 5598, 5698, 5863, 6963]}, "edge": {"target": [], "time": []}}, "mouseout": {"state": {"target": ["0", "0", "1", "2", "4", "5", "5", "3", "8", "9", "28", "30", "32", "21"], "time": [832, 1748, 2082, 2110, 2214, 2346, 2943, 3288, 3609, 5518, 5613, 5833, 6616, 8555]}, "edge": {"target": [], "time": []}}}, "displayed_time": "15.53", "trialTime": 17399, "trial_type": "mouselab-mdp", "trial_index": 31, "time_elapsed": 1169953, "internal_node_id": "0.0-4.0-1.0-22.0"}}, {"uniqueid": "w70160301:a61944270", "current_trial": 32, "dateTime": 1691160677809, "trialdata": {"revealed_states": [], "clicked_states": ["21", "20", "17", "16", "5", "9", "29", "33", "32"], "num_clicks_accrued": [0, 0, 0, 0, 0, 0, 0, 0, 0, 0, 0, 0, 0], "stateRewards": ["", 1, -4, -6, 11, -20, 8, -30, 1, -38, 88, 42, 2, 3, 5, -12, -8, -74, 30, -8, 67, -19, 42, 2, -1, 4, 13, 50, -68, 2, -8, -15, 87, -46], "withholdReward": false, "trial_id": "mdp_trial_24", "block": "test", "trialIndex": 25, "score": 71.4, "costs": -12.600000000000001, "simulationMode": [null, null, null, null, null], "rewards": [2, -1, 4, -8, 87], "path": ["0", "0", "23", "24", "25", "30", "32"], "rt": [18728, 46, 49, 107, 60], "actions": ["left", "left", "left", "down", "down"], "actionTimes": [20077, 20632, 21189, 21805, 22375], "queries": {"click": {"state": {"target": ["21", "20", "17", "16", "5", "9", "29", "33", "32"], "time": [2059, 3823, 5545, 7370, 9246, 11021, 13436, 15329, 17307]}, "edge": {"target": [], "time": []}}, "mouseover": {"state": {"target": ["22", "21", "20", "17", "15", "18", "16", "6", "5", "9", "11", "27", "29", "33", "32"], "time": [1717, 1800, 2900, 4392, 6433, 6544, 6839, 8399, 8867, 10109, 12835, 12932, 13273, 14902, 16827]}, "edge": {"target": [], "time": []}}, "mouseout": {"state": {"target": ["0", "22", "21", "20", "17", "15", "18", "16", "16", "6", "5", "9", "11", "27", "29", "33", "33", "32"], "time": [1648, 1745, 2671, 4171, 5986, 6490, 6680, 7496, 8041, 8676, 9711, 12544, 12856, 13071, 14339, 15431, 15974, 17839]}, "edge": {"target": [], "time": []}}}, "displayed_time": "22.89", "trialTime": 128614, "trial_type": "mouselab-mdp", "trial_index": 32, "time_elapsed": 1298803, "internal_node_id": "0.0-4.0-1.0-23.0"}}, {"uniqueid": "w70160301:a61944270", "current_trial": 33, "dateTime": 1691160697321, "trialdata": {"revealed_states": [], "clicked_states": ["32"], "num_clicks_accrued": [0, 0, 0, 0, 0, 0, 0, 0, 0, 0, 0, 0, 0], "stateRewards": ["", -1, 3, -4, -14, 78, 67, 2, 13, -32, 28, 39, -2, 1, -4, -4, -4, -42, -86, 11, 64, -29, -32, -1, -4, 2, -7, 5, 68, -61, 2, -21, 85, 50], "withholdReward": false, "trial_id": "mdp_trial_25", "block": "test", "trialIndex": 26, "score": 82.6, "costs": -1.4, "simulationMode": [null, null, null, null, null], "rewards": [-1, -4, 2, 2, 85], "path": ["0", "0", "23", "24", "25", "30", "32"], "rt": [4524, 561, 112, 38, 85], "actions": ["left", "left", "left", "down", "down"], "actionTimes": [5775, 6846, 7465, 8012, 8607], "queries": {"click": {"state": {"target": ["32"], "time": [2096]}, "edge": {"target": [], "time": []}}, "mouseover": {"state": {"target": ["32", "21"], "time": [1964, 2829]}, "edge": {"target": [], "time": []}}, "mouseout": {"state": {"target": ["12", "0", "32", "21"], "time": [706, 1602, 2411, 4402]}, "edge": {"target": [], "time": []}}}, "displayed_time": "15.25", "trialTime": 19217, "trial_type": "mouselab-mdp", "trial_index": 33, "time_elapsed": 1318316, "internal_node_id": "0.0-4.0-1.0-24.0"}}, {"uniqueid": "w70160301:a61944270", "current_trial": 34, "dateTime": 1691160715436, "trialdata": {"revealed_states": [], "clicked_states": ["21", "20", "17", "16"], "num_clicks_accrued": [0, 0, 0, 0, 0, 0, 0, 0, 0, 0, 0, 0, 0], "stateRewards": ["", 1, -4, 6, -3, 40, 76, -51, 5, -24, -63, 44, -2, -2, 8, 1, 76, -85, -58, 10, 59, 20, 11, -2, 3, -3, 3, -82, -10, 54, -7, -57, -6, -32], "withholdReward": false, "trial_id": "mdp_trial_26", "block": "test", "trialIndex": 27, "score": 75.4, "costs": -5.6, "simulationMode": [null, null, null, null, null], "rewards": [-2, -2, 8, 1, 76], "path": ["0", "0", "12", "13", "14", "15", "16"], "rt": [9436, 33, 84, 18, 31], "actions": ["right", "right", "right", "up", "up"], "actionTimes": [11574, 12113, 12706, 13230, 13777], "queries": {"click": {"state": {"target": ["21", "20", "17", "16"], "time": [2981, 4788, 6649, 8459]}, "edge": {"target": [], "time": []}}, "mouseover": {"state": {"target": ["21", "20", "17", "15", "16", "6", "5", "6"], "time": [2730, 3751, 5644, 7114, 7377, 9675, 10257, 10674]}, "edge": {"target": [], "time": []}}, "mouseout": {"state": {"target": ["32", "13", "14", "13", "12", "0", "21", "20", "17", "15", "16", "6", "5", "6"], "time": [896, 1021, 1098, 1229, 1361, 2480, 3092, 5419, 7079, 7192, 9202, 9871, 10625, 10688]}, "edge": {"target": [], "time": []}}}, "displayed_time": "16.14", "trialTime": 17849, "trial_type": "mouselab-mdp", "trial_index": 34, "time_elapsed": 1336430, "internal_node_id": "0.0-4.0-1.0-25.0"}}, {"uniqueid": "w70160301:a61944270", "current_trial": 35, "dateTime": 1691160732532, "trialdata": {"revealed_states": [], "clicked_states": ["32", "33"], "num_clicks_accrued": [0, 0, 0, 0, 0, 0, 0, 0, 0, 0, 0, 0, 0], "stateRewards": ["", -2, -1, -4, -15, -14, -67, 32, -3, -59, 63, 31, 2, -1, -7, -15, 71, -66, -27, -3, -54, -39, 72, 2, 1, 1, -13, 77, -40, 35, -9, 35, 75, 57], "withholdReward": false, "trial_id": "mdp_trial_27", "block": "test", "trialIndex": 28, "score": 67.2, "costs": -2.8, "simulationMode": [null, null, null, null, null], "rewards": [2, 1, 1, -9, 75], "path": ["0", "0", "23", "24", "25", "30", "32"], "rt": [5035, 8, 55, 82, 58], "actions": ["left", "left", "left", "down", "down"], "actionTimes": [6541, 7056, 7625, 8213, 8780], "queries": {"click": {"state": {"target": ["32", "33"], "time": [2470, 4270]}, "edge": {"target": [], "time": []}}, "mouseover": {"state": {"target": ["32", "33"], "time": [2199, 3106]}, "edge": {"target": [], "time": []}}, "mouseout": {"state": {"target": ["21", "23", "0", "32", "33"], "time": [546, 907, 1706, 2820, 4661]}, "edge": {"target": [], "time": []}}}, "displayed_time": "15.51", "trialTime": 16824, "trial_type": "mouselab-mdp", "trial_index": 35, "time_elapsed": 1353527, "internal_node_id": "0.0-4.0-1.0-26.0"}}, {"uniqueid": "w70160301:a61944270", "current_trial": 36, "dateTime": 1691160749538, "trialdata": {"revealed_states": [], "clicked_states": ["21", "20", "17"], "num_clicks_accrued": [0, 0, 0, 0, 0, 0, 0, 0, 0, 0, 0, 0, 0], "stateRewards": ["", -2, 3, -5, -7, 66, 43, -60, -4, -70, -75, 4, -1, 2, 2, -13, 54, 11, -40, -1, 77, 32, 15, -2, 3, -8, -9, -35, 83, -27, 6, -74, -34, 44], "withholdReward": false, "trial_id": "mdp_trial_28", "block": "test", "trialIndex": 29, "score": 74.8, "costs": -4.199999999999999, "simulationMode": [null, null, null, null, null], "rewards": [-1, 2, 2, -1, 77], "path": ["0", "0", "12", "13", "14", "19", "20"], "rt": [7502, 373, 779, 104, 131], "actions": ["right", "right", "right", "down", "right"], "actionTimes": [8772, 9656, 10940, 11550, 12187], "queries": {"click": {"state": {"target": ["21", "20", "17"], "time": [2274, 4054, 5818]}, "edge": {"target": [], "time": []}}, "mouseover": {"state": {"target": ["21", "20", "17"], "time": [2027, 3136, 4763]}, "edge": {"target": [], "time": []}}, "mouseout": {"state": {"target": ["0", "21", "21", "20", "17"], "time": [1486, 2557, 2761, 4568, 6296]}, "edge": {"target": [], "time": []}}}, "displayed_time": "15.27", "trialTime": 16763, "trial_type": "mouselab-mdp", "trial_index": 36, "time_elapsed": 1370533, "internal_node_id": "0.0-4.0-1.0-27.0"}}, {"uniqueid": "w70160301:a61944270", "current_trial": 37, "dateTime": 1691160766485, "trialdata": {"revealed_states": [], "clicked_states": ["21", "20", "5", "9"], "num_clicks_accrued": [0, 0, 0, 0, 0, 0, 0, 0, 0, 0, 0, 0, 0], "stateRewards": ["", 1, -1, 1, -14, -10, 67, -28, -11, 72, 40, -65, -1, 1, 1, -2, 8, -55, 34, -10, 61, 33, -15, 2, -4, 7, 4, -75, 63, -21, -16, 61, 19, 21], "withholdReward": false, "trial_id": "mdp_trial_29", "block": "test", "trialIndex": 30, "score": 56.4, "costs": -5.6, "simulationMode": [null, null, null, null, null], "rewards": [1, -1, 1, -11, 72], "path": ["0", "0", "1", "2", "3", "8", "9"], "rt": [10628, 294, 22, 105, 83], "actions": ["up", "up", "up", "left", "up"], "actionTimes": [11863, 12662, 13188, 13807, 14395], "queries": {"click": {"state": {"target": ["21", "20", "5", "9"], "time": [2399, 4257, 6367, 8623]}, "edge": {"target": [], "time": []}}, "mouseover": {"state": {"target": ["21", "20", "4", "5", "9", "11", "28", "23"], "time": [2207, 3372, 5908, 6096, 8429, 10485, 10825, 10873]}, "edge": {"target": [], "time": []}}, "mouseout": {"state": {"target": ["0", "21", "21", "20", "4", "5", "9", "11", "28", "23"], "time": [1665, 2512, 2742, 4539, 6020, 7978, 10443, 10694, 10834, 10922]}, "edge": {"target": [], "time": []}}}, "displayed_time": "15.24", "trialTime": 16703, "trial_type": "mouselab-mdp", "trial_index": 37, "time_elapsed": 1387480, "internal_node_id": "0.0-4.0-1.0-28.0"}}, {"uniqueid": "w70160301:a61944270", "current_trial": 38, "dateTime": 1691160787607, "trialdata": {"revealed_states": [], "clicked_states": ["32", "33", "27", "9", "5", "17"], "num_clicks_accrued": [0, 0, 0, 0, 0, 0, 0, 0, 0, 0, 0, 0, 0], "stateRewards": ["", -1, -4, -3, 1, -45, -67, -24, 14, 32, 22, 22, -1, 1, -5, -7, 72, 84, -79, -5, 19, -40, -2, -1, -2, 8, -3, 84, -25, -28, 11, 64, -66, 77], "withholdReward": false, "trial_id": "mdp_trial_30", "block": "test", "trialIndex": 31, "score": 77.6, "costs": -8.4, "simulationMode": [null, null, null, null, null], "rewards": [-1, -2, 8, -3, 84], "path": ["0", "0", "23", "24", "25", "26", "27"], "rt": [14897, 330, 56, 58, 29], "actions": ["left", "left", "left", "up", "up"], "actionTimes": [16004, 16842, 17412, 17983, 18520], "queries": {"click": {"state": {"target": ["32", "33", "27", "9", "5", "17"], "time": [2686, 5270, 6993, 8929, 10742, 12637]}, "edge": {"target": [], "time": []}}, "mouseover": {"state": {"target": ["0", "31", "30", "32", "32", "33", "25", "26", "27", "11", "8", "9", "5", "17"], "time": [1288, 1427, 1517, 1573, 1814, 3469, 5678, 5738, 5924, 7733, 8009, 8411, 9743, 11407]}, "edge": {"target": [], "time": []}}, "mouseout": {"state": {"target": ["0", "0", "31", "30", "32", "32", "33", "25", "26", "27", "11", "8", "9", "5", "17", "17", "20"], "time": [857, 1365, 1462, 1526, 1650, 3161, 5598, 5701, 5845, 7480, 7897, 8156, 9482, 10989, 12767, 14100, 19906]}, "edge": {"target": [], "time": []}}}, "displayed_time": "19.03", "trialTime": 20879, "trial_type": "mouselab-mdp", "trial_index": 38, "time_elapsed": 1408602, "internal_node_id": "0.0-4.0-1.0-29.0"}}, {"uniqueid": "w70160301:a61944270", "current_trial": 39, "dateTime": 1691160818739, "trialdata": {"revealed_states": [], "clicked_states": ["32", "21", "20", "5", "17", "9", "11", "27", "29", "28", "31", "33"], "num_clicks_accrued": [0, 0, 0, 0, 0, 0, 0, 0, 0, 0, 0, 0, 0], "stateRewards": ["", 2, -3, 5, -14, -63, -9, -24, -11, -54, -43, 68, 2, -2, -4, 7, -64, 30, 47, 12, -74, 11, 86, 1, -3, 3, 10, -71, -42, -52, -1, -29, -16, 69], "withholdReward": false, "trial_id": "mdp_trial_31", "block": "test", "trialIndex": 32, "score": 44.2, "costs": -16.8, "simulationMode": [null, null, null, null, null], "rewards": [2, -3, 5, -11, 68], "path": ["0", "0", "1", "2", "3", "8", "11"], "rt": [23920, 314, 52, 559, 116], "actions": ["up", "up", "up", "left", "left"], "actionTimes": [25291, 26111, 26668, 27739, 28369], "queries": {"click": {"state": {"target": ["32", "21", "20", "5", "17", "9", "11", "27", "29", "28", "31", "33"], "time": [2251, 4077, 5828, 7432, 9235, 11144, 12921, 14892, 16686, 18517, 20598, 22560]}, "edge": {"target": [], "time": []}}, "mouseover": {"state": {"target": ["0", "32", "21", "20", "19", "22", "12", "7", "4", "5", "6", "16", "17", "15", "7", "3", "9", "8", "11", "27", "29", "26", "28", "28", "31", "30", "33", "30"], "time": [1650, 1845, 2993, 4743, 6257, 6357, 6453, 6523, 6559, 6734, 8092, 8255, 8553, 10203, 10371, 10461, 10681, 11539, 11729, 13567, 15297, 17003, 17126, 17323, 20385, 21207, 21698, 23960]}, "edge": {"target": [], "time": []}}, "mouseout": {"state": {"target": ["23", "0", "0", "32", "21", "20", "19", "22", "12", "7", "4", "5", "6", "16", "17", "15", "7", "3", "9", "8", "11", "27", "29", "26", "28", "28", "31", "30", "33", "30"], "time": [830, 1018, 1698, 2617, 4444, 6208, 6328, 6411, 6484, 6541, 6633, 8054, 8205, 8301, 10118, 10259, 10408, 10520, 11492, 11630, 13381, 15238, 16986, 17057, 17147, 20233, 21149, 21494, 22992, 24142]}, "edge": {"target": [], "time": []}}}, "displayed_time": "28.87", "trialTime": 30887, "trial_type": "mouselab-mdp", "trial_index": 39, "time_elapsed": 1439734, "internal_node_id": "0.0-4.0-1.0-30.0"}}, {"uniqueid": "w70160301:a61944270", "current_trial": 40, "dateTime": 1691160841735, "trialdata": {"revealed_states": [], "clicked_states": ["21", "20", "17", "5", "9", "11", "27", "29"], "num_clicks_accrued": [0, 0, 0, 0, 0, 0, 0, 0, 0, 0, 0, 0, 0], "stateRewards": ["", -1, -1, 7, -15, -43, -21, -84, -9, -45, -66, 2, 1, -2, 2, 8, -27, 44, -52, -5, -84, 11, 53, 1, 4, -4, 16, 83, -82, -15, -16, 68, -43, 81], "withholdReward": false, "trial_id": "mdp_trial_32", "block": "test", "trialIndex": 33, "score": 88.8, "costs": -11.200000000000001, "simulationMode": [null, null, null, null, null], "rewards": [1, 4, -4, 16, 83], "path": ["0", "0", "23", "24", "25", "26", "27"], "rt": [15166, 307, 71, 58, 12], "actions": ["left", "left", "left", "up", "up"], "actionTimes": [16099, 16916, 17492, 18057, 18581], "queries": {"click": {"state": {"target": ["21", "20", "17", "5", "9", "11", "27", "29"], "time": [1609, 3368, 5095, 6778, 8355, 10115, 11885, 13628]}, "edge": {"target": [], "time": []}}, "mouseover": {"state": {"target": ["21", "20", "17", "16", "6", "5", "9", "11", "27", "29"], "time": [1288, 2619, 4183, 6181, 6267, 6479, 7568, 9048, 11165, 12386]}, "edge": {"target": [], "time": []}}, "mouseout": {"state": {"target": ["0", "21", "20", "17", "17", "16", "6", "5", "9", "11", "27", "27", "29", "28", "24"], "time": [1087, 2102, 3816, 5820, 6139, 6220, 6356, 7422, 8831, 11034, 12030, 12255, 14385, 21177, 21468]}, "edge": {"target": [], "time": []}}}, "displayed_time": "19.09", "trialTime": 22731, "trial_type": "mouselab-mdp", "trial_index": 40, "time_elapsed": 1462730, "internal_node_id": "0.0-4.0-1.0-31.0"}}, {"uniqueid": "w70160301:a61944270", "current_trial": 41, "dateTime": 1691160858715, "trialdata": {"revealed_states": [], "clicked_states": ["21", "16", "17", "20"], "num_clicks_accrued": [0, 0, 0, 0, 0, 0, 0, 0, 0, 0, 0, 0, 0], "stateRewards": ["", 1, 4, 7, -16, -84, -6, -46, -12, -7, -49, -26, -1, 2, -4, 2, 22, 37, -64, 1, 88, -13, -10, 1, -4, -2, 5, 2, -10, -34, 9, 66, 55, 38], "withholdReward": false, "trial_id": "mdp_trial_33", "block": "test", "trialIndex": 34, "score": 80.4, "costs": -5.6, "simulationMode": [null, null, null, null, null], "rewards": [-1, 2, -4, 1, 88], "path": ["0", "0", "12", "13", "14", "19", "20"], "rt": [9170, 74, 71, 17, 118], "actions": ["right", "right", "right", "down", "right"], "actionTimes": [10085, 10668, 11245, 11776, 12411], "queries": {"click": {"state": {"target": ["21", "16", "17", "20"], "time": [1615, 3256, 5019, 6844]}, "edge": {"target": [], "time": []}}, "mouseover": {"state": {"target": ["21", "22", "14", "15", "16", "15", "15", "17", "20", "19", "22", "23", "24", "30", "33", "30", "31"], "time": [1319, 2249, 2308, 2367, 2467, 3697, 4341, 4427, 5705, 7461, 7549, 7720, 7764, 8135, 8486, 8994, 9012]}, "edge": {"target": [], "time": []}}, "mouseout": {"state": {"target": ["0", "21", "22", "14", "15", "16", "15", "15", "17", "20", "19", "22", "23", "24", "30", "33", "30", "31"], "time": [1021, 1886, 2269, 2336, 2395, 3612, 3717, 4416, 5344, 7424, 7507, 7590, 7738, 7812, 8291, 8986, 9003, 9024]}, "edge": {"target": [], "time": []}}}, "displayed_time": "14.92", "trialTime": 16722, "trial_type": "mouselab-mdp", "trial_index": 41, "time_elapsed": 1479710, "internal_node_id": "0.0-4.0-1.0-32.0"}}, {"uniqueid": "w70160301:a61944270", "current_trial": 42, "dateTime": 1691160880580, "trialdata": {"revealed_states": [], "clicked_states": ["21", "16", "5", "7", "9", "10", "11"], "num_clicks_accrued": [0, 0, 0, 0, 0, 0, 0, 0, 0, 0, 0, 0, 0], "stateRewards": ["", -2, -3, 7, -13, 60, 9, 37, -6, 37, 20, 1, 2, -2, -8, 6, -80, -31, -10, -7, 70, -65, -44, -1, 1, 7, 6, -11, 73, -85, 16, -21, 47, 34], "withholdReward": false, "trial_id": "mdp_trial_34", "block": "test", "trialIndex": 35, "score": 39.2, "costs": -9.8, "simulationMode": [null, null, null, null, null], "rewards": [-2, -3, 7, -13, 60], "path": ["0", "0", "1", "2", "3", "4", "5"], "rt": [15149, 52, 79, 153, 60], "actions": ["up", "up", "up", "right", "up"], "actionTimes": [16809, 17373, 17969, 18632, 19200], "queries": {"click": {"state": {"target": ["21", "16", "5", "7", "9", "10", "11"], "time": [2358, 4094, 5715, 7492, 9425, 11540, 13497]}, "edge": {"target": [], "time": []}}, "mouseover": {"state": {"target": ["22", "21", "20", "17", "16", "4", "5", "4", "7", "2", "8", "9", "8", "10", "11"], "time": [1888, 2061, 2943, 3051, 3182, 4909, 5110, 6176, 6307, 7989, 8096, 8529, 9826, 10231, 12313]}, "edge": {"target": [], "time": []}}, "mouseout": {"state": {"target": ["21", "19", "13", "12", "0", "22", "21", "20", "17", "16", "4", "5", "4", "7", "2", "8", "9", "8", "10", "11", "3", "18", "13"], "time": [568, 589, 845, 1158, 1791, 1943, 2814, 2964, 3128, 4721, 4948, 6148, 6225, 7956, 8039, 8116, 9759, 9921, 12095, 15318, 20463, 20616, 20631]}, "edge": {"target": [], "time": []}}}, "displayed_time": "19.71", "trialTime": 21614, "trial_type": "mouselab-mdp", "trial_index": 42, "time_elapsed": 1501574, "internal_node_id": "0.0-4.0-1.0-33.0"}}, {"uniqueid": "w70160301:a61944270", "current_trial": 43, "dateTime": 1691160974337, "trialdata": {"revealed_states": [], "clicked_states": ["21", "16", "5", "7", "10", "9", "11", "29", "33", "27", "31", "32"], "num_clicks_accrued": [0, 0, 0, 0, 0, 0, 0, 0, 0, 0, 0, 0, 0], "stateRewards": ["", 2, 4, 4, -8, -36, -33, 38, 16, -51, 57, 57, 1, 3, 4, -6, 45, 68, 87, 1, 63, 24, -55, -2, 2, -6, -13, -63, -50, 8, 2, 80, 6, 60], "withholdReward": false, "trial_id": "mdp_trial_35", "block": "test", "trialIndex": 36, "score": 59.2, "costs": -16.8, "simulationMode": [null, null, null, null, null], "rewards": [-2, 2, -6, 2, 80], "path": ["0", "0", "23", "24", "25", "30", "31"], "rt": [24765, 118, 107, 50, 79], "actions": ["left", "left", "left", "down", "right"], "actionTimes": [26565, 27195, 27811, 28374, 28962], "queries": {"click": {"state": {"target": ["21", "16", "5", "7", "10", "9", "11", "29", "33", "27", "31", "32"], "time": [2966, 4697, 6481, 8306, 10269, 12144, 14003, 15805, 18264, 20481, 22606, 24522]}, "edge": {"target": [], "time": []}}, "mouseover": {"state": {"target": ["21", "21", "20", "17", "16", "6", "5", "4", "7", "2", "10", "8", "9", "11", "27", "26", "29", "33", "27", "28", "24", "31", "31", "32"], "time": [2583, 2812, 3677, 3924, 4555, 5364, 6120, 6777, 6901, 8824, 9044, 10888, 11159, 12942, 14427, 14512, 14949, 18075, 19010, 21917, 22068, 22262, 22443, 23348]}, "edge": {"target": [], "time": []}}, "mouseout": {"state": {"target": ["12", "0", "21", "21", "20", "17", "16", "6", "5", "4", "7", "2", "10", "8", "9", "11", "27", "26", "29", "33", "27", "28", "24", "31", "31", "32"], "time": [1415, 2118, 2604, 3446, 3752, 4404, 5080, 5967, 6738, 6824, 8743, 8953, 10678, 11076, 12618, 14295, 14439, 14584, 17707, 18646, 21059, 22010, 22179, 22276, 23039, 24868]}, "edge": {"target": [], "time": []}}}, "displayed_time": "29.47", "trialTime": 93497, "trial_type": "mouselab-mdp", "trial_index": 43, "time_elapsed": 1595331, "internal_node_id": "0.0-4.0-1.0-34.0"}}, {"uniqueid": "w70160301:a61944270", "current_trial": 44, "dateTime": 1691160994538, "trialdata": {"revealed_states": [], "clicked_states": ["21", "20", "17", "16", "5", "9", "11", "10"], "num_clicks_accrued": [0, 0, 0, 0, 0, 0, 0, 0, 0, 0, 0, 0, 0], "stateRewards": ["", -1, -3, -6, -2, -7, 80, -45, -3, -38, -72, 76, 2, 1, 7, 4, -62, 14, -74, 14, -87, -21, -88, -2, 1, -7, -10, 66, 56, -76, 10, -29, -72, -70], "withholdReward": false, "trial_id": "mdp_trial_36", "block": "test", "trialIndex": 37, "score": 51.8, "costs": -11.200000000000001, "simulationMode": [null, null, null, null, null], "rewards": [-1, -3, -6, -3, 76], "path": ["0", "0", "1", "2", "3", "8", "11"], "rt": [14076, 50, 116, 473, 165], "actions": ["up", "up", "up", "left", "left"], "actionTimes": [15224, 15782, 16409, 17391, 18064], "queries": {"click": {"state": {"target": ["21", "20", "17", "16", "5", "9", "11", "10"], "time": [1755, 3271, 4898, 6458, 8159, 9850, 11626, 13408]}, "edge": {"target": [], "time": []}}, "mouseover": {"state": {"target": ["21", "20", "17", "16", "6", "5", "9", "11", "10"], "time": [1513, 2173, 3805, 5485, 7241, 7580, 8780, 10383, 12384]}, "edge": {"target": [], "time": []}}, "mouseout": {"state": {"target": ["0", "0", "21", "20", "17", "16", "6", "5", "9", "11", "10"], "time": [520, 1416, 1950, 3644, 5055, 7086, 7319, 8544, 10274, 12013, 13791]}, "edge": {"target": [], "time": []}}}, "displayed_time": "18.57", "trialTime": 19889, "trial_type": "mouselab-mdp", "trial_index": 44, "time_elapsed": 1615533, "internal_node_id": "0.0-4.0-1.0-35.0"}}, {"uniqueid": "w70160301:a61944270", "current_trial": 45, "dateTime": 1691161021934, "trialdata": {"revealed_states": [], "clicked_states": ["32", "33", "27", "29"], "num_clicks_accrued": [0, 0, 0, 0, 0, 0, 0, 0, 0, 0, 0, 0, 0], "stateRewards": ["", -2, 1, -3, -16, -39, -52, 30, -7, -41, -59, 11, 2, 1, 8, 2, -11, -26, -42, -13, 87, -59, -48, -1, -1, -1, 16, -79, 31, 50, -1, -84, 34, -82], "withholdReward": false, "trial_id": "mdp_trial_37", "block": "test", "trialIndex": 38, "score": 57.4, "costs": -5.6, "simulationMode": [null, null, null, null, null], "rewards": [-1, -1, -1, 16, 50], "path": ["0", "0", "23", "24", "25", "26", "29"], "rt": [10226, 4, 23, 34, 16], "actions": ["left", "left", "left", "up", "left"], "actionTimes": [11593, 12105, 12645, 13190, 13713], "queries": {"click": {"state": {"target": ["32", "33", "27", "29"], "time": [2439, 4254, 6151, 8142]}, "edge": {"target": [], "time": []}}, "mouseover": {"state": {"target": ["31", "32", "33", "26", "27", "29", "26", "8", "8", "10", "0"], "time": [1862, 2119, 3721, 4860, 5007, 6857, 9765, 10328, 10508, 10612, 10786]}, "edge": {"target": [], "time": []}}, "mouseout": {"state": {"target": ["23", "0", "31", "32", "33", "26", "27", "29", "26", "8", "8", "10", "0"], "time": [675, 1675, 1897, 3002, 4667, 4929, 6671, 9237, 9890, 10355, 10578, 10682, 10795]}, "edge": {"target": [], "time": []}}}, "displayed_time": "15.37", "trialTime": 27099, "trial_type": "mouselab-mdp", "trial_index": 45, "time_elapsed": 1642928, "internal_node_id": "0.0-4.0-1.0-36.0"}}, {"uniqueid": "w70160301:a61944270", "current_trial": 46, "dateTime": 1691161048505, "trialdata": {"revealed_states": [], "clicked_states": ["21", "20", "17", "16", "5", "6", "7", "9", "11"], "num_clicks_accrued": [0, 0, 0, 0, 0, 0, 0, 0, 0, 0, 0, 0, 0], "stateRewards": ["", 2, 3, 3, 10, 19, -21, 6, 9, 54, 68, 16, 2, 2, -6, -8, 40, -2, -75, -2, -42, 55, 59, -1, 2, 4, -14, 11, -34, -30, -6, 61, -53, 13], "withholdReward": false, "trial_id": "mdp_trial_38", "block": "test", "trialIndex": 39, "score": 58.4, "costs": -12.600000000000001, "simulationMode": [null, null, null, null, null], "rewards": [2, 3, 3, 9, 54], "path": ["0", "0", "1", "2", "3", "8", "9"], "rt": [19515, 10, 34, 552, 126], "actions": ["up", "up", "up", "left", "up"], "actionTimes": [21239, 21757, 22301, 23362, 23997], "queries": {"click": {"state": {"target": ["21", "20", "17", "16", "5", "6", "7", "9", "11"], "time": [2893, 4459, 6870, 8867, 11751, 13522, 15363, 17149, 18933]}, "edge": {"target": [], "time": []}}, "mouseover": {"state": {"target": ["21", "20", "17", "16", "6", "5", "6", "7", "2", "8", "9", "11", "2", "18", "18"], "time": [2592, 3600, 6719, 8007, 11203, 11377, 12081, 14352, 15877, 16037, 16208, 17578, 19463, 19557, 20327]}, "edge": {"target": [], "time": []}}, "mouseout": {"state": {"target": ["30", "33", "30", "0", "21", "20", "17", "16", "6", "5", "6", "7", "2", "8", "9", "11", "2", "18", "18", "13"], "time": [842, 981, 1016, 2183, 3300, 5426, 7485, 9808, 11217, 12026, 13977, 15837, 15898, 16129, 17474, 19388, 19489, 19568, 25038, 25154]}, "edge": {"target": [], "time": []}}}, "displayed_time": "24.50", "trialTime": 26269, "trial_type": "mouselab-mdp", "trial_index": 46, "time_elapsed": 1669499, "internal_node_id": "0.0-4.0-1.0-37.0"}}, {"uniqueid": "w70160301:a61944270", "current_trial": 47, "dateTime": 1691161080533, "trialdata": {"revealed_states": [], "clicked_states": ["21", "32", "33"], "num_clicks_accrued": [0, 0, 0, 0, 0, 0, 0, 0, 0, 0, 0, 0, 0], "stateRewards": ["", 1, 1, -6, -2, 7, 77, 3, 16, -16, 66, 31, -1, 3, -8, -6, 33, -50, -48, 7, -60, -66, 36, 2, -3, 3, -7, -12, -61, -79, -4, 8, 74, -70], "withholdReward": false, "trial_id": "mdp_trial_39", "block": "test", "trialIndex": 40, "score": 67.8, "costs": -4.199999999999999, "simulationMode": [null, null, null, null, null], "rewards": [2, -3, 3, -4, 74], "path": ["0", "0", "23", "24", "25", "30", "32"], "rt": [6171, 61, 75, 30, 73], "actions": ["left", "left", "left", "down", "down"], "actionTimes": [8442, 9013, 9598, 10134, 10712], "queries": {"click": {"state": {"target": ["21", "32", "33"], "time": [2987, 4728, 6498]}, "edge": {"target": [], "time": []}}, "mouseover": {"state": {"target": ["21", "32", "33"], "time": [2741, 3697, 5143]}, "edge": {"target": [], "time": []}}, "mouseout": {"state": {"target": ["23", "0", "21", "32", "33"], "time": [852, 2582, 3263, 4999, 7079]}, "edge": {"target": [], "time": []}}}, "displayed_time": "16.27", "trialTime": 31726, "trial_type": "mouselab-mdp", "trial_index": 47, "time_elapsed": 1701528, "internal_node_id": "0.0-4.0-1.0-38.0"}}, {"uniqueid": "w70160301:a61944270", "current_trial": 48, "dateTime": 1691161116633, "trialdata": {"revealed_states": [], "clicked_states": ["21", "20", "17", "16", "6", "5", "7", "10", "9", "11", "27", "28", "29", "33", "31", "32"], "num_clicks_accrued": [0, 0, 0, 0, 0, 0, 0, 0, 0, 0, 0, 0, 0], "stateRewards": ["", 1, 2, -6, -13, -51, 22, -4, -12, -44, -12, 6, -2, -2, -2, -14, -46, -4, -77, -2, 36, -79, 41, 2, -4, 2, -6, -55, 59, 70, -5, 39, -19, 24], "withholdReward": false, "trial_id": "mdp_trial_40", "block": "test", "trialIndex": 41, "score": 41.60000000000001, "costs": -22.399999999999995, "simulationMode": [null, null, null, null, null], "rewards": [2, -4, 2, -6, 70], "path": ["0", "0", "23", "24", "25", "26", "29"], "rt": [29741, 228, 48, 117, 17], "actions": ["left", "left", "left", "up", "left"], "actionTimes": [31432, 32168, 32722, 33347, 33872], "queries": {"click": {"state": {"target": ["21", "20", "17", "16", "6", "5", "7", "10", "9", "11", "27", "28", "29", "33", "31", "32"], "time": [2636, 4413, 6269, 8146, 9890, 11810, 13596, 15361, 17158, 18788, 20697, 22467, 24203, 26024, 27775, 29556]}, "edge": {"target": [], "time": []}}, "mouseover": {"state": {"target": ["21", "20", "17", "16", "6", "5", "4", "7", "2", "10", "8", "9", "11", "27", "28", "26", "29", "33", "30", "31", "32"], "time": [2479, 3877, 5351, 7834, 9195, 10633, 12265, 12511, 14312, 14674, 15785, 15868, 17552, 19652, 21367, 23372, 23587, 25188, 26460, 26537, 28311]}, "edge": {"target": [], "time": []}}, "mouseout": {"state": {"target": ["22", "0", "21", "21", "20", "17", "16", "6", "5", "4", "7", "2", "10", "8", "9", "11", "27", "28", "28", "26", "29", "33", "30", "31", "32"], "time": [930, 2125, 2779, 3024, 4831, 7114, 8771, 10197, 12232, 12396, 14015, 14425, 15701, 15826, 17463, 19175, 21069, 22478, 22910, 23556, 24590, 26402, 26493, 28043, 29971]}, "edge": {"target": [], "time": []}}}, "displayed_time": "34.40", "trialTime": 35759, "trial_type": "mouselab-mdp", "trial_index": 48, "time_elapsed": 1737627, "internal_node_id": "0.0-4.0-1.0-39.0"}}, {"uniqueid": "w70160301:a61944270", "current_trial": 49, "dateTime": 1691161228178, "trialdata": {"rt": 111541, "response": {"Q0": "$-2 to $2", "Q1": "$-16 to $16", "Q2": "$-88 to $88", "Q3": "The cost for clicking on nodes varied between nodes.", "Q4": "Very motivated"}, "question_order": [0, 1, 2, 3, 4], "trial_id": "final_quiz_control", "trial_type": "survey-multi-choice", "trial_index": 49, "time_elapsed": 1849173, "internal_node_id": "0.0-4.0-2.0"}}, {"uniqueid": "w70160301:a61944270", "current_trial": 50, "dateTime": 1691161394706, "trialdata": {"rt": 166522, "response": {"Q0": "My strategy was to check the number at the end of the path. I would then move the spider to the highest value. ", "Q1": "No", "Q2": "It was not difficult."}, "trial_id": "self_report_control", "trial_type": "survey-text", "trial_index": 50, "time_elapsed": 2015701, "internal_node_id": "0.0-4.0-3.0"}}, {"uniqueid": "w70160301:a61944270", "current_trial": 51, "dateTime": 1691161424901, "trialdata": {"rt": 30192, "response": {"gender": "male", "age": "31", "colorblind": "0", "effort": "0"}, "trial_type": "survey-html-form", "trial_index": 51, "time_elapsed": 2045896, "internal_node_id": "0.0-4.0-4.0"}}, {"uniqueid": "w70160301:a61944270", "current_trial": 52, "dateTime": 1691161491316, "trialdata": {"rt": 66411, "response": {"Q0": "no", "Q1": "I have never participated in a Web of Cash HIT before.", "Q2": "non"}, "trial_type": "survey-text", "trial_index": 52, "time_elapsed": 2112311, "internal_node_id": "0.0-4.0-5.0"}}, {"uniqueid": "w70160301:a61944270", "current_trial": 53, "dateTime": 1691161500190, "trialdata": {"rt": 8870, "stimulus": "Press 'Finish HIT' in order to reach the completion code. Once the data has been saved, you will receive the code either in this window or in the original browser window where you started the experiment.\n", "response": 0, "trial_type": "html-button-response", "trial_index": 53, "time_elapsed": 2121185, "internal_node_id": "0.0-5.0"}}, {"uniqueid": "w70160301:a61944270", "current_trial": 54, "dateTime": 1691161501194, "trialdata": {"success": true, "trial_type": "fullscreen", "trial_index": 54, "time_elapsed": 2122188, "internal_node_id": "0.0-6.0"}}], "questiondata": {"params": {"CODE": "C6DMOQA6", "MIN_TIME": 14, "inspectCost": 1, "startTime": "Fri Aug 04 2023 16:29:37 GMT+0200 (South Africa Standard Time)", "bonusRate": 0.002, "variance": "1_2_4_8_44", "branching": "31123"}, "final_score": 2203.4}, "eventdata": [{"eventtype": "initialized", "value": null, "timestamp": 1691159376900, "interval": 0}, {"eventtype": "window_resize", "value": [1024, 767], "timestamp": 1691159376900, "interval": 0}, {"eventtype": "window_resize", "value": [1024, 767], "timestamp": 1691159377368, "interval": 468}, {"eventtype": "window_resize", "value": [1920, 988], "timestamp": 1691159379855, "interval": 2487}, {"eventtype": "window_resize", "value": [1920, 1080], "timestamp": 1691159385927, "interval": 6072}, {"eventtype": "focus", "value": "off", "timestamp": 1691159391965, "interval": 6038}, {"eventtype": "window_resize", "value": [1920, 1079], "timestamp": 1691159392181, "interval": 216}, {"eventtype": "focus", "value": "on", "timestamp": 1691159393060, "interval": 879}, {"eventtype": "window_resize", "value": [1920, 1080], "timestamp": 1691159393280, "interval": 220}, {"eventtype": "window_resize", "value": [1920, 988], "timestamp": 1691161500407, "interval": 2107127}], "useragent": "Mozilla/5.0 (Windows NT 10.0; Win64; x64) AppleWebKit/537.36 (KHTML, like Gecko) Chrome/115.0.0.0 Safari/537.36", "mode": "live", "id": "w70160301:a61944270", "status": "user data saved", "Beginhit": "2023-08-04 14:29:34.736481", "Beginexp": "2023-08-04 14:29:47.271681", "Endhit": "2023-08-04 15:05:02.812744", "psiturkStatus": 3, "browser": "<redacted>", "platform": "windows", "language": "en-GB"}