{"condition": 0, "counterbalance": 0, "assignmentId": "a26438600", "workerId": "w66301944", "hitId": "h98214099", "currenttrial": 55, "bonus": 0, "data": [{"uniqueid": "w66301944:a26438600", "current_trial": 0, "dateTime": 1691159444872, "trialdata": {"success": true, "trial_type": "fullscreen", "trial_index": 0, "time_elapsed": 24562, "internal_node_id": "0.0-0.0"}}, {"uniqueid": "w66301944:a26438600", "current_trial": 1, "dateTime": 1691159500924, "trialdata": {"view_history": [{"page_index": 0, "viewing_time": 56045}], "rt": 56046, "trial_id": "exp_instructions_control", "trial_type": "instructions", "trial_index": 1, "time_elapsed": 80615, "internal_node_id": "0.0-1.0"}}, {"uniqueid": "w66301944:a26438600", "current_trial": 2, "dateTime": 1691159508306, "trialdata": {"success": true, "trial_type": "fullscreen", "trial_index": 2, "time_elapsed": 87997, "internal_node_id": "0.0-2.0-0.0"}}, {"uniqueid": "w66301944:a26438600", "current_trial": 3, "dateTime": 1691160275976, "trialdata": {"view_history": [{"page_index": 0, "viewing_time": 286478}, {"page_index": 1, "viewing_time": 202953}, {"page_index": 2, "viewing_time": 240779}, {"page_index": 3, "viewing_time": 37452}], "rt": 767665, "trial_id": "mouselab_instructions_1_control", "trial_type": "instructions", "trial_index": 3, "time_elapsed": 855666, "internal_node_id": "0.0-2.0-1.0"}}, {"uniqueid": "w66301944:a26438600", "current_trial": 4, "dateTime": 1691160304853, "trialdata": {"revealed_states": [], "clicked_states": [], "num_clicks_accrued": [0, 0, 0, 0, 0, 0, 0, 0, 0, 0, 0, 0, 0], "stateRewards": ["", 10, -10, 10, -10, -10, 10, 10, -10, -10, -10, -10, 10, 10, -10, -10, 10, 10, -10, -10, -10, 10, -10, -10, 10, 10, 10, -10, 10, 10, 10, -10, -10, -10], "withholdReward": false, "trial_id": "practice_1", "block": "test", "trialIndex": 0, "score": 13.5, "costs": 0, "simulationMode": [null, null, null, null, null], "rewards": [10, -10, 10, -10, 10], "path": ["0", "0", "1", "2", "3", "4", "7"], "rt": [2068, 526, 927, 29, 5918], "actions": ["up", "up", "up", "right", "down"], "actionTimes": [4019, 5074, 6523, 7077, 13529], "queries": {"click": {"state": {"target": [], "time": []}, "edge": {"target": [], "time": []}}, "mouseover": {"state": {"target": [], "time": []}, "edge": {"target": [], "time": []}}, "mouseout": {"state": {"target": ["0", "1", "2", "4", "4", "7", "4", "0"], "time": [9192, 9276, 9358, 10123, 11891, 20866, 23462, 24910]}, "edge": {"target": [], "time": []}}}, "displayed_time": "14.04", "trialTime": 26911, "trial_type": "mouselab-mdp", "trial_index": 4, "time_elapsed": 884543, "internal_node_id": "0.0-2.0-2.0-0.0"}}, {"uniqueid": "w66301944:a26438600", "current_trial": 5, "dateTime": 1691160322079, "trialdata": {"revealed_states": [], "clicked_states": [], "num_clicks_accrued": [0, 0, 0, 0, 0, 0, 0, 0, 0, 0, 0, 0, 0], "stateRewards": ["", 10, -10, -10, -10, 10, 10, -10, 10, 10, -10, -10, -10, -10, -10, -10, 10, 10, 10, 10, -10, -10, 10, 10, -10, -10, 10, -10, -10, -10, 10, 10, 10, -10], "withholdReward": false, "trial_id": "practice_2", "block": "test", "trialIndex": 1, "score": -6.5, "costs": 0, "simulationMode": [null, null, null, null, null], "rewards": [10, -10, -10, 10, -10], "path": ["0", "0", "23", "24", "25", "30", "33"], "rt": [3655, 706, 70, 253, 442], "actions": ["left", "left", "left", "down", "left"], "actionTimes": [7048, 8286, 8877, 9660, 10615], "queries": {"click": {"state": {"target": [], "time": []}, "edge": {"target": [], "time": []}}, "mouseover": {"state": {"target": [], "time": []}, "edge": {"target": [], "time": []}}, "mouseout": {"state": {"target": ["0"], "time": [13998]}, "edge": {"target": [], "time": []}}}, "displayed_time": "11.13", "trialTime": 16839, "trial_type": "mouselab-mdp", "trial_index": 5, "time_elapsed": 901769, "internal_node_id": "0.0-2.0-2.0-1.0"}}, {"uniqueid": "w66301944:a26438600", "current_trial": 6, "dateTime": 1691160392776, "trialdata": {"view_history": [{"page_index": 0, "viewing_time": 50006}, {"page_index": 1, "viewing_time": 20683}], "rt": 70690, "trial_id": "mouselab_instructions_2_control", "trial_type": "instructions", "trial_index": 6, "time_elapsed": 972466, "internal_node_id": "0.0-2.0-3.0"}}, {"uniqueid": "w66301944:a26438600", "current_trial": 7, "dateTime": 1691160490324, "trialdata": {"rt": 97537, "response": {"Q0": "The cost for clicking on nodes may vary between nodes.", "Q1": "The better I perform the higher my bonus will be.", "Q2": "No, the amount of cash at each node of the web may be different each time.", "Q3": "To get the highest total score.", "Q4": "Only before moving the spider.", "Q5": "3 seconds"}, "question_order": [0, 1, 2, 3, 4, 5], "correct": {"Q0": "The cost for clicking on nodes may vary between nodes.", "Q1": "The better I perform the higher my bonus will be.", "Q2": "No, the amount of cash at each node of the web may be different each time.", "Q3": "To get the highest total score.", "Q4": "Only before moving the spider.", "Q5": "3 seconds"}, "trial_id": "mouselab_quiz_control", "trial_type": "survey-multi-choice", "trial_index": 7, "time_elapsed": 1070014, "internal_node_id": "0.0-2.0-4.0"}}, {"uniqueid": "w66301944:a26438600", "current_trial": 8, "dateTime": 1691160528785, "trialdata": {"rt": 38445, "stimulus": "\n<h1> Get ready to start the game! </h1>\n\nThank you for reading the instructions. Get ready start with the 40 rounds of this game.\n<br><br>\nIf you need to take a break, feel free to take one after the end of a round, before continuing to the next one.\n<br><br>\nRemember, the more money the spider gets, the bigger your bonus will be!\n<br><br>\n<div style='text-align: center;'>Press <code>space</code> to begin.</div>\n\n<br><br>\n(If, at any point, the <code>space</code> key does not take you to the next page, click once on the text and try again.)", "response": " ", "trial_id": "mdp_ready", "trial_type": "html-keyboard-response", "trial_index": 8, "time_elapsed": 1108476, "internal_node_id": "0.0-4.0-0.0"}}, {"uniqueid": "w66301944:a26438600", "current_trial": 9, "dateTime": 1691160557521, "trialdata": {"revealed_states": [], "clicked_states": [], "num_clicks_accrued": [0, 0, 0, 0, 0, 0, 0, 0, 0, 0, 0, 0, 0], "stateRewards": ["", 1, -3, 4, 13, -72, 52, 5, 5, -58, 5, 14, 2, 1, 3, -14, -86, -4, 73, 6, -58, -50, 49, 2, -3, -4, 2, 33, -41, 42, -11, 81, 45, 53], "withholdReward": false, "trial_id": "mdp_trial_1", "block": "test", "trialIndex": 2, "score": 12, "costs": 0, "simulationMode": [null, null, null, null, null], "rewards": [1, -3, 4, 5, 5], "path": ["0", "0", "1", "2", "3", "8", "10"], "rt": [2002, 783, 305, 549, 932], "actions": ["up", "up", "up", "left", "down"], "actionTimes": [5755, 7064, 7883, 8943, 10394], "queries": {"click": {"state": {"target": [], "time": []}, "edge": {"target": [], "time": []}}, "mouseover": {"state": {"target": [], "time": []}, "edge": {"target": [], "time": []}}, "mouseout": {"state": {"target": ["0", "0", "10", "8", "10"], "time": [1946, 12134, 12352, 20344, 20411]}, "edge": {"target": [], "time": []}}}, "displayed_time": "17.77", "trialTime": 28318, "trial_type": "mouselab-mdp", "trial_index": 9, "time_elapsed": 1137211, "internal_node_id": "0.0-4.0-1.0-0.0"}}, {"uniqueid": "w66301944:a26438600", "current_trial": 10, "dateTime": 1691160582610, "trialdata": {"revealed_states": [], "clicked_states": [], "num_clicks_accrued": [0, 0, 0, 0, 0, 0, 0, 0, 0, 0, 0, 0, 0], "stateRewards": ["", -1, -4, -3, 1, -45, -67, -24, 14, 32, 22, 22, -1, 1, -5, -7, 72, 84, -79, -5, 19, -40, -2, -1, -2, 8, -3, 84, -25, -28, 11, 64, -66, 77], "withholdReward": false, "trial_id": "mdp_trial_2", "block": "test", "trialIndex": 3, "score": -26, "costs": 0, "simulationMode": [null, null, null, null, null], "rewards": [-1, -2, 8, -3, -28], "path": ["0", "0", "23", "24", "25", "26", "29"], "rt": [3755, 843, 377, 1115, 969], "actions": ["left", "left", "left", "up", "left"], "actionTimes": [10015, 11383, 12266, 13906, 15387], "queries": {"click": {"state": {"target": [], "time": []}, "edge": {"target": [], "time": []}}, "mouseover": {"state": {"target": [], "time": []}, "edge": {"target": [], "time": []}}, "mouseout": {"state": {"target": ["0", "0", "28", "26", "29", "29", "25", "31"], "time": [4162, 17700, 17780, 17835, 17864, 23306, 23391, 23441]}, "edge": {"target": [], "time": []}}}, "displayed_time": "20.27", "trialTime": 24684, "trial_type": "mouselab-mdp", "trial_index": 10, "time_elapsed": 1162299, "internal_node_id": "0.0-4.0-1.0-1.0"}}, {"uniqueid": "w66301944:a26438600", "current_trial": 11, "dateTime": 1691160605955, "trialdata": {"revealed_states": [], "clicked_states": [], "num_clicks_accrued": [0, 0, 0, 0, 0, 0, 0, 0, 0, 0, 0, 0, 0], "stateRewards": ["", 1, 1, -3, 7, 49, 78, 26, -5, 26, 48, -43, -1, -3, 2, -5, 4, -1, -60, 10, -35, 51, 81, -2, 1, -7, -5, -39, -86, -54, 4, -3, 74, 77], "withholdReward": false, "trial_id": "mdp_trial_3", "block": "test", "trialIndex": 4, "score": 59, "costs": 0, "simulationMode": [null, null, null, null, null], "rewards": [-1, -3, 2, 10, 51], "path": ["0", "0", "12", "13", "14", "19", "21"], "rt": [2379, 398, 243, 135, 707], "actions": ["right", "right", "right", "down", "down"], "actionTimes": [5431, 6324, 7084, 7744, 8964], "queries": {"click": {"state": {"target": [], "time": []}, "edge": {"target": [], "time": []}}, "mouseover": {"state": {"target": [], "time": []}, "edge": {"target": [], "time": []}}, "mouseout": {"state": {"target": ["0", "21", "19", "22", "21"], "time": [11338, 11488, 13318, 14420, 16649]}, "edge": {"target": [], "time": []}}}, "displayed_time": "17.05", "trialTime": 22922, "trial_type": "mouselab-mdp", "trial_index": 11, "time_elapsed": 1185645, "internal_node_id": "0.0-4.0-1.0-2.0"}}, {"uniqueid": "w66301944:a26438600", "current_trial": 12, "dateTime": 1691160628343, "trialdata": {"revealed_states": [], "clicked_states": [], "num_clicks_accrued": [0, 0, 0, 0, 0, 0, 0, 0, 0, 0, 0, 0, 0], "stateRewards": ["", -2, 2, 3, -7, 76, 63, 21, 15, 35, -8, -44, 1, 1, -2, -12, 23, 24, 76, -9, 46, 66, -49, -2, -1, 7, 12, 40, -71, -45, -6, 38, -49, 46], "withholdReward": false, "trial_id": "mdp_trial_4", "block": "test", "trialIndex": 5, "score": 17, "costs": 0, "simulationMode": [null, null, null, null, null], "rewards": [-2, 2, 3, -7, 21], "path": ["0", "0", "1", "2", "3", "4", "7"], "rt": [592, 941, 620, 717, 1534], "actions": ["up", "up", "up", "right", "down"], "actionTimes": [6223, 7688, 8826, 10055, 12104], "queries": {"click": {"state": {"target": [], "time": []}, "edge": {"target": [], "time": []}}, "mouseover": {"state": {"target": [], "time": []}, "edge": {"target": [], "time": []}}, "mouseout": {"state": {"target": ["0", "7", "0"], "time": [16645, 18097, 18280]}, "edge": {"target": [], "time": []}}}, "displayed_time": "19.64", "trialTime": 21962, "trial_type": "mouselab-mdp", "trial_index": 12, "time_elapsed": 1208033, "internal_node_id": "0.0-4.0-1.0-3.0"}}, {"uniqueid": "w66301944:a26438600", "current_trial": 13, "dateTime": 1691160648435, "trialdata": {"revealed_states": [], "clicked_states": [], "num_clicks_accrued": [0, 0, 0, 0, 0, 0, 0, 0, 0, 0, 0, 0, 0], "stateRewards": ["", -2, 4, -3, -13, 63, -36, 62, 11, 78, 34, -51, 2, -2, 8, -6, -40, -18, 31, 9, 64, 39, 79, 1, 4, -4, 15, -12, 76, 73, -10, -77, 86, -4], "withholdReward": false, "trial_id": "mdp_trial_5", "block": "test", "trialIndex": 6, "score": -86, "costs": 0, "simulationMode": [null, null, null, null, null], "rewards": [1, 4, -4, -10, -77], "path": ["0", "0", "23", "24", "25", "30", "31"], "rt": [3485, 851, 344, 385, 836], "actions": ["left", "left", "left", "down", "right"], "actionTimes": [6402, 7763, 8607, 9511, 10861], "queries": {"click": {"state": {"target": [], "time": []}, "edge": {"target": [], "time": []}}, "mouseover": {"state": {"target": [], "time": []}, "edge": {"target": [], "time": []}}, "mouseout": {"state": {"target": ["0", "31", "31"], "time": [12556, 14655, 15200]}, "edge": {"target": [], "time": []}}}, "displayed_time": "16.92", "trialTime": 19597, "trial_type": "mouselab-mdp", "trial_index": 13, "time_elapsed": 1228125, "internal_node_id": "0.0-4.0-1.0-4.0"}}, {"uniqueid": "w66301944:a26438600", "current_trial": 14, "dateTime": 1691160667098, "trialdata": {"revealed_states": [], "clicked_states": [], "num_clicks_accrued": [0, 0, 0, 0, 0, 0, 0, 0, 0, 0, 0, 0, 0], "stateRewards": ["", -1, 2, 7, 8, 75, 67, -11, 6, 52, -17, 38, -1, 4, -8, 14, 74, -37, -17, -12, 52, 55, 71, -2, -1, -5, 2, 21, 6, -88, -14, 64, -61, -47], "withholdReward": false, "trial_id": "mdp_trial_6", "block": "test", "trialIndex": 7, "score": 0, "costs": 0, "simulationMode": [null, null, null, null, null], "rewards": [-2, -1, -5, 2, 6], "path": ["0", "0", "23", "24", "25", "26", "28"], "rt": [1065, 145, 192, 38, 115], "actions": ["left", "left", "left", "up", "right"], "actionTimes": [2887, 3547, 4262, 4830, 5480], "queries": {"click": {"state": {"target": [], "time": []}, "edge": {"target": [], "time": []}}, "mouseover": {"state": {"target": [], "time": []}, "edge": {"target": [], "time": []}}, "mouseout": {"state": {"target": ["0", "23"], "time": [7360, 17019]}, "edge": {"target": [], "time": []}}}, "displayed_time": "15.85", "trialTime": 18201, "trial_type": "mouselab-mdp", "trial_index": 14, "time_elapsed": 1246789, "internal_node_id": "0.0-4.0-1.0-5.0"}}, {"uniqueid": "w66301944:a26438600", "current_trial": 15, "dateTime": 1691160687347, "trialdata": {"revealed_states": [], "clicked_states": [], "num_clicks_accrued": [0, 0, 0, 0, 0, 0, 0, 0, 0, 0, 0, 0, 0], "stateRewards": ["", 2, 3, 6, -5, -74, -53, 17, -12, 46, 44, 18, -2, 4, 1, -8, 22, -23, -49, 9, -45, 55, 81, 1, -1, -7, -16, -83, -71, -45, 2, 51, 82, 61], "withholdReward": false, "trial_id": "mdp_trial_7", "block": "test", "trialIndex": 8, "score": 77, "costs": 0, "simulationMode": [null, null, null, null, null], "rewards": [1, -1, -7, 2, 82], "path": ["0", "0", "23", "24", "25", "30", "32"], "rt": [3593, 238, 284, 170, 258], "actions": ["left", "left", "left", "down", "down"], "actionTimes": [7382, 8140, 8939, 9620, 10389], "queries": {"click": {"state": {"target": [], "time": []}, "edge": {"target": [], "time": []}}, "mouseover": {"state": {"target": [], "time": []}, "edge": {"target": [], "time": []}}, "mouseout": {"state": {"target": ["0", "0", "1", "2", "1"], "time": [1223, 11163, 11262, 11481, 11531]}, "edge": {"target": [], "time": []}}}, "displayed_time": "17.82", "trialTime": 19804, "trial_type": "mouselab-mdp", "trial_index": 15, "time_elapsed": 1267037, "internal_node_id": "0.0-4.0-1.0-6.0"}}, {"uniqueid": "w66301944:a26438600", "current_trial": 16, "dateTime": 1691160724738, "trialdata": {"revealed_states": [], "clicked_states": [], "num_clicks_accrued": [0, 0, 0, 0, 0, 0, 0, 0, 0, 0, 0, 0, 0], "stateRewards": ["", -2, -3, -6, -7, 9, 16, 65, 5, -41, 20, -25, -1, -4, 1, -11, -49, -4, 71, 1, 39, -62, 52, -2, -3, 7, -9, -28, -70, 84, 8, 24, -58, 82], "withholdReward": false, "trial_id": "mdp_trial_8", "block": "test", "trialIndex": 9, "score": -35, "costs": 0, "simulationMode": [null, null, null, null, null], "rewards": [-2, -3, 7, -9, -28], "path": ["0", "0", "23", "24", "25", "26", "27"], "rt": [940, 142, 319, 117, 458], "actions": ["left", "left", "left", "up", "up"], "actionTimes": [2807, 3466, 4310, 4939, 5915], "queries": {"click": {"state": {"target": [], "time": []}, "edge": {"target": [], "time": []}}, "mouseover": {"state": {"target": [], "time": []}, "edge": {"target": [], "time": []}}, "mouseout": {"state": {"target": ["0", "0"], "time": [1125, 8033]}, "edge": {"target": [], "time": []}}}, "displayed_time": "15.88", "trialTime": 36882, "trial_type": "mouselab-mdp", "trial_index": 16, "time_elapsed": 1304428, "internal_node_id": "0.0-4.0-1.0-7.0"}}, {"uniqueid": "w66301944:a26438600", "current_trial": 17, "dateTime": 1691160743961, "trialdata": {"revealed_states": [], "clicked_states": [], "num_clicks_accrued": [0, 0, 0, 0, 0, 0, 0, 0, 0, 0, 0, 0, 0], "stateRewards": ["", 2, 4, 7, -6, -76, -81, 2, 5, -66, -3, 36, -2, -4, 6, -2, -69, 4, -49, -6, 67, 38, -67, 2, 1, 1, 6, -68, -21, 52, -16, -16, 6, -70], "withholdReward": false, "trial_id": "mdp_trial_9", "block": "test", "trialIndex": 10, "score": -6, "costs": 0, "simulationMode": [null, null, null, null, null], "rewards": [2, 1, 1, -16, 6], "path": ["0", "0", "23", "24", "25", "30", "32"], "rt": [1226, 91, 87, 575, 1150], "actions": ["left", "left", "left", "down", "down"], "actionTimes": [3778, 4387, 4982, 6072, 7745], "queries": {"click": {"state": {"target": [], "time": []}, "edge": {"target": [], "time": []}}, "mouseover": {"state": {"target": [], "time": []}, "edge": {"target": [], "time": []}}, "mouseout": {"state": {"target": ["0"], "time": [9207]}, "edge": {"target": [], "time": []}}}, "displayed_time": "16.59", "trialTime": 18732, "trial_type": "mouselab-mdp", "trial_index": 17, "time_elapsed": 1323651, "internal_node_id": "0.0-4.0-1.0-8.0"}}, {"uniqueid": "w66301944:a26438600", "current_trial": 18, "dateTime": 1691160766252, "trialdata": {"revealed_states": [], "clicked_states": ["23"], "num_clicks_accrued": [0, 0, 0, 0, 0, 0, 0, 0, 0, 0, 0, 0, 0], "stateRewards": ["", -2, -4, -8, 8, 63, -50, -19, -7, -17, -31, 31, 1, 3, -5, 12, -35, -63, -29, -4, -17, -75, -79, -2, -3, -2, 8, -3, -85, 10, -2, -82, -82, 56], "withholdReward": false, "trial_id": "mdp_trial_10", "block": "test", "trialIndex": 11, "score": -92.4, "costs": -1.4, "simulationMode": [null, null, null, null, null], "rewards": [-2, -3, -2, -2, -82], "path": ["0", "0", "23", "24", "25", "30", "32"], "rt": [4256, 361, 333, 223, 3063], "actions": ["left", "left", "left", "down", "down"], "actionTimes": [7867, 8727, 9582, 10321, 13894], "queries": {"click": {"state": {"target": ["23"], "time": [5893]}, "edge": {"target": [], "time": []}}, "mouseover": {"state": {"target": ["23", "0"], "time": [5399, 7516]}, "edge": {"target": [], "time": []}}, "mouseout": {"state": {"target": ["0", "23", "0", "31", "31"], "time": [5251, 7233, 12167, 12314, 15027]}, "edge": {"target": [], "time": []}}}, "displayed_time": "17.61", "trialTime": 21782, "trial_type": "mouselab-mdp", "trial_index": 18, "time_elapsed": 1345942, "internal_node_id": "0.0-4.0-1.0-9.0"}}, {"uniqueid": "w66301944:a26438600", "current_trial": 19, "dateTime": 1691160791952, "trialdata": {"revealed_states": [], "clicked_states": ["12"], "num_clicks_accrued": [0, 0, 0, 0, 0, 0, 0, 0, 0, 0, 0, 0, 0], "stateRewards": ["", 1, 1, 4, 11, 83, -66, 18, -16, -23, 5, 25, 1, -3, 1, -12, 18, 24, -86, -11, -64, 36, 40, 2, 1, -6, 13, 55, 29, 72, -2, 81, -72, -41], "withholdReward": false, "trial_id": "mdp_trial_11", "block": "test", "trialIndex": 12, "score": 98.6, "costs": -1.4, "simulationMode": [null, null, null, null, null, null], "rewards": [1, 1, 4, 11, 83], "path": ["0", "0", "1", "2", "3", "4", "5"], "rt": [2797, 421, 306, 1547, 2, 206], "actions": ["left", "up", "up", "up", "right", "up"], "actionTimes": [6040, 6465, 7294, 9353, 9871, 10607], "queries": {"click": {"state": {"target": ["12"], "time": [4718]}, "edge": {"target": [], "time": []}}, "mouseover": {"state": {"target": ["12"], "time": [4207]}, "edge": {"target": [], "time": []}}, "mouseout": {"state": {"target": ["0", "12"], "time": [4157, 12331]}, "edge": {"target": [], "time": []}}}, "displayed_time": "17.26", "trialTime": 25174, "trial_type": "mouselab-mdp", "trial_index": 19, "time_elapsed": 1371643, "internal_node_id": "0.0-4.0-1.0-10.0"}}, {"uniqueid": "w66301944:a26438600", "current_trial": 20, "dateTime": 1691160819134, "trialdata": {"revealed_states": [], "clicked_states": ["23"], "num_clicks_accrued": [0, 0, 0, 0, 0, 0, 0, 0, 0, 0, 0, 0, 0], "stateRewards": ["", 2, -1, 5, 6, 10, 86, 55, 10, -45, 63, -71, 1, -2, 5, -8, -50, -72, 36, 15, 61, 12, 33, -1, -4, 6, 5, 79, -56, -21, -16, -87, 60, -81], "withholdReward": false, "trial_id": "mdp_trial_12", "block": "test", "trialIndex": 13, "score": -77.4, "costs": -1.4, "simulationMode": [null, null, null, null, null, null], "rewards": [1, -2, 5, -8, -72], "path": ["0", "0", "12", "13", "14", "15", "17"], "rt": [3886, 887, 277, 99, 114, 77], "actions": ["right", "right", "right", "right", "up", "right"], "actionTimes": [12823, 13713, 14518, 15132, 15768, 16360], "queries": {"click": {"state": {"target": ["23"], "time": [11324]}, "edge": {"target": [], "time": []}}, "mouseover": {"state": {"target": ["23", "23", "0"], "time": [10603, 10988, 12601]}, "edge": {"target": [], "time": []}}, "mouseout": {"state": {"target": ["0", "0", "23", "23", "0", "12", "18", "13"], "time": [4099, 10555, 10755, 12535, 12719, 17328, 17628, 18395]}, "edge": {"target": [], "time": []}}}, "displayed_time": "22.95", "trialTime": 26685, "trial_type": "mouselab-mdp", "trial_index": 20, "time_elapsed": 1398825, "internal_node_id": "0.0-4.0-1.0-11.0"}}, {"uniqueid": "w66301944:a26438600", "current_trial": 21, "dateTime": 1691160836968, "trialdata": {"revealed_states": [], "clicked_states": [], "num_clicks_accrued": [0, 0, 0, 0, 0, 0, 0, 0, 0, 0, 0, 0, 0], "stateRewards": ["", -2, -1, -2, -15, 87, 57, 29, -10, 77, -80, -7, 1, -3, 6, 14, -11, 87, -59, 4, -71, 16, -11, 2, 2, -7, 2, -47, 61, 50, 14, -20, 17, 81], "withholdReward": false, "trial_id": "mdp_trial_13", "block": "test", "trialIndex": 14, "score": 67, "costs": 0, "simulationMode": [null, null, null, null, null], "rewards": [-2, -1, -2, -15, 87], "path": ["0", "0", "1", "2", "3", "4", "5"], "rt": [2010, 908, 186, 696, 81], "actions": ["up", "up", "up", "right", "up"], "actionTimes": [3899, 5331, 6041, 7250, 7850], "queries": {"click": {"state": {"target": [], "time": []}, "edge": {"target": [], "time": []}}, "mouseover": {"state": {"target": [], "time": []}, "edge": {"target": [], "time": []}}, "mouseout": {"state": {"target": ["0", "0"], "time": [1091, 10783]}, "edge": {"target": [], "time": []}}}, "displayed_time": "15.90", "trialTime": 17290, "trial_type": "mouselab-mdp", "trial_index": 21, "time_elapsed": 1416658, "internal_node_id": "0.0-4.0-1.0-12.0"}}, {"uniqueid": "w66301944:a26438600", "current_trial": 22, "dateTime": 1691160858398, "trialdata": {"revealed_states": [], "clicked_states": [], "num_clicks_accrued": [0, 0, 0, 0, 0, 0, 0, 0, 0, 0, 0, 0, 0], "stateRewards": ["", 1, 4, -8, -5, -15, -7, 21, 13, -30, 40, -65, 1, 1, 5, -14, 35, 27, -38, -11, 36, -58, -47, -2, 4, -3, 13, -16, -49, 22, 15, -56, -44, -10], "withholdReward": false, "trial_id": "mdp_trial_14", "block": "test", "trialIndex": 15, "score": 32, "costs": 0, "simulationMode": [null, null, null, null, null], "rewards": [1, 1, 5, -11, 36], "path": ["0", "0", "12", "13", "14", "19", "20"], "rt": [2983, 596, 258, 82, 222], "actions": ["right", "right", "right", "down", "right"], "actionTimes": [5632, 6737, 7511, 8116, 8856], "queries": {"click": {"state": {"target": [], "time": []}, "edge": {"target": [], "time": []}}, "mouseover": {"state": {"target": [], "time": []}, "edge": {"target": [], "time": []}}, "mouseout": {"state": {"target": ["1", "2", "1", "0", "0"], "time": [1238, 1554, 1636, 1988, 10251]}, "edge": {"target": [], "time": []}}}, "displayed_time": "16.70", "trialTime": 20919, "trial_type": "mouselab-mdp", "trial_index": 22, "time_elapsed": 1438088, "internal_node_id": "0.0-4.0-1.0-13.0"}}, {"uniqueid": "w66301944:a26438600", "current_trial": 23, "dateTime": 1691160876699, "trialdata": {"revealed_states": [], "clicked_states": [], "num_clicks_accrued": [0, 0, 0, 0, 0, 0, 0, 0, 0, 0, 0, 0, 0], "stateRewards": ["", -2, -3, -7, 7, -54, -69, -4, -14, -77, 22, 40, -2, -1, 5, 6, -35, 50, -60, 10, -28, 75, 57, 1, -4, -2, 2, 68, 34, -18, 12, 3, -21, -43], "withholdReward": false, "trial_id": "mdp_trial_15", "block": "test", "trialIndex": 16, "score": 31, "costs": 0, "simulationMode": [null, null, null, null, null], "rewards": [1, -4, -2, 2, 34], "path": ["0", "0", "23", "24", "25", "26", "28"], "rt": [4731, 442, 699, 131, 388], "actions": ["left", "left", "left", "up", "right"], "actionTimes": [7747, 8698, 9919, 10570, 11475], "queries": {"click": {"state": {"target": [], "time": []}, "edge": {"target": [], "time": []}}, "mouseover": {"state": {"target": [], "time": []}, "edge": {"target": [], "time": []}}, "mouseout": {"state": {"target": ["0", "23", "23"], "time": [12902, 12981, 13214]}, "edge": {"target": [], "time": []}}}, "displayed_time": "17.02", "trialTime": 17679, "trial_type": "mouselab-mdp", "trial_index": 23, "time_elapsed": 1456390, "internal_node_id": "0.0-4.0-1.0-14.0"}}, {"uniqueid": "w66301944:a26438600", "current_trial": 24, "dateTime": 1691160897860, "trialdata": {"revealed_states": [], "clicked_states": [], "num_clicks_accrued": [0, 0, 0, 0, 0, 0, 0, 0, 0, 0, 0, 0, 0], "stateRewards": ["", -2, -1, 3, -3, 71, -58, -21, 7, -10, -75, -37, 2, 4, -1, -12, -79, -29, -48, 3, -41, -10, -30, -1, -2, 1, -15, 13, 66, 22, -1, -42, -86, -55], "withholdReward": false, "trial_id": "mdp_trial_16", "block": "test", "trialIndex": 17, "score": -22, "costs": 0, "simulationMode": [null, null, null, null, null], "rewards": [2, 4, -1, 3, -30], "path": ["0", "0", "12", "13", "14", "19", "22"], "rt": [2165, 386, 115, 272, 794], "actions": ["right", "right", "right", "down", "left"], "actionTimes": [8103, 8998, 9627, 10418, 11722], "queries": {"click": {"state": {"target": [], "time": []}, "edge": {"target": [], "time": []}}, "mouseover": {"state": {"target": [], "time": []}, "edge": {"target": [], "time": []}}, "mouseout": {"state": {"target": ["0"], "time": [1302]}, "edge": {"target": [], "time": []}}}, "displayed_time": "19.95", "trialTime": 20579, "trial_type": "mouselab-mdp", "trial_index": 24, "time_elapsed": 1477550, "internal_node_id": "0.0-4.0-1.0-15.0"}}, {"uniqueid": "w66301944:a26438600", "current_trial": 25, "dateTime": 1691160929023, "trialdata": {"revealed_states": [], "clicked_states": [], "num_clicks_accrued": [0, 0, 0, 0, 0, 0, 0, 0, 0, 0, 0, 0, 0], "stateRewards": ["", -2, 1, -3, -16, -39, -52, 30, -7, -41, -59, 11, 2, 1, 8, 2, -11, -26, -42, -13, 87, -59, -48, -1, -1, -1, 16, -79, 31, 50, -1, -84, 34, -82], "withholdReward": false, "trial_id": "mdp_trial_17", "block": "test", "trialIndex": 18, "score": -52, "costs": 0, "simulationMode": [null, null, null, null, null], "rewards": [-2, 1, -3, -7, -41], "path": ["0", "0", "1", "2", "3", "8", "9"], "rt": [1574, 347, 260, 34, 68], "actions": ["up", "up", "up", "left", "up"], "actionTimes": [17517, 18383, 19166, 19722, 20323], "queries": {"click": {"state": {"target": [], "time": []}, "edge": {"target": [], "time": []}}, "mouseover": {"state": {"target": [], "time": []}, "edge": {"target": [], "time": []}}, "mouseout": {"state": {"target": [], "time": []}, "edge": {"target": [], "time": []}}}, "displayed_time": "29.97", "trialTime": 30546, "trial_type": "mouselab-mdp", "trial_index": 25, "time_elapsed": 1508712, "internal_node_id": "0.0-4.0-1.0-16.0"}}, {"uniqueid": "w66301944:a26438600", "current_trial": 26, "dateTime": 1691160946019, "trialdata": {"revealed_states": [], "clicked_states": [], "num_clicks_accrued": [0, 0, 0, 0, 0, 0, 0, 0, 0, 0, 0, 0, 0], "stateRewards": ["", -1, -1, 7, -15, -43, -21, -84, -9, -45, -66, 2, 1, -2, 2, 8, -27, 44, -52, -5, -84, 11, 53, 1, 4, -4, 16, 83, -82, -15, -16, 68, -43, 81], "withholdReward": false, "trial_id": "mdp_trial_18", "block": "test", "trialIndex": 19, "score": -43, "costs": 0, "simulationMode": [null, null, null, null, null], "rewards": [1, -2, 2, 8, -52], "path": ["0", "0", "12", "13", "14", "15", "18"], "rt": [1220, 602, 31, 113, 519], "actions": ["right", "right", "right", "up", "left"], "actionTimes": [2980, 4104, 4649, 5279, 6319], "queries": {"click": {"state": {"target": [], "time": []}, "edge": {"target": [], "time": []}}, "mouseover": {"state": {"target": [], "time": []}, "edge": {"target": [], "time": []}}, "mouseout": {"state": {"target": ["0"], "time": [12015]}, "edge": {"target": [], "time": []}}}, "displayed_time": "15.80", "trialTime": 16359, "trial_type": "mouselab-mdp", "trial_index": 26, "time_elapsed": 1525710, "internal_node_id": "0.0-4.0-1.0-17.0"}}, {"uniqueid": "w66301944:a26438600", "current_trial": 27, "dateTime": 1691160972377, "trialdata": {"revealed_states": [], "clicked_states": [], "num_clicks_accrued": [0, 0, 0, 0, 0, 0, 0, 0, 0, 0, 0, 0, 0], "stateRewards": ["", -2, 1, 6, -2, -10, -78, -69, 14, -15, 7, -1, 1, -1, -2, 13, 77, 32, 87, 5, -74, 30, -26, 1, 3, 4, 12, 39, 54, -43, 2, 10, 23, 13], "withholdReward": false, "trial_id": "mdp_trial_19", "block": "test", "trialIndex": 20, "score": 43, "costs": 0, "simulationMode": [null, null, null, null, null], "rewards": [1, -1, -2, 13, 32], "path": ["0", "0", "12", "13", "14", "15", "17"], "rt": [772, 529, 286, 11, 57], "actions": ["right", "right", "right", "up", "right"], "actionTimes": [3125, 4180, 4989, 5524, 6104], "queries": {"click": {"state": {"target": [], "time": []}, "edge": {"target": [], "time": []}}, "mouseover": {"state": {"target": [], "time": []}, "edge": {"target": [], "time": []}}, "mouseout": {"state": {"target": ["0"], "time": [7311]}, "edge": {"target": [], "time": []}}}, "displayed_time": "16.37", "trialTime": 25763, "trial_type": "mouselab-mdp", "trial_index": 27, "time_elapsed": 1552067, "internal_node_id": "0.0-4.0-1.0-18.0"}}, {"uniqueid": "w66301944:a26438600", "current_trial": 28, "dateTime": 1691160994018, "trialdata": {"revealed_states": [], "clicked_states": [], "num_clicks_accrued": [0, 0, 0, 0, 0, 0, 0, 0, 0, 0, 0, 0, 0], "stateRewards": ["", -2, -4, -2, 10, -8, -15, -47, 7, -84, 53, 5, -1, 2, -7, 3, 83, 31, 47, -1, 30, -8, 69, 2, -4, -1, 8, -7, 12, -8, -8, -13, 30, -84], "withholdReward": false, "trial_id": "mdp_trial_20", "block": "test", "trialIndex": 21, "score": -3, "costs": 0, "simulationMode": [null, null, null, null, null], "rewards": [2, -4, -1, 8, -8], "path": ["0", "0", "23", "24", "25", "26", "29"], "rt": [1546, 394, 206, 107, 135], "actions": ["left", "left", "left", "up", "left"], "actionTimes": [8099, 9014, 9743, 10357, 11002], "queries": {"click": {"state": {"target": [], "time": []}, "edge": {"target": [], "time": []}}, "mouseover": {"state": {"target": [], "time": []}, "edge": {"target": [], "time": []}}, "mouseout": {"state": {"target": ["0"], "time": [5173]}, "edge": {"target": [], "time": []}}}, "displayed_time": "20.57", "trialTime": 21072, "trial_type": "mouselab-mdp", "trial_index": 28, "time_elapsed": 1573708, "internal_node_id": "0.0-4.0-1.0-19.0"}}, {"uniqueid": "w66301944:a26438600", "current_trial": 29, "dateTime": 1691161010455, "trialdata": {"revealed_states": [], "clicked_states": [], "num_clicks_accrued": [0, 0, 0, 0, 0, 0, 0, 0, 0, 0, 0, 0, 0], "stateRewards": ["", -2, -3, 8, -4, -30, 31, 69, 9, 66, 87, 64, -2, 2, 8, 5, 47, 16, -39, -8, -54, 51, -19, 1, -2, -2, -11, -25, -26, 43, -9, 19, -84, 86], "withholdReward": false, "trial_id": "mdp_trial_21", "block": "test", "trialIndex": 22, "score": -40, "costs": 0, "simulationMode": [null, null, null, null, null], "rewards": [1, -2, -2, -11, -26], "path": ["0", "0", "23", "24", "25", "26", "28"], "rt": [871, 605, 484, 149, 587], "actions": ["left", "left", "left", "up", "right"], "actionTimes": [2268, 3386, 4381, 5047, 6153], "queries": {"click": {"state": {"target": [], "time": []}, "edge": {"target": [], "time": []}}, "mouseover": {"state": {"target": [], "time": []}, "edge": {"target": [], "time": []}}, "mouseout": {"state": {"target": ["0"], "time": [1041]}, "edge": {"target": [], "time": []}}}, "displayed_time": "15.43", "trialTime": 15837, "trial_type": "mouselab-mdp", "trial_index": 29, "time_elapsed": 1590145, "internal_node_id": "0.0-4.0-1.0-20.0"}}, {"uniqueid": "w66301944:a26438600", "current_trial": 30, "dateTime": 1691161027748, "trialdata": {"revealed_states": [], "clicked_states": [], "num_clicks_accrued": [0, 0, 0, 0, 0, 0, 0, 0, 0, 0, 0, 0, 0], "stateRewards": ["", 1, -2, -8, -3, 31, -84, -55, -14, 15, -58, 17, -2, -3, 7, 7, -12, 48, 67, 4, -44, -68, 46, 2, 3, -5, -7, 76, 27, 5, 11, 57, 52, 59], "withholdReward": false, "trial_id": "mdp_trial_22", "block": "test", "trialIndex": 23, "score": -6, "costs": 0, "simulationMode": [null, null, null, null, null], "rewards": [1, -2, -8, -14, 17], "path": ["0", "0", "1", "2", "3", "8", "11"], "rt": [505, 335, 292, 579, 601], "actions": ["up", "up", "up", "left", "left"], "actionTimes": [2506, 3361, 4166, 5276, 6396], "queries": {"click": {"state": {"target": [], "time": []}, "edge": {"target": [], "time": []}}, "mouseover": {"state": {"target": [], "time": []}, "edge": {"target": [], "time": []}}, "mouseout": {"state": {"target": [], "time": []}, "edge": {"target": [], "time": []}}}, "displayed_time": "16.02", "trialTime": 16654, "trial_type": "mouselab-mdp", "trial_index": 30, "time_elapsed": 1607438, "internal_node_id": "0.0-4.0-1.0-21.0"}}, {"uniqueid": "w66301944:a26438600", "current_trial": 31, "dateTime": 1691161047891, "trialdata": {"revealed_states": [], "clicked_states": [], "num_clicks_accrued": [0, 0, 0, 0, 0, 0, 0, 0, 0, 0, 0, 0, 0], "stateRewards": ["", 2, -4, -4, 13, -80, 62, 13, -11, 57, -13, -44, 1, 4, 3, -4, -29, -88, 15, 16, -58, 68, -45, -1, -3, -1, -9, -44, -86, -19, -7, -36, 59, 66], "withholdReward": false, "trial_id": "mdp_trial_23", "block": "test", "trialIndex": 24, "score": -61, "costs": 0, "simulationMode": [null, null, null, null, null], "rewards": [2, -4, -4, -11, -44], "path": ["0", "0", "1", "2", "3", "8", "11"], "rt": [361, 624, 91, 770, 264], "actions": ["up", "up", "up", "left", "left"], "actionTimes": [1768, 2919, 3533, 4827, 5602], "queries": {"click": {"state": {"target": [], "time": []}, "edge": {"target": [], "time": []}}, "mouseover": {"state": {"target": [], "time": []}, "edge": {"target": [], "time": []}}, "mouseout": {"state": {"target": ["0", "12", "0"], "time": [6687, 18542, 19090]}, "edge": {"target": [], "time": []}}}, "displayed_time": "15.43", "trialTime": 19497, "trial_type": "mouselab-mdp", "trial_index": 31, "time_elapsed": 1627581, "internal_node_id": "0.0-4.0-1.0-22.0"}}, {"uniqueid": "w66301944:a26438600", "current_trial": 32, "dateTime": 1691161068059, "trialdata": {"revealed_states": [], "clicked_states": [], "num_clicks_accrued": [0, 0, 0, 0, 0, 0, 0, 0, 0, 0, 0, 0, 0], "stateRewards": ["", 2, -4, 1, -12, -59, -53, -74, 16, -88, -66, 66, 1, -2, 8, -9, -14, 22, 25, -1, -39, 47, -14, -1, -1, -2, 1, -4, 52, -26, 15, -7, 46, 43], "withholdReward": false, "trial_id": "mdp_trial_24", "block": "test", "trialIndex": 25, "score": 54, "costs": 0, "simulationMode": [null, null, null, null, null], "rewards": [-1, -1, -2, 15, 43], "path": ["0", "0", "23", "24", "25", "30", "33"], "rt": [1106, 723, 330, 4, 981], "actions": ["left", "left", "left", "down", "left"], "actionTimes": [5266, 6501, 7356, 7879, 9383], "queries": {"click": {"state": {"target": [], "time": []}, "edge": {"target": [], "time": []}}, "mouseover": {"state": {"target": [], "time": []}, "edge": {"target": [], "time": []}}, "mouseout": {"state": {"target": [], "time": []}, "edge": {"target": [], "time": []}}}, "displayed_time": "18.17", "trialTime": 19457, "trial_type": "mouselab-mdp", "trial_index": 32, "time_elapsed": 1647749, "internal_node_id": "0.0-4.0-1.0-23.0"}}, {"uniqueid": "w66301944:a26438600", "current_trial": 33, "dateTime": 1691161086398, "trialdata": {"revealed_states": [], "clicked_states": [], "num_clicks_accrued": [0, 0, 0, 0, 0, 0, 0, 0, 0, 0, 0, 0, 0], "stateRewards": ["", -2, 4, 3, 5, -61, 4, 30, 1, -47, 83, 10, 1, 4, 7, -14, 19, -74, -83, 6, -2, -2, -65, -1, -2, 4, -11, 12, -1, -68, 11, -38, -28, 66], "withholdReward": false, "trial_id": "mdp_trial_25", "block": "test", "trialIndex": 26, "score": -76, "costs": 0, "simulationMode": [null, null, null, null, null], "rewards": [1, 4, 7, -14, -74], "path": ["0", "0", "12", "13", "14", "15", "17"], "rt": [957, 660, 373, 190, 61], "actions": ["right", "right", "right", "up", "right"], "actionTimes": [4270, 5452, 6348, 7062, 7632], "queries": {"click": {"state": {"target": [], "time": []}, "edge": {"target": [], "time": []}}, "mouseover": {"state": {"target": [], "time": []}, "edge": {"target": [], "time": []}}, "mouseout": {"state": {"target": [], "time": []}, "edge": {"target": [], "time": []}}}, "displayed_time": "17.34", "trialTime": 17694, "trial_type": "mouselab-mdp", "trial_index": 33, "time_elapsed": 1666089, "internal_node_id": "0.0-4.0-1.0-24.0"}}, {"uniqueid": "w66301944:a26438600", "current_trial": 34, "dateTime": 1691161102897, "trialdata": {"revealed_states": [], "clicked_states": [], "num_clicks_accrued": [0, 0, 0, 0, 0, 0, 0, 0, 0, 0, 0, 0, 0], "stateRewards": ["", 1, -3, -4, -11, -56, 61, -47, -16, -28, -9, 69, -2, -3, -4, -8, 40, -86, 59, -4, 80, 27, 54, -1, 3, -1, 8, 67, 23, 50, 6, 83, -43, -29], "withholdReward": false, "trial_id": "mdp_trial_26", "block": "test", "trialIndex": 27, "score": -50, "costs": 0, "simulationMode": [null, null, null, null, null], "rewards": [1, -3, -4, -16, -28], "path": ["0", "0", "1", "2", "3", "8", "9"], "rt": [709, 11, 148, 472, 686], "actions": ["up", "up", "up", "left", "up"], "actionTimes": [2036, 2560, 3245, 4240, 5450], "queries": {"click": {"state": {"target": [], "time": []}, "edge": {"target": [], "time": []}}, "mouseover": {"state": {"target": [], "time": []}, "edge": {"target": [], "time": []}}, "mouseout": {"state": {"target": [], "time": []}, "edge": {"target": [], "time": []}}}, "displayed_time": "15.34", "trialTime": 15784, "trial_type": "mouselab-mdp", "trial_index": 34, "time_elapsed": 1682587, "internal_node_id": "0.0-4.0-1.0-25.0"}}, {"uniqueid": "w66301944:a26438600", "current_trial": 35, "dateTime": 1691161119844, "trialdata": {"revealed_states": [], "clicked_states": [], "num_clicks_accrued": [0, 0, 0, 0, 0, 0, 0, 0, 0, 0, 0, 0, 0], "stateRewards": ["", 2, 4, -3, 16, -58, 30, -35, 11, -60, 47, 27, -2, -1, -7, -16, 23, -70, 68, -10, -65, -43, -34, -2, 1, 7, 9, -63, 34, -31, -8, -12, -86, 59], "withholdReward": false, "trial_id": "mdp_trial_27", "block": "test", "trialIndex": 28, "score": -46, "costs": 0, "simulationMode": [null, null, null, null, null], "rewards": [2, 4, -3, 11, -60], "path": ["0", "0", "1", "2", "3", "8", "9"], "rt": [85, 649, 278, 453, 49], "actions": ["up", "up", "up", "left", "up"], "actionTimes": [1459, 2623, 3415, 4393, 4968], "queries": {"click": {"state": {"target": [], "time": []}, "edge": {"target": [], "time": []}}, "mouseover": {"state": {"target": [], "time": []}, "edge": {"target": [], "time": []}}, "mouseout": {"state": {"target": [], "time": []}, "edge": {"target": [], "time": []}}}, "displayed_time": "15.38", "trialTime": 16254, "trial_type": "mouselab-mdp", "trial_index": 35, "time_elapsed": 1699535, "internal_node_id": "0.0-4.0-1.0-26.0"}}, {"uniqueid": "w66301944:a26438600", "current_trial": 36, "dateTime": 1691161135771, "trialdata": {"revealed_states": [], "clicked_states": [], "num_clicks_accrued": [0, 0, 0, 0, 0, 0, 0, 0, 0, 0, 0, 0, 0], "stateRewards": ["", -1, -3, -5, -14, -13, -47, 79, 8, -60, -64, 41, -1, 2, 3, 13, -46, 61, -79, -11, -64, -65, 23, 1, -2, 6, -14, 46, 32, 21, 7, 75, -66, 15], "withholdReward": false, "trial_id": "mdp_trial_28", "block": "test", "trialIndex": 29, "score": -61, "costs": 0, "simulationMode": [null, null, null, null, null], "rewards": [-1, -3, -5, 8, -60], "path": ["0", "0", "1", "2", "3", "8", "9"], "rt": [316, 548, 202, 213, 305], "actions": ["up", "up", "up", "left", "up"], "actionTimes": [1531, 2601, 3321, 4045, 4871], "queries": {"click": {"state": {"target": [], "time": []}, "edge": {"target": [], "time": []}}, "mouseover": {"state": {"target": [], "time": []}, "edge": {"target": [], "time": []}}, "mouseout": {"state": {"target": ["0"], "time": [10028]}, "edge": {"target": [], "time": []}}}, "displayed_time": "15.24", "trialTime": 15244, "trial_type": "mouselab-mdp", "trial_index": 36, "time_elapsed": 1715462, "internal_node_id": "0.0-4.0-1.0-27.0"}}, {"uniqueid": "w66301944:a26438600", "current_trial": 37, "dateTime": 1691161156790, "trialdata": {"revealed_states": [], "clicked_states": [], "num_clicks_accrued": [0, 0, 0, 0, 0, 0, 0, 0, 0, 0, 0, 0, 0], "stateRewards": ["", -1, -3, 1, -4, -48, -63, -49, -2, -84, -19, 65, 2, -2, -2, -12, -4, 59, 9, 6, 75, 69, -13, -1, -3, -3, -2, -37, -68, -36, 13, 32, 18, -14], "withholdReward": false, "trial_id": "mdp_trial_29", "block": "test", "trialIndex": 30, "score": 24, "costs": 0, "simulationMode": [null, null, null, null, null], "rewards": [-1, -3, -3, 13, 18], "path": ["0", "0", "23", "24", "25", "30", "32"], "rt": [1482, 472, 485, 650, 1757], "actions": ["left", "left", "left", "down", "down"], "actionTimes": [7259, 8254, 9296, 10468, 12733], "queries": {"click": {"state": {"target": [], "time": []}, "edge": {"target": [], "time": []}}, "mouseover": {"state": {"target": [], "time": []}, "edge": {"target": [], "time": []}}, "mouseout": {"state": {"target": ["0", "32", "32"], "time": [15841, 16337, 17319]}, "edge": {"target": [], "time": []}}}, "displayed_time": "19.79", "trialTime": 20260, "trial_type": "mouselab-mdp", "trial_index": 37, "time_elapsed": 1736479, "internal_node_id": "0.0-4.0-1.0-28.0"}}, {"uniqueid": "w66301944:a26438600", "current_trial": 38, "dateTime": 1691161180448, "trialdata": {"revealed_states": [], "clicked_states": [], "num_clicks_accrued": [0, 0, 0, 0, 0, 0, 0, 0, 0, 0, 0, 0, 0], "stateRewards": ["", -2, -3, 7, -13, 60, 9, 37, -6, 37, 20, 1, 2, -2, -8, 6, -80, -31, -10, -7, 70, -65, -44, -1, 1, 7, 6, -11, 73, -85, 16, -21, 47, 34], "withholdReward": false, "trial_id": "mdp_trial_30", "block": "test", "trialIndex": 31, "score": 55, "costs": 0, "simulationMode": [null, null, null, null, null], "rewards": [2, -2, -8, -7, 70], "path": ["0", "0", "12", "13", "14", "19", "20"], "rt": [2064, 487, 377, 65, 783], "actions": ["right", "right", "right", "down", "right"], "actionTimes": [10604, 11593, 12493, 13111, 14413], "queries": {"click": {"state": {"target": [], "time": []}, "edge": {"target": [], "time": []}}, "mouseover": {"state": {"target": [], "time": []}, "edge": {"target": [], "time": []}}, "mouseout": {"state": {"target": ["0"], "time": [1504]}, "edge": {"target": [], "time": []}}}, "displayed_time": "22.56", "trialTime": 22944, "trial_type": "mouselab-mdp", "trial_index": 38, "time_elapsed": 1760138, "internal_node_id": "0.0-4.0-1.0-29.0"}}, {"uniqueid": "w66301944:a26438600", "current_trial": 39, "dateTime": 1691161198986, "trialdata": {"revealed_states": [], "clicked_states": [], "num_clicks_accrued": [0, 0, 0, 0, 0, 0, 0, 0, 0, 0, 0, 0, 0], "stateRewards": ["", -2, 3, -5, -7, 66, 43, -60, -4, -70, -75, 4, -1, 2, 2, -13, 54, 11, -40, -1, 77, 32, 15, -2, 3, -8, -9, -35, 83, -27, 6, -74, -34, 44], "withholdReward": false, "trial_id": "mdp_trial_31", "block": "test", "trialIndex": 32, "score": 1, "costs": 0, "simulationMode": [null, null, null, null, null], "rewards": [-1, 2, 2, -13, 11], "path": ["0", "0", "12", "13", "14", "15", "17"], "rt": [1954, 307, 241, 246, 661], "actions": ["right", "right", "right", "up", "right"], "actionTimes": [4927, 5758, 6507, 7262, 8443], "queries": {"click": {"state": {"target": [], "time": []}, "edge": {"target": [], "time": []}}, "mouseover": {"state": {"target": [], "time": []}, "edge": {"target": [], "time": []}}, "mouseout": {"state": {"target": ["0"], "time": [2285]}, "edge": {"target": [], "time": []}}}, "displayed_time": "17.01", "trialTime": 17802, "trial_type": "mouselab-mdp", "trial_index": 39, "time_elapsed": 1778676, "internal_node_id": "0.0-4.0-1.0-30.0"}}, {"uniqueid": "w66301944:a26438600", "current_trial": 40, "dateTime": 1691161217233, "trialdata": {"revealed_states": [], "clicked_states": [], "num_clicks_accrued": [0, 0, 0, 0, 0, 0, 0, 0, 0, 0, 0, 0, 0], "stateRewards": ["", -1, 4, 3, 12, -27, 34, -33, 3, -63, 1, 6, 2, 2, -6, -11, -77, -85, 68, -6, 51, 81, -60, -2, -2, 1, 15, 20, 15, 68, -10, -14, 6, -4], "withholdReward": false, "trial_id": "mdp_trial_32", "block": "test", "trialIndex": 33, "score": 32, "costs": 0, "simulationMode": [null, null, null, null, null], "rewards": [-2, -2, 1, 15, 20], "path": ["0", "0", "23", "24", "25", "26", "27"], "rt": [1712, 137, 151, 5, 384], "actions": ["left", "left", "left", "up", "up"], "actionTimes": [4621, 5269, 5934, 6452, 7364], "queries": {"click": {"state": {"target": [], "time": []}, "edge": {"target": [], "time": []}}, "mouseover": {"state": {"target": [], "time": []}, "edge": {"target": [], "time": []}}, "mouseout": {"state": {"target": ["0"], "time": [2252]}, "edge": {"target": [], "time": []}}}, "displayed_time": "16.94", "trialTime": 17482, "trial_type": "mouselab-mdp", "trial_index": 40, "time_elapsed": 1796924, "internal_node_id": "0.0-4.0-1.0-31.0"}}, {"uniqueid": "w66301944:a26438600", "current_trial": 41, "dateTime": 1691161234298, "trialdata": {"revealed_states": [], "clicked_states": [], "num_clicks_accrued": [0, 0, 0, 0, 0, 0, 0, 0, 0, 0, 0, 0, 0], "stateRewards": ["", 2, -3, -2, 14, -4, 85, 46, 15, -28, 41, 31, -1, -1, -1, 5, 62, 79, 57, 12, -73, -64, 86, -1, 1, -3, -5, 68, 11, -32, 8, -80, -21, -56], "withholdReward": false, "trial_id": "mdp_trial_33", "block": "test", "trialIndex": 34, "score": 43, "costs": 0, "simulationMode": [null, null, null, null, null], "rewards": [2, -3, -2, 15, 31], "path": ["0", "0", "1", "2", "3", "8", "11"], "rt": [1308, 419, 320, 8, 1801], "actions": ["up", "up", "up", "left", "left"], "actionTimes": [2993, 3928, 4763, 5282, 7608], "queries": {"click": {"state": {"target": [], "time": []}, "edge": {"target": [], "time": []}}, "mouseover": {"state": {"target": [], "time": []}, "edge": {"target": [], "time": []}}, "mouseout": {"state": {"target": ["0"], "time": [1266]}, "edge": {"target": [], "time": []}}}, "displayed_time": "15.69", "trialTime": 16238, "trial_type": "mouselab-mdp", "trial_index": 41, "time_elapsed": 1813987, "internal_node_id": "0.0-4.0-1.0-32.0"}}, {"uniqueid": "w66301944:a26438600", "current_trial": 42, "dateTime": 1691161254773, "trialdata": {"revealed_states": [], "clicked_states": [], "num_clicks_accrued": [0, 0, 0, 0, 0, 0, 0, 0, 0, 0, 0, 0, 0], "stateRewards": ["", -2, -3, 1, -7, 39, -67, 16, 5, -20, 73, 66, -1, 4, 5, -3, 23, -68, -87, -8, 3, -3, 17, 1, -4, -2, -13, -32, 34, 61, -5, -11, -18, 12], "withholdReward": false, "trial_id": "mdp_trial_34", "block": "test", "trialIndex": 35, "score": 28, "costs": 0, "simulationMode": [null, null, null, null, null], "rewards": [-2, -3, 1, -7, 39], "path": ["0", "0", "1", "2", "3", "4", "5"], "rt": [805, 371, 562, 486, 787], "actions": ["up", "up", "up", "right", "up"], "actionTimes": [5175, 6065, 7139, 8144, 9450], "queries": {"click": {"state": {"target": [], "time": []}, "edge": {"target": [], "time": []}}, "mouseover": {"state": {"target": [], "time": []}, "edge": {"target": [], "time": []}}, "mouseout": {"state": {"target": ["0"], "time": [3966]}, "edge": {"target": [], "time": []}}}, "displayed_time": "18.41", "trialTime": 19651, "trial_type": "mouselab-mdp", "trial_index": 42, "time_elapsed": 1834463, "internal_node_id": "0.0-4.0-1.0-33.0"}}, {"uniqueid": "w66301944:a26438600", "current_trial": 43, "dateTime": 1691161273473, "trialdata": {"revealed_states": [], "clicked_states": [], "num_clicks_accrued": [0, 0, 0, 0, 0, 0, 0, 0, 0, 0, 0, 0, 0], "stateRewards": ["", 2, -4, 4, 9, 69, 9, -75, 12, -86, 66, 25, -1, 3, 2, -13, -88, -3, 1, 4, -69, 49, -84, 2, -1, 4, 2, -18, -81, -52, -15, -69, -54, 25], "withholdReward": false, "trial_id": "mdp_trial_35", "block": "test", "trialIndex": 36, "score": 57, "costs": 0, "simulationMode": [null, null, null, null, null], "rewards": [-1, 3, 2, 4, 49], "path": ["0", "0", "12", "13", "14", "19", "21"], "rt": [2690, 1548, 699, 688, 703], "actions": ["right", "right", "right", "down", "down"], "actionTimes": [5020, 7089, 8305, 9511, 10724], "queries": {"click": {"state": {"target": [], "time": []}, "edge": {"target": [], "time": []}}, "mouseover": {"state": {"target": [], "time": []}, "edge": {"target": [], "time": []}}, "mouseout": {"state": {"target": ["0"], "time": [1932]}, "edge": {"target": [], "time": []}}}, "displayed_time": "16.35", "trialTime": 17935, "trial_type": "mouselab-mdp", "trial_index": 43, "time_elapsed": 1853163, "internal_node_id": "0.0-4.0-1.0-34.0"}}, {"uniqueid": "w66301944:a26438600", "current_trial": 44, "dateTime": 1691161290867, "trialdata": {"revealed_states": [], "clicked_states": [], "num_clicks_accrued": [0, 0, 0, 0, 0, 0, 0, 0, 0, 0, 0, 0, 0], "stateRewards": ["", -2, -1, -1, 5, -54, -87, 35, 2, -8, 20, -22, 1, 3, 6, 13, -75, -32, -55, -3, 56, 62, -22, -1, -4, -1, -7, -51, 84, 70, 7, -15, 5, 55], "withholdReward": false, "trial_id": "mdp_trial_36", "block": "test", "trialIndex": 37, "score": 71, "costs": 0, "simulationMode": [null, null, null, null, null], "rewards": [-1, -4, -1, -7, 84], "path": ["0", "0", "23", "24", "25", "26", "28"], "rt": [2994, 412, 566, 868, 1093], "actions": ["left", "left", "left", "up", "right"], "actionTimes": [4701, 5625, 6711, 8096, 9701], "queries": {"click": {"state": {"target": [], "time": []}, "edge": {"target": [], "time": []}}, "mouseover": {"state": {"target": [], "time": []}, "edge": {"target": [], "time": []}}, "mouseout": {"state": {"target": ["0"], "time": [1269]}, "edge": {"target": [], "time": []}}}, "displayed_time": "15.73", "trialTime": 16650, "trial_type": "mouselab-mdp", "trial_index": 44, "time_elapsed": 1870557, "internal_node_id": "0.0-4.0-1.0-35.0"}}, {"uniqueid": "w66301944:a26438600", "current_trial": 45, "dateTime": 1691161310252, "trialdata": {"revealed_states": [], "clicked_states": [], "num_clicks_accrued": [0, 0, 0, 0, 0, 0, 0, 0, 0, 0, 0, 0, 0], "stateRewards": ["", -1, -4, -6, -15, 21, -67, -63, 9, 51, 69, -14, -1, 3, 8, -8, 39, 72, 63, 15, 19, 47, 15, 1, 4, 5, 16, -18, 34, 35, -14, -80, 40, 1], "withholdReward": false, "trial_id": "mdp_trial_37", "block": "test", "trialIndex": 38, "score": 65, "costs": 0, "simulationMode": [null, null, null, null, null], "rewards": [-1, 3, 8, -8, 63], "path": ["0", "0", "12", "13", "14", "15", "18"], "rt": [2806, 517, 435, 1921, 2622], "actions": ["right", "right", "right", "up", "left"], "actionTimes": [5885, 6924, 7873, 10314, 13458], "queries": {"click": {"state": {"target": [], "time": []}, "edge": {"target": [], "time": []}}, "mouseover": {"state": {"target": [], "time": []}, "edge": {"target": [], "time": []}}, "mouseout": {"state": {"target": ["0"], "time": [2610]}, "edge": {"target": [], "time": []}}}, "displayed_time": "17.09", "trialTime": 18549, "trial_type": "mouselab-mdp", "trial_index": 45, "time_elapsed": 1889942, "internal_node_id": "0.0-4.0-1.0-36.0"}}, {"uniqueid": "w66301944:a26438600", "current_trial": 46, "dateTime": 1691161330204, "trialdata": {"revealed_states": [], "clicked_states": [], "num_clicks_accrued": [0, 0, 0, 0, 0, 0, 0, 0, 0, 0, 0, 0, 0], "stateRewards": ["", -2, 2, -5, -6, 10, -66, -58, -10, -11, -63, -70, -1, -4, -5, 7, 66, -64, -43, -3, 45, -37, 4, -2, -2, -6, -4, -30, 33, 43, 15, -32, -65, -59], "withholdReward": false, "trial_id": "mdp_trial_38", "block": "test", "trialIndex": 39, "score": -85, "costs": 0, "simulationMode": [null, null, null, null, null], "rewards": [-2, 2, -5, -10, -70], "path": ["0", "0", "1", "2", "3", "8", "11"], "rt": [4364, 770, 737, 196, 1143], "actions": ["up", "up", "up", "left", "left"], "actionTimes": [6721, 8010, 9242, 9948, 11612], "queries": {"click": {"state": {"target": [], "time": []}, "edge": {"target": [], "time": []}}, "mouseover": {"state": {"target": [], "time": []}, "edge": {"target": [], "time": []}}, "mouseout": {"state": {"target": ["0"], "time": [1923]}, "edge": {"target": [], "time": []}}}, "displayed_time": "16.36", "trialTime": 19066, "trial_type": "mouselab-mdp", "trial_index": 46, "time_elapsed": 1909894, "internal_node_id": "0.0-4.0-1.0-37.0"}}, {"uniqueid": "w66301944:a26438600", "current_trial": 47, "dateTime": 1691161350382, "trialdata": {"revealed_states": [], "clicked_states": [], "num_clicks_accrued": [0, 0, 0, 0, 0, 0, 0, 0, 0, 0, 0, 0, 0], "stateRewards": ["", 1, 3, -2, 15, 51, 15, -19, 11, 67, -45, -73, 2, 4, -2, -13, 36, 9, -28, 10, -30, 31, 16, 1, 2, -1, -16, 14, -22, 36, -1, 88, -5, 45], "withholdReward": false, "trial_id": "mdp_trial_39", "block": "test", "trialIndex": 40, "score": -60, "costs": 0, "simulationMode": [null, null, null, null, null], "rewards": [1, 3, -2, 11, -73], "path": ["0", "0", "1", "2", "3", "8", "11"], "rt": [799, 466, 1034, 615, 434], "actions": ["up", "up", "up", "left", "left"], "actionTimes": [2338, 3317, 4867, 5983, 6932], "queries": {"click": {"state": {"target": [], "time": []}, "edge": {"target": [], "time": []}}, "mouseover": {"state": {"target": [], "time": []}, "edge": {"target": [], "time": []}}, "mouseout": {"state": {"target": ["0"], "time": [1116]}, "edge": {"target": [], "time": []}}}, "displayed_time": "15.56", "trialTime": 19408, "trial_type": "mouselab-mdp", "trial_index": 47, "time_elapsed": 1930072, "internal_node_id": "0.0-4.0-1.0-38.0"}}, {"uniqueid": "w66301944:a26438600", "current_trial": 48, "dateTime": 1691161369287, "trialdata": {"revealed_states": [], "clicked_states": [], "num_clicks_accrued": [0, 0, 0, 0, 0, 0, 0, 0, 0, 0, 0, 0, 0], "stateRewards": ["", 2, -4, 7, 3, 23, -42, 4, 7, -81, -33, 7, -2, -4, 5, -1, 50, -57, -14, -13, -14, 44, 55, -2, -2, 5, -2, 33, 1, 57, -13, -7, 58, 87], "withholdReward": false, "trial_id": "mdp_trial_40", "block": "test", "trialIndex": 41, "score": 56, "costs": 0, "simulationMode": [null, null, null, null, null], "rewards": [-2, -2, 5, -2, 57], "path": ["0", "0", "23", "24", "25", "26", "29"], "rt": [1571, 249, 124, 198, 478], "actions": ["left", "left", "left", "up", "left"], "actionTimes": [3500, 4265, 4905, 5611, 6612], "queries": {"click": {"state": {"target": [], "time": []}, "edge": {"target": [], "time": []}}, "mouseover": {"state": {"target": [], "time": []}, "edge": {"target": [], "time": []}}, "mouseout": {"state": {"target": ["0"], "time": [1474]}, "edge": {"target": [], "time": []}}}, "displayed_time": "15.94", "trialTime": 18063, "trial_type": "mouselab-mdp", "trial_index": 48, "time_elapsed": 1948977, "internal_node_id": "0.0-4.0-1.0-39.0"}}, {"uniqueid": "w66301944:a26438600", "current_trial": 49, "dateTime": 1691161461978, "trialdata": {"rt": 92680, "response": {"Q0": "$-2 to $2", "Q1": "$-32 to $32", "Q2": "$-16 to $16", "Q3": "The cost for clicking on nodes varied between nodes.", "Q4": "Slightly motivated"}, "question_order": [0, 1, 2, 3, 4], "trial_id": "final_quiz_control", "trial_type": "survey-multi-choice", "trial_index": 49, "time_elapsed": 2041668, "internal_node_id": "0.0-4.0-2.0"}}, {"uniqueid": "w66301944:a26438600", "current_trial": 50, "dateTime": 1691161586929, "trialdata": {"rt": 124933, "response": {"Q0": "the strategy i used was to repeat after moving away from the node but it didn't work as expected some where negatives ", "Q1": "i can improve now that i so it doesn't work ", "Q2": "less difficult"}, "trial_id": "self_report_control", "trial_type": "survey-text", "trial_index": 50, "time_elapsed": 2166620, "internal_node_id": "0.0-4.0-3.0"}}, {"uniqueid": "w66301944:a26438600", "current_trial": 51, "dateTime": 1691161648199, "trialdata": {"rt": 61261, "response": {"gender": "male", "age": "24", "colorblind": "0", "effort": "0"}, "trial_type": "survey-html-form", "trial_index": 51, "time_elapsed": 2227890, "internal_node_id": "0.0-4.0-4.0"}}, {"uniqueid": "w66301944:a26438600", "current_trial": 52, "dateTime": 1691161725133, "trialdata": {"rt": 76921, "response": {"Q0": "it wasn't confussing", "Q1": "it was my first ", "Q2": "i would like to participate in more like this"}, "trial_type": "survey-text", "trial_index": 52, "time_elapsed": 2304823, "internal_node_id": "0.0-4.0-5.0"}}, {"uniqueid": "w66301944:a26438600", "current_trial": 53, "dateTime": 1691161735856, "trialdata": {"rt": 10714, "stimulus": "Press 'Finish HIT' in order to reach the completion code. Once the data has been saved, you will receive the code either in this window or in the original browser window where you started the experiment.\n", "response": 0, "trial_type": "html-button-response", "trial_index": 53, "time_elapsed": 2315547, "internal_node_id": "0.0-5.0"}}, {"uniqueid": "w66301944:a26438600", "current_trial": 54, "dateTime": 1691161736862, "trialdata": {"success": true, "trial_type": "fullscreen", "trial_index": 54, "time_elapsed": 2316553, "internal_node_id": "0.0-6.0"}}], "questiondata": {"params": {"CODE": "C6DMOQA6", "MIN_TIME": 14, "inspectCost": 1, "startTime": "Fri Aug 04 2023 16:30:18 GMT+0200 (South Africa Standard Time)", "bonusRate": 0.002, "variance": "1_2_4_8_44", "branching": "31123"}, "final_score": -5.2}, "eventdata": [{"eventtype": "initialized", "value": null, "timestamp": 1691159417604, "interval": 0}, {"eventtype": "window_resize", "value": [1366, 666], "timestamp": 1691159417604, "interval": 0}, {"eventtype": "window_resize", "value": [1366, 666], "timestamp": 1691159418144, "interval": 540}, {"eventtype": "window_resize", "value": [1366, 768], "timestamp": 1691159444142, "interval": 25998}, {"eventtype": "window_resize", "value": [1366, 666], "timestamp": 1691159448498, "interval": 4356}, {"eventtype": "window_resize", "value": [1366, 768], "timestamp": 1691159507565, "interval": 59067}, {"eventtype": "window_resize", "value": [1366, 666], "timestamp": 1691161736163, "interval": 2228598}], "useragent": "Mozilla/5.0 (Windows NT 10.0; Win64; x64) AppleWebKit/537.36 (KHTML, like Gecko) Chrome/115.0.0.0 Safari/537.36 Edg/115.0.1901.188", "mode": "live", "id": "w66301944:a26438600", "status": "user data saved", "Beginhit": "2023-08-04 14:30:10.202817", "Beginexp": "2023-08-04 14:30:41.171829", "Endhit": "2023-08-04 15:08:55.045856", "psiturkStatus": 3, "browser": "<redacted>", "platform": "windows", "language": "en-US"}