{"condition": 1, "counterbalance": 0, "assignmentId": "a54891693", "workerId": "w46312037", "hitId": "h26120465", "currenttrial": 56, "bonus": 0, "data": [{"uniqueid": "w46312037:a54891693", "current_trial": 0, "dateTime": 1693581334696, "trialdata": {"success": true, "trial_type": "fullscreen", "trial_index": 0, "time_elapsed": 6891, "internal_node_id": "0.0-0.0"}}, {"uniqueid": "w46312037:a54891693", "current_trial": 1, "dateTime": 1693581358356, "trialdata": {"view_history": [{"page_index": 0, "viewing_time": 23658}], "rt": 23659, "trial_id": "exp_instructions_misaligned", "trial_type": "instructions", "trial_index": 1, "time_elapsed": 30552, "internal_node_id": "0.0-1.0"}}, {"uniqueid": "w46312037:a54891693", "current_trial": 2, "dateTime": 1693581572235, "trialdata": {"view_history": [{"page_index": 0, "viewing_time": 62400}, {"page_index": 1, "viewing_time": 78764}, {"page_index": 2, "viewing_time": 25541}, {"page_index": 3, "viewing_time": 47172}], "rt": 213878, "trial_id": "mouselab_instructions_1_misaligned", "trial_type": "instructions", "trial_index": 2, "time_elapsed": 244431, "internal_node_id": "0.0-2.0-1.0"}}, {"uniqueid": "w46312037:a54891693", "current_trial": 3, "dateTime": 1693581598607, "trialdata": {"revealed_states": [], "clicked_states": ["23", "24", "2", "1", "12", "13"], "num_clicks_accrued": [0, 0, 0, 0, 0, 0, 0, 0, 0, 0, 0, 0, 0], "stateRewards": ["", -10, -10, 10, -10, 10, 10, -10, 10, -10, -10, -10, 10, 10, -10, -10, -10, -10, -10, -10, 10, 10, 10, 10, 10, 10, 10, 10, -10, 10, -10, -10, 10, 10], "withholdReward": false, "trial_id": "practice_1", "block": "test", "trialIndex": 0, "score": -9.5, "costs": -3, "simulationMode": [null, null, null, null, null], "rewards": [10, 10, -10, -10, -10], "path": ["0", "0", "12", "13", "14", "15", "18"], "rt": [13416, 235, 667, 432, 430], "actions": ["right", "right", "right", "up", "left"], "actionTimes": [16277, 17016, 18191, 19126, 20060], "queries": {"click": {"state": {"target": ["23", "24", "2", "1", "12", "13"], "time": [3881, 5135, 7095, 8900, 10244, 11504]}, "edge": {"target": [], "time": []}}, "mouseover": {"state": {"target": ["23", "24", "2", "2", "1", "12", "13"], "time": [3330, 4710, 6607, 6950, 7835, 9863, 10501]}, "edge": {"target": [], "time": []}}, "mouseout": {"state": {"target": ["0", "23", "24", "2", "2", "2", "1", "1", "12", "12", "13", "13", "22", "21", "19", "14"], "time": [1301, 3967, 6235, 6892, 7156, 7463, 8978, 9105, 10303, 10416, 11567, 11955, 23372, 24071, 24133, 24375]}, "edge": {"target": [], "time": []}}}, "displayed_time": "20.57", "trialTime": 25926, "trial_type": "mouselab-mdp", "trial_index": 3, "time_elapsed": 270802, "internal_node_id": "0.0-2.0-2.0-0.0"}}, {"uniqueid": "w46312037:a54891693", "current_trial": 4, "dateTime": 1693581618051, "trialdata": {"revealed_states": [], "clicked_states": ["23", "1", "12", "25", "26", "30"], "num_clicks_accrued": [0, 0, 0, 0, 0, 0, 0, 0, 0, 0, 0, 0, 0], "stateRewards": ["", -10, -10, 10, -10, -10, 10, 10, -10, -10, -10, 10, -10, -10, 10, -10, 10, 10, 10, 10, 10, 10, 10, 10, -10, 10, -10, -10, 10, 10, 10, 10, 10, 10], "withholdReward": false, "trial_id": "practice_2", "block": "test", "trialIndex": 1, "score": 30.5, "costs": -3, "simulationMode": [null, null, null, null, null], "rewards": [10, -10, 10, 10, 10], "path": ["0", "0", "23", "24", "25", "30", "31"], "rt": [11541, 175, 134, 126, 124], "actions": ["left", "left", "left", "down", "right"], "actionTimes": [13656, 14338, 14977, 15608, 16237], "queries": {"click": {"state": {"target": ["23", "1", "12", "25", "26", "30"], "time": [2670, 4144, 5955, 8517, 10299, 11892]}, "edge": {"target": [], "time": []}}, "mouseover": {"state": {"target": ["23", "1", "12", "0", "23", "24", "25", "24", "25", "25", "26", "28", "30", "31", "13"], "time": [2483, 2943, 4499, 6431, 7343, 7476, 7655, 7914, 8066, 8310, 9908, 10552, 11706, 12077, 12198]}, "edge": {"target": [], "time": []}}, "mouseout": {"state": {"target": ["13", "0", "23", "23", "0", "23", "1", "12", "0", "23", "24", "25", "24", "25", "25", "25", "26", "28", "30", "31", "13", "17", "13", "22"], "time": [287, 1496, 1545, 1703, 2384, 2785, 4286, 6255, 7270, 7434, 7580, 7879, 8042, 8114, 9008, 9822, 10361, 10965, 12059, 12107, 18330, 18683, 18768, 18908]}, "edge": {"target": [], "time": []}}}, "displayed_time": "16.74", "trialTime": 19289, "trial_type": "mouselab-mdp", "trial_index": 4, "time_elapsed": 290246, "internal_node_id": "0.0-2.0-2.0-1.0"}}, {"uniqueid": "w46312037:a54891693", "current_trial": 5, "dateTime": 1693581661224, "trialdata": {"view_history": [{"page_index": 0, "viewing_time": 29351}, {"page_index": 1, "viewing_time": 13820}], "rt": 43172, "trial_id": "mouselab_instructions_2_misaligned", "trial_type": "instructions", "trial_index": 5, "time_elapsed": 333420, "internal_node_id": "0.0-2.0-3.0"}}, {"uniqueid": "w46312037:a54891693", "current_trial": 6, "dateTime": 1693581698414, "trialdata": {"rt": 37187, "response": {"Q0": "The cost for clicking on nodes may vary between nodes.", "Q1": "The better I perform the higher my bonus will be.", "Q2": "No, the amount of cash at each node of the web may be different each time.", "Q3": "To get the highest total score.", "Q4": "Only before moving the spider.", "Q5": "3 seconds"}, "question_order": [0, 1, 2, 3, 4, 5], "correct": {"Q0": "The cost for clicking on nodes may vary between nodes.", "Q1": "The better I perform the higher my bonus will be.", "Q2": "No, the amount of cash at each node of the web may be different each time.", "Q3": "To get the highest total score.", "Q4": "Only before moving the spider.", "Q5": "3 seconds"}, "trial_id": "mouselab_quiz_misaligned", "trial_type": "survey-multi-choice", "trial_index": 6, "time_elapsed": 370610, "internal_node_id": "0.0-2.0-4.0"}}, {"uniqueid": "w46312037:a54891693", "current_trial": 7, "dateTime": 1693581712554, "trialdata": {"rt": 14136, "response": {"Q0": "No"}, "question_order": [0], "trial_id": "repeat_check", "trial_type": "survey-multi-choice", "trial_index": 7, "time_elapsed": 384750, "internal_node_id": "0.0-4.0-0.0"}}, {"uniqueid": "w46312037:a54891693", "current_trial": 8, "dateTime": 1693581734720, "trialdata": {"rt": 22162, "stimulus": "\n<h1> Get ready to start the game! </h1>\n\nThank you for reading the instructions. Get ready start with the 40 rounds of this game.\n<br><br>\nIf you need to take a break, feel free to take one after the end of a round, before continuing to the next one.\n<br><br>\nRemember, the more money the spider gets, the bigger your bonus will be!\n<br><br>\n<div style='text-align: center;'>Press <code>space</code> to begin.</div>\n\n<br><br>\n(If, at any point, the <code>space</code> key does not take you to the next page, click once on the text and try again.)", "response": " ", "trial_id": "mdp_ready", "trial_type": "html-keyboard-response", "trial_index": 8, "time_elapsed": 406916, "internal_node_id": "0.0-6.0-0.0"}}, {"uniqueid": "w46312037:a54891693", "current_trial": 9, "dateTime": 1693581762037, "trialdata": {"revealed_states": [], "clicked_states": ["23", "1", "12", "2", "3", "8"], "num_clicks_accrued": [0, 0, 0, 0, 0, 0, 0, 0, 0, 0, 0, 0, 0], "stateRewards": ["", 1, 1, 5, 6, -29, -7, 3, -16, 9, -46, 65, -1, 4, -1, -16, -63, -77, -87, 8, 80, -50, 43, -1, -1, -5, 5, -38, -71, -62, 9, 81, -50, -52], "withholdReward": false, "trial_id": "mdp_trial_1", "block": "test", "trialIndex": 2, "score": 3.9000000000000004, "costs": -2.1, "simulationMode": [null, null, null, null, null], "rewards": [1, 1, 5, 6, -7], "path": ["0", "0", "1", "2", "3", "4", "6"], "rt": [8907, 141, 90, 100, 56], "actions": ["up", "up", "up", "right", "right"], "actionTimes": [14689, 15335, 15928, 16533, 17092], "queries": {"click": {"state": {"target": ["23", "1", "12", "2", "3", "8"], "time": [6197, 7384, 8574, 9765, 10938, 12019]}, "edge": {"target": [], "time": []}}, "mouseover": {"state": {"target": ["23", "1", "12", "2", "3", "8", "4"], "time": [6042, 6491, 7912, 9207, 10173, 11304, 12416]}, "edge": {"target": [], "time": []}}, "mouseout": {"state": {"target": ["1", "0", "23", "1", "12", "2", "3", "8", "3", "4"], "time": [553, 3960, 6387, 7621, 8928, 9831, 11200, 12306, 12355, 13145]}, "edge": {"target": [], "time": []}}}, "displayed_time": "19.78", "trialTime": 27104, "trial_type": "mouselab-mdp", "trial_index": 9, "time_elapsed": 434233, "internal_node_id": "0.0-6.0-1.0-0.0"}}, {"uniqueid": "w46312037:a54891693", "current_trial": 10, "dateTime": 1693581784399, "trialdata": {"revealed_states": [], "clicked_states": ["23", "1", "2", "3", "4", "6"], "num_clicks_accrued": [0, 0, 0, 0, 0, 0, 0, 0, 0, 0, 0, 0, 0], "stateRewards": ["", 2, 3, 8, 14, 69, -27, 17, 2, -71, -65, -10, 2, -3, 7, 8, 65, -10, 65, -12, 73, -12, 13, -2, -2, 6, 10, -79, -69, -18, 10, -85, 67, 74], "withholdReward": false, "trial_id": "mdp_trial_2", "block": "test", "trialIndex": 3, "score": 39.5, "costs": -4.5, "simulationMode": [null, null, null, null, null], "rewards": [2, 3, 8, 14, 17], "path": ["0", "0", "1", "2", "3", "4", "7"], "rt": [10297, 5, 55, 8, 117], "actions": ["up", "up", "up", "right", "down"], "actionTimes": [11835, 12343, 12909, 13421, 14048], "queries": {"click": {"state": {"target": ["23", "1", "2", "3", "4", "6"], "time": [2090, 3299, 4632, 6210, 7551, 8776]}, "edge": {"target": [], "time": []}}, "mouseover": {"state": {"target": ["23", "1", "2", "2", "3", "4", "6", "7"], "time": [1867, 2686, 3835, 4181, 4916, 6594, 8290, 9907]}, "edge": {"target": [], "time": []}}, "mouseout": {"state": {"target": ["0", "23", "1", "2", "2", "3", "4", "4", "6", "6", "7", "15", "12", "0"], "time": [948, 2583, 3774, 3932, 4637, 6460, 7720, 8235, 8841, 9517, 10775, 20808, 20863, 20875]}, "edge": {"target": [], "time": []}}}, "displayed_time": "15.54", "trialTime": 22186, "trial_type": "mouselab-mdp", "trial_index": 10, "time_elapsed": 456595, "internal_node_id": "0.0-6.0-1.0-1.0"}}, {"uniqueid": "w46312037:a54891693", "current_trial": 11, "dateTime": 1693581802962, "trialdata": {"revealed_states": [], "clicked_states": ["23", "1", "12", "14", "15", "19", "18"], "num_clicks_accrued": [0, 0, 0, 0, 0, 0, 0, 0, 0, 0, 0, 0, 0], "stateRewards": ["", -2, -3, 7, -13, 60, 9, 37, -6, 37, 20, 1, 2, -2, -8, 6, -80, -31, -10, -7, 70, -65, -44, -1, 1, 7, 6, -11, 73, -85, 16, -21, 47, 34], "withholdReward": false, "trial_id": "mdp_trial_3", "block": "test", "trialIndex": 4, "score": -38.45, "costs": -5.449999999999999, "simulationMode": [null, null, null, null, null, null], "rewards": [2, -2, -8, 6, -31], "path": ["0", "0", "12", "13", "14", "15", "17"], "rt": [9595, 1941, 184, 182, 101, 111], "actions": ["right", "right", "right", "right", "up", "right"], "actionTimes": [11618, 13561, 14251, 14937, 15542, 16160], "queries": {"click": {"state": {"target": ["23", "1", "12", "14", "15", "19", "18"], "time": [2745, 3657, 4645, 5880, 7315, 8306, 9313]}, "edge": {"target": [], "time": []}}, "mouseover": {"state": {"target": ["23", "1", "12", "13", "14", "15", "19", "18", "16"], "time": [2301, 3419, 4307, 5145, 5328, 6349, 7916, 9028, 10055]}, "edge": {"target": [], "time": []}}, "mouseout": {"state": {"target": ["0", "23", "1", "12", "13", "14", "15", "14", "19", "15", "18", "15", "16"], "time": [2094, 3146, 3739, 4915, 5194, 6247, 7546, 7825, 8433, 8913, 9448, 9891, 10590]}, "edge": {"target": [], "time": []}}}, "displayed_time": "16.66", "trialTime": 18383, "trial_type": "mouselab-mdp", "trial_index": 11, "time_elapsed": 475158, "internal_node_id": "0.0-6.0-1.0-2.0"}}, {"uniqueid": "w46312037:a54891693", "current_trial": 12, "dateTime": 1693581824448, "trialdata": {"revealed_states": [], "clicked_states": ["23", "24", "26", "27", "29", "28"], "num_clicks_accrued": [0, 0, 0, 0, 0, 0, 0, 0, 0, 0, 0, 0, 0], "stateRewards": ["", 2, -4, 4, 9, 69, 9, -75, 12, -86, 66, 25, -1, 3, 2, -13, -88, -3, 1, 4, -69, 49, -84, 2, -1, 4, 2, -18, -81, -52, -15, -69, -54, 25], "withholdReward": false, "trial_id": "mdp_trial_4", "block": "test", "trialIndex": 5, "score": 6.899999999999999, "costs": -8.1, "simulationMode": [null, null, null, null, null], "rewards": [2, -1, 4, -15, 25], "path": ["0", "0", "23", "24", "25", "30", "33"], "rt": [14096, 91, 100, 87, 120], "actions": ["left", "left", "left", "down", "left"], "actionTimes": [15562, 16158, 16763, 17357, 17980], "queries": {"click": {"state": {"target": ["23", "24", "26", "27", "29", "28"], "time": [2181, 3417, 4428, 5754, 8801, 11812]}, "edge": {"target": [], "time": []}}, "mouseover": {"state": {"target": ["23", "1", "24", "25", "26", "25", "25", "27", "29", "28"], "time": [1809, 2435, 3269, 3711, 4343, 4878, 5188, 5625, 6020, 9642]}, "edge": {"target": [], "time": []}}, "mouseout": {"state": {"target": ["1", "23", "1", "23", "24", "25", "26", "25", "25", "26", "27", "29", "28", "1", "0"], "time": [557, 2319, 3006, 3134, 3687, 4221, 4848, 4945, 5212, 5255, 5929, 9320, 12085, 19688, 19748]}, "edge": {"target": [], "time": []}}}, "displayed_time": "18.49", "trialTime": 21334, "trial_type": "mouselab-mdp", "trial_index": 12, "time_elapsed": 496644, "internal_node_id": "0.0-6.0-1.0-3.0"}}, {"uniqueid": "w46312037:a54891693", "current_trial": 13, "dateTime": 1693581847536, "trialdata": {"revealed_states": [], "clicked_states": ["23", "1", "2", "6", "7", "5", "9"], "num_clicks_accrued": [0, 0, 0, 0, 0, 0, 0, 0, 0, 0, 0, 0, 0], "stateRewards": ["", 1, 2, -8, 9, 18, -83, -11, 6, -64, -48, 17, -2, -2, -5, -3, -24, -3, -86, -2, 48, -41, -22, -2, 4, 7, 8, 81, 13, -48, 10, 61, 19, 57], "withholdReward": false, "trial_id": "mdp_trial_5", "block": "test", "trialIndex": 6, "score": 13.549999999999999, "costs": -8.450000000000001, "simulationMode": [null, null, null, null, null], "rewards": [1, 2, -8, 9, 18], "path": ["0", "0", "1", "2", "3", "4", "5"], "rt": [16714, 29, 62, 14, 18], "actions": ["up", "up", "up", "right", "up"], "actionTimes": [17821, 18356, 18923, 19441, 19961], "queries": {"click": {"state": {"target": ["23", "1", "2", "6", "7", "5", "9"], "time": [1763, 3204, 4343, 5497, 8364, 11314, 14603]}, "edge": {"target": [], "time": []}}, "mouseover": {"state": {"target": ["0", "23", "1", "1", "12", "2", "3", "6", "7", "4", "5", "9"], "time": [1401, 1473, 2348, 2543, 3650, 4141, 4743, 5332, 5934, 8754, 8876, 12777]}, "edge": {"target": [], "time": []}}, "mouseout": {"state": {"target": ["0", "0", "23", "1", "1", "12", "2", "3", "6", "7", "4", "5", "9", "5"], "time": [264, 1419, 2300, 2415, 3503, 4044, 4639, 4816, 5819, 8711, 8808, 11817, 15185, 22664]}, "edge": {"target": [], "time": []}}}, "displayed_time": "20.47", "trialTime": 22920, "trial_type": "mouselab-mdp", "trial_index": 13, "time_elapsed": 519732, "internal_node_id": "0.0-6.0-1.0-4.0"}}, {"uniqueid": "w46312037:a54891693", "current_trial": 14, "dateTime": 1693581866924, "trialdata": {"revealed_states": [], "clicked_states": ["23", "1", "30", "26", "29", "33"], "num_clicks_accrued": [0, 0, 0, 0, 0, 0, 0, 0, 0, 0, 0, 0, 0], "stateRewards": ["", 1, 2, -6, -13, -51, 22, -4, -12, -44, -12, 6, -2, -2, -2, -14, -46, -4, -77, -2, 36, -79, 41, 2, -4, 2, -6, -55, 59, 70, -5, 39, -19, 24], "withholdReward": false, "trial_id": "mdp_trial_6", "block": "test", "trialIndex": 7, "score": 57.1, "costs": -6.9, "simulationMode": [null, null, null, null, null], "rewards": [2, -4, 2, -6, 70], "path": ["0", "0", "23", "24", "25", "26", "29"], "rt": [10626, 41, 161, 31, 50], "actions": ["left", "left", "left", "up", "left"], "actionTimes": [14361, 14908, 15575, 16120, 16673], "queries": {"click": {"state": {"target": ["23", "1", "30", "26", "29", "33"], "time": [4158, 4919, 6845, 7808, 8727, 11508]}, "edge": {"target": [], "time": []}}, "mouseover": {"state": {"target": ["23", "1", "24", "25", "30", "25", "30", "25", "26", "29", "27", "33", "25"], "time": [3897, 4699, 5769, 5848, 6401, 6553, 6766, 7167, 7397, 8388, 9391, 10333, 12265]}, "edge": {"target": [], "time": []}}, "mouseout": {"state": {"target": ["5", "2", "1", "23", "1", "23", "24", "25", "30", "25", "30", "25", "26", "29", "27", "33", "25", "30"], "time": [287, 390, 475, 4438, 5556, 5720, 5812, 6340, 6516, 6717, 6894, 7233, 8281, 8786, 10193, 11611, 18324, 18380]}, "edge": {"target": [], "time": []}}}, "displayed_time": "17.74", "trialTime": 19220, "trial_type": "mouselab-mdp", "trial_index": 14, "time_elapsed": 539120, "internal_node_id": "0.0-6.0-1.0-5.0"}}, {"uniqueid": "w46312037:a54891693", "current_trial": 15, "dateTime": 1693581884904, "trialdata": {"revealed_states": [], "clicked_states": ["23", "1", "12", "30", "26", "29", "27"], "num_clicks_accrued": [0, 0, 0, 0, 0, 0, 0, 0, 0, 0, 0, 0, 0], "stateRewards": ["", -1, -3, -6, 14, 41, 18, 63, -14, 80, 21, 17, -2, -4, -2, -5, 13, 70, 8, -4, -64, -10, -20, 2, -1, 4, -1, -17, -55, 42, -7, 47, 54, 15], "withholdReward": false, "trial_id": "mdp_trial_7", "block": "test", "trialIndex": 8, "score": 39.35, "costs": -6.65, "simulationMode": [null, null, null, null, null], "rewards": [2, -1, 4, -1, 42], "path": ["0", "0", "23", "24", "25", "26", "29"], "rt": [11875, 51, 42, 4, 66], "actions": ["left", "left", "left", "up", "left"], "actionTimes": [13418, 13972, 14515, 15025, 15603], "queries": {"click": {"state": {"target": ["23", "1", "12", "30", "26", "29", "27"], "time": [1975, 3060, 3962, 5207, 6340, 7404, 10599]}, "edge": {"target": [], "time": []}}, "mouseover": {"state": {"target": ["0", "23", "1", "1", "12", "13", "25", "30", "30", "32", "25", "26", "29", "27"], "time": [1576, 1759, 2294, 2896, 3558, 4159, 4706, 4836, 5022, 5874, 6061, 6116, 6687, 7897]}, "edge": {"target": [], "time": []}}, "mouseout": {"state": {"target": ["23", "0", "0", "23", "1", "1", "1", "12", "13", "25", "30", "30", "30", "32", "30", "25", "26", "29", "27", "26", "24"], "time": [484, 847, 1607, 2190, 2531, 3096, 3278, 4117, 4165, 4797, 4869, 5229, 5581, 6001, 6043, 6086, 6645, 7769, 16964, 17000, 17037]}, "edge": {"target": [], "time": []}}}, "displayed_time": "16.11", "trialTime": 17821, "trial_type": "mouselab-mdp", "trial_index": 15, "time_elapsed": 557099, "internal_node_id": "0.0-6.0-1.0-6.0"}}, {"uniqueid": "w46312037:a54891693", "current_trial": 16, "dateTime": 1693581902897, "trialdata": {"revealed_states": [], "clicked_states": ["23", "24", "26", "29", "27", "28"], "num_clicks_accrued": [0, 0, 0, 0, 0, 0, 0, 0, 0, 0, 0, 0, 0], "stateRewards": ["", -2, 1, 6, -2, -10, -78, -69, 14, -15, 7, -1, 1, -1, -2, 13, 77, 32, 87, 5, -74, 30, -26, 1, 3, 4, 12, 39, 54, -43, 2, 10, 23, 13], "withholdReward": false, "trial_id": "mdp_trial_8", "block": "test", "trialIndex": 9, "score": 65.9, "costs": -8.1, "simulationMode": [null, null, null, null, null], "rewards": [1, 3, 4, 12, 54], "path": ["0", "0", "23", "24", "25", "26", "28"], "rt": [12109, 95, 268, 457, 38], "actions": ["left", "left", "left", "up", "right"], "actionTimes": [13272, 13872, 14646, 15607, 16149], "queries": {"click": {"state": {"target": ["23", "24", "26", "29", "27", "28"], "time": [1730, 2885, 3834, 4738, 7729, 10494]}, "edge": {"target": [], "time": []}}, "mouseover": {"state": {"target": ["23", "1", "24", "25", "26", "27", "29", "27", "28", "10"], "time": [1354, 2022, 2752, 3104, 3560, 4144, 4447, 5103, 8184, 11053]}, "edge": {"target": [], "time": []}}, "mouseout": {"state": {"target": ["0", "23", "1", "24", "24", "25", "26", "27", "29", "26", "27", "28", "10"], "time": [1251, 1889, 2613, 2976, 3074, 3147, 3840, 4320, 4939, 5000, 7960, 10998, 11156]}, "edge": {"target": [], "time": []}}}, "displayed_time": "16.65", "trialTime": 17816, "trial_type": "mouselab-mdp", "trial_index": 16, "time_elapsed": 575092, "internal_node_id": "0.0-6.0-1.0-7.0"}}, {"uniqueid": "w46312037:a54891693", "current_trial": 17, "dateTime": 1693581922921, "trialdata": {"revealed_states": [], "clicked_states": ["25", "3", "14", "16", "18", "20"], "num_clicks_accrued": [0, 0, 0, 0, 0, 0, 0, 0, 0, 0, 0, 0, 0], "stateRewards": ["", -1, 4, -3, 3, 57, -61, 5, -11, 23, -1, 34, -2, -4, -1, -13, 27, 38, -36, 4, -45, 21, 88, 1, -2, -1, 1, -69, -5, -78, -12, -9, 38, -54], "withholdReward": false, "trial_id": "mdp_trial_9", "block": "test", "trialIndex": 10, "score": -2.3000000000000007, "costs": -9.3, "simulationMode": [null, null, null, null, null], "rewards": [-2, -4, -1, -13, 27], "path": ["0", "0", "12", "13", "14", "15", "16"], "rt": [14367, 38, 44, 24, 58], "actions": ["right", "right", "right", "up", "up"], "actionTimes": [15594, 16136, 16683, 17210, 17773], "queries": {"click": {"state": {"target": ["25", "3", "14", "16", "18", "20"], "time": [3221, 4444, 5519, 6402, 9479, 12539]}, "edge": {"target": [], "time": []}}, "mouseover": {"state": {"target": ["23", "24", "25", "24", "10", "2", "3", "4", "18", "14", "17", "16", "15", "18", "14", "19", "21", "19", "17", "20"], "time": [1554, 1597, 2235, 3420, 3791, 4088, 4216, 4842, 5122, 5316, 5899, 6015, 7455, 7668, 10463, 10532, 10773, 10974, 11120, 11557]}, "edge": {"target": [], "time": []}}, "mouseout": {"state": {"target": ["10", "2", "1", "23", "24", "25", "24", "10", "2", "3", "4", "18", "14", "17", "16", "15", "18", "14", "19", "21", "19", "17", "20"], "time": [308, 332, 746, 1579, 2186, 3384, 3432, 3858, 4180, 4505, 4891, 5189, 5626, 5905, 6611, 7522, 10112, 10494, 10633, 10941, 11004, 11472, 12779]}, "edge": {"target": [], "time": []}}}, "displayed_time": "18.28", "trialTime": 19846, "trial_type": "mouselab-mdp", "trial_index": 17, "time_elapsed": 595116, "internal_node_id": "0.0-6.0-1.0-8.0"}}, {"uniqueid": "w46312037:a54891693", "current_trial": 18, "dateTime": 1693581943234, "trialdata": {"revealed_states": [], "clicked_states": ["23", "1", "12", "3", "8", "9", "11", "10"], "num_clicks_accrued": [0, 0, 0, 0, 0, 0, 0, 0, 0, 0, 0, 0, 0], "stateRewards": ["", 2, 4, -3, 16, -58, 30, -35, 11, -60, 47, 27, -2, -1, -7, -16, 23, -70, 68, -10, -65, -43, -34, -2, 1, 7, 9, -63, 34, -31, -8, -12, -86, 59], "withholdReward": false, "trial_id": "mdp_trial_10", "block": "test", "trialIndex": 11, "score": 52.8, "costs": -8.2, "simulationMode": [null, null, null, null, null, null], "rewards": [2, 4, -3, 11, 47], "path": ["0", "0", "1", "2", "3", "8", "10"], "rt": [12806, 432, 35, 93, 518, 137], "actions": ["up", "up", "up", "up", "left", "down"], "actionTimes": [13899, 14332, 14880, 15483, 16503, 17144], "queries": {"click": {"state": {"target": ["23", "1", "12", "3", "8", "9", "11", "10"], "time": [2055, 2631, 3147, 4307, 5300, 6555, 9703, 12466]}, "edge": {"target": [], "time": []}}, "mouseover": {"state": {"target": ["23", "1", "12", "7", "2", "3", "8", "9", "11", "10", "2"], "time": [1387, 2335, 2949, 3527, 3842, 4152, 4703, 6335, 7172, 10199, 13085]}, "edge": {"target": [], "time": []}}, "mouseout": {"state": {"target": ["14", "13", "12", "0", "23", "1", "12", "7", "2", "3", "8", "8", "3", "3", "9", "9", "8", "11", "10", "2", "1"], "time": [274, 299, 329, 1223, 2201, 2845, 3313, 3556, 4030, 4651, 5574, 5823, 5916, 6115, 6610, 6729, 7057, 10120, 13079, 13098, 18774]}, "edge": {"target": [], "time": []}}}, "displayed_time": "17.65", "trialTime": 20157, "trial_type": "mouselab-mdp", "trial_index": 18, "time_elapsed": 615430, "internal_node_id": "0.0-6.0-1.0-9.0"}}, {"uniqueid": "w46312037:a54891693", "current_trial": 19, "dateTime": 1693581963464, "trialdata": {"revealed_states": [], "clicked_states": ["26", "30", "19", "15", "4", "5", "6"], "num_clicks_accrued": [0, 0, 0, 0, 0, 0, 0, 0, 0, 0, 0, 0, 0], "stateRewards": ["", -1, 1, -1, 2, 19, 85, -18, 2, -3, -26, 36, 2, 4, 7, -9, -18, 70, 72, -5, 35, -20, -28, 1, -2, -4, -3, -59, -11, -63, -2, -72, 59, -69], "withholdReward": false, "trial_id": "mdp_trial_11", "block": "test", "trialIndex": 12, "score": 73.95, "costs": -12.05, "simulationMode": [null, null, null, null, null], "rewards": [-1, 1, -1, 2, 85], "path": ["0", "0", "1", "2", "3", "4", "6"], "rt": [11870, 84, 66, 23, 88], "actions": ["up", "up", "up", "right", "right"], "actionTimes": [14620, 15209, 15779, 16307, 16900], "queries": {"click": {"state": {"target": ["26", "30", "19", "15", "4", "5", "6"], "time": [3582, 4297, 5271, 6104, 7143, 8193, 11426]}, "edge": {"target": [], "time": []}}, "mouseover": {"state": {"target": ["23", "26", "25", "30", "31", "13", "14", "19", "14", "15", "4", "3", "8", "3", "5", "6", "7"], "time": [2925, 3108, 3939, 4049, 4505, 4724, 4967, 5107, 5520, 5782, 6693, 7471, 7629, 7744, 7848, 8808, 12758]}, "edge": {"target": [], "time": []}}, "mouseout": {"state": {"target": ["0", "23", "26", "25", "30", "31", "13", "14", "19", "14", "15", "4", "3", "8", "3", "5", "6", "6", "7", "1", "0"], "time": [2889, 2968, 3867, 3995, 4469, 4548, 4877, 5046, 5459, 5587, 6389, 7441, 7513, 7714, 7781, 8371, 11628, 12564, 18398, 18440, 18464]}, "edge": {"target": [], "time": []}}}, "displayed_time": "17.40", "trialTime": 20065, "trial_type": "mouselab-mdp", "trial_index": 19, "time_elapsed": 635659, "internal_node_id": "0.0-6.0-1.0-10.0"}}, {"uniqueid": "w46312037:a54891693", "current_trial": 20, "dateTime": 1693581982082, "trialdata": {"revealed_states": [], "clicked_states": ["23", "25", "8", "9", "11", "10"], "num_clicks_accrued": [0, 0, 0, 0, 0, 0, 0, 0, 0, 0, 0, 0, 0], "stateRewards": ["", 2, 3, 6, -12, -29, 12, 87, 4, 35, -30, 67, 2, 3, -5, -9, 44, 69, -8, 1, 45, -8, 28, -2, -1, -8, 11, -12, -5, 81, 9, 87, 82, 88], "withholdReward": false, "trial_id": "mdp_trial_12", "block": "test", "trialIndex": 13, "score": 73.3, "costs": -8.700000000000001, "simulationMode": [null, null, null, null, null], "rewards": [2, 3, 6, 4, 67], "path": ["0", "0", "1", "2", "3", "8", "11"], "rt": [12495, 422, 117, 112, 91], "actions": ["up", "up", "up", "left", "left"], "actionTimes": [14036, 14976, 15594, 16210, 16809], "queries": {"click": {"state": {"target": ["23", "25", "8", "9", "11", "10"], "time": [2193, 3037, 4338, 5503, 8264, 11201]}, "edge": {"target": [], "time": []}}, "mouseover": {"state": {"target": ["23", "25", "28", "10", "3", "3", "8", "3", "4", "3", "9", "11", "10", "27"], "time": [1851, 2876, 3292, 3444, 3553, 3802, 4179, 4550, 4866, 5085, 5156, 5838, 8931, 11648]}, "edge": {"target": [], "time": []}}, "mouseout": {"state": {"target": ["0", "23", "25", "28", "10", "3", "3", "8", "3", "4", "3", "9", "11", "10", "27", "27", "26", "25", "31"], "time": [1342, 2558, 3104, 3359, 3492, 3632, 4149, 4513, 4653, 5042, 5109, 5765, 8871, 11587, 11675, 17992, 18035, 18071, 18114]}, "edge": {"target": [], "time": []}}}, "displayed_time": "17.31", "trialTime": 18436, "trial_type": "mouselab-mdp", "trial_index": 20, "time_elapsed": 654277, "internal_node_id": "0.0-6.0-1.0-11.0"}}, {"uniqueid": "w46312037:a54891693", "current_trial": 21, "dateTime": 1693581999770, "trialdata": {"revealed_states": [], "clicked_states": ["25", "33", "32"], "num_clicks_accrued": [0, 0, 0, 0, 0, 0, 0, 0, 0, 0, 0, 0, 0], "stateRewards": ["", 1, 2, 3, 16, 63, -25, 16, -4, -14, 82, -66, -1, -3, -3, -11, -14, 19, 46, 3, -34, -82, 66, -2, -3, 4, -5, -63, 77, -37, -1, -45, -41, 84], "withholdReward": false, "trial_id": "mdp_trial_13", "block": "test", "trialIndex": 14, "score": 76.75, "costs": -5.25, "simulationMode": [null, null, null, null, null], "rewards": [-2, -3, 4, -1, 84], "path": ["0", "0", "23", "24", "25", "30", "33"], "rt": [8648, 92, 76, 66, 75], "actions": ["left", "left", "left", "down", "left"], "actionTimes": [9382, 9981, 10562, 11134, 11714], "queries": {"click": {"state": {"target": ["25", "33", "32"], "time": [1511, 3266, 6310]}, "edge": {"target": [], "time": []}}, "mouseover": {"state": {"target": ["23", "24", "25", "30", "33", "32"], "time": [1033, 1112, 1319, 1963, 3149, 3774]}, "edge": {"target": [], "time": []}}, "mouseout": {"state": {"target": ["31", "24", "1", "23", "24", "25", "30", "33", "32", "0"], "time": [4, 91, 365, 1082, 1155, 1884, 2796, 3634, 6685, 16864]}, "edge": {"target": [], "time": []}}}, "displayed_time": "14.74", "trialTime": 17500, "trial_type": "mouselab-mdp", "trial_index": 21, "time_elapsed": 671966, "internal_node_id": "0.0-6.0-1.0-12.0"}}, {"uniqueid": "w46312037:a54891693", "current_trial": 22, "dateTime": 1693582016154, "trialdata": {"revealed_states": [], "clicked_states": ["30", "26", "8", "4", "15", "29"], "num_clicks_accrued": [0, 0, 0, 0, 0, 0, 0, 0, 0, 0, 0, 0, 0], "stateRewards": ["", -2, -3, -3, 9, 79, 67, 22, -15, -56, 27, -85, -2, 4, -4, -15, -20, -32, 60, 15, 71, 57, 17, 1, 2, -8, 15, -37, -81, 82, 15, 21, -3, 2], "withholdReward": false, "trial_id": "mdp_trial_14", "block": "test", "trialIndex": 15, "score": 82.1, "costs": -9.9, "simulationMode": [null, null, null, null, null], "rewards": [1, 2, -8, 15, 82], "path": ["0", "0", "23", "24", "25", "26", "29"], "rt": [9691, 58, 124, 97, 91], "actions": ["left", "left", "left", "up", "left"], "actionTimes": [10711, 11271, 11903, 12507, 13103], "queries": {"click": {"state": {"target": ["30", "26", "8", "4", "15", "29"], "time": [1684, 2437, 3462, 4179, 5311, 6555]}, "edge": {"target": [], "time": []}}, "mouseover": {"state": {"target": ["0", "23", "31", "31", "30", "25", "26", "27", "26", "28", "10", "8", "3", "4", "6", "15", "15", "3", "11", "27", "29", "26", "27", "27"], "time": [1033, 1088, 1148, 1226, 1489, 1859, 1926, 2120, 2315, 2649, 2831, 3129, 3679, 3792, 4847, 4964, 5153, 5718, 6028, 6137, 6387, 6763, 6966, 7675]}, "edge": {"target": [], "time": []}}, "mouseout": {"state": {"target": ["0", "0", "23", "31", "31", "30", "25", "26", "27", "26", "28", "10", "8", "3", "4", "6", "15", "15", "3", "11", "27", "29", "26", "27", "27", "26", "24", "31"], "time": [816, 1051, 1100, 1197, 1283, 1816, 1902, 1975, 2260, 2514, 2656, 2886, 3634, 3743, 4404, 4892, 5031, 5609, 5791, 6064, 6162, 6733, 6909, 6982, 14032, 14056, 14092, 14117]}, "edge": {"target": [], "time": []}}}, "displayed_time": "15.02", "trialTime": 16205, "trial_type": "mouselab-mdp", "trial_index": 22, "time_elapsed": 688350, "internal_node_id": "0.0-6.0-1.0-13.0"}}, {"uniqueid": "w46312037:a54891693", "current_trial": 23, "dateTime": 1693582032987, "trialdata": {"revealed_states": [], "clicked_states": ["26", "30", "29", "27", "11"], "num_clicks_accrued": [0, 0, 0, 0, 0, 0, 0, 0, 0, 0, 0, 0, 0], "stateRewards": ["", -1, 3, 1, -11, -22, -36, 19, -5, -70, -52, 50, -2, -4, 4, -2, -41, -83, 29, -2, 22, 10, -6, -2, 3, -2, 14, 54, 44, 77, -9, -65, -37, -40], "withholdReward": false, "trial_id": "mdp_trial_15", "block": "test", "trialIndex": 16, "score": 80.45, "costs": -9.55, "simulationMode": [null, null, null, null, null], "rewards": [-2, 3, -2, 14, 77], "path": ["0", "0", "23", "24", "25", "26", "29"], "rt": [11659, 95, 60, 136, 47], "actions": ["left", "left", "left", "up", "left"], "actionTimes": [12650, 13251, 13816, 14457, 15006], "queries": {"click": {"state": {"target": ["26", "30", "29", "27", "11"], "time": [1910, 2591, 3610, 6379, 9553]}, "edge": {"target": [], "time": []}}, "mouseover": {"state": {"target": ["28", "25", "26", "25", "30", "31", "24", "29", "29", "27", "11"], "time": [1242, 1498, 1692, 2239, 2339, 2938, 3017, 3096, 3509, 3965, 7828]}, "edge": {"target": [], "time": []}}, "mouseout": {"state": {"target": ["0", "28", "25", "26", "25", "30", "31", "24", "26", "29", "29", "27", "11", "11", "23"], "time": [1127, 1365, 1656, 2209, 2282, 2914, 2950, 3041, 3084, 3114, 3886, 7696, 9854, 16107, 16192]}, "edge": {"target": [], "time": []}}}, "displayed_time": "15.51", "trialTime": 16645, "trial_type": "mouselab-mdp", "trial_index": 23, "time_elapsed": 705183, "internal_node_id": "0.0-6.0-1.0-14.0"}}, {"uniqueid": "w46312037:a54891693", "current_trial": 24, "dateTime": 1693582052662, "trialdata": {"revealed_states": [], "clicked_states": ["26", "30", "19", "15", "20", "21", "22"], "num_clicks_accrued": [0, 0, 0, 0, 0, 0, 0, 0, 0, 0, 0, 0, 0], "stateRewards": ["", 1, 2, -3, 6, -88, 74, -45, 7, -46, 40, -77, 1, -4, 4, 3, 22, -25, -59, 8, -83, 19, -60, -1, -1, -1, -8, 26, -29, 64, -7, -88, -51, -55], "withholdReward": false, "trial_id": "mdp_trial_16", "block": "test", "trialIndex": 17, "score": 15.35, "costs": -12.65, "simulationMode": [null, null, null, null, null], "rewards": [1, -4, 4, 8, 19], "path": ["0", "0", "12", "13", "14", "19", "21"], "rt": [14103, 406, 148, 98, 95], "actions": ["right", "right", "right", "down", "down"], "actionTimes": [14827, 15738, 16391, 16992, 17590], "queries": {"click": {"state": {"target": ["26", "30", "19", "15", "20", "21", "22"], "time": [2278, 3148, 4158, 4849, 5648, 8809, 11676]}, "edge": {"target": [], "time": []}}, "mouseover": {"state": {"target": ["23", "24", "25", "26", "25", "30", "31", "22", "19", "14", "15", "20", "21", "22"], "time": [916, 1013, 1378, 1633, 2478, 2648, 3492, 3663, 3893, 4441, 4677, 5461, 6263, 9211]}, "edge": {"target": [], "time": []}}, "mouseout": {"state": {"target": ["1", "0", "23", "24", "25", "26", "25", "30", "31", "22", "19", "14", "15", "20", "20", "21", "22"], "time": [289, 849, 976, 1323, 1604, 2429, 2582, 3457, 3517, 3772, 4282, 4459, 5110, 5705, 5972, 9041, 12067]}, "edge": {"target": [], "time": []}}}, "displayed_time": "18.10", "trialTime": 19500, "trial_type": "mouselab-mdp", "trial_index": 24, "time_elapsed": 724857, "internal_node_id": "0.0-6.0-1.0-15.0"}}, {"uniqueid": "w46312037:a54891693", "current_trial": 25, "dateTime": 1693582074219, "trialdata": {"revealed_states": [], "clicked_states": ["26", "30", "8", "4", "15", "19", "9", "11", "10"], "num_clicks_accrued": [0, 0, 0, 0, 0, 0, 0, 0, 0, 0, 0, 0, 0], "stateRewards": ["", -2, -1, 3, -3, 71, -58, -21, 7, -10, -75, -37, 2, 4, -1, -12, -79, -29, -48, 3, -41, -10, -30, -1, -2, 1, -15, 13, 66, 22, -1, -42, -86, -55], "withholdReward": false, "trial_id": "mdp_trial_17", "block": "test", "trialIndex": 18, "score": -39.75, "costs": -15.750000000000002, "simulationMode": [null, null, null, null, null], "rewards": [-2, -1, 3, -3, -21], "path": ["0", "0", "1", "2", "3", "4", "7"], "rt": [15715, 129, 75, 34, 77], "actions": ["up", "up", "up", "right", "down"], "actionTimes": [16811, 17445, 18023, 18559, 19143], "queries": {"click": {"state": {"target": ["26", "30", "8", "4", "15", "19", "9", "11", "10"], "time": [1944, 2641, 3452, 4187, 5342, 6469, 7385, 10221, 13167]}, "edge": {"target": [], "time": []}}, "mouseover": {"state": {"target": ["23", "24", "25", "26", "25", "30", "24", "28", "8", "8", "3", "4", "6", "16", "15", "14", "19", "14", "18", "7", "9", "11", "10", "2", "4", "6"], "time": [1228, 1362, 1393, 1715, 2219, 2456, 2918, 2961, 3040, 3380, 3775, 3934, 4675, 4778, 5027, 5762, 6085, 6716, 6778, 6929, 7202, 7926, 10903, 13395, 13419, 13433]}, "edge": {"target": [], "time": []}}, "mouseout": {"state": {"target": ["0", "23", "24", "25", "26", "25", "30", "24", "28", "8", "8", "3", "4", "6", "16", "15", "14", "19", "14", "18", "7", "9", "11", "10", "2", "4", "6", "12"], "time": [620, 1350, 1380, 1417, 2177, 2280, 2863, 2943, 2979, 3216, 3739, 3813, 4620, 4717, 4826, 5648, 5902, 6667, 6735, 6868, 6953, 7670, 10661, 13377, 13401, 13426, 13452, 20517]}, "edge": {"target": [], "time": []}}}, "displayed_time": "19.65", "trialTime": 21353, "trial_type": "mouselab-mdp", "trial_index": 25, "time_elapsed": 746415, "internal_node_id": "0.0-6.0-1.0-16.0"}}, {"uniqueid": "w46312037:a54891693", "current_trial": 26, "dateTime": 1693582115338, "trialdata": {"revealed_states": [], "clicked_states": ["30", "26", "27", "29", "28", "8", "4", "5", "6", "7", "15", "16", "18", "17"], "num_clicks_accrued": [0, 0, 0, 0, 0, 0, 0, 0, 0, 0, 0, 0, 0], "stateRewards": ["", 1, -3, -1, 9, -34, -40, 22, -7, 45, 53, -11, 2, 4, 5, 15, 21, 37, -49, -3, 80, -28, -34, 1, -3, 1, 1, -40, -6, -5, -16, -85, -86, 59], "withholdReward": false, "trial_id": "mdp_trial_18", "block": "test", "trialIndex": 19, "score": 35.900000000000006, "costs": -27.099999999999998, "simulationMode": [null, null, null, null, null], "rewards": [2, 4, 5, 15, 37], "path": ["0", "0", "12", "13", "14", "15", "17"], "rt": [35531, 7, 61, 67, 24], "actions": ["right", "right", "right", "up", "right"], "actionTimes": [36817, 37330, 37901, 38472, 39000], "queries": {"click": {"state": {"target": ["30", "26", "27", "29", "28", "8", "4", "5", "6", "7", "15", "16", "18", "17"], "time": [2671, 3429, 4722, 7769, 10824, 13932, 14942, 16055, 19135, 22216, 25808, 27052, 30337, 33665]}, "edge": {"target": [], "time": []}}, "mouseover": {"state": {"target": ["23", "24", "30", "25", "26", "8", "11", "27", "29", "11", "8", "8", "28", "8", "11", "8", "3", "4", "5", "6", "7", "18", "15", "16", "18", "15", "17"], "time": [1406, 1515, 1754, 2834, 3016, 4183, 4329, 4584, 5393, 8273, 8814, 9081, 10400, 11361, 12661, 13390, 14344, 14387, 15827, 17340, 19564, 22920, 23618, 26505, 28601, 30831, 30922]}, "edge": {"target": [], "time": []}}, "mouseout": {"state": {"target": ["0", "0", "0", "23", "24", "30", "25", "26", "8", "11", "27", "29", "27", "11", "8", "8", "28", "8", "11", "8", "3", "4", "5", "6", "7", "18", "15", "16", "18", "15", "17", "19"], "time": [245, 603, 1382, 1436, 1613, 2767, 2907, 3444, 4317, 4341, 5107, 8170, 8238, 8765, 8978, 10310, 10966, 12540, 13275, 14314, 14369, 15596, 17237, 19437, 22463, 22933, 25878, 28309, 30777, 30892, 33704, 40191]}, "edge": {"target": [], "time": []}}}, "displayed_time": "39.51", "trialTime": 40923, "trial_type": "mouselab-mdp", "trial_index": 26, "time_elapsed": 787533, "internal_node_id": "0.0-6.0-1.0-17.0"}}, {"uniqueid": "w46312037:a54891693", "current_trial": 27, "dateTime": 1693582134655, "trialdata": {"revealed_states": [], "clicked_states": ["30", "26", "8", "4", "15", "19", "18", "16", "17"], "num_clicks_accrued": [0, 0, 0, 0, 0, 0, 0, 0, 0, 0, 0, 0, 0], "stateRewards": ["", 1, 1, -3, 2, 22, -25, -11, -5, 50, 49, 3, 1, -1, 8, 14, -85, -30, 57, -6, -39, -16, 59, -2, -1, 5, 5, 59, -16, 8, 4, 67, 56, -9], "withholdReward": false, "trial_id": "mdp_trial_19", "block": "test", "trialIndex": 20, "score": 63.25, "costs": -15.750000000000002, "simulationMode": [null, null, null, null, null], "rewards": [1, -1, 8, 14, 57], "path": ["0", "0", "12", "13", "14", "15", "18"], "rt": [14225, 26, 49, 61, 43], "actions": ["right", "right", "right", "up", "left"], "actionTimes": [15072, 15602, 16154, 16719, 17266], "queries": {"click": {"state": {"target": ["30", "26", "8", "4", "15", "19", "18", "16", "17"], "time": [1391, 2218, 2905, 3737, 4375, 5007, 5643, 8694, 11954]}, "edge": {"target": [], "time": []}}, "mouseover": {"state": {"target": ["23", "24", "25", "30", "26", "8", "8", "3", "4", "4", "6", "16", "15", "14", "19", "20", "18", "16", "17"], "time": [923, 959, 1014, 1160, 1835, 2540, 2752, 3121, 3251, 3682, 3974, 4047, 4120, 4616, 4819, 5154, 5408, 6034, 9467]}, "edge": {"target": [], "time": []}}, "mouseout": {"state": {"target": ["23", "24", "25", "30", "26", "8", "8", "3", "4", "4", "6", "16", "15", "14", "19", "20", "15", "18", "16", "17"], "time": [947, 990, 1069, 1579, 2400, 2600, 3046, 3200, 3348, 3925, 3992, 4071, 4565, 4683, 5122, 5248, 5374, 5710, 9073, 12111]}, "edge": {"target": [], "time": []}}}, "displayed_time": "17.77", "trialTime": 19083, "trial_type": "mouselab-mdp", "trial_index": 27, "time_elapsed": 806851, "internal_node_id": "0.0-6.0-1.0-18.0"}}, {"uniqueid": "w46312037:a54891693", "current_trial": 28, "dateTime": 1693582176348, "trialdata": {"revealed_states": [], "clicked_states": ["30", "26", "8", "4", "15", "19", "6", "5", "7", "16", "18", "17", "20", "21", "22", "31"], "num_clicks_accrued": [0, 0, 0, 0, 0, 0, 0, 0, 0, 0, 0, 0, 0], "stateRewards": ["", 2, -1, -3, 16, -3, -16, -62, -1, 13, -26, 43, -1, 4, 3, -9, -54, -37, -3, -12, -71, -68, -57, 1, -3, 2, -9, 2, -2, -9, -11, 84, -52, 55], "withholdReward": false, "trial_id": "mdp_trial_20", "block": "test", "trialIndex": 21, "score": 42.2, "costs": -30.799999999999994, "simulationMode": [null, null, null, null, null], "rewards": [1, -3, 2, -11, 84], "path": ["0", "0", "23", "24", "25", "30", "31"], "rt": [36241, 65, 98, 77, 89], "actions": ["left", "left", "left", "down", "right"], "actionTimes": [37232, 37804, 38409, 38989, 39584], "queries": {"click": {"state": {"target": ["30", "26", "8", "4", "15", "19", "6", "5", "7", "16", "18", "17", "20", "21", "22", "31"], "time": [1515, 2132, 2794, 3536, 4186, 4878, 5815, 8862, 11741, 14836, 17930, 21028, 24119, 27211, 30333, 33448]}, "edge": {"target": [], "time": []}}, "mouseover": {"state": {"target": ["23", "31", "30", "25", "26", "8", "3", "4", "4", "6", "16", "15", "14", "19", "14", "6", "5", "4", "7", "16", "16", "18", "15", "17", "20", "21", "22", "19", "31", "31", "32"], "time": [1069, 1111, 1148, 1810, 1883, 2613, 2991, 3084, 3390, 3704, 3816, 4010, 4485, 4553, 5152, 5427, 6144, 9248, 9425, 14116, 14229, 15830, 19063, 19118, 22503, 24532, 27705, 30610, 31114, 31442, 35981]}, "edge": {"target": [], "time": []}}, "mouseout": {"state": {"target": ["16", "2", "1", "0", "23", "31", "30", "25", "26", "8", "3", "4", "4", "6", "16", "15", "15", "14", "19", "14", "15", "6", "5", "4", "7", "16", "16", "16", "18", "15", "17", "20", "21", "22", "19", "22", "31", "31", "32"], "time": [72, 285, 327, 1044, 1081, 1129, 1768, 1853, 2298, 2967, 3044, 3140, 3659, 3740, 3889, 4239, 4454, 4531, 5081, 5160, 5193, 6083, 9200, 9323, 12008, 14129, 15052, 15405, 19033, 19094, 21391, 24344, 27462, 30549, 30616, 30986, 31150, 35866, 40803]}, "edge": {"target": [], "time": []}}}, "displayed_time": "40.09", "trialTime": 41463, "trial_type": "mouselab-mdp", "trial_index": 28, "time_elapsed": 848544, "internal_node_id": "0.0-6.0-1.0-19.0"}}, {"uniqueid": "w46312037:a54891693", "current_trial": 29, "dateTime": 1693582192990, "trialdata": {"revealed_states": [], "clicked_states": ["30", "26", "27", "29", "28"], "num_clicks_accrued": [0, 0, 0, 0, 0, 0, 0, 0, 0, 0, 0, 0, 0], "stateRewards": ["", 1, -4, -6, 11, -20, 8, -30, 1, -38, 88, 42, 2, 3, 5, -12, -8, -74, 30, -8, 67, -19, 42, 2, -1, 4, 13, 50, -68, 2, -8, -15, 87, -46], "withholdReward": false, "trial_id": "mdp_trial_21", "block": "test", "trialIndex": 22, "score": 58.45, "costs": -9.55, "simulationMode": [null, null, null, null, null], "rewards": [2, -1, 4, 13, 50], "path": ["0", "0", "23", "24", "25", "26", "27"], "rt": [11160, 2, 37, 442, 97], "actions": ["left", "left", "left", "up", "up"], "actionTimes": [12191, 12700, 13246, 14192, 14795], "queries": {"click": {"state": {"target": ["30", "26", "27", "29", "28"], "time": [1639, 2365, 3187, 6008, 9121]}, "edge": {"target": [], "time": []}}, "mouseover": {"state": {"target": ["0", "23", "30", "33", "30", "25", "26", "11", "11", "27", "29", "26", "28"], "time": [1096, 1133, 1223, 1272, 1472, 1929, 2080, 2652, 2877, 3046, 3855, 6620, 6778]}, "edge": {"target": [], "time": []}}, "mouseout": {"state": {"target": ["0", "0", "23", "30", "33", "30", "25", "26", "11", "11", "27", "29", "26", "28"], "time": [870, 1115, 1163, 1236, 1359, 1876, 1983, 2498, 2718, 2920, 3721, 6590, 6693, 15942]}, "edge": {"target": [], "time": []}}}, "displayed_time": "15.30", "trialTime": 16431, "trial_type": "mouselab-mdp", "trial_index": 29, "time_elapsed": 865186, "internal_node_id": "0.0-6.0-1.0-20.0"}}, {"uniqueid": "w46312037:a54891693", "current_trial": 30, "dateTime": 1693582212829, "trialdata": {"revealed_states": [], "clicked_states": ["30", "26", "8", "4", "15", "19", "27", "29", "28"], "num_clicks_accrued": [0, 0, 0, 0, 0, 0, 0, 0, 0, 0, 0, 0, 0], "stateRewards": ["", 1, -4, -6, -1, -21, 17, -72, 10, 77, 67, -46, -1, 4, -2, 14, -66, -49, -45, -15, -52, 23, -67, 2, -2, -2, 15, -3, 45, -64, 5, -44, 83, 61], "withholdReward": false, "trial_id": "mdp_trial_22", "block": "test", "trialIndex": 23, "score": 42.25, "costs": -15.750000000000002, "simulationMode": [null, null, null, null, null], "rewards": [2, -2, -2, 15, 45], "path": ["0", "0", "23", "24", "25", "26", "28"], "rt": [15464, 44, 81, 44, 35], "actions": ["left", "left", "left", "up", "right"], "actionTimes": [16200, 16747, 17331, 17880, 18421], "queries": {"click": {"state": {"target": ["30", "26", "8", "4", "15", "19", "27", "29", "28"], "time": [1583, 2201, 2851, 3563, 4500, 5204, 6072, 9175, 12223]}, "edge": {"target": [], "time": []}}, "mouseover": {"state": {"target": ["0", "23", "30", "30", "25", "26", "26", "8", "3", "4", "4", "15", "14", "19", "14", "13", "1", "27", "29", "26", "28", "10", "8", "11"], "time": [774, 932, 1005, 1354, 1777, 1837, 2118, 2562, 3105, 3159, 3455, 3942, 4821, 5083, 5438, 5480, 5552, 5934, 6408, 9429, 9525, 12625, 12728, 12916]}, "edge": {"target": [], "time": []}}, "mouseout": {"state": {"target": ["10", "8", "10", "0", "23", "30", "30", "25", "26", "26", "8", "3", "4", "4", "15", "15", "14", "19", "14", "13", "1", "27", "29", "26", "28", "10", "8", "11"], "time": [38, 226, 276, 914, 951, 1030, 1741, 1813, 1971, 2228, 3072, 3138, 3194, 3748, 4550, 4779, 4901, 5218, 5458, 5488, 5587, 6347, 9392, 9482, 12546, 12655, 12869, 15639]}, "edge": {"target": [], "time": []}}}, "displayed_time": "18.93", "trialTime": 19607, "trial_type": "mouselab-mdp", "trial_index": 30, "time_elapsed": 885025, "internal_node_id": "0.0-6.0-1.0-21.0"}}, {"uniqueid": "w46312037:a54891693", "current_trial": 31, "dateTime": 1693582230293, "trialdata": {"revealed_states": [], "clicked_states": ["30", "26", "8", "4", "6", "7", "5"], "num_clicks_accrued": [0, 0, 0, 0, 0, 0, 0, 0, 0, 0, 0, 0, 0], "stateRewards": ["", 1, -1, 1, 13, 31, -56, 72, 2, 41, 5, 63, -2, -3, -2, 3, -71, -26, 52, 13, -31, 24, -67, 2, -2, 5, 4, 66, 43, 72, 9, 86, -26, 44], "withholdReward": false, "trial_id": "mdp_trial_23", "block": "test", "trialIndex": 24, "score": 73.35, "costs": -12.65, "simulationMode": [null, null, null, null, null], "rewards": [1, -1, 1, 13, 72], "path": ["0", "0", "1", "2", "3", "4", "7"], "rt": [12415, 17, 35, 20, 36], "actions": ["up", "up", "up", "right", "down"], "actionTimes": [13533, 14068, 14616, 15142, 15686], "queries": {"click": {"state": {"target": ["30", "26", "8", "4", "6", "7", "5"], "time": [1748, 2418, 3107, 3664, 4585, 7666, 10471]}, "edge": {"target": [], "time": []}}, "mouseover": {"state": {"target": ["23", "24", "25", "30", "25", "26", "8", "3", "4", "15", "6", "7", "4", "5"], "time": [1192, 1228, 1416, 1576, 1957, 2206, 2876, 3293, 3421, 3991, 4495, 4960, 7977, 8265]}, "edge": {"target": [], "time": []}}, "mouseout": {"state": {"target": ["10", "0", "23", "24", "25", "30", "25", "26", "8", "3", "4", "15", "6", "6", "7", "4", "5", "4", "1"], "time": [547, 881, 1216, 1252, 1520, 1848, 2085, 2681, 3254, 3359, 3844, 4194, 4592, 4875, 7926, 7999, 11091, 16810, 16864]}, "edge": {"target": [], "time": []}}}, "displayed_time": "16.19", "trialTime": 17264, "trial_type": "mouselab-mdp", "trial_index": 31, "time_elapsed": 902488, "internal_node_id": "0.0-6.0-1.0-22.0"}}, {"uniqueid": "w46312037:a54891693", "current_trial": 32, "dateTime": 1693582258759, "trialdata": {"revealed_states": [], "clicked_states": ["30", "26", "8", "4", "15", "19", "32", "31", "33", "29", "27", "28"], "num_clicks_accrued": [0, 0, 0, 0, 0, 0, 0, 0, 0, 0, 0, 0, 0], "stateRewards": ["", -1, 3, 1, -7, 56, 76, 57, 3, 11, -9, 14, 1, -2, 2, 8, -77, -3, 79, -5, 88, 24, -66, -2, -1, 7, -7, -30, 14, -76, 11, -36, 28, -6], "withholdReward": false, "trial_id": "mdp_trial_24", "block": "test", "trialIndex": 25, "score": 20.8, "costs": -22.2, "simulationMode": [null, null, null, null, null], "rewards": [-2, -1, 7, 11, 28], "path": ["0", "0", "23", "24", "25", "30", "32"], "rt": [23385, 58, 71, 14, 48], "actions": ["left", "left", "left", "down", "down"], "actionTimes": [24146, 24710, 25288, 25809, 26365], "queries": {"click": {"state": {"target": ["30", "26", "8", "4", "15", "19", "32", "31", "33", "29", "27", "28"], "time": [1166, 1831, 2663, 3143, 3964, 4461, 5319, 8566, 11661, 14754, 17824, 20895]}, "edge": {"target": [], "time": []}}, "mouseover": {"state": {"target": ["0", "23", "30", "25", "26", "28", "8", "3", "4", "15", "14", "15", "14", "19", "31", "32", "31", "30", "33", "29", "27", "28"], "time": [775, 810, 994, 1394, 1627, 2031, 2463, 2822, 2872, 3441, 3592, 3786, 4135, 4268, 4896, 5216, 5569, 8815, 8881, 13560, 15110, 18288]}, "edge": {"target": [], "time": []}}, "mouseout": {"state": {"target": ["23", "0", "0", "23", "30", "25", "26", "28", "8", "3", "4", "15", "14", "15", "14", "19", "19", "31", "32", "31", "30", "33", "29", "27", "28", "0", "0"], "time": [366, 403, 780, 841, 1334, 1487, 2008, 2053, 2795, 2852, 3317, 3493, 3734, 4098, 4198, 4528, 4672, 4911, 5391, 8766, 8857, 11939, 14927, 18039, 21164, 27665, 27981]}, "edge": {"target": [], "time": []}}}, "displayed_time": "26.87", "trialTime": 28254, "trial_type": "mouselab-mdp", "trial_index": 32, "time_elapsed": 930954, "internal_node_id": "0.0-6.0-1.0-23.0"}}, {"uniqueid": "w46312037:a54891693", "current_trial": 33, "dateTime": 1693582287669, "trialdata": {"revealed_states": [], "clicked_states": ["30", "26", "8", "4", "15", "19", "18", "16", "17", "20", "21", "22"], "num_clicks_accrued": [0, 0, 0, 0, 0, 0, 0, 0, 0, 0, 0, 0, 0], "stateRewards": ["", -2, -1, -1, 5, -54, -87, 35, 2, -8, 20, -22, 1, 3, 6, 13, -75, -32, -55, -3, 56, 62, -22, -1, -4, -1, -7, -51, 84, 70, 7, -15, 5, 55], "withholdReward": false, "trial_id": "mdp_trial_25", "block": "test", "trialIndex": 26, "score": 46.8, "costs": -22.2, "simulationMode": [null, null, null, null, null], "rewards": [1, 3, 6, -3, 62], "path": ["0", "0", "12", "13", "14", "19", "21"], "rt": [23718, 355, 131, 60, 148], "actions": ["right", "right", "right", "down", "down"], "actionTimes": [24512, 25370, 26003, 26570, 27223], "queries": {"click": {"state": {"target": ["30", "26", "8", "4", "15", "19", "18", "16", "17", "20", "21", "22"], "time": [1226, 1983, 2608, 3435, 3993, 4582, 5378, 8428, 11513, 14585, 17722, 20997]}, "edge": {"target": [], "time": []}}, "mouseover": {"state": {"target": ["23", "24", "30", "25", "26", "26", "8", "3", "4", "4", "16", "15", "14", "19", "14", "13", "18", "16", "17", "20", "21", "22"], "time": [882, 919, 973, 1484, 1542, 1921, 2371, 2775, 2846, 3209, 3677, 3829, 4187, 4354, 4783, 4839, 5045, 5652, 8934, 12447, 15054, 18171]}, "edge": {"target": [], "time": []}}, "mouseout": {"state": {"target": ["23", "23", "24", "30", "25", "26", "26", "8", "3", "4", "4", "16", "15", "14", "19", "14", "13", "18", "16", "17", "20", "21", "22"], "time": [341, 901, 924, 1405, 1520, 1624, 2041, 2740, 2818, 2944, 3587, 3720, 4151, 4268, 4694, 4792, 4887, 5527, 8661, 11817, 14896, 17940, 21167]}, "edge": {"target": [], "time": []}}}, "displayed_time": "27.73", "trialTime": 28679, "trial_type": "mouselab-mdp", "trial_index": 33, "time_elapsed": 959865, "internal_node_id": "0.0-6.0-1.0-24.0"}}, {"uniqueid": "w46312037:a54891693", "current_trial": 34, "dateTime": 1693582316535, "trialdata": {"revealed_states": [], "clicked_states": ["30", "26", "8", "4", "15", "19", "22", "21", "20", "28", "27", "29"], "num_clicks_accrued": [0, 0, 0, 0, 0, 0, 0, 0, 0, 0, 0, 0, 0], "stateRewards": ["", 2, -1, -2, -5, -47, -57, -33, -11, 31, -18, -72, -2, 1, -4, -8, -46, -53, -50, 15, -85, -9, 39, -2, -2, 1, 14, -1, -8, 53, -12, -41, -74, 62], "withholdReward": false, "trial_id": "mdp_trial_26", "block": "test", "trialIndex": 27, "score": 41.8, "costs": -22.2, "simulationMode": [null, null, null, null, null], "rewards": [-2, -2, 1, 14, 53], "path": ["0", "0", "23", "24", "25", "26", "29"], "rt": [23800, 143, 88, 81, 50], "actions": ["left", "left", "left", "up", "left"], "actionTimes": [24512, 25159, 25754, 26343, 26895], "queries": {"click": {"state": {"target": ["30", "26", "8", "4", "15", "19", "22", "21", "20", "28", "27", "29"], "time": [1417, 1978, 2622, 3332, 4103, 4607, 5878, 8748, 11640, 14654, 17744, 20786]}, "edge": {"target": [], "time": []}}, "mouseover": {"state": {"target": ["23", "24", "25", "25", "30", "25", "26", "10", "8", "3", "4", "4", "2", "7", "18", "15", "14", "19", "22", "0", "28", "28", "12", "13", "14", "22", "22", "21", "20", "19", "22", "0", "23", "28", "27", "29"], "time": [752, 767, 791, 1140, 1272, 1570, 1782, 2252, 2461, 2813, 2876, 3089, 3651, 3706, 3765, 3797, 4288, 4447, 4841, 4934, 5019, 5204, 5270, 5284, 5309, 5446, 5640, 6164, 9366, 12119, 12223, 12942, 12961, 12992, 15133, 18131]}, "edge": {"target": [], "time": []}}, "mouseout": {"state": {"target": ["23", "23", "24", "25", "25", "30", "25", "26", "10", "8", "3", "4", "4", "2", "7", "18", "15", "14", "19", "22", "0", "28", "28", "12", "13", "14", "22", "22", "21", "21", "20", "19", "22", "0", "23", "28", "27", "29", "29", "26", "0", "12"], "time": [281, 758, 780, 810, 1229, 1455, 1660, 2134, 2267, 2779, 2849, 3040, 3548, 3670, 3744, 3784, 4262, 4371, 4812, 4871, 4955, 5047, 5229, 5277, 5297, 5316, 5580, 6036, 8823, 9311, 12058, 12174, 12896, 12954, 12968, 14730, 17996, 21041, 28084, 28102, 28170, 28194]}, "edge": {"target": [], "time": []}}}, "displayed_time": "27.40", "trialTime": 28631, "trial_type": "mouselab-mdp", "trial_index": 34, "time_elapsed": 988730, "internal_node_id": "0.0-6.0-1.0-25.0"}}, {"uniqueid": "w46312037:a54891693", "current_trial": 35, "dateTime": 1693582334280, "trialdata": {"revealed_states": [], "clicked_states": ["30", "26", "8", "4", "15", "19", "32", "31", "33"], "num_clicks_accrued": [0, 0, 0, 0, 0, 0, 0, 0, 0, 0, 0, 0, 0], "stateRewards": ["", -2, -3, 1, -14, 48, -49, 67, -1, -35, -48, 3, -2, 1, -4, -5, 86, -84, 39, 1, 48, 41, -42, -1, -4, 2, -7, 18, -86, 17, 7, -9, 57, -69], "withholdReward": false, "trial_id": "mdp_trial_27", "block": "test", "trialIndex": 28, "score": 45.25, "costs": -15.750000000000002, "simulationMode": [null, null, null, null, null], "rewards": [-1, -4, 2, 7, 57], "path": ["0", "0", "23", "24", "25", "30", "32"], "rt": [13130, 86, 111, 51, 75], "actions": ["left", "left", "left", "down", "down"], "actionTimes": [13916, 14509, 15124, 15678, 16254], "queries": {"click": {"state": {"target": ["30", "26", "8", "4", "15", "19", "32", "31", "33"], "time": [1217, 1880, 2707, 3245, 3932, 4542, 5186, 8031, 10827]}, "edge": {"target": [], "time": []}}, "mouseover": {"state": {"target": ["23", "31", "30", "25", "26", "8", "3", "4", "15", "19", "32", "31", "30", "33"], "time": [840, 955, 998, 1412, 1475, 2529, 2889, 3003, 3825, 4364, 4999, 5442, 8389, 8582]}, "edge": {"target": [], "time": []}}, "mouseout": {"state": {"target": ["23", "24", "25", "31", "0", "23", "31", "30", "25", "26", "8", "3", "4", "4", "15", "19", "32", "31", "30", "33"], "time": [67, 195, 329, 414, 821, 864, 961, 1369, 1450, 2172, 2834, 2955, 3290, 3398, 4093, 4700, 5312, 8364, 8436, 11257]}, "edge": {"target": [], "time": []}}}, "displayed_time": "16.76", "trialTime": 17467, "trial_type": "mouselab-mdp", "trial_index": 35, "time_elapsed": 1006476, "internal_node_id": "0.0-6.0-1.0-26.0"}}, {"uniqueid": "w46312037:a54891693", "current_trial": 36, "dateTime": 1693582368855, "trialdata": {"revealed_states": [], "clicked_states": ["30", "26", "8", "4", "6", "7", "5", "15", "16", "18", "17", "22", "21"], "num_clicks_accrued": [0, 0, 0, 0, 0, 0, 0, 0, 0, 0, 0, 0, 0], "stateRewards": ["", 2, 3, -1, 16, -78, -11, 46, 2, -20, 79, -67, 2, 3, 2, 11, -83, -42, -58, -11, -67, -22, 55, 2, -1, -1, -16, -83, -82, 23, -11, -29, 13, 13], "withholdReward": false, "trial_id": "mdp_trial_28", "block": "test", "trialIndex": 29, "score": 26.050000000000004, "costs": -24.949999999999996, "simulationMode": [null, null, null, null, null], "rewards": [2, 3, 2, -11, 55], "path": ["0", "0", "12", "13", "14", "19", "22"], "rt": [29052, 431, 114, 72, 83], "actions": ["right", "right", "right", "down", "left"], "actionTimes": [29801, 30738, 31357, 31935, 32523], "queries": {"click": {"state": {"target": ["30", "26", "8", "4", "6", "7", "5", "15", "16", "18", "17", "22", "21"], "time": [1278, 1840, 2406, 3075, 4106, 7032, 9922, 13750, 14456, 17516, 20338, 23530, 26661]}, "edge": {"target": [], "time": []}}, "mouseover": {"state": {"target": ["0", "23", "31", "30", "25", "26", "8", "3", "4", "4", "15", "6", "7", "4", "5", "16", "15", "15", "16", "18", "18", "15", "17", "19", "22", "22", "21"], "time": [813, 856, 898, 929, 1571, 1629, 2165, 2590, 2672, 2940, 3374, 4005, 4369, 7493, 7664, 12214, 13174, 13504, 14305, 15478, 16036, 17892, 18170, 21204, 21549, 21749, 24244]}, "edge": {"target": [], "time": []}}, "mouseout": {"state": {"target": ["25", "24", "23", "0", "0", "23", "31", "30", "25", "26", "8", "3", "4", "4", "15", "6", "7", "4", "5", "16", "15", "15", "16", "18", "18", "15", "17", "17", "19", "22", "22", "21", "21"], "time": [339, 369, 399, 547, 832, 862, 911, 1537, 1606, 1963, 2551, 2636, 2715, 3211, 3767, 4241, 7425, 7529, 11187, 13138, 13265, 14016, 14636, 15818, 17843, 18072, 20710, 20965, 21524, 21616, 24101, 26872, 33667]}, "edge": {"target": [], "time": []}}}, "displayed_time": "33.03", "trialTime": 34307, "trial_type": "mouselab-mdp", "trial_index": 36, "time_elapsed": 1041051, "internal_node_id": "0.0-6.0-1.0-27.0"}}, {"uniqueid": "w46312037:a54891693", "current_trial": 37, "dateTime": 1693582387975, "trialdata": {"revealed_states": [], "clicked_states": ["30", "26", "8", "4", "11", "9", "10"], "num_clicks_accrued": [0, 0, 0, 0, 0, 0, 0, 0, 0, 0, 0, 0, 0], "stateRewards": ["", -1, 2, -2, 13, -56, -28, 10, 14, 53, -80, -29, 1, -3, -3, -14, 14, 9, -40, -9, 18, 18, 48, 1, 1, 1, -9, 64, -39, -9, 7, -52, -78, 7], "withholdReward": false, "trial_id": "mdp_trial_29", "block": "test", "trialIndex": 30, "score": 53.35, "costs": -12.65, "simulationMode": [null, null, null, null, null], "rewards": [-1, 2, -2, 14, 53], "path": ["0", "0", "1", "2", "3", "8", "9"], "rt": [12510, 39, 26, 14, 29], "actions": ["up", "up", "up", "left", "up"], "actionTimes": [13501, 14046, 14574, 15091, 15623], "queries": {"click": {"state": {"target": ["30", "26", "8", "4", "11", "9", "10"], "time": [1768, 2435, 3067, 3747, 4799, 7600, 10435]}, "edge": {"target": [], "time": []}}, "mouseover": {"state": {"target": ["23", "31", "30", "25", "26", "26", "8", "3", "4", "15", "18", "2", "11", "9", "8", "10"], "time": [1034, 1202, 1414, 1937, 2010, 2350, 2897, 3272, 3383, 4113, 4337, 4384, 4694, 5026, 8075, 8172]}, "edge": {"target": [], "time": []}}, "mouseout": {"state": {"target": ["0", "23", "31", "30", "25", "26", "26", "8", "3", "4", "15", "18", "2", "8", "11", "9", "8", "10", "23"], "time": [791, 1056, 1281, 1888, 1974, 2101, 2501, 3227, 3321, 3941, 4161, 4358, 4398, 4650, 4945, 8020, 8111, 16583, 16638]}, "edge": {"target": [], "time": []}}}, "displayed_time": "16.13", "trialTime": 18860, "trial_type": "mouselab-mdp", "trial_index": 37, "time_elapsed": 1060171, "internal_node_id": "0.0-6.0-1.0-28.0"}}, {"uniqueid": "w46312037:a54891693", "current_trial": 38, "dateTime": 1693582404686, "trialdata": {"revealed_states": [], "clicked_states": ["30", "26", "8", "27", "29", "28"], "num_clicks_accrued": [0, 0, 0, 0, 0, 0, 0, 0, 0, 0, 0, 0, 0], "stateRewards": ["", 1, -1, -7, -7, -22, 15, -13, 13, 26, -32, 38, -1, 1, -7, -4, 16, -62, 86, 12, -54, 56, 64, -2, -1, 6, 14, -57, 37, 62, -6, -25, 50, -70], "withholdReward": false, "trial_id": "mdp_trial_30", "block": "test", "trialIndex": 31, "score": 67.9, "costs": -11.100000000000001, "simulationMode": [null, null, null, null, null], "rewards": [-2, -1, 6, 14, 62], "path": ["0", "0", "23", "24", "25", "26", "29"], "rt": [10990, 53, 101, 104, 18], "actions": ["left", "left", "left", "up", "left"], "actionTimes": [12522, 13082, 13689, 14300, 14822], "queries": {"click": {"state": {"target": ["30", "26", "8", "27", "29", "28"], "time": [1924, 2424, 3050, 3669, 6484, 9379]}, "edge": {"target": [], "time": []}}, "mouseover": {"state": {"target": ["23", "24", "30", "25", "26", "8", "11", "27", "29", "26", "28"], "time": [1561, 1597, 1694, 2181, 2239, 2873, 3249, 3563, 3915, 6912, 7078]}, "edge": {"target": [], "time": []}}, "mouseout": {"state": {"target": ["0", "23", "24", "30", "25", "26", "8", "11", "27", "29", "26", "28", "23"], "time": [1269, 1585, 1609, 1971, 2213, 2445, 3203, 3323, 3847, 6887, 6949, 15952, 16012]}, "edge": {"target": [], "time": []}}}, "displayed_time": "15.53", "trialTime": 16471, "trial_type": "mouselab-mdp", "trial_index": 38, "time_elapsed": 1076881, "internal_node_id": "0.0-6.0-1.0-29.0"}}, {"uniqueid": "w46312037:a54891693", "current_trial": 39, "dateTime": 1693582421279, "trialdata": {"revealed_states": [], "clicked_states": ["30", "26", "8", "4", "9", "11", "10"], "num_clicks_accrued": [0, 0, 0, 0, 0, 0, 0, 0, 0, 0, 0, 0, 0], "stateRewards": ["", 2, 4, 4, 9, -88, -10, 44, 16, -54, 64, 78, 1, 2, 5, 16, 80, 36, 7, -4, 9, -47, -70, -1, -3, 6, -16, 11, 80, 28, 8, -1, 34, -17], "withholdReward": false, "trial_id": "mdp_trial_31", "block": "test", "trialIndex": 32, "score": 91.35, "costs": -12.65, "simulationMode": [null, null, null, null, null], "rewards": [2, 4, 4, 16, 78], "path": ["0", "0", "1", "2", "3", "8", "11"], "rt": [11547, 48, 69, 20, 67], "actions": ["up", "up", "up", "left", "left"], "actionTimes": [12390, 12945, 13519, 14041, 14617], "queries": {"click": {"state": {"target": ["30", "26", "8", "4", "9", "11", "10"], "time": [1208, 1715, 2322, 2881, 3566, 6335, 9154]}, "edge": {"target": [], "time": []}}, "mouseover": {"state": {"target": ["23", "30", "25", "26", "10", "8", "3", "4", "3", "9", "11", "8", "10", "2"], "time": [905, 985, 1365, 1508, 1951, 2104, 2509, 2584, 3140, 3467, 3861, 6731, 6926, 9627]}, "edge": {"target": [], "time": []}}, "mouseout": {"state": {"target": ["24", "0", "0", "23", "30", "25", "26", "10", "8", "3", "4", "3", "9", "11", "8", "10", "2", "18", "13", "22"], "time": [242, 377, 881, 930, 1300, 1433, 1838, 1985, 2389, 2554, 3116, 3208, 3776, 6684, 6751, 9612, 9653, 15758, 15788, 15861]}, "edge": {"target": [], "time": []}}}, "displayed_time": "15.12", "trialTime": 16335, "trial_type": "mouselab-mdp", "trial_index": 39, "time_elapsed": 1093474, "internal_node_id": "0.0-6.0-1.0-30.0"}}, {"uniqueid": "w46312037:a54891693", "current_trial": 40, "dateTime": 1693582443046, "trialdata": {"revealed_states": [], "clicked_states": ["30", "26", "8", "4", "29", "27", "28", "31", "32"], "num_clicks_accrued": [0, 0, 0, 0, 0, 0, 0, 0, 0, 0, 0, 0, 0], "stateRewards": ["", 2, -1, 3, -12, -83, 6, -33, 9, 28, 24, -50, -2, -1, -2, -5, -87, 37, 82, 12, 80, -5, 10, -2, -3, -6, 9, 22, -1, 16, 9, 77, -62, 58], "withholdReward": false, "trial_id": "mdp_trial_32", "block": "test", "trialIndex": 33, "score": 58.05, "costs": -16.95, "simulationMode": [null, null, null, null, null], "rewards": [-2, -3, -6, 9, 77], "path": ["0", "0", "23", "24", "25", "30", "31"], "rt": [17310, 82, 74, 93, 85], "actions": ["left", "left", "left", "down", "right"], "actionTimes": [17982, 18571, 19153, 19749, 20336], "queries": {"click": {"state": {"target": ["30", "26", "8", "4", "29", "27", "28", "31", "32"], "time": [1099, 1581, 2133, 2608, 3525, 6375, 9182, 11999, 14849]}, "edge": {"target": [], "time": []}}, "mouseover": {"state": {"target": ["23", "24", "30", "25", "26", "8", "3", "4", "18", "15", "18", "1", "29", "27", "28", "25", "31", "31", "32"], "time": [697, 742, 1017, 1264, 1375, 1940, 2311, 2382, 2985, 3063, 3132, 3169, 3404, 3826, 7027, 9814, 9987, 10156, 12439]}, "edge": {"target": [], "time": []}}, "mouseout": {"state": {"target": ["0", "23", "24", "30", "25", "26", "8", "3", "4", "18", "15", "18", "1", "29", "27", "28", "28", "25", "31", "31", "32"], "time": [420, 725, 785, 1212, 1332, 1619, 2260, 2357, 2879, 3031, 3116, 3149, 3177, 3692, 6781, 9266, 9670, 9875, 10026, 12376, 15589]}, "edge": {"target": [], "time": []}}}, "displayed_time": "20.84", "trialTime": 21543, "trial_type": "mouselab-mdp", "trial_index": 40, "time_elapsed": 1115242, "internal_node_id": "0.0-6.0-1.0-31.0"}}, {"uniqueid": "w46312037:a54891693", "current_trial": 41, "dateTime": 1693582470618, "trialdata": {"revealed_states": [], "clicked_states": ["30", "26", "8", "29", "27", "28", "4", "14", "15", "19", "20", "21", "22"], "num_clicks_accrued": [0, 0, 0, 0, 0, 0, 0, 0, 0, 0, 0, 0, 0], "stateRewards": ["", -1, -3, -3, 1, -38, 2, -53, -2, -1, -81, 70, -1, 1, -5, -9, 46, 15, 35, -1, -22, 38, 59, -2, 4, -8, 13, 1, -83, -43, 4, 76, 13, 48], "withholdReward": false, "trial_id": "mdp_trial_33", "block": "test", "trialIndex": 34, "score": 29.85, "costs": -23.15, "simulationMode": [null, null, null, null, null], "rewards": [-1, 1, -5, -1, 59], "path": ["0", "0", "12", "13", "14", "19", "22"], "rt": [23149, 45, 92, 55, 77], "actions": ["right", "right", "right", "down", "left"], "actionTimes": [23986, 24536, 25136, 25693, 26275], "queries": {"click": {"state": {"target": ["30", "26", "8", "29", "27", "28", "4", "14", "15", "19", "20", "21", "22"], "time": [1241, 1797, 2380, 3236, 6095, 8945, 12037, 12840, 13406, 14414, 14936, 17993, 20861]}, "edge": {"target": [], "time": []}}, "mouseover": {"state": {"target": ["23", "31", "30", "25", "26", "10", "8", "27", "29", "27", "28", "1", "2", "4", "4", "14", "15", "19", "20", "21", "22"], "time": [880, 910, 1098, 1455, 1597, 2086, 2147, 2746, 3024, 3514, 6703, 9457, 9760, 9832, 10232, 12699, 13338, 14065, 14665, 16951, 18405]}, "edge": {"target": [], "time": []}}, "mouseout": {"state": {"target": ["23", "0", "23", "31", "30", "25", "26", "10", "8", "27", "29", "27", "28", "1", "2", "4", "4", "14", "15", "14", "19", "20", "20", "21", "22"], "time": [381, 860, 890, 934, 1398, 1510, 1943, 2102, 2541, 2778, 3291, 6451, 9328, 9740, 9799, 9985, 12376, 13217, 13717, 13865, 14635, 15590, 16832, 18327, 21295]}, "edge": {"target": [], "time": []}}}, "displayed_time": "26.78", "trialTime": 27332, "trial_type": "mouselab-mdp", "trial_index": 41, "time_elapsed": 1142814, "internal_node_id": "0.0-6.0-1.0-32.0"}}, {"uniqueid": "w46312037:a54891693", "current_trial": 42, "dateTime": 1693582499148, "trialdata": {"revealed_states": [], "clicked_states": ["30", "26", "8", "4", "15", "19", "17", "16", "18", "7", "6", "5"], "num_clicks_accrued": [0, 0, 0, 0, 0, 0, 0, 0, 0, 0, 0, 0, 0], "stateRewards": ["", -2, -2, -3, -6, -15, -11, 41, -12, -63, -76, 2, -2, -3, 8, 9, -36, -2, -18, -16, -32, -85, -17, -2, 1, 5, -16, 82, 35, -88, -1, 80, -82, -20], "withholdReward": false, "trial_id": "mdp_trial_34", "block": "test", "trialIndex": 35, "score": 5.799999999999997, "costs": -22.2, "simulationMode": [null, null, null, null, null], "rewards": [-2, -2, -3, -6, 41], "path": ["0", "0", "1", "2", "3", "4", "7"], "rt": [21945, 48, 79, 13, 70], "actions": ["up", "up", "up", "right", "down"], "actionTimes": [22927, 23478, 24061, 24579, 25153], "queries": {"click": {"state": {"target": ["30", "26", "8", "4", "15", "19", "17", "16", "18", "7", "6", "5"], "time": [1514, 2092, 2778, 3319, 3993, 4542, 5149, 7964, 11017, 14052, 16819, 19885]}, "edge": {"target": [], "time": []}}, "mouseover": {"state": {"target": ["23", "24", "30", "25", "26", "8", "3", "4", "15", "14", "19", "17", "16", "18", "6", "7", "6", "5"], "time": [1039, 1192, 1291, 1718, 1823, 2624, 2963, 3038, 3873, 4189, 4273, 5047, 7121, 8675, 11615, 12001, 14466, 17380]}, "edge": {"target": [], "time": []}}, "mouseout": {"state": {"target": ["24", "24", "23", "0", "23", "24", "30", "25", "26", "8", "3", "4", "15", "14", "19", "17", "16", "16", "18", "6", "7", "6", "5", "16", "13", "22", "24", "23", "0"], "time": [256, 475, 536, 1029, 1162, 1235, 1573, 1757, 2118, 2939, 3004, 3508, 4137, 4235, 4777, 5337, 8021, 8385, 11108, 11902, 14369, 17307, 20089, 26199, 26260, 26291, 27676, 27840, 27901]}, "edge": {"target": [], "time": []}}}, "displayed_time": "25.66", "trialTime": 28287, "trial_type": "mouselab-mdp", "trial_index": 42, "time_elapsed": 1171343, "internal_node_id": "0.0-6.0-1.0-33.0"}}, {"uniqueid": "w46312037:a54891693", "current_trial": 43, "dateTime": 1693582527816, "trialdata": {"revealed_states": [], "clicked_states": ["30", "26", "8", "4", "15", "19", "32", "31", "33", "22", "21", "20"], "num_clicks_accrued": [0, 0, 0, 0, 0, 0, 0, 0, 0, 0, 0, 0, 0], "stateRewards": ["", -2, -3, -7, 7, -54, -69, -4, -14, -77, 22, 40, -2, -1, 5, 6, -35, 50, -60, 10, -28, 75, 57, 1, -4, -2, 2, 68, 34, -18, 12, 3, -21, -43], "withholdReward": false, "trial_id": "mdp_trial_35", "block": "test", "trialIndex": 36, "score": 64.8, "costs": -22.2, "simulationMode": [null, null, null, null, null], "rewards": [-2, -1, 5, 10, 75], "path": ["0", "0", "12", "13", "14", "19", "21"], "rt": [23299, 37, 95, 524, 172], "actions": ["right", "right", "right", "down", "down"], "actionTimes": [23748, 24287, 24885, 25916, 26592], "queries": {"click": {"state": {"target": ["30", "26", "8", "4", "15", "19", "32", "31", "33", "22", "21", "20"], "time": [1240, 1793, 2553, 3148, 3886, 4383, 5570, 8358, 11159, 14472, 17763, 20582]}, "edge": {"target": [], "time": []}}, "mouseover": {"state": {"target": ["23", "24", "30", "25", "26", "8", "8", "3", "4", "4", "18", "15", "14", "19", "21", "32", "31", "30", "33", "32", "22", "21", "20"], "time": [736, 767, 1078, 1490, 1708, 2133, 2382, 2722, 2777, 2992, 3478, 3797, 4078, 4310, 4966, 5417, 5803, 8802, 9011, 11623, 13272, 15447, 18013]}, "edge": {"target": [], "time": []}}, "mouseout": {"state": {"target": ["0", "0", "23", "24", "30", "25", "26", "8", "8", "8", "3", "4", "4", "18", "15", "15", "14", "19", "19", "21", "32", "31", "30", "33", "32", "22", "21", "20"], "time": [4, 712, 754, 785, 1443, 1567, 2055, 2166, 2631, 2690, 2756, 2829, 3293, 3499, 3944, 4030, 4187, 4442, 4698, 5058, 5692, 8762, 8861, 11569, 11631, 15281, 17941, 20940]}, "edge": {"target": [], "time": []}}}, "displayed_time": "27.09", "trialTime": 28453, "trial_type": "mouselab-mdp", "trial_index": 43, "time_elapsed": 1200012, "internal_node_id": "0.0-6.0-1.0-34.0"}}, {"uniqueid": "w46312037:a54891693", "current_trial": 44, "dateTime": 1693582552553, "trialdata": {"revealed_states": [], "clicked_states": ["30", "26", "8", "4", "15", "19", "11", "9", "10", "5", "6"], "num_clicks_accrued": [0, 0, 0, 0, 0, 0, 0, 0, 0, 0, 0, 0, 0], "stateRewards": ["", -1, 2, -2, 5, 80, -61, -27, 12, 44, -26, -75, -2, -4, 1, -16, 42, -49, -50, 4, -44, 2, 80, -2, -2, 5, -2, 59, 10, 24, 7, -48, -86, -44], "withholdReward": false, "trial_id": "mdp_trial_36", "block": "test", "trialIndex": 37, "score": 63.95, "costs": -20.05, "simulationMode": [null, null, null, null, null], "rewards": [-1, 2, -2, 5, 80], "path": ["0", "0", "1", "2", "3", "4", "5"], "rt": [18948, 390, 118, 27, 46], "actions": ["up", "up", "up", "right", "up"], "actionTimes": [19511, 20404, 21025, 21554, 22114], "queries": {"click": {"state": {"target": ["30", "26", "8", "4", "15", "19", "11", "9", "10", "5", "6"], "time": [1501, 2050, 2729, 3218, 3878, 4328, 5106, 7984, 10773, 13621, 16445]}, "edge": {"target": [], "time": []}}, "mouseover": {"state": {"target": ["0", "23", "24", "25", "30", "26", "10", "8", "3", "4", "15", "15", "14", "19", "13", "1", "10", "11", "9", "8", "10", "3", "5", "6"], "time": [571, 651, 700, 955, 1301, 1857, 2292, 2367, 2891, 2948, 3521, 3690, 4041, 4149, 4642, 4697, 4733, 4966, 5319, 8317, 8409, 11183, 11450, 14633]}, "edge": {"target": [], "time": []}}, "mouseout": {"state": {"target": ["1", "0", "23", "24", "25", "30", "26", "10", "8", "3", "4", "4", "15", "15", "14", "19", "13", "1", "10", "11", "9", "8", "10", "3", "5", "6"], "time": [171, 627, 681, 919, 1265, 1583, 2195, 2301, 2867, 2923, 3226, 3431, 3555, 4015, 4090, 4597, 4661, 4707, 4787, 5225, 8276, 8347, 11101, 11191, 13717, 16818]}, "edge": {"target": [], "time": []}}}, "displayed_time": "22.62", "trialTime": 24330, "trial_type": "mouselab-mdp", "trial_index": 44, "time_elapsed": 1224748, "internal_node_id": "0.0-6.0-1.0-35.0"}}, {"uniqueid": "w46312037:a54891693", "current_trial": 45, "dateTime": 1693582578195, "trialdata": {"revealed_states": [], "clicked_states": ["30", "26", "8", "4", "15", "19", "16", "17", "18", "7", "6"], "num_clicks_accrued": [0, 0, 0, 0, 0, 0, 0, 0, 0, 0, 0, 0, 0], "stateRewards": ["", 2, -3, 5, 11, -79, 54, 11, -9, -78, 33, 22, -2, -1, 2, 14, 43, 34, 1, 10, 49, -65, 39, -1, 1, -1, 3, -16, -2, 11, 2, 12, 48, -65], "withholdReward": false, "trial_id": "mdp_trial_37", "block": "test", "trialIndex": 38, "score": 48.95, "costs": -20.05, "simulationMode": [null, null, null, null, null], "rewards": [2, -3, 5, 11, 54], "path": ["0", "0", "1", "2", "3", "4", "6"], "rt": [19835, 88, 72, 14, 59], "actions": ["up", "up", "up", "right", "right"], "actionTimes": [21224, 21814, 22394, 22914, 23475], "queries": {"click": {"state": {"target": ["30", "26", "8", "4", "15", "19", "16", "17", "18", "7", "6"], "time": [1786, 2383, 3192, 4083, 4746, 5293, 6205, 9050, 11885, 14943, 17754]}, "edge": {"target": [], "time": []}}, "mouseover": {"state": {"target": ["31", "30", "25", "26", "8", "3", "4", "4", "15", "14", "19", "14", "18", "16", "17", "15", "18", "6", "7", "6"], "time": [1418, 1458, 1926, 2029, 3026, 3380, 3442, 3894, 4646, 4935, 5074, 5591, 5812, 6078, 7336, 9532, 9996, 13143, 13847, 15293]}, "edge": {"target": [], "time": []}}, "mouseout": {"state": {"target": ["7", "1", "0", "0", "31", "30", "25", "26", "8", "8", "3", "4", "4", "15", "14", "19", "14", "18", "16", "17", "15", "18", "6", "7", "6"], "time": [346, 437, 777, 1103, 1441, 1839, 1968, 2392, 3200, 3346, 3417, 3518, 4235, 4885, 5008, 5443, 5626, 5848, 7054, 9503, 9712, 12239, 13551, 15039, 18118]}, "edge": {"target": [], "time": []}}}, "displayed_time": "23.98", "trialTime": 25413, "trial_type": "mouselab-mdp", "trial_index": 45, "time_elapsed": 1250391, "internal_node_id": "0.0-6.0-1.0-36.0"}}, {"uniqueid": "w46312037:a54891693", "current_trial": 46, "dateTime": 1693582602722, "trialdata": {"revealed_states": [], "clicked_states": ["30", "26", "8", "4", "15", "19", "17", "16", "18", "20", "21"], "num_clicks_accrued": [0, 0, 0, 0, 0, 0, 0, 0, 0, 0, 0, 0, 0], "stateRewards": ["", -2, 4, -5, -12, 85, -24, -18, -15, -78, -22, 26, -1, -1, 2, 14, -45, 52, -23, 7, -33, 24, -6, -2, -4, 5, -7, -16, 36, -39, 5, 71, -87, -23], "withholdReward": false, "trial_id": "mdp_trial_38", "block": "test", "trialIndex": 39, "score": 45.95, "costs": -20.05, "simulationMode": [null, null, null, null, null], "rewards": [-1, -1, 2, 14, 52], "path": ["0", "0", "12", "13", "14", "15", "17"], "rt": [18851, 72, 70, 25, 81], "actions": ["right", "right", "right", "up", "right"], "actionTimes": [19761, 20336, 20911, 21438, 22023], "queries": {"click": {"state": {"target": ["30", "26", "8", "4", "15", "19", "17", "16", "18", "20", "21"], "time": [1528, 2098, 2700, 3196, 3787, 4346, 5231, 8050, 10937, 13736, 16592]}, "edge": {"target": [], "time": []}}, "mouseover": {"state": {"target": ["23", "24", "30", "25", "26", "8", "3", "4", "15", "14", "19", "14", "17", "16", "16", "18", "20", "21"], "time": [999, 1059, 1363, 1703, 1893, 2448, 2849, 2974, 3647, 4004, 4170, 4691, 5115, 5755, 6097, 8590, 11615, 14632]}, "edge": {"target": [], "time": []}}, "mouseout": {"state": {"target": ["7", "0", "23", "24", "30", "25", "26", "8", "3", "4", "15", "14", "19", "14", "17", "16", "16", "18", "20", "20", "21", "17"], "time": [385, 975, 1041, 1090, 1652, 1752, 2221, 2832, 2903, 3341, 3954, 4095, 4594, 5045, 5476, 5842, 8474, 11224, 14061, 14400, 16990, 24250]}, "edge": {"target": [], "time": []}}}, "displayed_time": "22.52", "trialTime": 24261, "trial_type": "mouselab-mdp", "trial_index": 46, "time_elapsed": 1274918, "internal_node_id": "0.0-6.0-1.0-37.0"}}, {"uniqueid": "w46312037:a54891693", "current_trial": 47, "dateTime": 1693582622809, "trialdata": {"revealed_states": [], "clicked_states": ["30", "26", "8", "4", "15", "19", "20", "21", "22"], "num_clicks_accrued": [0, 0, 0, 0, 0, 0, 0, 0, 0, 0, 0, 0, 0], "stateRewards": ["", -1, -1, 4, -16, -75, 81, -51, -7, -84, 73, -30, -2, 1, -3, -16, -77, 33, 14, 1, 45, 87, -66, 2, 2, -5, -7, -19, -17, 79, -3, 8, 49, 47], "withholdReward": false, "trial_id": "mdp_trial_39", "block": "test", "trialIndex": 40, "score": 68.25, "costs": -15.750000000000002, "simulationMode": [null, null, null, null, null], "rewards": [-2, 1, -3, 1, 87], "path": ["0", "0", "12", "13", "14", "19", "21"], "rt": [14191, 78, 32, 56, 82], "actions": ["right", "right", "right", "down", "down"], "actionTimes": [15134, 15715, 16252, 16811, 17396], "queries": {"click": {"state": {"target": ["30", "26", "8", "4", "15", "19", "20", "21", "22"], "time": [2642, 3186, 3849, 4570, 5159, 5633, 6283, 9135, 11978]}, "edge": {"target": [], "time": []}}, "mouseover": {"state": {"target": ["31", "30", "25", "26", "8", "3", "4", "16", "15", "14", "19", "20", "21", "22", "19", "20"], "time": [1003, 1106, 2818, 2957, 3652, 4124, 4190, 4826, 5062, 5313, 5494, 6113, 6601, 9651, 12357, 12394]}, "edge": {"target": [], "time": []}}, "mouseout": {"state": {"target": ["24", "30", "31", "0", "31", "30", "25", "26", "8", "3", "4", "16", "15", "14", "19", "20", "21", "22", "19", "20", "21"], "time": [8, 425, 467, 955, 1039, 2761, 2907, 3245, 4081, 4165, 4670, 4874, 5270, 5399, 5774, 6476, 9551, 12334, 12386, 12417, 18589]}, "edge": {"target": [], "time": []}}}, "displayed_time": "17.90", "trialTime": 19788, "trial_type": "mouselab-mdp", "trial_index": 47, "time_elapsed": 1295005, "internal_node_id": "0.0-6.0-1.0-38.0"}}, {"uniqueid": "w46312037:a54891693", "current_trial": 48, "dateTime": 1693582643892, "trialdata": {"revealed_states": [], "clicked_states": ["30", "26", "8", "4", "15", "19", "20", "21", "22", "31"], "num_clicks_accrued": [0, 0, 0, 0, 0, 0, 0, 0, 0, 0, 0, 0, 0], "stateRewards": ["", -2, -1, -4, -15, -14, -67, 32, -3, -59, 63, 31, 2, -1, -7, -15, 71, -66, -27, -3, -54, -39, 72, 2, 1, 1, -13, 77, -40, 35, -9, 35, 75, 57], "withholdReward": false, "trial_id": "mdp_trial_40", "block": "test", "trialIndex": 41, "score": 45.099999999999994, "costs": -17.900000000000002, "simulationMode": [null, null, null, null, null], "rewards": [2, -1, -7, -3, 72], "path": ["0", "0", "12", "13", "14", "19", "22"], "rt": [15885, 16, 42, 68, 69], "actions": ["right", "right", "right", "down", "left"], "actionTimes": [17136, 17657, 18212, 18785, 19358], "queries": {"click": {"state": {"target": ["30", "26", "8", "4", "15", "19", "20", "21", "22", "31"], "time": [1797, 2472, 3058, 3652, 4229, 4732, 5379, 8182, 10947, 13855]}, "edge": {"target": [], "time": []}}, "mouseover": {"state": {"target": ["31", "30", "26", "26", "8", "3", "4", "4", "15", "14", "19", "20", "21", "22", "31"], "time": [1427, 1705, 2071, 2365, 2801, 3234, 3306, 3589, 4097, 4422, 4542, 5267, 5686, 8702, 11708]}, "edge": {"target": [], "time": []}}, "mouseout": {"state": {"target": ["0", "31", "30", "26", "26", "8", "8", "3", "4", "4", "15", "14", "19", "19", "20", "21", "22", "31"], "time": [1281, 1475, 1933, 2133, 2607, 3110, 3199, 3279, 3366, 3850, 4373, 4490, 4882, 5228, 5575, 8577, 11381, 14382]}, "edge": {"target": [], "time": []}}}, "displayed_time": "19.86", "trialTime": 20840, "trial_type": "mouselab-mdp", "trial_index": 48, "time_elapsed": 1316088, "internal_node_id": "0.0-6.0-1.0-39.0"}}, {"uniqueid": "w46312037:a54891693", "current_trial": 49, "dateTime": 1693582725498, "trialdata": {"rt": 81604, "response": {"Q0": "$-2 to $2", "Q1": "$-16 to $16", "Q2": "$-88 to $88", "Q3": "The cost for clicking on nodes varied between nodes.", "Q4": "Very motivated"}, "question_order": [0, 1, 2, 3, 4], "trial_id": "final_quiz_control", "trial_type": "survey-multi-choice", "trial_index": 49, "time_elapsed": 1397694, "internal_node_id": "0.0-6.0-2.0"}}, {"uniqueid": "w46312037:a54891693", "current_trial": 50, "dateTime": 1693582866877, "trialdata": {"rt": 141373, "response": {"Q0": "I clicked the nodes inbetween the furthest away nodes to check if they were a high number. If they were, I would check the nodes around them and pick the best one.", "Q1": "I became quicker and wanted to invest more to find the best paying node.", "Q2": "At some point I had a feeling that I was at my maximum performance. Since then it felt like luck and investing in more node reveals were the deciding factors."}, "trial_id": "self_report_control", "trial_type": "survey-text", "trial_index": 50, "time_elapsed": 1539073, "internal_node_id": "0.0-6.0-3.0"}}, {"uniqueid": "w46312037:a54891693", "current_trial": 51, "dateTime": 1693583022364, "trialdata": {"rt": 155484, "response": {"Q0": "Strongly disagree", "Q1": "Strongly disagree", "Q2": "Agree", "Q3": "Agree", "Q4": "Disagree", "Q5": "Agree", "Q6": "Disagree"}, "question_order": [0, 1, 2, 3, 4, 5, 6], "trial_id": "self_report_2", "trial_type": "survey-multi-choice", "trial_index": 51, "time_elapsed": 1694560, "internal_node_id": "0.0-6.0-4.0"}}, {"uniqueid": "w46312037:a54891693", "current_trial": 52, "dateTime": 1693583062522, "trialdata": {"rt": 40154, "response": {"gender": "male", "age": "26", "colorblind": "0", "effort": "0"}, "trial_type": "survey-html-form", "trial_index": 52, "time_elapsed": 1734718, "internal_node_id": "0.0-6.0-5.0"}}, {"uniqueid": "w46312037:a54891693", "current_trial": 53, "dateTime": 1693583203524, "trialdata": {"rt": 140999, "response": {"Q0": "No, it was well explained and fun to play.", "Q1": "No, I have not played it before.", "Q2": "I answered the post-game questions about revealing the first nodes based on my gameplay of the tutorial. After I played the tutorial, I think that I haven't clicked any of the first nodes, as I quickly found out that the best paying nodes were the last ones."}, "trial_type": "survey-text", "trial_index": 53, "time_elapsed": 1875720, "internal_node_id": "0.0-6.0-6.0"}}, {"uniqueid": "w46312037:a54891693", "current_trial": 54, "dateTime": 1693583247843, "trialdata": {"rt": 44316, "stimulus": "<h1>Completion Code Instructions (1/2)</h1>\n<br><br><br><br>\nYou have reached the end of the experiment! The completion code consists of two parts: (1) a code with 2 characters (2) a code with 6 characters. On this page, you will receive the second part of the code. The first part of the completion code will be on the next page.\n<br><br>\nThe second part of your completion code is: <b>EWEK22</b>\n<br><br>\nPlease note this down. Then, press 'Next' in order to find the first part of your completion code. Once the data has been saved, you will receive this code either in this window or in the original browser window where you started the experiment.\n <br><br>\n<h2 style='color: red;'>Note: this is <strong>NOT</strong> the full completion code. Copy this down and click 'Next' to get the full completion code on the next page.</h2>", "response": 0, "trial_type": "html-button-response", "trial_index": 54, "time_elapsed": 1920039, "internal_node_id": "0.0-6.0-7.0"}}, {"uniqueid": "w46312037:a54891693", "current_trial": 55, "dateTime": 1693583248846, "trialdata": {"success": true, "trial_type": "fullscreen", "trial_index": 55, "time_elapsed": 1921042, "internal_node_id": "0.0-7.0"}}], "questiondata": {"params": {"CODE": "C6DMOQA6", "MIN_TIME": 14, "inspectCost": 1, "startTime": "Fri Sep 01 2023 17:15:25 GMT+0200 (Midden-Europese zomertijd)", "bonusRate": 0.002, "variance": "1_2_4_8_44", "branching": "31123"}, "final_score": 1739.8}, "eventdata": [{"eventtype": "initialized", "value": null, "timestamp": 1693581324833, "interval": 0}, {"eventtype": "window_resize", "value": [1032, 786], "timestamp": 1693581324833, "interval": 0}, {"eventtype": "window_resize", "value": [1032, 786], "timestamp": 1693581325146, "interval": 313}, {"eventtype": "window_resize", "value": [1707, 960], "timestamp": 1693581333911, "interval": 8765}, {"eventtype": "window_resize", "value": [1032, 786], "timestamp": 1693583248070, "interval": 1914159}], "useragent": "Mozilla/5.0 (Windows NT 10.0; Win64; x64) AppleWebKit/537.36 (KHTML, like Gecko) Chrome/116.0.0.0 Safari/537.36", "mode": "live", "id": "w46312037:a54891693", "status": "user data saved", "Beginhit": "2023-09-01 15:15:20.932542", "Beginexp": "2023-09-01 15:15:34.875489", "Endhit": "2023-09-01 15:47:29.361516", "psiturkStatus": 3, "browser": "<redacted>", "platform": "windows", "language": "nl-NL"}