{"condition": 0, "counterbalance": 0, "assignmentId": "a45026694", "workerId": "w48573270", "hitId": "h44494605", "currenttrial": 25, "bonus": 0, "data": [{"uniqueid": "w48573270:a45026694", "current_trial": 0, "dateTime": 1693481157121, "trialdata": {"success": true, "trial_type": "fullscreen", "trial_index": 0, "time_elapsed": 5785, "internal_node_id": "0.0-0.0"}}, {"uniqueid": "w48573270:a45026694", "current_trial": 1, "dateTime": 1693481195651, "trialdata": {"view_history": [{"page_index": 0, "viewing_time": 38507}], "rt": 38509, "trial_id": "exp_instructions_control", "trial_type": "instructions", "trial_index": 1, "time_elapsed": 44315, "internal_node_id": "0.0-1.0"}}, {"uniqueid": "w48573270:a45026694", "current_trial": 2, "dateTime": 1693481618369, "trialdata": {"view_history": [{"page_index": 0, "viewing_time": 104855}, {"page_index": 1, "viewing_time": 146294}, {"page_index": 2, "viewing_time": 82084}, {"page_index": 3, "viewing_time": 89471}], "rt": 422708, "trial_id": "mouselab_instructions_1_control", "trial_type": "instructions", "trial_index": 2, "time_elapsed": 467033, "internal_node_id": "0.0-2.0-1.0"}}, {"uniqueid": "w48573270:a45026694", "current_trial": 3, "dateTime": 1693481673968, "trialdata": {"revealed_states": [], "clicked_states": [], "num_clicks_accrued": [0, 0, 0, 0, 0, 0, 0, 0, 0, 0, 0, 0, 0], "stateRewards": ["", 10, 10, -10, 10, -10, -10, 10, -10, -10, 10, 10, -10, -10, -10, -10, 10, 10, -10, -10, 10, -10, -10, -10, -10, -10, 10, -10, 10, 10, 10, 10, 10, 10], "withholdReward": false, "trial_id": "practice_1", "block": "test", "trialIndex": 0, "score": -6.5, "costs": 0, "simulationMode": [null, null, null, null, null], "rewards": [-10, -10, -10, 10, 10], "path": ["0", "0", "23", "24", "25", "30", "32"], "rt": [2508, 4173, 459, 412, 271], "actions": ["left", "left", "left", "down", "down"], "actionTimes": [10581, 15292, 16263, 17242, 18041], "queries": {"click": {"state": {"target": [], "time": []}, "edge": {"target": [], "time": []}}, "mouseover": {"state": {"target": [], "time": []}, "edge": {"target": [], "time": []}}, "mouseout": {"state": {"target": ["18", "23", "0", "25", "30", "31", "25", "24", "23", "0", "23", "24", "24", "25", "30", "32", "0", "18", "15", "17", "30"], "time": [5698, 6055, 26474, 26925, 27173, 32474, 33273, 33325, 33541, 35025, 35174, 35342, 35490, 36324, 36373, 36972, 41706, 43724, 43747, 43781, 45673]}, "edge": {"target": [], "time": []}}}, "displayed_time": "18.55", "trialTime": 53492, "trial_type": "mouselab-mdp", "trial_index": 3, "time_elapsed": 522631, "internal_node_id": "0.0-2.0-2.0-0.0"}}, {"uniqueid": "w48573270:a45026694", "current_trial": 4, "dateTime": 1693481703347, "trialdata": {"revealed_states": [], "clicked_states": [], "num_clicks_accrued": [0, 0, 0, 0, 0, 0, 0, 0, 0, 0, 0, 0, 0], "stateRewards": ["", -10, 10, -10, 10, -10, 10, 10, -10, -10, 10, 10, 10, 10, 10, -10, -10, -10, -10, 10, -10, 10, -10, 10, -10, 10, -10, -10, 10, -10, 10, -10, -10, -10], "withholdReward": false, "trial_id": "practice_2", "block": "test", "trialIndex": 1, "score": -6.5, "costs": 0, "simulationMode": [null, null, null, null, null], "rewards": [-10, 10, -10, -10, 10], "path": ["0", "0", "1", "2", "3", "8", "11"], "rt": [5494, 2111, 382, 1312, 1373], "actions": ["up", "up", "up", "left", "left"], "actionTimes": [12777, 15415, 16321, 18165, 20060], "queries": {"click": {"state": {"target": [], "time": []}, "edge": {"target": [], "time": []}}, "mouseover": {"state": {"target": [], "time": []}, "edge": {"target": [], "time": []}}, "mouseout": {"state": {"target": ["31"], "time": [5190]}, "edge": {"target": [], "time": []}}}, "displayed_time": "20.57", "trialTime": 27978, "trial_type": "mouselab-mdp", "trial_index": 4, "time_elapsed": 552011, "internal_node_id": "0.0-2.0-2.0-1.0"}}, {"uniqueid": "w48573270:a45026694", "current_trial": 5, "dateTime": 1693481792993, "trialdata": {"view_history": [{"page_index": 0, "viewing_time": 70025}, {"page_index": 1, "viewing_time": 19609}], "rt": 89636, "trial_id": "mouselab_instructions_2_control", "trial_type": "instructions", "trial_index": 5, "time_elapsed": 641658, "internal_node_id": "0.0-2.0-3.0"}}, {"uniqueid": "w48573270:a45026694", "current_trial": 6, "dateTime": 1693481876302, "trialdata": {"rt": 83289, "response": {"Q0": "The cost for clicking on nodes may vary between nodes.", "Q1": "The better I perform the higher my bonus will be.", "Q2": "No, the amount of cash at each node of the web may be different each time.", "Q3": "To get the highest total score.", "Q4": "Only before moving the spider.", "Q5": "3 seconds"}, "question_order": [0, 1, 2, 3, 4, 5], "correct": {"Q0": "The cost for clicking on nodes may vary between nodes.", "Q1": "The better I perform the higher my bonus will be.", "Q2": "No, the amount of cash at each node of the web may be different each time.", "Q3": "To get the highest total score.", "Q4": "Only before moving the spider.", "Q5": "3 seconds"}, "trial_id": "mouselab_quiz_control", "trial_type": "survey-multi-choice", "trial_index": 6, "time_elapsed": 724967, "internal_node_id": "0.0-2.0-4.0"}}, {"uniqueid": "w48573270:a45026694", "current_trial": 7, "dateTime": 1693481892869, "trialdata": {"rt": 16533, "response": {"Q0": "No"}, "question_order": [0], "trial_id": "repeat_check", "trial_type": "survey-multi-choice", "trial_index": 7, "time_elapsed": 741533, "internal_node_id": "0.0-4.0-0.0"}}, {"uniqueid": "w48573270:a45026694", "current_trial": 8, "dateTime": 1693481941643, "trialdata": {"rt": 48757, "stimulus": "\n<h1> Get ready to start the game! </h1>\n\nThank you for reading the instructions. Get ready start with the 40 rounds of this game.\n<br><br>\nIf you need to take a break, feel free to take one after the end of a round, before continuing to the next one.\n<br><br>\nRemember, the more money the spider gets, the bigger your bonus will be!\n<br><br>\n<div style='text-align: center;'>Press <code>space</code> to begin.</div>\n\n<br><br>\n(If, at any point, the <code>space</code> key does not take you to the next page, click once on the text and try again.)", "response": " ", "trial_id": "mdp_ready", "trial_type": "html-keyboard-response", "trial_index": 8, "time_elapsed": 790308, "internal_node_id": "0.0-6.0-0.0"}}, {"uniqueid": "w48573270:a45026694", "current_trial": 9, "dateTime": 1693481971676, "trialdata": {"revealed_states": [], "clicked_states": [], "num_clicks_accrued": [0, 0, 0, 0, 0, 0, 0, 0, 0, 0, 0, 0, 0], "stateRewards": ["", 2, -1, 4, -9, -43, 7, 54, -13, 38, -40, -83, -1, 2, -8, -10, 34, -33, 11, -14, -79, 65, 26, 1, 2, 4, 10, 21, 1, 86, 4, -53, 28, -29], "withholdReward": false, "trial_id": "mdp_trial_1", "block": "test", "trialIndex": 2, "score": -50, "costs": 0, "simulationMode": [null, null, null, null, null], "rewards": [-1, 2, -8, -10, -33], "path": ["0", "0", "12", "13", "14", "15", "17"], "rt": [5315, 352, 278, 514, 378], "actions": ["right", "right", "right", "up", "right"], "actionTimes": [12335, 13206, 13996, 15044, 15962], "queries": {"click": {"state": {"target": [], "time": []}, "edge": {"target": [], "time": []}}, "mouseover": {"state": {"target": ["12", "13"], "time": [10270, 11871]}, "edge": {"target": [], "time": []}}, "mouseout": {"state": {"target": ["0", "12", "13", "17"], "time": [10054, 11805, 25354, 25554]}, "edge": {"target": [], "time": []}}}, "displayed_time": "21.02", "trialTime": 28648, "trial_type": "mouselab-mdp", "trial_index": 9, "time_elapsed": 820340, "internal_node_id": "0.0-6.0-1.0-0.0"}}, {"uniqueid": "w48573270:a45026694", "current_trial": 10, "dateTime": 1693482009835, "trialdata": {"revealed_states": [], "clicked_states": [], "num_clicks_accrued": [0, 0, 0, 0, 0, 0, 0, 0, 0, 0, 0, 0, 0], "stateRewards": ["", 2, -3, -2, 14, -4, 85, 46, 15, -28, 41, 31, -1, -1, -1, 5, 62, 79, 57, 12, -73, -64, 86, -1, 1, -3, -5, 68, 11, -32, 8, -80, -21, -56], "withholdReward": false, "trial_id": "mdp_trial_2", "block": "test", "trialIndex": 3, "score": -16, "costs": 0, "simulationMode": [null, null, null, null, null], "rewards": [-1, 1, -3, 8, -21], "path": ["0", "0", "23", "24", "25", "30", "32"], "rt": [2349, 1472, 370, 1341, 153], "actions": ["left", "left", "left", "down", "down"], "actionTimes": [8830, 10820, 11703, 13602, 14284], "queries": {"click": {"state": {"target": [], "time": []}, "edge": {"target": [], "time": []}}, "mouseover": {"state": {"target": [], "time": []}, "edge": {"target": [], "time": []}}, "mouseout": {"state": {"target": ["15", "12", "31", "0", "15"], "time": [3115, 3165, 3848, 20817, 20917]}, "edge": {"target": [], "time": []}}}, "displayed_time": "20.48", "trialTime": 36687, "trial_type": "mouselab-mdp", "trial_index": 10, "time_elapsed": 858499, "internal_node_id": "0.0-6.0-1.0-1.0"}}, {"uniqueid": "w48573270:a45026694", "current_trial": 11, "dateTime": 1693482040664, "trialdata": {"revealed_states": [], "clicked_states": [], "num_clicks_accrued": [0, 0, 0, 0, 0, 0, 0, 0, 0, 0, 0, 0, 0], "stateRewards": ["", -2, 3, 3, -14, 62, 36, 49, 16, 11, 17, -84, 2, -1, 6, 2, -82, -73, 49, -6, -87, 48, 50, -1, -2, -1, -16, -11, 37, -44, 4, 55, 73, -10], "withholdReward": false, "trial_id": "mdp_trial_3", "block": "test", "trialIndex": 4, "score": -64, "costs": 0, "simulationMode": [null, null, null, null, null], "rewards": [-2, 3, 3, 16, -84], "path": ["0", "0", "1", "2", "3", "8", "11"], "rt": [4082, 562, 436, 522, 497], "actions": ["up", "up", "up", "left", "left"], "actionTimes": [10248, 11328, 12285, 13359, 14396], "queries": {"click": {"state": {"target": [], "time": []}, "edge": {"target": [], "time": []}}, "mouseover": {"state": {"target": [], "time": []}, "edge": {"target": [], "time": []}}, "mouseout": {"state": {"target": ["14", "13", "12", "0", "0", "18", "15", "17"], "time": [2549, 2599, 3316, 3748, 26203, 26283, 26368, 26452]}, "edge": {"target": [], "time": []}}}, "displayed_time": "20.17", "trialTime": 29102, "trial_type": "mouselab-mdp", "trial_index": 11, "time_elapsed": 889328, "internal_node_id": "0.0-6.0-1.0-2.0"}}, {"uniqueid": "w48573270:a45026694", "current_trial": 12, "dateTime": 1693482071518, "trialdata": {"revealed_states": [], "clicked_states": [], "num_clicks_accrued": [0, 0, 0, 0, 0, 0, 0, 0, 0, 0, 0, 0, 0], "stateRewards": ["", -2, -3, -7, 7, -54, -69, -4, -14, -77, 22, 40, -2, -1, 5, 6, -35, 50, -60, 10, -28, 75, 57, 1, -4, -2, 2, 68, 34, -18, 12, 3, -21, -43], "withholdReward": false, "trial_id": "mdp_trial_4", "block": "test", "trialIndex": 5, "score": 31, "costs": 0, "simulationMode": [null, null, null, null, null], "rewards": [1, -4, -2, 2, 34], "path": ["0", "0", "23", "24", "25", "26", "28"], "rt": [2682, 960, 609, 7090, 616], "actions": ["left", "left", "left", "up", "right"], "actionTimes": [10921, 12419, 13563, 21169, 22311], "queries": {"click": {"state": {"target": [], "time": []}, "edge": {"target": [], "time": []}}, "mouseover": {"state": {"target": ["12", "13", "14"], "time": [9455, 9581, 9656]}, "edge": {"target": [], "time": []}}, "mouseout": {"state": {"target": ["16", "18", "12", "0", "12", "13", "14"], "time": [5861, 6111, 6412, 9430, 9530, 9615, 9689]}, "edge": {"target": [], "time": []}}}, "displayed_time": "22.83", "trialTime": 29022, "trial_type": "mouselab-mdp", "trial_index": 12, "time_elapsed": 920182, "internal_node_id": "0.0-6.0-1.0-3.0"}}, {"uniqueid": "w48573270:a45026694", "current_trial": 13, "dateTime": 1693482096111, "trialdata": {"revealed_states": [], "clicked_states": [], "num_clicks_accrued": [0, 0, 0, 0, 0, 0, 0, 0, 0, 0, 0, 0, 0], "stateRewards": ["", -1, -3, -6, 14, 41, 18, 63, -14, 80, 21, 17, -2, -4, -2, -5, 13, 70, 8, -4, -64, -10, -20, 2, -1, 4, -1, -17, -55, 42, -7, 47, 54, 15], "withholdReward": false, "trial_id": "mdp_trial_5", "block": "test", "trialIndex": 6, "score": -32, "costs": 0, "simulationMode": [null, null, null, null, null], "rewards": [-2, -4, -2, -4, -20], "path": ["0", "0", "12", "13", "14", "19", "22"], "rt": [3223, 687, 673, 377, 793], "actions": ["right", "right", "right", "down", "left"], "actionTimes": [7640, 8852, 10039, 10985, 12293], "queries": {"click": {"state": {"target": [], "time": []}, "edge": {"target": [], "time": []}}, "mouseover": {"state": {"target": ["12"], "time": [5037]}, "edge": {"target": [], "time": []}}, "mouseout": {"state": {"target": ["17", "15", "12", "0", "12", "17"], "time": [2281, 2331, 2415, 5004, 5101, 19852]}, "edge": {"target": [], "time": []}}}, "displayed_time": "18.42", "trialTime": 22783, "trial_type": "mouselab-mdp", "trial_index": 13, "time_elapsed": 944775, "internal_node_id": "0.0-6.0-1.0-4.0"}}, {"uniqueid": "w48573270:a45026694", "current_trial": 14, "dateTime": 1693482131095, "trialdata": {"revealed_states": [], "clicked_states": [], "num_clicks_accrued": [0, 0, 0, 0, 0, 0, 0, 0, 0, 0, 0, 0, 0], "stateRewards": ["", -1, -3, 4, -10, -5, 79, -87, -2, 53, 29, -20, -2, -1, -5, 10, 27, 86, 46, -16, -29, 40, 3, 2, 4, -1, -6, 37, 79, -29, 7, 86, -62, 29], "withholdReward": false, "trial_id": "mdp_trial_6", "block": "test", "trialIndex": 7, "score": 27, "costs": 0, "simulationMode": [null, null, null, null, null], "rewards": [-1, -3, 4, -2, 29], "path": ["0", "0", "1", "2", "3", "8", "10"], "rt": [3983, 487, 690, 1509, 2095], "actions": ["up", "up", "up", "left", "down"], "actionTimes": [17620, 18629, 19829, 21877, 24486], "queries": {"click": {"state": {"target": [], "time": []}, "edge": {"target": [], "time": []}}, "mouseover": {"state": {"target": [], "time": []}, "edge": {"target": [], "time": []}}, "mouseout": {"state": {"target": ["1", "7", "1", "0", "12", "13", "0", "18", "15"], "time": [5243, 5541, 5676, 7059, 7109, 7173, 13689, 29162, 29203]}, "edge": {"target": [], "time": []}}}, "displayed_time": "27.64", "trialTime": 31262, "trial_type": "mouselab-mdp", "trial_index": 14, "time_elapsed": 979758, "internal_node_id": "0.0-6.0-1.0-5.0"}}, {"uniqueid": "w48573270:a45026694", "current_trial": 15, "dateTime": 1693482155280, "trialdata": {"revealed_states": [], "clicked_states": [], "num_clicks_accrued": [0, 0, 0, 0, 0, 0, 0, 0, 0, 0, 0, 0, 0], "stateRewards": ["", -2, 2, -2, -7, -50, -62, -45, 7, 36, -24, -72, -1, -1, 8, -1, -67, 20, -52, 2, 35, -50, 80, -1, 1, 6, -6, -70, 6, 88, 8, -47, 74, -19], "withholdReward": false, "trial_id": "mdp_trial_7", "block": "test", "trialIndex": 8, "score": -54, "costs": 0, "simulationMode": [null, null, null, null, null], "rewards": [-2, 2, -2, -7, -45], "path": ["0", "0", "1", "2", "3", "4", "7"], "rt": [1756, 284, 284, 664, 266], "actions": ["up", "up", "up", "right", "down"], "actionTimes": [6256, 7079, 7880, 9083, 9876], "queries": {"click": {"state": {"target": [], "time": []}, "edge": {"target": [], "time": []}}, "mouseover": {"state": {"target": [], "time": []}, "edge": {"target": [], "time": []}}, "mouseout": {"state": {"target": ["15", "18", "0", "13", "14"], "time": [2283, 2346, 20317, 20365, 20398]}, "edge": {"target": [], "time": []}}}, "displayed_time": "18.50", "trialTime": 22305, "trial_type": "mouselab-mdp", "trial_index": 15, "time_elapsed": 1003944, "internal_node_id": "0.0-6.0-1.0-6.0"}}, {"uniqueid": "w48573270:a45026694", "current_trial": 16, "dateTime": 1693482177786, "trialdata": {"revealed_states": [], "clicked_states": [], "num_clicks_accrued": [0, 0, 0, 0, 0, 0, 0, 0, 0, 0, 0, 0, 0], "stateRewards": ["", -1, 4, 3, 12, -27, 34, -33, 3, -63, 1, 6, 2, 2, -6, -11, -77, -85, 68, -6, 51, 81, -60, -2, -2, 1, 15, 20, 15, 68, -10, -14, 6, -4], "withholdReward": false, "trial_id": "mdp_trial_8", "block": "test", "trialIndex": 9, "score": 55, "costs": 0, "simulationMode": [null, null, null, null, null], "rewards": [2, 2, -6, -11, 68], "path": ["0", "0", "12", "13", "14", "15", "18"], "rt": [1570, 377, 427, 849, 355], "actions": ["right", "right", "right", "up", "left"], "actionTimes": [5128, 6052, 7020, 8424, 9314], "queries": {"click": {"state": {"target": [], "time": []}, "edge": {"target": [], "time": []}}, "mouseover": {"state": {"target": [], "time": []}, "edge": {"target": [], "time": []}}, "mouseout": {"state": {"target": ["12", "0"], "time": [1628, 17664]}, "edge": {"target": [], "time": []}}}, "displayed_time": "17.56", "trialTime": 20527, "trial_type": "mouselab-mdp", "trial_index": 16, "time_elapsed": 1026450, "internal_node_id": "0.0-6.0-1.0-7.0"}}, {"uniqueid": "w48573270:a45026694", "current_trial": 17, "dateTime": 1693482199507, "trialdata": {"revealed_states": [], "clicked_states": [], "num_clicks_accrued": [0, 0, 0, 0, 0, 0, 0, 0, 0, 0, 0, 0, 0], "stateRewards": ["", 1, -3, -4, -11, -56, 61, -47, -16, -28, -9, 69, -2, -3, -4, -8, 40, -86, 59, -4, 80, 27, 54, -1, 3, -1, 8, 67, 23, 50, 6, 83, -43, -29], "withholdReward": false, "trial_id": "mdp_trial_9", "block": "test", "trialIndex": 10, "score": 90, "costs": 0, "simulationMode": [null, null, null, null, null], "rewards": [-1, 3, -1, 6, 83], "path": ["0", "0", "23", "24", "25", "30", "31"], "rt": [3456, 742, 365, 426, 699], "actions": ["left", "left", "left", "down", "right"], "actionTimes": [7776, 9048, 9954, 10900, 12120], "queries": {"click": {"state": {"target": [], "time": []}, "edge": {"target": [], "time": []}}, "mouseover": {"state": {"target": [], "time": []}, "edge": {"target": [], "time": []}}, "mouseout": {"state": {"target": ["31", "30", "25", "23", "12", "0", "0", "12", "15"], "time": [1922, 1973, 2189, 2239, 2572, 16810, 17093, 17132, 17165]}, "edge": {"target": [], "time": []}}}, "displayed_time": "18.32", "trialTime": 19709, "trial_type": "mouselab-mdp", "trial_index": 17, "time_elapsed": 1048171, "internal_node_id": "0.0-6.0-1.0-8.0"}}, {"uniqueid": "w48573270:a45026694", "current_trial": 18, "dateTime": 1693482220169, "trialdata": {"revealed_states": [], "clicked_states": [], "num_clicks_accrued": [0, 0, 0, 0, 0, 0, 0, 0, 0, 0, 0, 0, 0], "stateRewards": ["", -2, 1, -7, 9, 8, 25, 61, -7, -17, 69, -81, 1, 4, -4, -11, 16, 67, 44, 3, 6, -45, -54, -2, 3, 6, -11, -15, 32, -47, 3, -39, -6, -88], "withholdReward": false, "trial_id": "mdp_trial_10", "block": "test", "trialIndex": 11, "score": 62, "costs": 0, "simulationMode": [null, null, null, null, null], "rewards": [-2, 1, -7, 9, 61], "path": ["0", "0", "1", "2", "3", "4", "7"], "rt": [1965, 354, 518, 1076, 179], "actions": ["up", "up", "up", "right", "down"], "actionTimes": [5448, 6337, 7369, 9043, 9749], "queries": {"click": {"state": {"target": [], "time": []}, "edge": {"target": [], "time": []}}, "mouseover": {"state": {"target": [], "time": []}, "edge": {"target": [], "time": []}}, "mouseout": {"state": {"target": ["17", "15", "13", "12", "0"], "time": [701, 735, 783, 867, 3532]}, "edge": {"target": [], "time": []}}}, "displayed_time": "17.49", "trialTime": 18668, "trial_type": "mouselab-mdp", "trial_index": 18, "time_elapsed": 1068833, "internal_node_id": "0.0-6.0-1.0-9.0"}}, {"uniqueid": "w48573270:a45026694", "current_trial": 19, "dateTime": 1693482254404, "trialdata": {"revealed_states": [], "clicked_states": [], "num_clicks_accrued": [0, 0, 0, 0, 0, 0, 0, 0, 0, 0, 0, 0, 0], "stateRewards": ["", 1, 3, -2, 15, 51, 15, -19, 11, 67, -45, -73, 2, 4, -2, -13, 36, 9, -28, 10, -30, 31, 16, 1, 2, -1, -16, 14, -22, 36, -1, 88, -5, 45], "withholdReward": false, "trial_id": "mdp_trial_11", "block": "test", "trialIndex": 12, "score": -37, "costs": 0, "simulationMode": [null, null, null, null, null], "rewards": [2, 4, -2, -13, -28], "path": ["0", "0", "12", "13", "14", "15", "18"], "rt": [2019, 164, 404, 1026, 450], "actions": ["right", "right", "right", "up", "left"], "actionTimes": [18846, 19533, 20467, 22071, 23036], "queries": {"click": {"state": {"target": [], "time": []}, "edge": {"target": [], "time": []}}, "mouseover": {"state": {"target": [], "time": []}, "edge": {"target": [], "time": []}}, "mouseout": {"state": {"target": ["24", "23", "23"], "time": [1603, 1803, 13862]}, "edge": {"target": [], "time": []}}}, "displayed_time": "30.83", "trialTime": 32221, "trial_type": "mouselab-mdp", "trial_index": 19, "time_elapsed": 1103067, "internal_node_id": "0.0-6.0-1.0-10.0"}}, {"uniqueid": "w48573270:a45026694", "current_trial": 20, "dateTime": 1693482276620, "trialdata": {"revealed_states": [], "clicked_states": [], "num_clicks_accrued": [0, 0, 0, 0, 0, 0, 0, 0, 0, 0, 0, 0, 0], "stateRewards": ["", -2, 2, -1, -6, 22, 6, 6, -5, 70, -42, 65, 1, 3, 5, -6, -67, -9, 3, 14, 7, -62, -13, -2, 4, 1, 16, 42, -21, -52, -8, 32, 53, 81], "withholdReward": false, "trial_id": "mdp_trial_12", "block": "test", "trialIndex": 13, "score": -2, "costs": 0, "simulationMode": [null, null, null, null, null], "rewards": [-2, 4, 1, 16, -21], "path": ["0", "0", "23", "24", "25", "26", "28"], "rt": [1408, 303, 329, 179, 77], "actions": ["left", "left", "left", "up", "right"], "actionTimes": [7138, 7976, 8819, 9591, 10206], "queries": {"click": {"state": {"target": [], "time": []}, "edge": {"target": [], "time": []}}, "mouseover": {"state": {"target": [], "time": []}, "edge": {"target": [], "time": []}}, "mouseout": {"state": {"target": ["0"], "time": [3374]}, "edge": {"target": [], "time": []}}}, "displayed_time": "19.73", "trialTime": 20193, "trial_type": "mouselab-mdp", "trial_index": 20, "time_elapsed": 1125282, "internal_node_id": "0.0-6.0-1.0-11.0"}}, {"uniqueid": "w48573270:a45026694", "current_trial": 21, "dateTime": 1693482300215, "trialdata": {"revealed_states": [], "clicked_states": [], "num_clicks_accrued": [0, 0, 0, 0, 0, 0, 0, 0, 0, 0, 0, 0, 0], "stateRewards": ["", -2, -3, 8, -4, -30, 31, 69, 9, 66, 87, 64, -2, 2, 8, 5, 47, 16, -39, -8, -54, 51, -19, 1, -2, -2, -11, -25, -26, 43, -9, 19, -84, 86], "withholdReward": false, "trial_id": "mdp_trial_13", "block": "test", "trialIndex": 14, "score": 78, "costs": 0, "simulationMode": [null, null, null, null, null], "rewards": [-2, -3, 8, 9, 66], "path": ["0", "0", "1", "2", "3", "8", "9"], "rt": [1550, 326, 262, 372, 134], "actions": ["up", "up", "up", "left", "up"], "actionTimes": [7092, 7967, 8747, 9676, 10321], "queries": {"click": {"state": {"target": [], "time": []}, "edge": {"target": [], "time": []}}, "mouseover": {"state": {"target": [], "time": []}, "edge": {"target": [], "time": []}}, "mouseout": {"state": {"target": ["0"], "time": [3204]}, "edge": {"target": [], "time": []}}}, "displayed_time": "19.55", "trialTime": 21503, "trial_type": "mouselab-mdp", "trial_index": 21, "time_elapsed": 1148879, "internal_node_id": "0.0-6.0-1.0-12.0"}}, {"uniqueid": "w48573270:a45026694", "current_trial": 22, "dateTime": 1693482321702, "trialdata": {"revealed_states": [], "clicked_states": [], "num_clicks_accrued": [0, 0, 0, 0, 0, 0, 0, 0, 0, 0, 0, 0, 0], "stateRewards": ["", 1, 1, 4, 11, 83, -66, 18, -16, -23, 5, 25, 1, -3, 1, -12, 18, 24, -86, -11, -64, 36, 40, 2, 1, -6, 13, 55, 29, 72, -2, 81, -72, -41], "withholdReward": false, "trial_id": "mdp_trial_14", "block": "test", "trialIndex": 15, "score": 35, "costs": 0, "simulationMode": [null, null, null, null, null], "rewards": [1, 1, 4, 11, 18], "path": ["0", "0", "1", "2", "3", "4", "7"], "rt": [1589, 160, 185, 171, 357], "actions": ["up", "up", "up", "right", "down"], "actionTimes": [5432, 6133, 6857, 7560, 8446], "queries": {"click": {"state": {"target": [], "time": []}, "edge": {"target": [], "time": []}}, "mouseover": {"state": {"target": [], "time": []}, "edge": {"target": [], "time": []}}, "mouseout": {"state": {"target": ["0"], "time": [1672]}, "edge": {"target": [], "time": []}}}, "displayed_time": "17.85", "trialTime": 19360, "trial_type": "mouselab-mdp", "trial_index": 22, "time_elapsed": 1170366, "internal_node_id": "0.0-6.0-1.0-13.0"}}, {"uniqueid": "w48573270:a45026694", "current_trial": 23, "dateTime": 1693482342956, "trialdata": {"revealed_states": [], "clicked_states": [], "num_clicks_accrued": [0, 0, 0, 0, 0, 0, 0, 0, 0, 0, 0, 0, 0], "stateRewards": ["", -2, 4, 3, 5, -61, 4, 30, 1, -47, 83, 10, 1, 4, 7, -14, 19, -74, -83, 6, -2, -2, -65, -1, -2, 4, -11, 12, -1, -68, 11, -38, -28, 66], "withholdReward": false, "trial_id": "mdp_trial_15", "block": "test", "trialIndex": 16, "score": 17, "costs": 0, "simulationMode": [null, null, null, null, null], "rewards": [1, 4, 7, -14, 19], "path": ["0", "0", "12", "13", "14", "15", "16"], "rt": [1256, 221, 257, 66, 94], "actions": ["right", "right", "right", "up", "up"], "actionTimes": [5475, 6241, 7036, 7645, 8270], "queries": {"click": {"state": {"target": [], "time": []}, "edge": {"target": [], "time": []}}, "mouseover": {"state": {"target": [], "time": []}, "edge": {"target": [], "time": []}}, "mouseout": {"state": {"target": ["0", "12"], "time": [1866, 2114]}, "edge": {"target": [], "time": []}}}, "displayed_time": "18.23", "trialTime": 19074, "trial_type": "mouselab-mdp", "trial_index": 23, "time_elapsed": 1191620, "internal_node_id": "0.0-6.0-1.0-14.0"}}, {"uniqueid": "w48573270:a45026694", "current_trial": 24, "dateTime": 1693482365392, "trialdata": {"revealed_states": [], "clicked_states": [], "num_clicks_accrued": [0, 0, 0, 0, 0, 0, 0, 0, 0, 0, 0, 0, 0], "stateRewards": ["", 1, 1, -2, 7, -31, -6, 76, 1, -36, -16, -53, 2, 1, 7, 13, -47, -10, 47, -7, 72, 46, -56, -2, -2, -2, 11, -80, 44, 38, 16, 67, 85, -78], "withholdReward": false, "trial_id": "mdp_trial_16", "block": "test", "trialIndex": 17, "score": -24, "costs": 0, "simulationMode": [null, null, null, null, null], "rewards": [1, 1, -2, 7, -31], "path": ["0", "0", "1", "2", "3", "4", "5"], "rt": [1714, 285, 203, 164, 588], "actions": ["up", "up", "up", "right", "up"], "actionTimes": [6480, 7346, 8086, 8769, 9918], "queries": {"click": {"state": {"target": [], "time": []}, "edge": {"target": [], "time": []}}, "mouseover": {"state": {"target": [], "time": []}, "edge": {"target": [], "time": []}}, "mouseout": {"state": {"target": ["0"], "time": [2136]}, "edge": {"target": [], "time": []}}}, "displayed_time": "18.77", "trialTime": 20266, "trial_type": "mouselab-mdp", "trial_index": 24, "time_elapsed": 1214056, "internal_node_id": "0.0-6.0-1.0-15.0"}}], "questiondata": {"params": {"CODE": "C6DMOQA6", "MIN_TIME": 14, "inspectCost": 1, "startTime": "Thu Aug 31 2023 13:25:46 GMT+0200 (South Africa Standard Time)", "bonusRate": 0.002, "variance": "1_2_4_8_44", "branching": "31123"}}, "eventdata": [{"eventtype": "initialized", "value": null, "timestamp": 1693481146014, "interval": 0}, {"eventtype": "window_resize", "value": [1024, 654], "timestamp": 1693481146014, "interval": 0}, {"eventtype": "window_resize", "value": [1024, 654], "timestamp": 1693481146653, "interval": 639}, {"eventtype": "window_resize", "value": [1366, 768], "timestamp": 1693481156467, "interval": 9814}], "useragent": "Mozilla/5.0 (Windows NT 10.0; Win64; x64) AppleWebKit/537.36 (KHTML, like Gecko) Chrome/116.0.0.0 Safari/537.36", "mode": "live", "id": "w48573270:a45026694", "status": "user data saved", "Beginhit": "2023-08-31 11:25:16.119994", "Beginexp": "2023-08-31 11:25:35.130862", "Endhit": null, "psiturkStatus": 2, "browser": "<redacted>", "platform": "windows", "language": "en-US", "excludeReason": "dataincomplete"}