{"condition": 0, "counterbalance": 0, "assignmentId": "a91510109", "workerId": "w94134643", "hitId": "h83891815", "currenttrial": 55, "bonus": 0, "data": [{"uniqueid": "w94134643:a91510109", "current_trial": 0, "dateTime": 1693660382260, "trialdata": {"success": true, "trial_type": "fullscreen", "trial_index": 0, "time_elapsed": 7662, "internal_node_id": "0.0-0.0"}}, {"uniqueid": "w94134643:a91510109", "current_trial": 1, "dateTime": 1693660385535, "trialdata": {"view_history": [{"page_index": 0, "viewing_time": 3244}], "rt": 3245, "trial_id": "exp_instructions_control", "trial_type": "instructions", "trial_index": 1, "time_elapsed": 10940, "internal_node_id": "0.0-1.0"}}, {"uniqueid": "w94134643:a91510109", "current_trial": 2, "dateTime": 1693660579397, "trialdata": {"view_history": [{"page_index": 0, "viewing_time": 98318}, {"page_index": 1, "viewing_time": 53888}, {"page_index": 2, "viewing_time": 12008}, {"page_index": 3, "viewing_time": 29642}], "rt": 193857, "trial_id": "mouselab_instructions_1_control", "trial_type": "instructions", "trial_index": 2, "time_elapsed": 204802, "internal_node_id": "0.0-2.0-1.0"}}, {"uniqueid": "w94134643:a91510109", "current_trial": 3, "dateTime": 1693660597647, "trialdata": {"revealed_states": [], "clicked_states": [], "num_clicks_accrued": [0, 0, 0, 0, 0, 0, 0, 0, 0, 0, 0, 0, 0], "stateRewards": ["", 10, 10, -10, -10, -10, 10, -10, 10, 10, 10, 10, -10, -10, -10, -10, 10, 10, -10, 10, -10, 10, -10, -10, -10, -10, 10, 10, 10, 10, 10, 10, -10, 10], "withholdReward": false, "trial_id": "practice_1", "block": "test", "trialIndex": 0, "score": 13.5, "costs": 0, "simulationMode": [null, null, null, null, null], "rewards": [10, 10, -10, -10, 10], "path": ["0", "0", "1", "2", "3", "4", "6"], "rt": [2002, 1446, 1011, 800, 444], "actions": ["up", "up", "up", "right", "right"], "actionTimes": [6626, 8594, 10155, 11471, 12432], "queries": {"click": {"state": {"target": [], "time": []}, "edge": {"target": [], "time": []}}, "mouseover": {"state": {"target": [], "time": []}, "edge": {"target": [], "time": []}}, "mouseout": {"state": {"target": ["0", "0", "31"], "time": [939, 14292, 14458]}, "edge": {"target": [], "time": []}}}, "displayed_time": "12.95", "trialTime": 16817, "trial_type": "mouselab-mdp", "trial_index": 3, "time_elapsed": 223050, "internal_node_id": "0.0-2.0-2.0-0.0"}}, {"uniqueid": "w94134643:a91510109", "current_trial": 4, "dateTime": 1693660616354, "trialdata": {"revealed_states": [], "clicked_states": [], "num_clicks_accrued": [0, 0, 0, 0, 0, 0, 0, 0, 0, 0, 0, 0, 0], "stateRewards": ["", -10, 10, 10, 10, -10, -10, -10, -10, -10, 10, -10, 10, -10, -10, -10, -10, -10, 10, -10, 10, -10, -10, -10, -10, 10, -10, 10, -10, -10, -10, 10, -10, -10], "withholdReward": false, "trial_id": "practice_2", "block": "test", "trialIndex": 1, "score": -26.5, "costs": 0, "simulationMode": [null, null, null, null, null], "rewards": [-10, -10, 10, -10, -10], "path": ["0", "0", "23", "24", "25", "30", "32"], "rt": [1766, 405, 553, 856, 1279], "actions": ["left", "left", "left", "down", "down"], "actionTimes": [7629, 8564, 9654, 11054, 12861], "queries": {"click": {"state": {"target": [], "time": []}, "edge": {"target": [], "time": []}}, "mouseover": {"state": {"target": [], "time": []}, "edge": {"target": [], "time": []}}, "mouseout": {"state": {"target": ["23", "13", "12", "0"], "time": [4374, 4717, 4881, 6414]}, "edge": {"target": [], "time": []}}}, "displayed_time": "13.39", "trialTime": 17968, "trial_type": "mouselab-mdp", "trial_index": 4, "time_elapsed": 241756, "internal_node_id": "0.0-2.0-2.0-1.0"}}, {"uniqueid": "w94134643:a91510109", "current_trial": 5, "dateTime": 1693660722166, "trialdata": {"view_history": [{"page_index": 0, "viewing_time": 33053}, {"page_index": 1, "viewing_time": 72735}], "rt": 105789, "trial_id": "mouselab_instructions_2_control", "trial_type": "instructions", "trial_index": 5, "time_elapsed": 347571, "internal_node_id": "0.0-2.0-3.0"}}, {"uniqueid": "w94134643:a91510109", "current_trial": 6, "dateTime": 1693660761869, "trialdata": {"rt": 39693, "response": {"Q0": "The cost for clicking on nodes may vary between nodes.", "Q1": "The better I perform the higher my bonus will be.", "Q2": "No, the amount of cash at each node of the web may be different each time.", "Q3": "To get the highest total score.", "Q4": "Only before moving the spider.", "Q5": "3 seconds"}, "question_order": [0, 1, 2, 3, 4, 5], "correct": {"Q0": "The cost for clicking on nodes may vary between nodes.", "Q1": "The better I perform the higher my bonus will be.", "Q2": "No, the amount of cash at each node of the web may be different each time.", "Q3": "To get the highest total score.", "Q4": "Only before moving the spider.", "Q5": "3 seconds"}, "trial_id": "mouselab_quiz_control", "trial_type": "survey-multi-choice", "trial_index": 6, "time_elapsed": 387274, "internal_node_id": "0.0-2.0-4.0"}}, {"uniqueid": "w94134643:a91510109", "current_trial": 7, "dateTime": 1693660772523, "trialdata": {"rt": 10632, "response": {"Q0": "No"}, "question_order": [0], "trial_id": "repeat_check", "trial_type": "survey-multi-choice", "trial_index": 7, "time_elapsed": 397928, "internal_node_id": "0.0-4.0-0.0"}}, {"uniqueid": "w94134643:a91510109", "current_trial": 8, "dateTime": 1693660783153, "trialdata": {"rt": 10612, "stimulus": "\n<h1> Get ready to start the game! </h1>\n\nThank you for reading the instructions. Get ready start with the 40 rounds of this game.\n<br><br>\nIf you need to take a break, feel free to take one after the end of a round, before continuing to the next one.\n<br><br>\nRemember, the more money the spider gets, the bigger your bonus will be!\n<br><br>\n<div style='text-align: center;'>Press <code>space</code> to begin.</div>\n\n<br><br>\n(If, at any point, the <code>space</code> key does not take you to the next page, click once on the text and try again.)", "response": " ", "trial_id": "mdp_ready", "trial_type": "html-keyboard-response", "trial_index": 8, "time_elapsed": 408558, "internal_node_id": "0.0-6.0-0.0"}}, {"uniqueid": "w94134643:a91510109", "current_trial": 9, "dateTime": 1693660803530, "trialdata": {"revealed_states": [], "clicked_states": [], "num_clicks_accrued": [0, 0, 0, 0, 0, 0, 0, 0, 0, 0, 0, 0, 0], "stateRewards": ["", 1, -3, 4, 13, -72, 52, 5, 5, -58, 5, 14, 2, 1, 3, -14, -86, -4, 73, 6, -58, -50, 49, 2, -3, -4, 2, 33, -41, 42, -11, 81, 45, 53], "withholdReward": false, "trial_id": "mdp_trial_1", "block": "test", "trialIndex": 2, "score": 21, "costs": 0, "simulationMode": [null, null, null, null, null], "rewards": [1, -3, 4, 5, 14], "path": ["0", "0", "1", "2", "3", "8", "11"], "rt": [3906, 258, 501, 529, 956], "actions": ["up", "up", "up", "left", "left"], "actionTimes": [6649, 7447, 8507, 9580, 11059], "queries": {"click": {"state": {"target": [], "time": []}, "edge": {"target": [], "time": []}}, "mouseover": {"state": {"target": [], "time": []}, "edge": {"target": [], "time": []}}, "mouseout": {"state": {"target": ["18", "12", "0", "22"], "time": [1410, 1780, 3282, 18635]}, "edge": {"target": [], "time": []}}}, "displayed_time": "16.75", "trialTime": 19611, "trial_type": "mouselab-mdp", "trial_index": 9, "time_elapsed": 428932, "internal_node_id": "0.0-6.0-1.0-0.0"}}, {"uniqueid": "w94134643:a91510109", "current_trial": 10, "dateTime": 1693660828544, "trialdata": {"revealed_states": [], "clicked_states": ["12", "23"], "num_clicks_accrued": [0, 0, 0, 0, 0, 0, 0, 0, 0, 0, 0, 0, 0], "stateRewards": ["", -1, -3, 1, 13, -64, -29, 12, -4, -33, 50, 56, 2, -3, 4, 11, -64, -58, -55, 12, 47, 38, -25, -2, 2, 5, -15, 85, 7, 84, 10, 8, 57, 26], "withholdReward": false, "trial_id": "mdp_trial_2", "block": "test", "trialIndex": 3, "score": -21.8, "costs": -2.8, "simulationMode": [null, null, null, null, null], "rewards": [-1, -3, 1, 13, -29], "path": ["0", "0", "1", "2", "3", "4", "6"], "rt": [10525, 2261, 285, 561, 315], "actions": ["up", "up", "up", "right", "right"], "actionTimes": [15010, 17800, 18622, 19721, 20549], "queries": {"click": {"state": {"target": ["12", "23"], "time": [6523, 9770]}, "edge": {"target": [], "time": []}}, "mouseover": {"state": {"target": ["0", "12", "0", "23", "23", "1", "1", "0"], "time": [5998, 6118, 7226, 7443, 8585, 11905, 12214, 12774]}, "edge": {"target": [], "time": []}}, "mouseout": {"state": {"target": ["0", "0", "12", "12", "0", "23", "23", "1", "1", "0"], "time": [5919, 6053, 6577, 6867, 7385, 7999, 11855, 11990, 12342, 12826]}, "edge": {"target": [], "time": []}}}, "displayed_time": "21.08", "trialTime": 24208, "trial_type": "mouselab-mdp", "trial_index": 10, "time_elapsed": 453945, "internal_node_id": "0.0-6.0-1.0-1.0"}}, {"uniqueid": "w94134643:a91510109", "current_trial": 11, "dateTime": 1693660855762, "trialdata": {"revealed_states": [], "clicked_states": ["23", "12"], "num_clicks_accrued": [0, 0, 0, 0, 0, 0, 0, 0, 0, 0, 0, 0, 0], "stateRewards": ["", -2, -4, -2, -13, -15, 87, -19, -6, -80, 30, 12, 1, 1, -8, 2, 55, 56, 15, 11, -68, -7, 55, -2, 3, -3, -3, 48, 62, 4, 1, -3, 69, -33], "withholdReward": false, "trial_id": "mdp_trial_3", "block": "test", "trialIndex": 4, "score": -4.800000000000001, "costs": -2.8, "simulationMode": [null, null, null, null, null], "rewards": [-2, -4, -2, -6, 12], "path": ["0", "0", "1", "2", "3", "8", "11"], "rt": [11648, 612, 265, 574, 110], "actions": ["up", "up", "up", "left", "left"], "actionTimes": [14663, 15830, 16600, 17737, 18379], "queries": {"click": {"state": {"target": ["23", "12"], "time": [4823, 8766]}, "edge": {"target": [], "time": []}}, "mouseover": {"state": {"target": ["23", "23", "24", "31", "12", "12", "31", "30", "24", "0", "12", "1"], "time": [4159, 4525, 5280, 6994, 7286, 7615, 7931, 7989, 8163, 8364, 8548, 9868]}, "edge": {"target": [], "time": []}}, "mouseout": {"state": {"target": ["13", "14", "22", "0", "23", "23", "23", "24", "31", "12", "12", "31", "30", "24", "23", "0", "12", "1"], "time": [54, 96, 1269, 3997, 4210, 4872, 5077, 6596, 7233, 7334, 7847, 7982, 8037, 8214, 8281, 8498, 9520, 10716]}, "edge": {"target": [], "time": []}}}, "displayed_time": "18.91", "trialTime": 26358, "trial_type": "mouselab-mdp", "trial_index": 11, "time_elapsed": 481165, "internal_node_id": "0.0-6.0-1.0-2.0"}}, {"uniqueid": "w94134643:a91510109", "current_trial": 12, "dateTime": 1693660875408, "trialdata": {"revealed_states": [], "clicked_states": [], "num_clicks_accrued": [0, 0, 0, 0, 0, 0, 0, 0, 0, 0, 0, 0, 0], "stateRewards": ["", 1, 4, -4, 14, 35, 51, 19, -13, 54, 78, -74, -2, -1, -3, 13, -11, -42, -73, -15, -24, -3, -69, 2, -1, 5, 16, -27, 73, 58, 9, -60, 5, -60], "withholdReward": false, "trial_id": "mdp_trial_4", "block": "test", "trialIndex": 5, "score": -5, "costs": 0, "simulationMode": [null, null, null, null, null], "rewards": [2, -1, 5, 16, -27], "path": ["0", "0", "23", "24", "25", "26", "27"], "rt": [2085, 74, 825, 4023, 419], "actions": ["left", "left", "left", "up", "up"], "actionTimes": [6031, 6615, 7957, 12525, 13468], "queries": {"click": {"state": {"target": [], "time": []}, "edge": {"target": [], "time": []}}, "mouseover": {"state": {"target": ["23"], "time": [4679]}, "edge": {"target": [], "time": []}}, "mouseout": {"state": {"target": ["2", "1", "0", "23"], "time": [2920, 3139, 4626, 15441]}, "edge": {"target": [], "time": []}}}, "displayed_time": "17.95", "trialTime": 18853, "trial_type": "mouselab-mdp", "trial_index": 12, "time_elapsed": 500811, "internal_node_id": "0.0-6.0-1.0-3.0"}}, {"uniqueid": "w94134643:a91510109", "current_trial": 13, "dateTime": 1693660897190, "trialdata": {"revealed_states": [], "clicked_states": [], "num_clicks_accrued": [0, 0, 0, 0, 0, 0, 0, 0, 0, 0, 0, 0, 0], "stateRewards": ["", -1, -1, 7, -15, -43, -21, -84, -9, -45, -66, 2, 1, -2, 2, 8, -27, 44, -52, -5, -84, 11, 53, 1, 4, -4, 16, 83, -82, -15, -16, 68, -43, 81], "withholdReward": false, "trial_id": "mdp_trial_5", "block": "test", "trialIndex": 6, "score": -58, "costs": 0, "simulationMode": [null, null, null, null, null], "rewards": [1, 4, -4, -16, -43], "path": ["0", "0", "23", "24", "25", "30", "32"], "rt": [2252, 307, 282, 244, 185], "actions": ["left", "left", "left", "down", "down"], "actionTimes": [6536, 7379, 8205, 8999, 9730], "queries": {"click": {"state": {"target": [], "time": []}, "edge": {"target": [], "time": []}}, "mouseover": {"state": {"target": ["0", "23", "23"], "time": [4356, 5015, 5583]}, "edge": {"target": [], "time": []}}, "mouseout": {"state": {"target": ["0", "0", "23", "23", "23"], "time": [1649, 4950, 5078, 6117, 12144]}, "edge": {"target": [], "time": []}}}, "displayed_time": "18.29", "trialTime": 20946, "trial_type": "mouselab-mdp", "trial_index": 13, "time_elapsed": 522593, "internal_node_id": "0.0-6.0-1.0-4.0"}}, {"uniqueid": "w94134643:a91510109", "current_trial": 14, "dateTime": 1693660924196, "trialdata": {"revealed_states": [], "clicked_states": ["12", "23", "1"], "num_clicks_accrued": [0, 0, 0, 0, 0, 0, 0, 0, 0, 0, 0, 0, 0], "stateRewards": ["", 1, 4, 7, -16, -84, -6, -46, -12, -7, -49, -26, -1, 2, -4, 2, 22, 37, -64, 1, 88, -13, -10, 1, -4, -2, 5, 2, -10, -34, 9, 66, 55, 38], "withholdReward": false, "trial_id": "mdp_trial_6", "block": "test", "trialIndex": 7, "score": -92.2, "costs": -4.199999999999999, "simulationMode": [null, null, null, null, null], "rewards": [1, 4, 7, -16, -84], "path": ["0", "0", "1", "2", "3", "4", "5"], "rt": [11283, 250, 590, 470, 1223], "actions": ["up", "up", "up", "right", "up"], "actionTimes": [17623, 18425, 19543, 20538, 22308], "queries": {"click": {"state": {"target": ["12", "23", "1"], "time": [7655, 11008, 13766]}, "edge": {"target": [], "time": []}}, "mouseover": {"state": {"target": ["12", "12", "13", "24", "23", "1"], "time": [6881, 7529, 8031, 10344, 10704, 12049]}, "edge": {"target": [], "time": []}}, "mouseout": {"state": {"target": ["0", "19", "1", "12", "0", "12", "12", "13", "24", "23", "1", "1", "21"], "time": [1038, 4074, 4929, 5211, 5544, 6929, 7705, 10284, 10637, 11623, 14437, 16413, 25497]}, "edge": {"target": [], "time": []}}}, "displayed_time": "22.81", "trialTime": 26140, "trial_type": "mouselab-mdp", "trial_index": 14, "time_elapsed": 549599, "internal_node_id": "0.0-6.0-1.0-5.0"}}, {"uniqueid": "w94134643:a91510109", "current_trial": 15, "dateTime": 1693660944897, "trialdata": {"revealed_states": [], "clicked_states": ["12", "1"], "num_clicks_accrued": [0, 0, 0, 0, 0, 0, 0, 0, 0, 0, 0, 0, 0], "stateRewards": ["", 2, -3, -2, 14, -4, 85, 46, 15, -28, 41, 31, -1, -1, -1, 5, 62, 79, 57, 12, -73, -64, 86, -1, 1, -3, -5, 68, 11, -32, 8, -80, -21, -56], "withholdReward": false, "trial_id": "mdp_trial_7", "block": "test", "trialIndex": 8, "score": 40.2, "costs": -2.8, "simulationMode": [null, null, null, null, null], "rewards": [2, -3, -2, 15, 31], "path": ["0", "0", "1", "2", "3", "8", "11"], "rt": [6708, 164, 437, 360, 122], "actions": ["up", "up", "up", "left", "left"], "actionTimes": [10716, 11432, 12388, 13289, 13953], "queries": {"click": {"state": {"target": ["12", "1"], "time": [5137, 7223]}, "edge": {"target": [], "time": []}}, "mouseover": {"state": {"target": ["12", "1", "0", "23"], "time": [4745, 6004, 7583, 7842]}, "edge": {"target": [], "time": []}}, "mouseout": {"state": {"target": ["14", "13", "12", "0", "0", "12", "1", "0", "23", "28", "23", "0"], "time": [1022, 1341, 1493, 1675, 2909, 5796, 7473, 7736, 9666, 18579, 18667, 18718]}, "edge": {"target": [], "time": []}}}, "displayed_time": "18.01", "trialTime": 19840, "trial_type": "mouselab-mdp", "trial_index": 15, "time_elapsed": 570299, "internal_node_id": "0.0-6.0-1.0-6.0"}}, {"uniqueid": "w94134643:a91510109", "current_trial": 16, "dateTime": 1693660963952, "trialdata": {"revealed_states": [], "clicked_states": [], "num_clicks_accrued": [0, 0, 0, 0, 0, 0, 0, 0, 0, 0, 0, 0, 0], "stateRewards": ["", -1, -3, -6, -2, -7, 80, -45, -3, -38, -72, 76, 2, 1, 7, 4, -62, 14, -74, 14, -87, -21, -88, -2, 1, -7, -10, 66, 56, -76, 10, -29, -72, -70], "withholdReward": false, "trial_id": "mdp_trial_8", "block": "test", "trialIndex": 9, "score": -63, "costs": 0, "simulationMode": [null, null, null, null, null], "rewards": [2, 1, 7, 14, -87], "path": ["0", "0", "12", "13", "14", "19", "20"], "rt": [7090, 37, 414, 420, 36], "actions": ["right", "right", "right", "down", "right"], "actionTimes": [10694, 11264, 12199, 13132, 13709], "queries": {"click": {"state": {"target": [], "time": []}, "edge": {"target": [], "time": []}}, "mouseover": {"state": {"target": ["1", "12", "12"], "time": [6902, 7417, 9385]}, "edge": {"target": [], "time": []}}, "mouseout": {"state": {"target": ["21", "22", "0", "1", "12", "12"], "time": [403, 2128, 4122, 7370, 7466, 15200]}, "edge": {"target": [], "time": []}}}, "displayed_time": "17.61", "trialTime": 18222, "trial_type": "mouselab-mdp", "trial_index": 16, "time_elapsed": 589355, "internal_node_id": "0.0-6.0-1.0-7.0"}}, {"uniqueid": "w94134643:a91510109", "current_trial": 17, "dateTime": 1693660980951, "trialdata": {"revealed_states": [], "clicked_states": ["12"], "num_clicks_accrued": [0, 0, 0, 0, 0, 0, 0, 0, 0, 0, 0, 0, 0], "stateRewards": ["", 2, 3, 3, 10, 19, -21, 6, 9, 54, 68, 16, 2, 2, -6, -8, 40, -2, -75, -2, -42, 55, 59, -1, 2, 4, -14, 11, -34, -30, -6, 61, -53, 13], "withholdReward": false, "trial_id": "mdp_trial_9", "block": "test", "trialIndex": 10, "score": -13.4, "costs": -1.4, "simulationMode": [null, null, null, null, null], "rewards": [2, 2, -6, -8, -2], "path": ["0", "0", "12", "13", "14", "15", "17"], "rt": [5304, 117, 276, 972, 332], "actions": ["right", "right", "right", "up", "right"], "actionTimes": [6827, 7484, 8274, 9802, 10678], "queries": {"click": {"state": {"target": ["12"], "time": [3391]}, "edge": {"target": [], "time": []}}, "mouseover": {"state": {"target": ["1", "12", "1", "23", "1"], "time": [2173, 3074, 4375, 5061, 5561]}, "edge": {"target": [], "time": []}}, "mouseout": {"state": {"target": ["1", "1", "12", "1", "23", "1", "18"], "time": [652, 2389, 3882, 4838, 5469, 5930, 11821]}, "edge": {"target": [], "time": []}}}, "displayed_time": "15.53", "trialTime": 16188, "trial_type": "mouselab-mdp", "trial_index": 17, "time_elapsed": 606353, "internal_node_id": "0.0-6.0-1.0-8.0"}}, {"uniqueid": "w94134643:a91510109", "current_trial": 18, "dateTime": 1693660999615, "trialdata": {"revealed_states": [], "clicked_states": ["23", "12"], "num_clicks_accrued": [0, 0, 0, 0, 0, 0, 0, 0, 0, 0, 0, 0, 0], "stateRewards": ["", 1, -2, 7, -14, 88, -56, -44, -14, 64, -51, -57, -2, 3, -4, -9, -11, 19, -77, -1, 68, 75, -67, -1, 1, -2, 5, -37, 70, -34, -10, -72, 63, -41], "withholdReward": false, "trial_id": "mdp_trial_10", "block": "test", "trialIndex": 11, "score": -54.8, "costs": -2.8, "simulationMode": [null, null, null, null, null], "rewards": [1, -2, 7, -14, -44], "path": ["0", "0", "1", "2", "3", "4", "7"], "rt": [6227, 212, 130, 226, 361], "actions": ["up", "up", "up", "right", "down"], "actionTimes": [8672, 9431, 10114, 10891, 11772], "queries": {"click": {"state": {"target": ["23", "12"], "time": [3190, 5283]}, "edge": {"target": [], "time": []}}, "mouseover": {"state": {"target": ["1", "23", "0", "12", "1", "1", "1"], "time": [2514, 2909, 3609, 4015, 5902, 6254, 7676]}, "edge": {"target": [], "time": []}}, "mouseout": {"state": {"target": ["23", "1", "23", "0", "12", "1", "1", "1", "12"], "time": [415, 2848, 3552, 3766, 5893, 5961, 7226, 7893, 14367]}, "edge": {"target": [], "time": []}}}, "displayed_time": "16.45", "trialTime": 17842, "trial_type": "mouselab-mdp", "trial_index": 18, "time_elapsed": 625018, "internal_node_id": "0.0-6.0-1.0-9.0"}}, {"uniqueid": "w94134643:a91510109", "current_trial": 19, "dateTime": 1693661018654, "trialdata": {"revealed_states": [], "clicked_states": [], "num_clicks_accrued": [0, 0, 0, 0, 0, 0, 0, 0, 0, 0, 0, 0, 0], "stateRewards": ["", 1, 2, -6, -13, -51, 22, -4, -12, -44, -12, 6, -2, -2, -2, -14, -46, -4, -77, -2, 36, -79, 41, 2, -4, 2, -6, -55, 59, 70, -5, 39, -19, 24], "withholdReward": false, "trial_id": "mdp_trial_11", "block": "test", "trialIndex": 12, "score": 28, "costs": 0, "simulationMode": [null, null, null, null, null], "rewards": [-2, -2, -2, -2, 36], "path": ["0", "0", "12", "13", "14", "19", "20"], "rt": [2438, 559, 259, 192, 239], "actions": ["right", "right", "right", "down", "right"], "actionTimes": [4312, 5434, 6213, 6925, 7679], "queries": {"click": {"state": {"target": [], "time": []}, "edge": {"target": [], "time": []}}, "mouseover": {"state": {"target": ["1", "12"], "time": [2603, 3150]}, "edge": {"target": [], "time": []}}, "mouseout": {"state": {"target": ["0", "1", "12", "22"], "time": [2006, 3000, 3200, 17485]}, "edge": {"target": [], "time": []}}}, "displayed_time": "15.88", "trialTime": 18203, "trial_type": "mouselab-mdp", "trial_index": 19, "time_elapsed": 644055, "internal_node_id": "0.0-6.0-1.0-10.0"}}, {"uniqueid": "w94134643:a91510109", "current_trial": 20, "dateTime": 1693661038038, "trialdata": {"revealed_states": [], "clicked_states": [], "num_clicks_accrued": [0, 0, 0, 0, 0, 0, 0, 0, 0, 0, 0, 0, 0], "stateRewards": ["", -1, 3, -4, -14, 78, 67, 2, 13, -32, 28, 39, -2, 1, -4, -4, -4, -42, -86, 11, 64, -29, -32, -1, -4, 2, -7, 5, 68, -61, 2, -21, 85, 50], "withholdReward": false, "trial_id": "mdp_trial_12", "block": "test", "trialIndex": 13, "score": -23, "costs": 0, "simulationMode": [null, null, null, null, null], "rewards": [-2, 1, -4, 11, -29], "path": ["0", "0", "12", "13", "14", "19", "21"], "rt": [2220, 222, 204, 902, 38], "actions": ["right", "right", "right", "down", "down"], "actionTimes": [4200, 4932, 5653, 7098, 7652], "queries": {"click": {"state": {"target": [], "time": []}, "edge": {"target": [], "time": []}}, "mouseover": {"state": {"target": ["0"], "time": [2580]}, "edge": {"target": [], "time": []}}, "mouseout": {"state": {"target": ["12", "0", "0", "12", "24", "25"], "time": [151, 1262, 2730, 10780, 10859, 10908]}, "edge": {"target": [], "time": []}}}, "displayed_time": "15.98", "trialTime": 18532, "trial_type": "mouselab-mdp", "trial_index": 20, "time_elapsed": 663442, "internal_node_id": "0.0-6.0-1.0-11.0"}}, {"uniqueid": "w94134643:a91510109", "current_trial": 21, "dateTime": 1693661057697, "trialdata": {"revealed_states": [], "clicked_states": ["12", "23"], "num_clicks_accrued": [0, 0, 0, 0, 0, 0, 0, 0, 0, 0, 0, 0, 0], "stateRewards": ["", -2, -1, -2, -15, 87, 57, 29, -10, 77, -80, -7, 1, -3, 6, 14, -11, 87, -59, 4, -71, 16, -11, 2, 2, -7, 2, -47, 61, 50, 14, -20, 17, 81], "withholdReward": false, "trial_id": "mdp_trial_13", "block": "test", "trialIndex": 14, "score": -50.8, "costs": -2.8, "simulationMode": [null, null, null, null, null], "rewards": [2, 2, -7, 2, -47], "path": ["0", "0", "23", "24", "25", "26", "27"], "rt": [6672, 42, 481, 1136, 129], "actions": ["left", "left", "left", "up", "up"], "actionTimes": [10770, 11362, 12381, 14062, 14706], "queries": {"click": {"state": {"target": ["12", "23"], "time": [5568, 7668]}, "edge": {"target": [], "time": []}}, "mouseover": {"state": {"target": ["12", "0", "23", "23", "0", "1", "1", "24"], "time": [5293, 5835, 5949, 6445, 7996, 8506, 8860, 9908]}, "edge": {"target": [], "time": []}}, "mouseout": {"state": {"target": ["23", "0", "12", "0", "23", "23", "23", "0", "1", "1", "24"], "time": [1651, 5031, 5780, 5892, 6255, 7759, 7989, 8343, 8563, 9842, 10076]}, "edge": {"target": [], "time": []}}}, "displayed_time": "18.11", "trialTime": 18765, "trial_type": "mouselab-mdp", "trial_index": 21, "time_elapsed": 683100, "internal_node_id": "0.0-6.0-1.0-12.0"}}, {"uniqueid": "w94134643:a91510109", "current_trial": 22, "dateTime": 1693661079079, "trialdata": {"revealed_states": [], "clicked_states": ["23", "12"], "num_clicks_accrued": [0, 0, 0, 0, 0, 0, 0, 0, 0, 0, 0, 0, 0], "stateRewards": ["", -1, 2, 5, -6, 13, -64, -47, 8, -79, -80, -33, 1, 2, -2, -16, 56, -71, -10, 3, 29, 44, 85, -1, 4, 5, 4, -36, -56, 19, 8, 52, -13, -2], "withholdReward": false, "trial_id": "mdp_trial_14", "block": "test", "trialIndex": 15, "score": 38.2, "costs": -2.8, "simulationMode": [null, null, null, null, null], "rewards": [1, 2, -2, -16, 56], "path": ["0", "0", "12", "13", "14", "15", "16"], "rt": [7921, 325, 228, 670, 77], "actions": ["right", "right", "right", "up", "up"], "actionTimes": [11882, 12730, 13516, 14705, 15334], "queries": {"click": {"state": {"target": ["23", "12"], "time": [5071, 7913]}, "edge": {"target": [], "time": []}}, "mouseover": {"state": {"target": ["23", "1", "12", "1"], "time": [4087, 6005, 6838, 8779]}, "edge": {"target": [], "time": []}}, "mouseout": {"state": {"target": ["23", "1", "12", "1", "12", "12"], "time": [5828, 6777, 8436, 10114, 10872, 20110]}, "edge": {"target": [], "time": []}}}, "displayed_time": "17.97", "trialTime": 20231, "trial_type": "mouselab-mdp", "trial_index": 22, "time_elapsed": 704483, "internal_node_id": "0.0-6.0-1.0-13.0"}}, {"uniqueid": "w94134643:a91510109", "current_trial": 23, "dateTime": 1693661095654, "trialdata": {"revealed_states": [], "clicked_states": [], "num_clicks_accrued": [0, 0, 0, 0, 0, 0, 0, 0, 0, 0, 0, 0, 0], "stateRewards": ["", -2, -3, 8, 14, -73, 73, 84, -12, -2, -50, -17, 2, 1, -2, -9, -44, -27, -33, 16, -63, -47, -66, -2, 1, 4, -5, -33, -11, 50, 9, 38, -79, 31], "withholdReward": false, "trial_id": "mdp_trial_15", "block": "test", "trialIndex": 16, "score": -49, "costs": 0, "simulationMode": [null, null, null, null, null], "rewards": [2, 1, -2, 16, -66], "path": ["0", "0", "12", "13", "14", "19", "22"], "rt": [1543, 121, 254, 407, 637], "actions": ["right", "right", "right", "down", "left"], "actionTimes": [2536, 3176, 3973, 4930, 6079], "queries": {"click": {"state": {"target": [], "time": []}, "edge": {"target": [], "time": []}}, "mouseover": {"state": {"target": [], "time": []}, "edge": {"target": [], "time": []}}, "mouseout": {"state": {"target": ["0"], "time": [1058]}, "edge": {"target": [], "time": []}}}, "displayed_time": "15.00", "trialTime": 15644, "trial_type": "mouselab-mdp", "trial_index": 23, "time_elapsed": 721057, "internal_node_id": "0.0-6.0-1.0-14.0"}}, {"uniqueid": "w94134643:a91510109", "current_trial": 24, "dateTime": 1693661118458, "trialdata": {"revealed_states": [], "clicked_states": ["12"], "num_clicks_accrued": [0, 0, 0, 0, 0, 0, 0, 0, 0, 0, 0, 0, 0], "stateRewards": ["", 1, 3, 3, -10, 52, 68, 59, 12, 7, 49, 21, -2, -3, -4, -2, -2, 63, 63, -4, 44, 43, -76, -2, -3, -6, 13, 48, 36, 12, -5, -36, -33, -11], "withholdReward": false, "trial_id": "mdp_trial_16", "block": "test", "trialIndex": 17, "score": -90.4, "costs": -1.4, "simulationMode": [null, null, null, null, null], "rewards": [-2, -3, -4, -4, -76], "path": ["0", "0", "12", "13", "14", "19", "22"], "rt": [5385, 360, 234, 831, 345], "actions": ["right", "right", "right", "down", "left"], "actionTimes": [7271, 8167, 8912, 10298, 11203], "queries": {"click": {"state": {"target": ["12"], "time": [3757]}, "edge": {"target": [], "time": []}}, "mouseover": {"state": {"target": ["12", "12", "12", "13", "15", "14"], "time": [2704, 2972, 3506, 4058, 4798, 5210]}, "edge": {"target": [], "time": []}}, "mouseout": {"state": {"target": ["0", "12", "12", "12", "13", "15", "14"], "time": [2469, 2788, 3104, 3908, 4592, 5150, 5443]}, "edge": {"target": [], "time": []}}}, "displayed_time": "15.89", "trialTime": 22010, "trial_type": "mouselab-mdp", "trial_index": 24, "time_elapsed": 743862, "internal_node_id": "0.0-6.0-1.0-15.0"}}, {"uniqueid": "w94134643:a91510109", "current_trial": 25, "dateTime": 1693661136975, "trialdata": {"revealed_states": [], "clicked_states": [], "num_clicks_accrued": [0, 0, 0, 0, 0, 0, 0, 0, 0, 0, 0, 0, 0], "stateRewards": ["", 1, 1, -3, 2, 22, -25, -11, -5, 50, 49, 3, 1, -1, 8, 14, -85, -30, 57, -6, -39, -16, 59, -2, -1, 5, 5, 59, -16, 8, 4, 67, 56, -9], "withholdReward": false, "trial_id": "mdp_trial_17", "block": "test", "trialIndex": 18, "score": -24, "costs": 0, "simulationMode": [null, null, null, null, null], "rewards": [1, 1, -3, 2, -25], "path": ["0", "0", "1", "2", "3", "4", "6"], "rt": [2009, 170, 2134, 245, 58], "actions": ["up", "up", "up", "right", "right"], "actionTimes": [5100, 5830, 8505, 9257, 9859], "queries": {"click": {"state": {"target": [], "time": []}, "edge": {"target": [], "time": []}}, "mouseover": {"state": {"target": ["5", "4", "7"], "time": [3907, 3960, 4064]}, "edge": {"target": [], "time": []}}, "mouseout": {"state": {"target": ["12", "23", "5", "4", "7"], "time": [988, 1388, 3954, 4011, 4228]}, "edge": {"target": [], "time": []}}}, "displayed_time": "17.09", "trialTime": 17629, "trial_type": "mouselab-mdp", "trial_index": 25, "time_elapsed": 762376, "internal_node_id": "0.0-6.0-1.0-16.0"}}, {"uniqueid": "w94134643:a91510109", "current_trial": 26, "dateTime": 1693661167414, "trialdata": {"revealed_states": [], "clicked_states": [], "num_clicks_accrued": [0, 0, 0, 0, 0, 0, 0, 0, 0, 0, 0, 0, 0], "stateRewards": ["", 1, 4, 5, -5, 58, -80, 75, 6, 25, -39, 46, 2, -2, 4, 2, 59, 31, -22, -12, -61, 15, 72, 1, -2, -7, 8, 77, 76, -23, -7, 71, -15, -3], "withholdReward": false, "trial_id": "mdp_trial_18", "block": "test", "trialIndex": 19, "score": -75, "costs": 0, "simulationMode": [null, null, null, null, null], "rewards": [1, 4, 5, -5, -80], "path": ["0", "0", "1", "2", "3", "4", "6"], "rt": [1628, 41, 39, 180, 622], "actions": ["up", "up", "up", "right", "right"], "actionTimes": [6408, 6997, 7568, 8301, 9454], "queries": {"click": {"state": {"target": [], "time": []}, "edge": {"target": [], "time": []}}, "mouseover": {"state": {"target": [], "time": []}, "edge": {"target": [], "time": []}}, "mouseout": {"state": {"target": ["11", "10", "2", "0", "23"], "time": [736, 1149, 2961, 26118, 26184]}, "edge": {"target": [], "time": []}}}, "displayed_time": "18.79", "trialTime": 29600, "trial_type": "mouselab-mdp", "trial_index": 26, "time_elapsed": 792817, "internal_node_id": "0.0-6.0-1.0-17.0"}}, {"uniqueid": "w94134643:a91510109", "current_trial": 27, "dateTime": 1693661188485, "trialdata": {"revealed_states": [], "clicked_states": [], "num_clicks_accrued": [0, 0, 0, 0, 0, 0, 0, 0, 0, 0, 0, 0, 0], "stateRewards": ["", -1, 3, 8, 9, -53, 20, -84, 2, -28, -62, -31, -1, -2, -7, 2, 51, 58, 45, -4, -17, -41, 36, 2, -2, -7, -15, 29, -54, -37, -16, -43, 65, -17], "withholdReward": false, "trial_id": "mdp_trial_19", "block": "test", "trialIndex": 20, "score": -55, "costs": 0, "simulationMode": [null, null, null, null, null], "rewards": [-1, -2, -7, -4, -41], "path": ["0", "0", "12", "13", "14", "19", "21"], "rt": [1347, 814, 298, 275, 44], "actions": ["right", "right", "right", "down", "down"], "actionTimes": [7132, 8467, 9287, 10091, 10659], "queries": {"click": {"state": {"target": [], "time": []}, "edge": {"target": [], "time": []}}, "mouseover": {"state": {"target": [], "time": []}, "edge": {"target": [], "time": []}}, "mouseout": {"state": {"target": ["29", "8", "10"], "time": [3864, 4044, 4145]}, "edge": {"target": [], "time": []}}}, "displayed_time": "19.79", "trialTime": 20195, "trial_type": "mouselab-mdp", "trial_index": 27, "time_elapsed": 813887, "internal_node_id": "0.0-6.0-1.0-18.0"}}, {"uniqueid": "w94134643:a91510109", "current_trial": 28, "dateTime": 1693661209003, "trialdata": {"revealed_states": [], "clicked_states": [], "num_clicks_accrued": [0, 0, 0, 0, 0, 0, 0, 0, 0, 0, 0, 0, 0], "stateRewards": ["", -1, 3, 2, 9, 41, 4, -46, -12, -54, -87, -25, 2, 3, -1, 11, -77, 12, -33, -9, -32, 35, 72, 1, 3, -7, 4, 37, 65, -73, 6, 77, -43, 8], "withholdReward": false, "trial_id": "mdp_trial_20", "block": "test", "trialIndex": 21, "score": -40, "costs": 0, "simulationMode": [null, null, null, null, null], "rewards": [1, 3, -7, 6, -43], "path": ["0", "0", "23", "24", "25", "30", "32"], "rt": [1249, 72, 865, 120, 84], "actions": ["left", "left", "left", "down", "down"], "actionTimes": [3723, 4353, 5738, 6401, 7026], "queries": {"click": {"state": {"target": [], "time": []}, "edge": {"target": [], "time": []}}, "mouseover": {"state": {"target": [], "time": []}, "edge": {"target": [], "time": []}}, "mouseout": {"state": {"target": [], "time": []}, "edge": {"target": [], "time": []}}}, "displayed_time": "16.48", "trialTime": 19642, "trial_type": "mouselab-mdp", "trial_index": 28, "time_elapsed": 834408, "internal_node_id": "0.0-6.0-1.0-19.0"}}, {"uniqueid": "w94134643:a91510109", "current_trial": 29, "dateTime": 1693661240890, "trialdata": {"revealed_states": [], "clicked_states": [], "num_clicks_accrued": [0, 0, 0, 0, 0, 0, 0, 0, 0, 0, 0, 0, 0], "stateRewards": ["", 2, -1, -3, 16, -3, -16, -62, -1, 13, -26, 43, -1, 4, 3, -9, -54, -37, -3, -12, -71, -68, -57, 1, -3, 2, -9, 2, -2, -9, -11, 84, -52, 55], "withholdReward": false, "trial_id": "mdp_trial_21", "block": "test", "trialIndex": 22, "score": -2, "costs": 0, "simulationMode": [null, null, null, null, null], "rewards": [2, -1, -3, 16, -16], "path": ["0", "0", "1", "2", "3", "4", "6"], "rt": [2303, 430, 632, 294, 36], "actions": ["up", "up", "up", "right", "right"], "actionTimes": [4628, 5614, 6764, 7620, 8176], "queries": {"click": {"state": {"target": [], "time": []}, "edge": {"target": [], "time": []}}, "mouseover": {"state": {"target": [], "time": []}, "edge": {"target": [], "time": []}}, "mouseout": {"state": {"target": ["0"], "time": [2439]}, "edge": {"target": [], "time": []}}}, "displayed_time": "16.33", "trialTime": 30966, "trial_type": "mouselab-mdp", "trial_index": 29, "time_elapsed": 866291, "internal_node_id": "0.0-6.0-1.0-20.0"}}, {"uniqueid": "w94134643:a91510109", "current_trial": 30, "dateTime": 1693661262866, "trialdata": {"revealed_states": [], "clicked_states": [], "num_clicks_accrued": [0, 0, 0, 0, 0, 0, 0, 0, 0, 0, 0, 0, 0], "stateRewards": ["", -1, 2, -2, 13, -56, -28, 10, 14, 53, -80, -29, 1, -3, -3, -14, 14, 9, -40, -9, 18, 18, 48, 1, 1, 1, -9, 64, -39, -9, 7, -52, -78, 7], "withholdReward": false, "trial_id": "mdp_trial_22", "block": "test", "trialIndex": 23, "score": 4, "costs": 0, "simulationMode": [null, null, null, null, null], "rewards": [1, -3, -3, -9, 18], "path": ["0", "0", "12", "13", "14", "19", "20"], "rt": [2661, 266, 249, 230, 305], "actions": ["right", "right", "right", "down", "right"], "actionTimes": [8846, 9644, 10403, 11163, 11997], "queries": {"click": {"state": {"target": [], "time": []}, "edge": {"target": [], "time": []}}, "mouseover": {"state": {"target": ["18", "13"], "time": [6923, 7134]}, "edge": {"target": [], "time": []}}, "mouseout": {"state": {"target": ["27", "26", "28", "1", "18", "13"], "time": [4827, 4870, 4930, 5130, 6980, 7260]}, "edge": {"target": [], "time": []}}}, "displayed_time": "20.19", "trialTime": 21149, "trial_type": "mouselab-mdp", "trial_index": 30, "time_elapsed": 888268, "internal_node_id": "0.0-6.0-1.0-21.0"}}, {"uniqueid": "w94134643:a91510109", "current_trial": 31, "dateTime": 1693661282337, "trialdata": {"revealed_states": [], "clicked_states": [], "num_clicks_accrued": [0, 0, 0, 0, 0, 0, 0, 0, 0, 0, 0, 0, 0], "stateRewards": ["", -1, 3, 1, -7, 56, 76, 57, 3, 11, -9, 14, 1, -2, 2, 8, -77, -3, 79, -5, 88, 24, -66, -2, -1, 7, -7, -30, 14, -76, 11, -36, 28, -6], "withholdReward": false, "trial_id": "mdp_trial_23", "block": "test", "trialIndex": 24, "score": 6, "costs": 0, "simulationMode": [null, null, null, null, null], "rewards": [1, -2, 2, 8, -3], "path": ["0", "0", "12", "13", "14", "15", "17"], "rt": [1735, 68, 2095, 427, 254], "actions": ["right", "right", "right", "up", "right"], "actionTimes": [4818, 5422, 8037, 8990, 9769], "queries": {"click": {"state": {"target": [], "time": []}, "edge": {"target": [], "time": []}}, "mouseover": {"state": {"target": [], "time": []}, "edge": {"target": [], "time": []}}, "mouseout": {"state": {"target": ["0", "23"], "time": [1892, 2191]}, "edge": {"target": [], "time": []}}}, "displayed_time": "17.09", "trialTime": 18596, "trial_type": "mouselab-mdp", "trial_index": 31, "time_elapsed": 907741, "internal_node_id": "0.0-6.0-1.0-22.0"}}, {"uniqueid": "w94134643:a91510109", "current_trial": 32, "dateTime": 1693661302063, "trialdata": {"revealed_states": [], "clicked_states": [], "num_clicks_accrued": [0, 0, 0, 0, 0, 0, 0, 0, 0, 0, 0, 0, 0], "stateRewards": ["", -1, 3, -7, 16, -32, -74, -48, 2, 10, 15, -30, 1, 1, -2, 10, 12, -83, 67, 13, -66, 47, 65, -2, 4, 2, -14, -8, -57, 24, 9, 65, 12, 46], "withholdReward": false, "trial_id": "mdp_trial_24", "block": "test", "trialIndex": 25, "score": -53, "costs": 0, "simulationMode": [null, null, null, null, null], "rewards": [1, 1, -2, 13, -66], "path": ["0", "0", "12", "13", "14", "19", "20"], "rt": [4344, 171, 135, 982, 419], "actions": ["right", "right", "right", "down", "right"], "actionTimes": [7876, 8571, 9254, 10782, 11710], "queries": {"click": {"state": {"target": [], "time": []}, "edge": {"target": [], "time": []}}, "mouseover": {"state": {"target": [], "time": []}, "edge": {"target": [], "time": []}}, "mouseout": {"state": {"target": ["0"], "time": [3594]}, "edge": {"target": [], "time": []}}}, "displayed_time": "17.53", "trialTime": 18822, "trial_type": "mouselab-mdp", "trial_index": 32, "time_elapsed": 927468, "internal_node_id": "0.0-6.0-1.0-23.0"}}, {"uniqueid": "w94134643:a91510109", "current_trial": 33, "dateTime": 1693661321367, "trialdata": {"revealed_states": [], "clicked_states": [], "num_clicks_accrued": [0, 0, 0, 0, 0, 0, 0, 0, 0, 0, 0, 0, 0], "stateRewards": ["", 2, -1, 8, -2, -16, 69, -39, -7, -13, -27, -86, 2, -2, 2, 13, -34, -16, -20, -5, 19, 81, 32, -2, -1, 2, -14, 20, 80, 58, 4, 70, 12, 73], "withholdReward": false, "trial_id": "mdp_trial_25", "block": "test", "trialIndex": 26, "score": 15, "costs": 0, "simulationMode": [null, null, null, null, null], "rewards": [-2, -1, 2, 4, 12], "path": ["0", "0", "23", "24", "25", "30", "32"], "rt": [1393, 98, 123, 503, 148], "actions": ["left", "left", "left", "down", "down"], "actionTimes": [3874, 4485, 5149, 6191, 6898], "queries": {"click": {"state": {"target": [], "time": []}, "edge": {"target": [], "time": []}}, "mouseover": {"state": {"target": [], "time": []}, "edge": {"target": [], "time": []}}, "mouseout": {"state": {"target": ["0"], "time": [1975]}, "edge": {"target": [], "time": []}}}, "displayed_time": "16.48", "trialTime": 18405, "trial_type": "mouselab-mdp", "trial_index": 33, "time_elapsed": 946771, "internal_node_id": "0.0-6.0-1.0-24.0"}}, {"uniqueid": "w94134643:a91510109", "current_trial": 34, "dateTime": 1693661345094, "trialdata": {"revealed_states": [], "clicked_states": [], "num_clicks_accrued": [0, 0, 0, 0, 0, 0, 0, 0, 0, 0, 0, 0, 0], "stateRewards": ["", 1, 3, -2, 15, 51, 15, -19, 11, 67, -45, -73, 2, 4, -2, -13, 36, 9, -28, 10, -30, 31, 16, 1, 2, -1, -16, 14, -22, 36, -1, 88, -5, 45], "withholdReward": false, "trial_id": "mdp_trial_26", "block": "test", "trialIndex": 27, "score": 45, "costs": 0, "simulationMode": [null, null, null, null, null], "rewards": [2, 4, -2, 10, 31], "path": ["0", "0", "12", "13", "14", "19", "21"], "rt": [1412, 199, 241, 1120, 66], "actions": ["right", "right", "right", "down", "down"], "actionTimes": [5303, 6051, 6827, 8491, 9083], "queries": {"click": {"state": {"target": [], "time": []}, "edge": {"target": [], "time": []}}, "mouseover": {"state": {"target": [], "time": []}, "edge": {"target": [], "time": []}}, "mouseout": {"state": {"target": ["0"], "time": [3305]}, "edge": {"target": [], "time": []}}}, "displayed_time": "17.89", "trialTime": 22818, "trial_type": "mouselab-mdp", "trial_index": 34, "time_elapsed": 970496, "internal_node_id": "0.0-6.0-1.0-25.0"}}, {"uniqueid": "w94134643:a91510109", "current_trial": 35, "dateTime": 1693661362734, "trialdata": {"revealed_states": [], "clicked_states": ["1", "23"], "num_clicks_accrued": [0, 0, 0, 0, 0, 0, 0, 0, 0, 0, 0, 0, 0], "stateRewards": ["", 1, -1, 4, -2, -75, -75, 84, -9, -60, -79, 59, 2, -4, 8, 9, -17, -82, 80, 14, -4, 49, 49, -1, 3, 6, -11, -33, 34, 55, 9, -57, 5, 59], "withholdReward": false, "trial_id": "mdp_trial_27", "block": "test", "trialIndex": 28, "score": -86.8, "costs": -2.8, "simulationMode": [null, null, null, null, null], "rewards": [1, -1, 4, -9, -79], "path": ["0", "0", "1", "2", "3", "8", "10"], "rt": [8455, 259, 927, 566, 784], "actions": ["up", "up", "up", "left", "down"], "actionTimes": [9309, 10116, 11578, 12664, 14001], "queries": {"click": {"state": {"target": ["1", "23"], "time": [3473, 5478]}, "edge": {"target": [], "time": []}}, "mouseover": {"state": {"target": ["1", "23", "0"], "time": [3186, 4507, 7603]}, "edge": {"target": [], "time": []}}, "mouseout": {"state": {"target": ["0", "1", "1", "23", "23", "0", "1"], "time": [947, 3787, 4294, 5570, 5800, 7792, 8317]}, "edge": {"target": [], "time": []}}}, "displayed_time": "14.86", "trialTime": 16777, "trial_type": "mouselab-mdp", "trial_index": 35, "time_elapsed": 988138, "internal_node_id": "0.0-6.0-1.0-26.0"}}, {"uniqueid": "w94134643:a91510109", "current_trial": 36, "dateTime": 1693661383079, "trialdata": {"revealed_states": [], "clicked_states": [], "num_clicks_accrued": [0, 0, 0, 0, 0, 0, 0, 0, 0, 0, 0, 0, 0], "stateRewards": ["", 1, -4, -6, -1, -21, 17, -72, 10, 77, 67, -46, -1, 4, -2, 14, -66, -49, -45, -15, -52, 23, -67, 2, -2, -2, 15, -3, 45, -64, 5, -44, 83, 61], "withholdReward": false, "trial_id": "mdp_trial_28", "block": "test", "trialIndex": 29, "score": -81, "costs": 0, "simulationMode": [null, null, null, null, null], "rewards": [-1, 4, -2, -15, -67], "path": ["0", "0", "12", "13", "14", "19", "22"], "rt": [1540, 398, 343, 648, 673], "actions": ["right", "right", "right", "down", "left"], "actionTimes": [5363, 6308, 7163, 8355, 9549], "queries": {"click": {"state": {"target": [], "time": []}, "edge": {"target": [], "time": []}}, "mouseover": {"state": {"target": [], "time": []}, "edge": {"target": [], "time": []}}, "mouseout": {"state": {"target": ["12"], "time": [2850]}, "edge": {"target": [], "time": []}}}, "displayed_time": "17.83", "trialTime": 19362, "trial_type": "mouselab-mdp", "trial_index": 36, "time_elapsed": 1008481, "internal_node_id": "0.0-6.0-1.0-27.0"}}, {"uniqueid": "w94134643:a91510109", "current_trial": 37, "dateTime": 1693661402075, "trialdata": {"revealed_states": [], "clicked_states": ["1", "12"], "num_clicks_accrued": [0, 0, 0, 0, 0, 0, 0, 0, 0, 0, 0, 0, 0], "stateRewards": ["", -1, -4, -1, -5, -28, -23, -15, -15, -38, 59, -87, 2, 2, -5, 9, -55, -39, -71, -6, 85, -85, -11, -1, -2, 5, -10, 1, 25, 41, -4, 69, -35, 86], "withholdReward": false, "trial_id": "mdp_trial_29", "block": "test", "trialIndex": 30, "score": 75.2, "costs": -2.8, "simulationMode": [null, null, null, null, null], "rewards": [2, 2, -5, -6, 85], "path": ["0", "0", "12", "13", "14", "19", "20"], "rt": [8876, 704, 963, 412, 1025], "actions": ["right", "right", "right", "down", "right"], "actionTimes": [11119, 12354, 13834, 14807, 16367], "queries": {"click": {"state": {"target": ["1", "12"], "time": [4206, 7924]}, "edge": {"target": [], "time": []}}, "mouseover": {"state": {"target": ["1", "0", "23", "0", "0", "12", "12", "0", "23", "18"], "time": [3930, 4848, 5089, 5689, 7268, 7327, 7652, 8540, 9150, 10379]}, "edge": {"target": [], "time": []}}, "mouseout": {"state": {"target": ["0", "1", "0", "23", "0", "0", "12", "12", "0", "23", "12"], "time": [1654, 4536, 5027, 5630, 7166, 7320, 7484, 8386, 9142, 9939, 10055]}, "edge": {"target": [], "time": []}}}, "displayed_time": "16.89", "trialTime": 18056, "trial_type": "mouselab-mdp", "trial_index": 37, "time_elapsed": 1027477, "internal_node_id": "0.0-6.0-1.0-28.0"}}, {"uniqueid": "w94134643:a91510109", "current_trial": 38, "dateTime": 1693661422316, "trialdata": {"revealed_states": [], "clicked_states": ["1", "12"], "num_clicks_accrued": [0, 0, 0, 0, 0, 0, 0, 0, 0, 0, 0, 0, 0], "stateRewards": ["", -1, 1, 6, -6, 70, 66, 67, -16, -75, -35, 37, -1, 4, 4, -6, 47, -9, 63, 15, 21, -63, 13, 1, 3, -6, 10, 79, -29, 18, -15, 9, -67, -19], "withholdReward": false, "trial_id": "mdp_trial_30", "block": "test", "trialIndex": 31, "score": -38.8, "costs": -2.8, "simulationMode": [null, null, null, null, null], "rewards": [1, 3, -6, -15, -19], "path": ["0", "0", "23", "24", "25", "30", "33"], "rt": [7478, 380, 562, 307, 469], "actions": ["left", "left", "left", "down", "left"], "actionTimes": [10799, 11706, 12784, 13645, 14668], "queries": {"click": {"state": {"target": ["1", "12"], "time": [4592, 7139]}, "edge": {"target": [], "time": []}}, "mouseover": {"state": {"target": ["1", "12", "13", "12", "0"], "time": [4266, 5527, 6085, 6899, 8026]}, "edge": {"target": [], "time": []}}, "mouseout": {"state": {"target": ["0", "1", "12", "13", "12", "0", "28", "0", "0"], "time": [3444, 4883, 6015, 6317, 7646, 9390, 18061, 18531, 19205]}, "edge": {"target": [], "time": []}}}, "displayed_time": "17.33", "trialTime": 19353, "trial_type": "mouselab-mdp", "trial_index": 38, "time_elapsed": 1047718, "internal_node_id": "0.0-6.0-1.0-29.0"}}, {"uniqueid": "w94134643:a91510109", "current_trial": 39, "dateTime": 1693661439636, "trialdata": {"revealed_states": [], "clicked_states": [], "num_clicks_accrued": [0, 0, 0, 0, 0, 0, 0, 0, 0, 0, 0, 0, 0], "stateRewards": ["", 1, 3, 1, -13, 52, -28, 67, -14, 3, 63, -70, -1, -4, 7, -11, -10, 47, -18, 6, 69, -9, -61, 2, 3, -6, 10, 63, -34, 40, -6, -79, -35, -32], "withholdReward": false, "trial_id": "mdp_trial_31", "block": "test", "trialIndex": 32, "score": 38, "costs": 0, "simulationMode": [null, null, null, null, null], "rewards": [-1, -4, 7, -11, 47], "path": ["0", "0", "12", "13", "14", "15", "17"], "rt": [5021, 307, 390, 436, 286], "actions": ["right", "right", "right", "up", "right"], "actionTimes": [5917, 6763, 7676, 8635, 9436], "queries": {"click": {"state": {"target": [], "time": []}, "edge": {"target": [], "time": []}}, "mouseover": {"state": {"target": ["1"], "time": [3921]}, "edge": {"target": [], "time": []}}, "mouseout": {"state": {"target": ["0", "1", "0"], "time": [961, 4538, 15989]}, "edge": {"target": [], "time": []}}}, "displayed_time": "14.90", "trialTime": 16439, "trial_type": "mouselab-mdp", "trial_index": 39, "time_elapsed": 1065038, "internal_node_id": "0.0-6.0-1.0-30.0"}}, {"uniqueid": "w94134643:a91510109", "current_trial": 40, "dateTime": 1693661459770, "trialdata": {"revealed_states": [], "clicked_states": ["12", "1"], "num_clicks_accrued": [0, 0, 0, 0, 0, 0, 0, 0, 0, 0, 0, 0, 0], "stateRewards": ["", 2, -1, 5, 6, 10, 86, 55, 10, -45, 63, -71, 1, -2, 5, -8, -50, -72, 36, 15, 61, 12, 33, -1, -4, 6, 5, 79, -56, -21, -16, -87, 60, -81], "withholdReward": false, "trial_id": "mdp_trial_32", "block": "test", "trialIndex": 33, "score": 95.2, "costs": -2.8, "simulationMode": [null, null, null, null, null], "rewards": [2, -1, 5, 6, 86], "path": ["0", "0", "1", "2", "3", "4", "6"], "rt": [6248, 227, 412, 202, 278], "actions": ["up", "up", "up", "right", "right"], "actionTimes": [9229, 9980, 10902, 11621, 12445], "queries": {"click": {"state": {"target": ["12", "1"], "time": [5031, 6727]}, "edge": {"target": [], "time": []}}, "mouseover": {"state": {"target": ["1", "1", "12", "1", "1"], "time": [3045, 4005, 4454, 5368, 6489]}, "edge": {"target": [], "time": []}}, "mouseout": {"state": {"target": ["0", "1", "1", "12", "1", "1"], "time": [1752, 3752, 4137, 5258, 6147, 7184]}, "edge": {"target": [], "time": []}}}, "displayed_time": "16.98", "trialTime": 19256, "trial_type": "mouselab-mdp", "trial_index": 40, "time_elapsed": 1085173, "internal_node_id": "0.0-6.0-1.0-31.0"}}, {"uniqueid": "w94134643:a91510109", "current_trial": 41, "dateTime": 1693661479296, "trialdata": {"revealed_states": [], "clicked_states": ["1", "23", "12"], "num_clicks_accrued": [0, 0, 0, 0, 0, 0, 0, 0, 0, 0, 0, 0, 0], "stateRewards": ["", -2, -4, 2, 10, -17, 18, 73, 11, -32, 23, -13, -2, -4, 7, 12, -25, 66, -23, 15, 40, -76, -9, 1, 2, -7, -5, -20, 24, 3, -5, 16, -73, 70], "withholdReward": false, "trial_id": "mdp_trial_33", "block": "test", "trialIndex": 34, "score": -63.2, "costs": -4.199999999999999, "simulationMode": [null, null, null, null, null, null, null, null, null, null, null, null, null, null, null], "rewards": [-2, -2, -4, -4, 7, 15, 7, -76], "path": ["0", "0", "12", "12", "13", "13", "14", "19", "14", "21"], "rt": [7325, 7254, 997, 485, 951, 478, 922, 436, 776, 318, 248, 1609, 392, 1358, 847], "actions": ["right", "right", "right", "right", "right", "right", "right", "right", "right", "right", "down", "right", "right", "down", "down"], "actionTimes": [7250, 7261, 8266, 8276, 9245, 9265, 10194, 10199, 10983, 11002, 11734, 12621, 12633, 14006, 14017], "queries": {"click": {"state": {"target": ["1", "23", "12"], "time": [1895, 3606, 5586]}, "edge": {"target": [], "time": []}}, "mouseover": {"state": {"target": ["1", "23", "0", "12"], "time": [1662, 2200, 4324, 4768]}, "edge": {"target": [], "time": []}}, "mouseout": {"state": {"target": ["0", "1", "23", "0", "12"], "time": [263, 2137, 4212, 4597, 5831]}, "edge": {"target": [], "time": []}}}, "displayed_time": "14.54", "trialTime": 17856, "trial_type": "mouselab-mdp", "trial_index": 41, "time_elapsed": 1104700, "internal_node_id": "0.0-6.0-1.0-32.0"}}, {"uniqueid": "w94134643:a91510109", "current_trial": 42, "dateTime": 1693661497327, "trialdata": {"revealed_states": [], "clicked_states": ["1", "23", "12"], "num_clicks_accrued": [0, 0, 0, 0, 0, 0, 0, 0, 0, 0, 0, 0, 0], "stateRewards": ["", -2, 2, -1, -6, 22, 6, 6, -5, 70, -42, 65, 1, 3, 5, -6, -67, -9, 3, 14, 7, -62, -13, -2, 4, 1, 16, 42, -21, -52, -8, 32, 53, 81], "withholdReward": false, "trial_id": "mdp_trial_34", "block": "test", "trialIndex": 35, "score": -43.2, "costs": -4.199999999999999, "simulationMode": [null, null, null, null, null], "rewards": [1, 3, 5, 14, -62], "path": ["0", "0", "12", "13", "14", "19", "21"], "rt": [7311, 423, 281, 162, 310], "actions": ["right", "right", "right", "down", "down"], "actionTimes": [9527, 10502, 11335, 12038, 12892], "queries": {"click": {"state": {"target": ["1", "23", "12"], "time": [3683, 5308, 6986]}, "edge": {"target": [], "time": []}}, "mouseover": {"state": {"target": ["1", "23", "0", "12"], "time": [3456, 4241, 5627, 5893]}, "edge": {"target": [], "time": []}}, "mouseout": {"state": {"target": ["12", "1", "1", "23", "0", "12", "12", "18"], "time": [749, 3815, 3959, 5572, 5837, 7036, 8592, 15583]}, "edge": {"target": [], "time": []}}}, "displayed_time": "16.22", "trialTime": 17136, "trial_type": "mouselab-mdp", "trial_index": 42, "time_elapsed": 1122729, "internal_node_id": "0.0-6.0-1.0-33.0"}}, {"uniqueid": "w94134643:a91510109", "current_trial": 43, "dateTime": 1693661515307, "trialdata": {"revealed_states": [], "clicked_states": ["1", "12"], "num_clicks_accrued": [0, 0, 0, 0, 0, 0, 0, 0, 0, 0, 0, 0, 0], "stateRewards": ["", 2, -2, 7, -11, -76, -65, -23, 16, -58, 30, 81, 1, 2, 7, 14, 9, 55, -2, 6, 11, -15, 31, -1, -1, -3, 2, 15, 2, 46, 15, 18, 45, -34], "withholdReward": false, "trial_id": "mdp_trial_35", "block": "test", "trialIndex": 36, "score": -29.8, "costs": -2.8, "simulationMode": [null, null, null, null, null], "rewards": [2, -2, 7, -11, -23], "path": ["0", "0", "1", "2", "3", "4", "7"], "rt": [4752, 249, 185, 449, 1115], "actions": ["up", "up", "up", "right", "down"], "actionTimes": [5990, 6786, 7506, 8493, 10142], "queries": {"click": {"state": {"target": ["1", "12"], "time": [2296, 4224]}, "edge": {"target": [], "time": []}}, "mouseover": {"state": {"target": ["1", "12"], "time": [1907, 2624]}, "edge": {"target": [], "time": []}}, "mouseout": {"state": {"target": ["0", "1", "12", "1", "1"], "time": [1673, 2565, 4564, 12584, 15293]}, "edge": {"target": [], "time": []}}}, "displayed_time": "15.24", "trialTime": 17019, "trial_type": "mouselab-mdp", "trial_index": 43, "time_elapsed": 1140708, "internal_node_id": "0.0-6.0-1.0-34.0"}}, {"uniqueid": "w94134643:a91510109", "current_trial": 44, "dateTime": 1693661532352, "trialdata": {"revealed_states": [], "clicked_states": ["1"], "num_clicks_accrued": [0, 0, 0, 0, 0, 0, 0, 0, 0, 0, 0, 0, 0], "stateRewards": ["", -2, 3, 3, -14, 62, 36, 49, 16, 11, 17, -84, 2, -1, 6, 2, -82, -73, 49, -6, -87, 48, 50, -1, -2, -1, -16, -11, 37, -44, 4, 55, 73, -10], "withholdReward": false, "trial_id": "mdp_trial_36", "block": "test", "trialIndex": 37, "score": 15.600000000000001, "costs": -1.4, "simulationMode": [null, null, null, null, null], "rewards": [-1, -2, -1, -16, 37], "path": ["0", "0", "23", "24", "25", "26", "28"], "rt": [5145, 300, 465, 416, 269], "actions": ["left", "left", "left", "up", "right"], "actionTimes": [5984, 6802, 7794, 8763, 9565], "queries": {"click": {"state": {"target": ["1"], "time": [3349]}, "edge": {"target": [], "time": []}}, "mouseover": {"state": {"target": ["1", "23", "24"], "time": [3100, 4175, 4709]}, "edge": {"target": [], "time": []}}, "mouseout": {"state": {"target": ["0", "1", "23", "24", "23", "0"], "time": [365, 3626, 4467, 4768, 15728, 15966]}, "edge": {"target": [], "time": []}}}, "displayed_time": "14.84", "trialTime": 16120, "trial_type": "mouselab-mdp", "trial_index": 44, "time_elapsed": 1157756, "internal_node_id": "0.0-6.0-1.0-35.0"}}, {"uniqueid": "w94134643:a91510109", "current_trial": 45, "dateTime": 1693661556210, "trialdata": {"revealed_states": [], "clicked_states": ["23", "1", "12", "13", "17", "16"], "num_clicks_accrued": [0, 0, 0, 0, 0, 0, 0, 0, 0, 0, 0, 0, 0], "stateRewards": ["", 2, 3, -1, 6, 44, -4, -59, -14, -3, 64, 16, 1, -3, 3, 6, 3, 49, 19, 3, -49, -14, -86, 1, 2, -3, -8, -33, 14, 32, -13, -77, -47, -67], "withholdReward": false, "trial_id": "mdp_trial_37", "block": "test", "trialIndex": 38, "score": 47.6, "costs": -8.4, "simulationMode": [null, null, null, null, null], "rewards": [1, -3, 3, 6, 49], "path": ["0", "0", "12", "13", "14", "15", "17"], "rt": [15007, 265, 226, 442, 206], "actions": ["right", "right", "right", "up", "right"], "actionTimes": [16072, 16867, 17613, 18581, 19328], "queries": {"click": {"state": {"target": ["23", "1", "12", "13", "17", "16"], "time": [2333, 4268, 6389, 9435, 11815, 13707]}, "edge": {"target": [], "time": []}}, "mouseover": {"state": {"target": ["23", "1", "12", "12", "13", "14", "15", "17", "16", "15"], "time": [1449, 2755, 4682, 4953, 9176, 10261, 11362, 11547, 12508, 14229]}, "edge": {"target": [], "time": []}}, "mouseout": {"state": {"target": ["23", "1", "12", "12", "13", "14", "15", "17", "17", "16", "16", "15"], "time": [2749, 4460, 4747, 9058, 10253, 11244, 11413, 11868, 12395, 13799, 13980, 14290]}, "edge": {"target": [], "time": []}}}, "displayed_time": "19.85", "trialTime": 22893, "trial_type": "mouselab-mdp", "trial_index": 45, "time_elapsed": 1181615, "internal_node_id": "0.0-6.0-1.0-36.0"}}, {"uniqueid": "w94134643:a91510109", "current_trial": 46, "dateTime": 1693661578147, "trialdata": {"revealed_states": [], "clicked_states": ["29", "9", "5"], "num_clicks_accrued": [0, 0, 0, 0, 0, 0, 0, 0, 0, 0, 0, 0, 0], "stateRewards": ["", -1, -1, 4, -16, -75, 81, -51, -7, -84, 73, -30, -2, 1, -3, -16, -77, 33, 14, 1, 45, 87, -66, 2, 2, -5, -7, -19, -17, 79, -3, 8, 49, 47], "withholdReward": false, "trial_id": "mdp_trial_38", "block": "test", "trialIndex": 39, "score": 66.8, "costs": -4.199999999999999, "simulationMode": [null, null, null, null, null], "rewards": [2, 2, -5, -7, 79], "path": ["0", "0", "23", "24", "25", "26", "29"], "rt": [8449, 129, 199, 342, 186], "actions": ["left", "left", "left", "up", "left"], "actionTimes": [14005, 14681, 15420, 16308, 17044], "queries": {"click": {"state": {"target": ["29", "9", "5"], "time": [6786, 8577, 10350]}, "edge": {"target": [], "time": []}}, "mouseover": {"state": {"target": ["26", "29", "27", "27", "11", "9", "5", "6", "27", "26", "29", "25", "24", "24"], "time": [6278, 6446, 6975, 7239, 7834, 8402, 9644, 10895, 12020, 12123, 12587, 12691, 12749, 12858]}, "edge": {"target": [], "time": []}}, "mouseout": {"state": {"target": ["15", "12", "1", "2", "3", "8", "28", "26", "0", "26", "29", "27", "27", "11", "9", "5", "6", "27", "26", "29", "25", "24", "24", "31"], "time": [503, 755, 1952, 2022, 2071, 3022, 3439, 4272, 4856, 6330, 6877, 7035, 7734, 8296, 9130, 10614, 11746, 12072, 12253, 12642, 12743, 12798, 18812, 20566]}, "edge": {"target": [], "time": []}}}, "displayed_time": "19.56", "trialTime": 20986, "trial_type": "mouselab-mdp", "trial_index": 46, "time_elapsed": 1203550, "internal_node_id": "0.0-6.0-1.0-37.0"}}, {"uniqueid": "w94134643:a91510109", "current_trial": 47, "dateTime": 1693661601031, "trialdata": {"revealed_states": [], "clicked_states": ["29", "11", "5", "16", "20", "22"], "num_clicks_accrued": [0, 0, 0, 0, 0, 0, 0, 0, 0, 0, 0, 0, 0], "stateRewards": ["", -2, -3, 7, -13, 60, 9, 37, -6, 37, 20, 1, 2, -2, -8, 6, -80, -31, -10, -7, 70, -65, -44, -1, 1, 7, 6, -11, 73, -85, 16, -21, 47, 34], "withholdReward": false, "trial_id": "mdp_trial_39", "block": "test", "trialIndex": 40, "score": 46.6, "costs": -8.4, "simulationMode": [null, null, null, null, null], "rewards": [2, -2, -8, -7, 70], "path": ["0", "0", "12", "13", "14", "19", "20"], "rt": [14878, 125, 133, 289, 315], "actions": ["right", "right", "right", "down", "right"], "actionTimes": [17082, 17742, 18422, 19250, 20086], "queries": {"click": {"state": {"target": ["29", "11", "5", "16", "20", "22"], "time": [3266, 4876, 7216, 8962, 10685, 12654]}, "edge": {"target": [], "time": []}}, "mouseover": {"state": {"target": ["1", "10", "11", "29", "27", "11", "9", "5", "5", "16", "16", "15", "17", "20", "21", "22", "32", "30", "23", "19", "14"], "time": [2514, 2619, 2682, 2964, 3717, 4121, 5524, 6618, 6952, 7950, 8444, 9114, 9381, 10047, 11307, 12327, 13668, 14435, 14536, 14750, 15304]}, "edge": {"target": [], "time": []}}, "mouseout": {"state": {"target": ["0", "1", "10", "11", "29", "27", "11", "9", "5", "5", "5", "16", "16", "15", "17", "20", "21", "22", "32", "30", "23", "22", "19"], "time": [2277, 2569, 2675, 2736, 3416, 4066, 4971, 6271, 6689, 7316, 7742, 8004, 9060, 9172, 9989, 11225, 12280, 13206, 14384, 14487, 14587, 14679, 15297]}, "edge": {"target": [], "time": []}}}, "displayed_time": "20.61", "trialTime": 21977, "trial_type": "mouselab-mdp", "trial_index": 47, "time_elapsed": 1226433, "internal_node_id": "0.0-6.0-1.0-38.0"}}, {"uniqueid": "w94134643:a91510109", "current_trial": 48, "dateTime": 1693661630281, "trialdata": {"revealed_states": [], "clicked_states": ["5", "6", "17", "20", "32", "33", "27", "11"], "num_clicks_accrued": [0, 0, 0, 0, 0, 0, 0, 0, 0, 0, 0, 0, 0], "stateRewards": ["", -2, -1, -5, 10, -36, -70, 68, -9, 86, 71, -10, 2, -4, 7, -7, 66, 44, -66, -13, -69, 43, 15, -2, 2, 6, -13, 62, 57, 50, -10, -69, 42, -72], "withholdReward": false, "trial_id": "mdp_trial_40", "block": "test", "trialIndex": 41, "score": 43.8, "costs": -11.200000000000001, "simulationMode": [null, null, null, null, null], "rewards": [-2, 2, 6, -13, 62], "path": ["0", "0", "23", "24", "25", "26", "27"], "rt": [18415, 36, 61, 446, 38], "actions": ["left", "left", "left", "up", "up"], "actionTimes": [22134, 22725, 23347, 24314, 24894], "queries": {"click": {"state": {"target": ["5", "6", "17", "20", "32", "33", "27", "11"], "time": [4549, 6423, 8858, 10546, 12790, 14511, 17088, 19557]}, "edge": {"target": [], "time": []}}, "mouseover": {"state": {"target": ["5", "5", "6", "16", "17", "17", "20", "20", "21", "32", "33", "33", "29", "27", "11"], "time": [3835, 4293, 5131, 7041, 8278, 8629, 10038, 10361, 11525, 12552, 13693, 14145, 15181, 16808, 18131]}, "edge": {"target": [], "time": []}}, "mouseout": {"state": {"target": ["14", "14", "12", "5", "5", "6", "16", "17", "17", "17", "20", "20", "21", "32", "33", "33", "29", "27", "11"], "time": [2424, 2626, 2887, 3890, 4828, 6982, 8230, 8347, 8997, 9776, 10099, 11264, 11973, 13392, 13904, 14839, 16448, 17770, 19933]}, "edge": {"target": [], "time": []}}}, "displayed_time": "25.45", "trialTime": 28378, "trial_type": "mouselab-mdp", "trial_index": 48, "time_elapsed": 1255685, "internal_node_id": "0.0-6.0-1.0-39.0"}}, {"uniqueid": "w94134643:a91510109", "current_trial": 49, "dateTime": 1693661677172, "trialdata": {"rt": 46858, "response": {"Q0": "$-2 to $2", "Q1": "$-32 to $32", "Q2": "$-88 to $88", "Q3": "The cost was always $1.4.", "Q4": "Slightly unmotivated"}, "question_order": [0, 1, 2, 3, 4], "trial_id": "final_quiz_control", "trial_type": "survey-multi-choice", "trial_index": 49, "time_elapsed": 1302576, "internal_node_id": "0.0-6.0-2.0"}}, {"uniqueid": "w94134643:a91510109", "current_trial": 50, "dateTime": 1693661786950, "trialdata": {"rt": 109521, "response": {"Q0": "checking the first 3 nodes to find green 2", "Q1": "yes realised that it was better to find end score", "Q2": "frustrating until worked out score on end node"}, "trial_id": "self_report_control", "trial_type": "survey-text", "trial_index": 50, "time_elapsed": 1412354, "internal_node_id": "0.0-6.0-3.0"}}, {"uniqueid": "w94134643:a91510109", "current_trial": 51, "dateTime": 1693661815949, "trialdata": {"rt": 28916, "response": {"gender": "male", "age": "48", "colorblind": "1", "effort": "1"}, "trial_type": "survey-html-form", "trial_index": 51, "time_elapsed": 1441354, "internal_node_id": "0.0-6.0-4.0"}}, {"uniqueid": "w94134643:a91510109", "current_trial": 52, "dateTime": 1693661834106, "trialdata": {"rt": 18096, "response": {"Q0": "", "Q1": "no", "Q2": ""}, "trial_type": "survey-text", "trial_index": 52, "time_elapsed": 1459511, "internal_node_id": "0.0-6.0-5.0"}}, {"uniqueid": "w94134643:a91510109", "current_trial": 53, "dateTime": 1693661873727, "trialdata": {"rt": 39571, "stimulus": "<h1>Completion Code Instructions (1/2)</h1>\n<br><br><br><br>\nYou have reached the end of the experiment! The completion code consists of two parts: (1) a code with 2 characters (2) a code with 6 characters. On this page, you will receive the second part of the code. The first part of the completion code will be on the next page.\n<br><br>\nThe second part of your completion code is: <b>EWEK22</b>\n<br><br>\nPlease note this down. Then, press 'Next' in order to find the first part of your completion code. Once the data has been saved, you will receive this code either in this window or in the original browser window where you started the experiment.\n <br><br>\n<h2 style='color: red;'>Note: this is <strong>NOT</strong> the full completion code. Copy this down and click 'Next' to get the full completion code on the next page.</h2>", "response": 0, "trial_type": "html-button-response", "trial_index": 53, "time_elapsed": 1499132, "internal_node_id": "0.0-6.0-6.0"}}, {"uniqueid": "w94134643:a91510109", "current_trial": 54, "dateTime": 1693661874764, "trialdata": {"success": true, "trial_type": "fullscreen", "trial_index": 54, "time_elapsed": 1500169, "internal_node_id": "0.0-7.0"}}], "questiondata": {"params": {"CODE": "C6DMOQA6", "MIN_TIME": 14, "inspectCost": 1, "startTime": "Sat Sep 02 2023 14:12:21 GMT+0100 (British Summer Time)", "bonusRate": 0.002, "variance": "1_2_4_8_44", "branching": "31123"}}, "eventdata": [{"eventtype": "initialized", "value": null, "timestamp": 1693660340905, "interval": 0}, {"eventtype": "window_resize", "value": [1024, 654], "timestamp": 1693660340905, "interval": 0}, {"eventtype": "window_resize", "value": [1024, 654], "timestamp": 1693660341327, "interval": 422}, {"eventtype": "focus", "value": "off", "timestamp": 1693660370132, "interval": 28805}, {"eventtype": "focus", "value": "on", "timestamp": 1693660370133, "interval": 1}, {"eventtype": "window_resize", "value": [1366, 768], "timestamp": 1693660381501, "interval": 11368}, {"eventtype": "focus", "value": "off", "timestamp": 1693660706708, "interval": 325207}, {"eventtype": "window_resize", "value": [1366, 767], "timestamp": 1693660706942, "interval": 234}, {"eventtype": "focus", "value": "on", "timestamp": 1693660713352, "interval": 6410}, {"eventtype": "window_resize", "value": [1366, 768], "timestamp": 1693660713570, "interval": 218}, {"eventtype": "window_resize", "value": [1707, 960], "timestamp": 1693661036600, "interval": 323030}, {"eventtype": "window_resize", "value": [1517, 853], "timestamp": 1693661053261, "interval": 16661}, {"eventtype": "window_resize", "value": [1137, 726], "timestamp": 1693661874244, "interval": 820983}], "useragent": "Mozilla/5.0 (Windows NT 10.0; Win64; x64) AppleWebKit/537.36 (KHTML, like Gecko) Chrome/116.0.0.0 Safari/537.36", "mode": "live", "id": "w94134643:a91510109", "status": "user data saved", "Beginhit": "2023-09-02 13:11:09.80789", "Beginexp": "2023-09-02 13:13:02.515221", "Endhit": "2023-09-02 13:38:04.797273", "psiturkStatus": 3, "browser": "<redacted>", "platform": "windows", "language": "en-GB"}