{"condition": 0, "counterbalance": 0, "assignmentId": "a99291983", "workerId": "w33622262", "hitId": "h26018039", "currenttrial": 55, "bonus": 0, "data": [{"uniqueid": "w33622262:a99291983", "current_trial": 0, "dateTime": 1691071559476, "trialdata": {"success": true, "trial_type": "fullscreen", "trial_index": 0, "time_elapsed": 4737, "internal_node_id": "0.0-0.0"}}, {"uniqueid": "w33622262:a99291983", "current_trial": 1, "dateTime": 1691071571578, "trialdata": {"view_history": [{"page_index": 0, "viewing_time": 12095}], "rt": 12096, "trial_id": "exp_instructions_control", "trial_type": "instructions", "trial_index": 1, "time_elapsed": 16840, "internal_node_id": "0.0-1.0"}}, {"uniqueid": "w33622262:a99291983", "current_trial": 2, "dateTime": 1691071576167, "trialdata": {"success": true, "trial_type": "fullscreen", "trial_index": 2, "time_elapsed": 21429, "internal_node_id": "0.0-2.0-0.0"}}, {"uniqueid": "w33622262:a99291983", "current_trial": 3, "dateTime": 1691071772008, "trialdata": {"view_history": [{"page_index": 0, "viewing_time": 80409}, {"page_index": 1, "viewing_time": 56880}, {"page_index": 2, "viewing_time": 21697}, {"page_index": 3, "viewing_time": 36852}], "rt": 195838, "trial_id": "mouselab_instructions_1_control", "trial_type": "instructions", "trial_index": 3, "time_elapsed": 217269, "internal_node_id": "0.0-2.0-1.0"}}, {"uniqueid": "w33622262:a99291983", "current_trial": 4, "dateTime": 1691071888027, "trialdata": {"revealed_states": [], "clicked_states": ["1", "3", "2", "4", "6", "23", "25", "30", "32", "12", "13", "14", "19", "21", "24", "26", "27", "15", "16", "8", "11", "10", "7", "18", "17", "22", "20", "5", "9", "28", "29", "33", "31"], "num_clicks_accrued": [0, 0, 0, 0, 0, 0, 0, 0, 0, 0, 0, 0, 0], "stateRewards": ["", -10, -10, -10, 10, -10, 10, 10, 10, 10, 10, -10, 10, 10, -10, -10, 10, -10, -10, 10, 10, -10, 10, 10, -10, -10, 10, 10, 10, -10, 10, -10, 10, -10], "withholdReward": false, "trial_id": "practice_1", "block": "test", "trialIndex": 0, "score": -23, "costs": -16.5, "simulationMode": [null, null, null, null, null], "rewards": [-10, -10, -10, 10, 10], "path": ["0", "0", "1", "2", "3", "4", "6"], "rt": [99409, 451, 270, 284, 153], "actions": ["up", "up", "up", "right", "right"], "actionTimes": [104493, 105433, 106201, 106996, 107649], "queries": {"click": {"state": {"target": ["1", "3", "2", "4", "6", "23", "25", "30", "32", "12", "13", "14", "19", "21", "24", "26", "27", "15", "16", "8", "11", "10", "7", "18", "17", "22", "20", "5", "9", "28", "29", "33", "31"], "time": [6451, 9904, 12511, 14561, 15826, 20971, 22963, 24012, 25133, 31761, 34206, 35970, 37628, 38855, 42979, 45948, 47070, 49940, 51762, 53050, 54515, 57834, 60376, 62787, 65269, 66627, 68051, 77779, 79918, 81704, 83275, 84772, 85913]}, "edge": {"target": [], "time": []}}, "mouseover": {"state": {"target": ["1", "23", "24", "2", "2", "2", "3", "3", "2", "1", "2", "4", "6", "1", "1", "2", "3", "3", "2", "0", "23", "24", "25", "30", "32", "0", "12", "13", "14", "19", "21", "22", "23", "24", "26", "25", "26", "27", "15", "16", "4", "8", "11", "10", "2", "7", "13", "18", "15", "17", "14", "22", "19", "20", "21", "19", "12", "12", "19", "19", "18", "7", "3", "5", "5", "9", "9", "28", "29", "33", "30", "31", "12", "13", "15", "28", "23", "28", "23"], "time": [5813, 7328, 7679, 7946, 8597, 9031, 9263, 9613, 11495, 11743, 12214, 13915, 15528, 18396, 19346, 19412, 19763, 20200, 20231, 20295, 20613, 21378, 22647, 23678, 24762, 29928, 31464, 32328, 34929, 36778, 38528, 42113, 42412, 42461, 44330, 44980, 45629, 46445, 49514, 50562, 52345, 52378, 53478, 57580, 59428, 59862, 61512, 62280, 64177, 64479, 65944, 66262, 67478, 67712, 68561, 71597, 73946, 75280, 75328, 75600, 75903, 75945, 76346, 77196, 77446, 79180, 79445, 81364, 83063, 84528, 85262, 85595, 93481, 94295, 94963, 95695, 96146, 98813, 102846]}, "edge": {"target": [], "time": []}}, "mouseout": {"state": {"target": ["0", "1", "23", "24", "2", "2", "2", "3", "3", "3", "2", "1", "2", "3", "4", "6", "1", "1", "2", "3", "3", "2", "0", "23", "24", "25", "25", "30", "32", "0", "12", "13", "14", "19", "21", "22", "23", "24", "26", "25", "26", "27", "15", "16", "4", "8", "8", "11", "10", "2", "7", "13", "18", "15", "17", "14", "22", "19", "20", "21", "19", "12", "12", "19", "19", "18", "7", "3", "5", "5", "9", "9", "9", "28", "29", "33", "30", "31", "12", "13", "15", "28", "23", "28", "23"], "time": [1230, 7295, 7646, 7882, 7997, 8814, 9044, 9279, 10107, 11480, 11529, 11762, 12717, 13729, 15328, 18147, 18697, 19362, 19446, 19813, 20229, 20245, 20313, 21345, 22414, 23168, 23511, 24579, 25348, 29996, 32312, 34861, 36446, 38261, 39065, 42129, 42427, 43862, 44913, 45601, 46378, 48850, 50378, 52312, 52361, 53261, 53462, 54727, 59413, 59479, 61463, 61528, 64163, 64314, 65929, 65961, 67462, 67578, 68478, 71547, 72980, 74980, 75295, 75363, 75629, 75912, 75961, 76461, 77212, 78828, 79430, 80131, 81014, 81916, 83494, 84989, 85311, 86127, 94281, 94892, 95196, 95700, 98646, 102813, 102862]}, "edge": {"target": [], "time": []}}}, "displayed_time": "108.15", "trialTime": 114836, "trial_type": "mouselab-mdp", "trial_index": 4, "time_elapsed": 333288, "internal_node_id": "0.0-2.0-2.0-0.0"}}, {"uniqueid": "w33622262:a99291983", "current_trial": 5, "dateTime": 1691071968290, "trialdata": {"revealed_states": [], "clicked_states": ["23", "3", "13", "19", "12", "14", "21", "24", "25", "30", "32", "1", "2", "7", "6", "11", "10", "9", "8", "5", "16", "17", "18", "20", "15"], "num_clicks_accrued": [0, 0, 0, 0, 0, 0, 0, 0, 0, 0, 0, 0, 0], "stateRewards": ["", -10, 10, -10, 10, -10, -10, 10, -10, -10, -10, -10, -10, 10, 10, 10, -10, -10, 10, -10, -10, -10, -10, -10, -10, -10, 10, -10, -10, -10, -10, -10, 10, -10], "withholdReward": false, "trial_id": "practice_2", "block": "test", "trialIndex": 1, "score": -19, "costs": -12.5, "simulationMode": [null, null, null, null, null], "rewards": [-10, 10, 10, -10, -10], "path": ["0", "0", "12", "13", "14", "19", "21"], "rt": [73764, 654, 22, 26, 14], "actions": ["right", "right", "right", "down", "down"], "actionTimes": [75913, 77069, 77603, 78124, 78646], "queries": {"click": {"state": {"target": ["23", "3", "13", "19", "12", "14", "21", "24", "25", "30", "32", "1", "2", "7", "6", "11", "10", "9", "8", "5", "16", "17", "18", "20", "15"], "time": [5183, 8908, 12990, 18497, 20782, 22103, 25032, 28406, 32873, 34450, 36237, 40445, 41708, 44956, 48739, 50867, 52575, 53899, 56143, 59973, 62414, 63990, 65723, 68174, 70487]}, "edge": {"target": [], "time": []}}, "mouseover": {"state": {"target": ["12", "13", "12", "0", "23", "1", "7", "3", "13", "13", "2", "8", "10", "1", "12", "13", "14", "19", "12", "12", "14", "21", "21", "22", "22", "21", "0", "23", "24", "1", "1", "1", "25", "30", "32", "31", "0", "28", "1", "2", "7", "4", "7", "6", "4", "3", "8", "11", "10", "8", "9", "8", "3", "8", "4", "5", "5", "4", "7", "18", "16", "17", "15", "18", "14", "19", "20", "15", "12", "24", "22", "22"], "time": [3082, 3213, 3664, 4546, 4579, 6847, 7330, 7814, 10780, 11281, 15564, 15981, 16361, 16748, 17531, 17663, 17781, 18081, 19928, 20481, 21529, 22979, 23316, 23764, 24030, 24096, 27330, 27647, 27964, 30965, 31197, 31664, 32530, 33728, 35730, 38797, 39347, 39613, 40145, 41130, 43980, 44364, 44614, 48163, 50279, 50296, 50347, 50613, 52114, 53212, 53546, 54412, 55213, 55896, 58665, 59263, 59629, 60679, 60713, 61495, 62162, 63631, 65045, 65382, 67264, 67681, 67864, 70180, 73031, 73347, 74031, 74289]}, "edge": {"target": [], "time": []}}, "mouseout": {"state": {"target": ["0", "12", "13", "12", "0", "23", "1", "7", "3", "13", "13", "2", "8", "10", "1", "12", "13", "14", "19", "12", "12", "14", "14", "21", "21", "22", "22", "21", "0", "23", "24", "1", "1", "1", "25", "30", "32", "31", "0", "28", "1", "2", "7", "4", "7", "6", "4", "3", "8", "11", "10", "8", "9", "8", "3", "8", "8", "4", "5", "5", "4", "7", "18", "16", "16", "17", "15", "18", "18", "14", "19", "20", "15", "12", "24", "22", "22"], "time": [1529, 3180, 3531, 4314, 4562, 6547, 7080, 7346, 10247, 10795, 13208, 15579, 16347, 16413, 16797, 17597, 17697, 17985, 18715, 19963, 20990, 22316, 22880, 22995, 23730, 23778, 24046, 26985, 27345, 27846, 28615, 30996, 31313, 31730, 33612, 35581, 38747, 39030, 39512, 39816, 40666, 41916, 43995, 44531, 48108, 50264, 50295, 50312, 50580, 52048, 53196, 53247, 54363, 55197, 55880, 56367, 57830, 58696, 59279, 60662, 60695, 61473, 61512, 62633, 63264, 65030, 65096, 65946, 67213, 67547, 67798, 69816, 72998, 73045, 73547, 74045, 74296]}, "edge": {"target": [], "time": []}}}, "displayed_time": "79.18", "trialTime": 80134, "trial_type": "mouselab-mdp", "trial_index": 5, "time_elapsed": 413551, "internal_node_id": "0.0-2.0-2.0-1.0"}}, {"uniqueid": "w33622262:a99291983", "current_trial": 6, "dateTime": 1691072005296, "trialdata": {"view_history": [{"page_index": 0, "viewing_time": 33111}, {"page_index": 1, "viewing_time": 3891}], "rt": 37003, "trial_id": "mouselab_instructions_2_control", "trial_type": "instructions", "trial_index": 6, "time_elapsed": 450558, "internal_node_id": "0.0-2.0-3.0"}}, {"uniqueid": "w33622262:a99291983", "current_trial": 7, "dateTime": 1691072052614, "trialdata": {"rt": 47312, "response": {"Q0": "The cost for clicking on nodes may vary between nodes.", "Q1": "The better I perform the higher my bonus will be.", "Q2": "No, the amount of cash at each node of the web may be different each time.", "Q3": "To get the highest total score.", "Q4": "Only before moving the spider.", "Q5": "3 seconds"}, "question_order": [0, 1, 2, 3, 4, 5], "correct": {"Q0": "The cost for clicking on nodes may vary between nodes.", "Q1": "The better I perform the higher my bonus will be.", "Q2": "No, the amount of cash at each node of the web may be different each time.", "Q3": "To get the highest total score.", "Q4": "Only before moving the spider.", "Q5": "3 seconds"}, "trial_id": "mouselab_quiz_control", "trial_type": "survey-multi-choice", "trial_index": 7, "time_elapsed": 497876, "internal_node_id": "0.0-2.0-4.0"}}, {"uniqueid": "w33622262:a99291983", "current_trial": 8, "dateTime": 1691072071986, "trialdata": {"rt": 19363, "stimulus": "\n<h1> Get ready to start the game! </h1>\n\nThank you for reading the instructions. Get ready start with the 40 rounds of this game.\n<br><br>\nIf you need to take a break, feel free to take one after the end of a round, before continuing to the next one.\n<br><br>\nRemember, the more money the spider gets, the bigger your bonus will be!\n<br><br>\n<div style='text-align: center;'>Press <code>space</code> to begin.</div>\n\n<br><br>\n(If, at any point, the <code>space</code> key does not take you to the next page, click once on the text and try again.)", "response": " ", "trial_id": "mdp_ready", "trial_type": "html-keyboard-response", "trial_index": 8, "time_elapsed": 517248, "internal_node_id": "0.0-4.0-0.0"}}, {"uniqueid": "w33622262:a99291983", "current_trial": 9, "dateTime": 1691072094552, "trialdata": {"revealed_states": [], "clicked_states": ["13", "8", "2", "19", "24", "29"], "num_clicks_accrued": [0, 0, 0, 0, 0, 0, 0, 0, 0, 0, 0, 0, 0], "stateRewards": ["", -2, -2, -3, -6, -15, -11, 41, -12, -63, -76, 2, -2, -3, 8, 9, -36, -2, -18, -16, -32, -85, -17, -2, 1, 5, -16, 82, 35, -88, -1, 80, -82, -20], "withholdReward": false, "trial_id": "mdp_trial_1", "block": "test", "trialIndex": 2, "score": -106.4, "costs": -8.4, "simulationMode": [null, null, null, null, null], "rewards": [-2, -3, 8, -16, -85], "path": ["0", "0", "12", "13", "14", "19", "21"], "rt": [15062, 111, 86, 284, 131], "actions": ["right", "right", "right", "down", "down"], "actionTimes": [17764, 18394, 18972, 19752, 20383], "queries": {"click": {"state": {"target": ["13", "8", "2", "19", "24", "29"], "time": [4892, 6615, 8163, 9925, 12373, 15294]}, "edge": {"target": [], "time": []}}, "mouseover": {"state": {"target": ["12", "13", "1", "2", "8", "3", "7", "2", "4", "15", "14", "19", "22", "23", "24", "23", "1", "1", "26", "29", "26"], "time": [4103, 4636, 5883, 5917, 6266, 7234, 7366, 7867, 8950, 9183, 9233, 9650, 11317, 11701, 12102, 13299, 13833, 14102, 14767, 14983, 16400]}, "edge": {"target": [], "time": []}}, "mouseout": {"state": {"target": ["23", "12", "13", "1", "2", "8", "3", "7", "2", "4", "15", "14", "19", "22", "23", "24", "23", "1", "1", "26", "29", "26"], "time": [1934, 4434, 5533, 5899, 6201, 7233, 7249, 7700, 8784, 9100, 9217, 9583, 10140, 11333, 11985, 12587, 13349, 13849, 14116, 14918, 15505, 16416]}, "edge": {"target": [], "time": []}}}, "displayed_time": "20.89", "trialTime": 22432, "trial_type": "mouselab-mdp", "trial_index": 9, "time_elapsed": 539813, "internal_node_id": "0.0-4.0-1.0-0.0"}}, {"uniqueid": "w33622262:a99291983", "current_trial": 10, "dateTime": 1691072115888, "trialdata": {"revealed_states": [], "clicked_states": ["2", "14", "11"], "num_clicks_accrued": [0, 0, 0, 0, 0, 0, 0, 0, 0, 0, 0, 0, 0], "stateRewards": ["", 2, 4, -5, 7, 81, 35, 6, 11, 14, -72, 42, -1, 2, 3, -7, -77, -44, -40, -15, -85, 51, -32, -2, -1, -5, 7, -74, 47, 52, 16, -49, 48, -46], "withholdReward": false, "trial_id": "mdp_trial_2", "block": "test", "trialIndex": 3, "score": 49.8, "costs": -4.199999999999999, "simulationMode": [null, null, null, null, null], "rewards": [2, 4, -5, 11, 42], "path": ["0", "0", "1", "2", "3", "8", "11"], "rt": [11422, 179, 316, 1170, 178], "actions": ["up", "up", "up", "left", "left"], "actionTimes": [13229, 13916, 14753, 16424, 17116], "queries": {"click": {"state": {"target": ["2", "14", "11"], "time": [3391, 7630, 10847]}, "edge": {"target": [], "time": []}}, "mouseover": {"state": {"target": ["1", "2", "7", "18", "14", "14", "1", "10", "11", "10"], "time": [2620, 2953, 4235, 6470, 6820, 7321, 10188, 10203, 10252, 11603]}, "edge": {"target": [], "time": []}}, "mouseout": {"state": {"target": ["1", "2", "7", "18", "14", "14", "1", "10", "11", "10", "2", "16", "21"], "time": [2635, 3612, 6416, 6570, 6869, 9920, 10202, 10236, 11486, 19521, 19535, 19570, 20870]}, "edge": {"target": [], "time": []}}}, "displayed_time": "17.62", "trialTime": 21204, "trial_type": "mouselab-mdp", "trial_index": 10, "time_elapsed": 561149, "internal_node_id": "0.0-4.0-1.0-1.0"}}, {"uniqueid": "w33622262:a99291983", "current_trial": 11, "dateTime": 1691072152923, "trialdata": {"revealed_states": [], "clicked_states": ["26", "16", "8", "32", "19", "17", "13", "6", "27", "11", "5"], "num_clicks_accrued": [0, 0, 0, 0, 0, 0, 0, 0, 0, 0, 0, 0, 0], "stateRewards": ["", -1, 3, 1, -11, -22, -36, 19, -5, -70, -52, 50, -2, -4, 4, -2, -41, -83, 29, -2, 22, 10, -6, -2, 3, -2, 14, 54, 44, 77, -9, -65, -37, -40], "withholdReward": false, "trial_id": "mdp_trial_3", "block": "test", "trialIndex": 4, "score": 32.599999999999994, "costs": -15.400000000000002, "simulationMode": [null, null, null, null, null], "rewards": [-1, 3, 1, -5, 50], "path": ["0", "0", "1", "2", "3", "8", "11"], "rt": [28592, 4, 85, 136, 1266], "actions": ["up", "up", "up", "left", "left"], "actionTimes": [30130, 30651, 31250, 31901, 33664], "queries": {"click": {"state": {"target": ["26", "16", "8", "32", "19", "17", "13", "6", "27", "11", "5"], "time": [3441, 5981, 8807, 11805, 14797, 17314, 19491, 21795, 23871, 25553, 27949]}, "edge": {"target": [], "time": []}}, "mouseover": {"state": {"target": ["23", "24", "26", "26", "28", "23", "1", "16", "16", "7", "2", "8", "2", "24", "30", "32", "19", "19", "17", "14", "13", "18", "18", "18", "6", "27", "11", "9", "5", "4", "1"], "time": [1965, 1982, 2383, 3198, 4030, 4096, 4731, 5201, 5579, 8065, 8097, 8514, 9496, 10715, 11031, 11581, 13782, 14064, 16848, 18897, 18963, 20613, 20696, 20931, 21381, 23481, 25179, 27131, 27448, 28512, 28829]}, "edge": {"target": [], "time": []}}, "mouseout": {"state": {"target": ["0", "23", "24", "26", "26", "28", "23", "1", "16", "16", "7", "2", "8", "8", "2", "24", "30", "32", "19", "19", "17", "14", "13", "18", "18", "18", "6", "27", "11", "9", "5", "4", "1", "17"], "time": [830, 1980, 1996, 2481, 3657, 4046, 4663, 4898, 5265, 6531, 8080, 8113, 9013, 9447, 10415, 10730, 11350, 12018, 13796, 15730, 18629, 18913, 20597, 20629, 20713, 21046, 22730, 24713, 25758, 27146, 28497, 28529, 35324, 35416]}, "edge": {"target": [], "time": []}}}, "displayed_time": "34.16", "trialTime": 36901, "trial_type": "mouselab-mdp", "trial_index": 11, "time_elapsed": 598185, "internal_node_id": "0.0-4.0-1.0-2.0"}}, {"uniqueid": "w33622262:a99291983", "current_trial": 12, "dateTime": 1691072181862, "trialdata": {"revealed_states": [], "clicked_states": ["19", "15", "28", "33", "6", "8", "1", "31"], "num_clicks_accrued": [0, 0, 0, 0, 0, 0, 0, 0, 0, 0, 0, 0, 0], "stateRewards": ["", 1, 1, -5, 8, -6, 45, 16, -6, -7, -22, -38, -1, -4, 8, -11, -16, 21, -45, -15, -59, -32, 42, -1, 3, 6, 11, -7, 34, -27, -8, 85, 43, -9], "withholdReward": false, "trial_id": "mdp_trial_4", "block": "test", "trialIndex": 5, "score": 31.799999999999997, "costs": -11.200000000000001, "simulationMode": [null, null, null, null, null], "rewards": [-1, 3, 6, -8, 43], "path": ["0", "0", "23", "24", "25", "30", "32"], "rt": [20615, 122, 146, 299, 11], "actions": ["left", "left", "left", "down", "down"], "actionTimes": [22228, 22850, 23507, 24308, 24836], "queries": {"click": {"state": {"target": ["19", "15", "28", "33", "6", "8", "1", "31"], "time": [2719, 5424, 7469, 9530, 11977, 14263, 16383, 18909]}, "edge": {"target": [], "time": []}}, "mouseover": {"state": {"target": ["12", "22", "19", "14", "15", "1", "28", "28", "25", "33", "24", "1", "7", "6", "4", "3", "8", "2", "1", "23", "31", "23", "0", "12", "13"], "time": [1991, 2176, 2409, 4828, 4858, 6226, 6309, 6642, 8442, 8858, 10442, 10725, 10958, 11711, 12758, 13258, 13627, 15426, 15910, 18196, 18576, 20292, 20626, 20893, 20925]}, "edge": {"target": [], "time": []}}, "mouseout": {"state": {"target": ["0", "12", "22", "19", "19", "14", "15", "1", "28", "28", "25", "33", "24", "1", "7", "6", "4", "3", "8", "8", "2", "1", "23", "31", "23", "0", "12", "13", "14"], "time": [1977, 2007, 2276, 3759, 4826, 4841, 5959, 6259, 6342, 8158, 8524, 9748, 10675, 10942, 11213, 12692, 13008, 13292, 14479, 14892, 15808, 17875, 18460, 19123, 20594, 20864, 20908, 26906, 26941]}, "edge": {"target": [], "time": []}}}, "displayed_time": "25.34", "trialTime": 28818, "trial_type": "mouselab-mdp", "trial_index": 12, "time_elapsed": 627123, "internal_node_id": "0.0-4.0-1.0-3.0"}}, {"uniqueid": "w33622262:a99291983", "current_trial": 13, "dateTime": 1691072211476, "trialdata": {"revealed_states": [], "clicked_states": ["13", "26", "30", "16", "4", "9", "21", "31", "29"], "num_clicks_accrued": [0, 0, 0, 0, 0, 0, 0, 0, 0, 0, 0, 0, 0], "stateRewards": ["", 1, 1, -3, 2, 22, -25, -11, -5, 50, 49, 3, 1, -1, 8, 14, -85, -30, 57, -6, -39, -16, 59, -2, -1, 5, 5, 59, -16, 8, 4, 67, 56, -9], "withholdReward": false, "trial_id": "mdp_trial_5", "block": "test", "trialIndex": 6, "score": -26.6, "costs": -12.600000000000001, "simulationMode": [null, null, null, null, null], "rewards": [1, -1, 8, -6, -16], "path": ["0", "0", "12", "13", "14", "19", "21"], "rt": [21587, 17, 128, 246, 81], "actions": ["right", "right", "right", "down", "down"], "actionTimes": [24246, 24755, 25398, 26132, 26717], "queries": {"click": {"state": {"target": ["13", "26", "30", "16", "4", "9", "21", "31", "29"], "time": [3712, 6063, 8012, 10017, 12001, 13943, 16438, 19103, 21423]}, "edge": {"target": [], "time": []}}, "mouseover": {"state": {"target": ["13", "1", "10", "27", "26", "25", "30", "23", "1", "16", "16", "4", "3", "8", "9", "5", "18", "13", "21", "21", "31", "25", "29", "25", "24"], "time": [3436, 4351, 4685, 5370, 5804, 6702, 6751, 8467, 8518, 8935, 9168, 10885, 12618, 12935, 13369, 14534, 14918, 15151, 15484, 16119, 18718, 20584, 20668, 22084, 23502]}, "edge": {"target": [], "time": []}}, "mouseout": {"state": {"target": ["22", "12", "13", "1", "10", "27", "26", "26", "25", "30", "23", "1", "16", "16", "4", "3", "8", "9", "5", "18", "13", "21", "21", "31", "25", "29", "25", "24"], "time": [1554, 1636, 3923, 4601, 4884, 5402, 6273, 6685, 6718, 8435, 8485, 8702, 8968, 10802, 12211, 12668, 12969, 14467, 14819, 15135, 15185, 15719, 17001, 20567, 20600, 22069, 23479, 23535]}, "edge": {"target": [], "time": []}}}, "displayed_time": "27.22", "trialTime": 29475, "trial_type": "mouselab-mdp", "trial_index": 13, "time_elapsed": 656737, "internal_node_id": "0.0-4.0-1.0-4.0"}}, {"uniqueid": "w33622262:a99291983", "current_trial": 14, "dateTime": 1691072264479, "trialdata": {"revealed_states": [], "clicked_states": ["16", "5", "9", "33", "25", "19", "27", "1", "12", "23", "21", "14", "13", "20", "10", "29", "6", "3", "31", "32", "30"], "num_clicks_accrued": [0, 0, 0, 0, 0, 0, 0, 0, 0, 0, 0, 0, 0], "stateRewards": ["", 1, 1, -2, 7, -31, -6, 76, 1, -36, -16, -53, 2, 1, 7, 13, -47, -10, 47, -7, 72, 46, -56, -2, -2, -2, 11, -80, 44, 38, 16, 67, 85, -78], "withholdReward": false, "trial_id": "mdp_trial_6", "block": "test", "trialIndex": 7, "score": 65.60000000000001, "costs": -29.399999999999988, "simulationMode": [null, null, null, null, null, null], "rewards": [-2, -2, -2, 16, 85], "path": ["0", "0", "23", "24", "25", "30", "32"], "rt": [45307, 167, 33, 126, 166, 163], "actions": ["left", "left", "left", "left", "down", "down"], "actionTimes": [47724, 47894, 48455, 49079, 49753, 50417], "queries": {"click": {"state": {"target": ["16", "5", "9", "33", "25", "19", "27", "1", "12", "23", "21", "14", "13", "20", "10", "29", "6", "3", "31", "32", "30"], "time": [3705, 5787, 7788, 9713, 11630, 13515, 15576, 17548, 19506, 21481, 23428, 25458, 27898, 30125, 32154, 35362, 38112, 40126, 42787, 44688, 46763]}, "edge": {"target": [], "time": []}}, "mouseover": {"state": {"target": ["12", "18", "15", "16", "4", "5", "9", "25", "30", "33", "24", "25", "24", "0", "12", "13", "19", "0", "23", "28", "27", "26", "1", "12", "12", "23", "22", "21", "14", "13", "20", "16", "7", "2", "10", "10", "27", "26", "29", "26", "16", "6", "4", "3", "24", "31", "32", "30"], "time": [2886, 2936, 2986, 3470, 4953, 5152, 6735, 8418, 8452, 8868, 10219, 10618, 12068, 12119, 12151, 12335, 12635, 14068, 14318, 14635, 14702, 16635, 16901, 18036, 18403, 20319, 22185, 22502, 24201, 26552, 29470, 30903, 31185, 31436, 31469, 31820, 34537, 34602, 34987, 37188, 37470, 37853, 38752, 39136, 42237, 42553, 43702, 46503]}, "edge": {"target": [], "time": []}}, "mouseout": {"state": {"target": ["23", "0", "12", "18", "15", "16", "4", "5", "9", "25", "30", "33", "24", "25", "24", "0", "12", "13", "19", "0", "23", "28", "27", "27", "26", "1", "12", "12", "23", "23", "22", "21", "14", "13", "20", "16", "7", "2", "10", "10", "27", "26", "29", "26", "16", "6", "4", "3", "24", "31", "31", "32", "30", "13"], "time": [1669, 2866, 2901, 2952, 3303, 4285, 5002, 6668, 8152, 8435, 8769, 10168, 10501, 11851, 12085, 12135, 12319, 12352, 14018, 14102, 14335, 14652, 16269, 16552, 16785, 18002, 18052, 19952, 21705, 22118, 22402, 23885, 25667, 29135, 30835, 31135, 31202, 31452, 31486, 34171, 34588, 34920, 37179, 37202, 37484, 38322, 38802, 42154, 42486, 43006, 43369, 44899, 51941, 52003]}, "edge": {"target": [], "time": []}}}, "displayed_time": "50.92", "trialTime": 52862, "trial_type": "mouselab-mdp", "trial_index": 14, "time_elapsed": 709740, "internal_node_id": "0.0-4.0-1.0-5.0"}}, {"uniqueid": "w33622262:a99291983", "current_trial": 15, "dateTime": 1691072284019, "trialdata": {"revealed_states": [], "clicked_states": ["7", "18", "22", "31"], "num_clicks_accrued": [0, 0, 0, 0, 0, 0, 0, 0, 0, 0, 0, 0, 0], "stateRewards": ["", -1, 4, -3, 3, 57, -61, 5, -11, 23, -1, 34, -2, -4, -1, -13, 27, 38, -36, 4, -45, 21, 88, 1, -2, -1, 1, -69, -5, -78, -12, -9, 38, -54], "withholdReward": false, "trial_id": "mdp_trial_7", "block": "test", "trialIndex": 8, "score": 18.4, "costs": -5.6, "simulationMode": [null, null, null, null, null], "rewards": [1, -2, -1, -12, 38], "path": ["0", "0", "23", "24", "25", "30", "32"], "rt": [11615, 808, 1147, 578, 156], "actions": ["left", "left", "left", "down", "down"], "actionTimes": [13306, 14614, 16254, 17351, 18013], "queries": {"click": {"state": {"target": ["7", "18", "22", "31"], "time": [3386, 6279, 8304, 10249]}, "edge": {"target": [], "time": []}}, "mouseover": {"state": {"target": ["7", "18", "13", "22", "31", "24", "28", "23", "0", "12"], "time": [3143, 4039, 6655, 6705, 9321, 10888, 11188, 11538, 11605, 12773]}, "edge": {"target": [], "time": []}}, "mouseout": {"state": {"target": ["7", "18", "13", "22", "31", "24", "28", "23", "0"], "time": [3755, 6638, 6671, 8789, 10465, 10905, 11504, 11571, 12589]}, "edge": {"target": [], "time": []}}}, "displayed_time": "18.51", "trialTime": 19388, "trial_type": "mouselab-mdp", "trial_index": 15, "time_elapsed": 729280, "internal_node_id": "0.0-4.0-1.0-6.0"}}, {"uniqueid": "w33622262:a99291983", "current_trial": 16, "dateTime": 1691072340756, "trialdata": {"revealed_states": [], "clicked_states": ["3", "11", "29", "32", "15", "19", "7", "5", "24", "21", "8", "9", "13", "17", "16", "25", "30", "31", "28", "1", "23", "12", "2", "6", "20"], "num_clicks_accrued": [0, 0, 0, 0, 0, 0, 0, 0, 0, 0, 0, 0, 0], "stateRewards": ["", 2, -2, -3, 10, -4, -1, -11, -8, -9, -36, -78, 2, 1, 7, -7, 44, -1, -31, -1, 26, 47, 83, 2, -4, -4, -6, -52, -76, -81, -1, -59, 45, 67], "withholdReward": false, "trial_id": "mdp_trial_8", "block": "test", "trialIndex": 9, "score": 3.000000000000014, "costs": -34.999999999999986, "simulationMode": [null, null, null, null, null], "rewards": [2, -4, -4, -1, 45], "path": ["0", "0", "23", "24", "25", "30", "32"], "rt": [51113, 119, 64, 469, 130], "actions": ["left", "left", "left", "down", "down"], "actionTimes": [52340, 52977, 53538, 54527, 55155], "queries": {"click": {"state": {"target": ["3", "11", "29", "32", "15", "19", "7", "5", "24", "21", "8", "9", "13", "17", "16", "25", "30", "31", "28", "1", "23", "12", "2", "6", "20"], "time": [2729, 4659, 6583, 8552, 10599, 12832, 14783, 16597, 18628, 20424, 22473, 24179, 25903, 27833, 29789, 31729, 33806, 35897, 38004, 39707, 41648, 43626, 45679, 47964, 49876]}, "edge": {"target": [], "time": []}}, "mouseover": {"state": {"target": ["2", "3", "11", "26", "29", "25", "30", "32", "16", "15", "14", "19", "12", "7", "4", "5", "2", "1", "23", "24", "22", "21", "12", "1", "8", "9", "12", "13", "14", "17", "16", "1", "25", "30", "31", "33", "24", "28", "23", "1", "1", "23", "12", "2", "6", "15", "20"], "time": [1739, 2523, 3538, 5138, 5421, 7122, 7140, 7721, 9272, 9555, 11288, 11638, 13638, 14072, 15271, 15305, 17055, 17088, 17304, 17656, 19372, 19905, 21005, 21254, 21571, 23272, 25421, 25505, 26772, 27122, 28606, 30306, 30556, 33189, 34623, 36323, 37172, 37658, 38539, 38857, 39323, 40589, 42122, 44573, 47674, 48672, 49006]}, "edge": {"target": [], "time": []}}, "mouseout": {"state": {"target": ["12", "2", "3", "11", "26", "29", "25", "30", "32", "16", "15", "14", "19", "12", "7", "4", "5", "2", "1", "23", "24", "22", "21", "12", "1", "8", "9", "9", "12", "13", "13", "14", "17", "16", "1", "25", "30", "31", "30", "33", "24", "28", "23", "1", "1", "23", "12", "2", "6", "15"], "time": [789, 1756, 3205, 4870, 5388, 7104, 7138, 7155, 8759, 9488, 11271, 11589, 13051, 13655, 14997, 15288, 16818, 17072, 17288, 17340, 19105, 19387, 20955, 21222, 21271, 23222, 24395, 24788, 25455, 26109, 26738, 26822, 28051, 30273, 30323, 33155, 34539, 36255, 36305, 36839, 37189, 38506, 38572, 38873, 39917, 41867, 44156, 47039, 48389, 48688]}, "edge": {"target": [], "time": []}}}, "displayed_time": "55.67", "trialTime": 56593, "trial_type": "mouselab-mdp", "trial_index": 16, "time_elapsed": 786017, "internal_node_id": "0.0-4.0-1.0-7.0"}}, {"uniqueid": "w33622262:a99291983", "current_trial": 17, "dateTime": 1691072366092, "trialdata": {"revealed_states": [], "clicked_states": ["1", "12", "23", "14", "4", "8", "2", "30", "21", "16"], "num_clicks_accrued": [0, 0, 0, 0, 0, 0, 0, 0, 0, 0, 0, 0, 0], "stateRewards": ["", 2, 3, 6, -5, -74, -53, 17, -12, 46, 44, 18, -2, 4, 1, -8, 22, -23, -49, 9, -45, 55, 81, 1, -1, -7, -16, -83, -71, -45, 2, 51, 82, 61], "withholdReward": false, "trial_id": "mdp_trial_9", "block": "test", "trialIndex": 10, "score": 53, "costs": -14.000000000000002, "simulationMode": [null, null, null, null, null, null], "rewards": [-2, 4, 1, 9, 55], "path": ["0", "0", "12", "13", "14", "19", "21"], "rt": [18619, 228, 71, 181, 321, 146], "actions": ["right", "right", "right", "right", "down", "down"], "actionTimes": [20277, 20508, 21079, 21757, 22579, 23223], "queries": {"click": {"state": {"target": ["1", "12", "23", "14", "4", "8", "2", "30", "21", "16"], "time": [2667, 4454, 6351, 7998, 9654, 11544, 13084, 14870, 16915, 18906]}, "edge": {"target": [], "time": []}}, "mouseover": {"state": {"target": ["1", "12", "23", "0", "13", "14", "18", "4", "3", "8", "2", "2", "24", "30", "31", "22", "21", "19", "14", "15", "16"], "time": [2426, 3557, 5458, 6974, 7291, 7624, 8674, 9291, 10308, 10758, 12375, 12741, 13890, 14224, 15608, 16208, 16442, 17575, 17608, 17841, 18158]}, "edge": {"target": [], "time": []}}, "mouseout": {"state": {"target": ["20", "13", "1", "12", "23", "0", "12", "13", "14", "18", "4", "3", "8", "2", "2", "24", "30", "31", "22", "21", "19", "14", "15"], "time": [808, 857, 3425, 5041, 6958, 6991, 7041, 7308, 8641, 8941, 10292, 10374, 11756, 12392, 13624, 13924, 15091, 15642, 16240, 17557, 17591, 17624, 17873]}, "edge": {"target": [], "time": []}}}, "displayed_time": "23.74", "trialTime": 25180, "trial_type": "mouselab-mdp", "trial_index": 17, "time_elapsed": 811353, "internal_node_id": "0.0-4.0-1.0-8.0"}}, {"uniqueid": "w33622262:a99291983", "current_trial": 18, "dateTime": 1691072408833, "trialdata": {"revealed_states": [], "clicked_states": ["18", "4", "9", "11", "26", "30", "17", "14", "21", "2", "6", "16", "32"], "num_clicks_accrued": [0, 0, 0, 0, 0, 0, 0, 0, 0, 0, 0, 0, 0], "stateRewards": ["", 1, 1, -5, 10, -31, 73, 14, -8, -23, 63, -70, -1, 2, 8, 7, 25, -59, 27, -10, -40, -71, -15, -2, 3, -8, -5, -19, 77, -34, 7, 67, 63, 19], "withholdReward": false, "trial_id": "mdp_trial_10", "block": "test", "trialIndex": 11, "score": -90.2, "costs": -18.2, "simulationMode": [null, null, null, null, null], "rewards": [-1, 2, 8, -10, -71], "path": ["0", "0", "12", "13", "14", "19", "21"], "rt": [30166, 117, 74, 449, 18], "actions": ["right", "right", "right", "down", "down"], "actionTimes": [31707, 32318, 32907, 33849, 34368], "queries": {"click": {"state": {"target": ["18", "4", "9", "11", "26", "30", "17", "14", "21", "2", "6", "16", "32"], "time": [2666, 4693, 6586, 8180, 10251, 12434, 15523, 17634, 19520, 21418, 23573, 25609, 29127]}, "edge": {"target": [], "time": []}}, "mouseover": {"state": {"target": ["18", "7", "4", "3", "9", "11", "27", "26", "25", "30", "31", "14", "17", "17", "14", "19", "21", "24", "28", "10", "2", "7", "6", "16", "18", "23", "24", "31", "32", "32", "33"], "time": [2399, 3515, 4433, 5148, 5582, 7331, 8715, 8949, 10714, 11065, 12882, 13431, 14498, 15283, 16348, 18166, 18481, 20315, 20549, 20832, 21014, 22500, 23084, 24431, 26665, 26948, 27216, 27248, 27783, 28916, 30816]}, "edge": {"target": [], "time": []}}, "mouseout": {"state": {"target": ["16", "1", "1", "18", "7", "4", "3", "9", "11", "11", "27", "26", "25", "30", "31", "14", "17", "17", "17", "14", "19", "21", "24", "28", "10", "2", "7", "6", "16", "16", "18", "23", "24", "31", "32", "32", "33", "7", "16"], "time": [749, 815, 1065, 3065, 3598, 4907, 5181, 6998, 8389, 8632, 8900, 10698, 10748, 12658, 12914, 14470, 14682, 15737, 16015, 18148, 18465, 19982, 20532, 20565, 20864, 22498, 22548, 23781, 25826, 26615, 26881, 27165, 27231, 27484, 27898, 29347, 36433, 36919, 36949]}, "edge": {"target": [], "time": []}}}, "displayed_time": "34.87", "trialTime": 42595, "trial_type": "mouselab-mdp", "trial_index": 18, "time_elapsed": 854094, "internal_node_id": "0.0-4.0-1.0-9.0"}}, {"uniqueid": "w33622262:a99291983", "current_trial": 19, "dateTime": 1691072433009, "trialdata": {"revealed_states": [], "clicked_states": ["18", "26", "30", "4"], "num_clicks_accrued": [0, 0, 0, 0, 0, 0, 0, 0, 0, 0, 0, 0, 0], "stateRewards": ["", -1, -4, -6, -15, 21, -67, -63, 9, 51, 69, -14, -1, 3, 8, -8, 39, 72, 63, 15, 19, 47, 15, 1, 4, 5, 16, -18, 34, 35, -14, -80, 40, 1], "withholdReward": false, "trial_id": "mdp_trial_11", "block": "test", "trialIndex": 12, "score": 66.4, "costs": -5.6, "simulationMode": [null, null, null, null, null], "rewards": [-1, 3, 8, 15, 47], "path": ["0", "0", "12", "13", "14", "19", "21"], "rt": [10652, 17, 1283, 410, 85], "actions": ["right", "right", "right", "down", "down"], "actionTimes": [18593, 19104, 20917, 21827, 22404], "queries": {"click": {"state": {"target": ["18", "26", "30", "4"], "time": [8811, 10736, 12835, 15645]}, "edge": {"target": [], "time": []}}, "mouseover": {"state": {"target": ["18", "23", "24", "26", "25", "30", "23", "1", "2", "4", "4", "7", "3", "7", "18"], "time": [8334, 9283, 9316, 9633, 11350, 11783, 14050, 14367, 14634, 14851, 15201, 17701, 17818, 17950, 18000]}, "edge": {"target": [], "time": []}}, "mouseout": {"state": {"target": ["17", "15", "13", "0", "18", "23", "24", "26", "25", "30", "23", "1", "2", "4", "4", "7", "3", "7", "18"], "time": [1101, 1133, 1368, 8284, 9267, 9300, 9584, 11334, 11400, 14018, 14316, 14603, 14650, 14884, 16200, 17716, 17918, 17966, 18034]}, "edge": {"target": [], "time": []}}}, "displayed_time": "22.92", "trialTime": 24006, "trial_type": "mouselab-mdp", "trial_index": 19, "time_elapsed": 878270, "internal_node_id": "0.0-4.0-1.0-10.0"}}, {"uniqueid": "w33622262:a99291983", "current_trial": 20, "dateTime": 1691072452732, "trialdata": {"revealed_states": [], "clicked_states": ["6", "11", "29", "13", "21", "16"], "num_clicks_accrued": [0, 0, 0, 0, 0, 0, 0, 0, 0, 0, 0, 0, 0], "stateRewards": ["", 1, 2, -3, -6, 50, -7, 7, -7, -80, 21, -1, 2, 2, 4, -1, 33, 84, 1, 14, -53, 81, 6, -2, -2, -3, -9, -87, -38, -59, -5, -74, -3, -71], "withholdReward": false, "trial_id": "mdp_trial_12", "block": "test", "trialIndex": 13, "score": 94.6, "costs": -8.4, "simulationMode": [null, null, null, null, null], "rewards": [2, 2, 4, 14, 81], "path": ["0", "0", "12", "13", "14", "19", "21"], "rt": [13901, 73, 309, 140, 25], "actions": ["right", "right", "right", "down", "down"], "actionTimes": [15514, 16079, 16898, 17545, 18083], "queries": {"click": {"state": {"target": ["6", "11", "29", "13", "21", "16"], "time": [2501, 4536, 6525, 8470, 10650, 12780]}, "edge": {"target": [], "time": []}}, "mouseover": {"state": {"target": ["6", "4", "8", "11", "27", "26", "29", "12", "13", "19", "21", "19", "14", "15", "16", "15"], "time": [2189, 2971, 3021, 3305, 5005, 5254, 5538, 7655, 7705, 10105, 10388, 11821, 11854, 12105, 12138, 14787]}, "edge": {"target": [], "time": []}}, "mouseout": {"state": {"target": ["13", "12", "6", "4", "8", "11", "11", "27", "26", "29", "12", "13", "19", "21", "19", "14", "15", "16", "16", "15"], "time": [956, 988, 2720, 2990, 3272, 4743, 4938, 5221, 5504, 6937, 7670, 10021, 10289, 11805, 11838, 11888, 12122, 12992, 14771, 14839]}, "edge": {"target": [], "time": []}}}, "displayed_time": "18.59", "trialTime": 19550, "trial_type": "mouselab-mdp", "trial_index": 20, "time_elapsed": 897993, "internal_node_id": "0.0-4.0-1.0-11.0"}}, {"uniqueid": "w33622262:a99291983", "current_trial": 21, "dateTime": 1691072509358, "trialdata": {"revealed_states": [], "clicked_states": ["24", "7", "23", "12", "8", "6", "32", "25", "29", "14", "21", "20", "22", "18", "1", "11", "27", "2", "16", "15", "17", "30", "31"], "num_clicks_accrued": [0, 0, 0, 0, 0, 0, 0, 0, 0, 0, 0, 0, 0], "stateRewards": ["", -2, 4, -5, -12, 85, -24, -18, -15, -78, -22, 26, -1, -1, 2, 14, -45, 52, -23, 7, -33, 24, -6, -2, -4, 5, -7, -16, 36, -39, 5, 71, -87, -23], "withholdReward": false, "trial_id": "mdp_trial_13", "block": "test", "trialIndex": 14, "score": -115.19999999999999, "costs": -32.19999999999999, "simulationMode": [null, null, null, null, null], "rewards": [-2, -4, 5, 5, -87], "path": ["0", "0", "23", "24", "25", "30", "32"], "rt": [47673, 4, 9, 436, 106], "actions": ["left", "left", "left", "down", "down"], "actionTimes": [49391, 49897, 50418, 51361, 51964], "queries": {"click": {"state": {"target": ["24", "7", "23", "12", "8", "6", "32", "25", "29", "14", "21", "20", "22", "18", "1", "11", "27", "2", "16", "15", "17", "30", "31"], "time": [2594, 4498, 6423, 8554, 10493, 12369, 14226, 16317, 18340, 20292, 22384, 24318, 26283, 28196, 30202, 32203, 34109, 36367, 38334, 40287, 42261, 44229, 46349]}, "edge": {"target": [], "time": []}}, "mouseover": {"state": {"target": ["23", "24", "1", "7", "23", "12", "12", "2", "8", "3", "4", "6", "7", "1", "23", "32", "30", "25", "29", "26", "18", "14", "19", "21", "20", "19", "13", "22", "13", "18", "1", "10", "11", "27", "2", "7", "7", "16", "15", "17", "17", "31", "30", "31", "5", "5", "4", "7"], "time": [2158, 2325, 3090, 3123, 5474, 7057, 7640, 9441, 9524, 10891, 10923, 11373, 12792, 12810, 12825, 13175, 14756, 14807, 17257, 18891, 19191, 19257, 20873, 21207, 22940, 24942, 24991, 25573, 26824, 26874, 28623, 30940, 31224, 32690, 35124, 37042, 37340, 37724, 38890, 40741, 41257, 43323, 43640, 44990, 47992, 48444, 48574, 48641]}, "edge": {"target": [], "time": []}}, "mouseout": {"state": {"target": ["14", "13", "12", "23", "24", "1", "7", "23", "12", "12", "2", "8", "3", "4", "6", "7", "1", "23", "32", "30", "25", "29", "26", "18", "14", "19", "21", "20", "19", "13", "22", "13", "18", "1", "10", "11", "27", "2", "7", "7", "16", "16", "15", "17", "17", "15", "31", "30", "31", "5", "5", "4", "7"], "time": [1058, 1073, 1106, 2192, 2812, 3106, 4973, 6940, 7341, 9141, 9474, 10890, 10906, 10940, 12790, 12808, 12824, 12840, 14434, 14773, 16940, 18552, 18908, 19208, 20843, 20940, 22907, 24940, 24957, 25340, 26494, 26857, 28574, 30907, 31206, 32657, 34757, 37040, 37073, 37357, 38544, 38857, 40724, 40773, 42477, 42773, 43607, 44443, 47323, 48191, 48490, 48590, 48674]}, "edge": {"target": [], "time": []}}}, "displayed_time": "52.46", "trialTime": 56463, "trial_type": "mouselab-mdp", "trial_index": 21, "time_elapsed": 954620, "internal_node_id": "0.0-4.0-1.0-12.0"}}, {"uniqueid": "w33622262:a99291983", "current_trial": 22, "dateTime": 1691072589982, "trialdata": {"revealed_states": [], "clicked_states": ["18", "27", "21", "5", "8", "30", "23", "12", "33", "29", "17", "14", "7", "28", "6", "3", "31", "32", "19", "20", "22", "13", "15", "25", "26", "24", "1", "10", "9", "11", "2", "4", "16"], "num_clicks_accrued": [0, 0, 0, 0, 0, 0, 0, 0, 0, 0, 0, 0, 0], "stateRewards": ["", -2, -4, -2, 10, -8, -15, -47, 7, -84, 53, 5, -1, 2, -7, 3, 83, 31, 47, -1, 30, -8, 69, 2, -4, -1, 8, -7, 12, -8, -8, -13, 30, -84], "withholdReward": false, "trial_id": "mdp_trial_14", "block": "test", "trialIndex": 15, "score": -61.199999999999974, "costs": -46.199999999999974, "simulationMode": [null, null, null, null, null, null], "rewards": [-1, 2, -7, -1, -8], "path": ["0", "0", "12", "13", "14", "19", "21"], "rt": [73000, 190, 24, 324, 897, 91], "actions": ["right", "right", "right", "right", "down", "down"], "actionTimes": [75312, 75506, 76040, 76875, 78283, 78876], "queries": {"click": {"state": {"target": ["18", "27", "21", "5", "8", "30", "23", "12", "33", "29", "17", "14", "7", "28", "6", "3", "31", "32", "19", "20", "22", "13", "15", "25", "26", "24", "1", "10", "9", "11", "2", "4", "16"], "time": [4059, 5936, 8544, 11200, 13102, 15533, 17508, 19537, 21496, 23393, 25419, 27391, 29400, 31520, 33702, 35986, 38589, 41422, 43908, 46077, 48148, 52609, 54751, 56438, 58412, 60476, 62332, 64224, 66052, 68220, 70126, 71941, 73852]}, "edge": {"target": [], "time": []}}, "mouseover": {"state": {"target": ["18", "18", "27", "0", "19", "21", "19", "14", "15", "6", "4", "5", "8", "28", "30", "23", "23", "12", "0", "33", "29", "26", "28", "18", "17", "15", "14", "18", "7", "2", "2", "7", "2", "10", "28", "6", "4", "3", "10", "24", "31", "32", "19", "20", "22", "14", "17", "17", "13", "15", "25", "26", "28", "24", "18", "16", "1", "2", "10", "9", "11", "8", "2", "4", "4", "6", "16", "15"], "time": [2817, 3867, 4933, 6866, 7985, 8267, 9966, 9986, 10016, 10550, 10651, 10950, 12516, 14767, 15051, 16783, 17183, 18250, 20115, 20716, 22266, 24201, 24217, 24283, 24915, 26034, 26399, 28000, 28300, 28333, 28749, 29098, 29966, 30267, 31051, 32649, 34949, 35302, 37449, 37986, 38167, 40516, 42599, 44766, 47016, 49816, 49866, 52015, 52317, 53999, 55932, 57566, 58949, 59283, 61132, 61617, 62033, 62933, 63232, 64733, 66916, 69252, 69665, 70566, 70898, 72416, 72782, 74515]}, "edge": {"target": [], "time": []}}, "mouseout": {"state": {"target": ["0", "0", "18", "18", "27", "0", "19", "21", "19", "14", "15", "6", "4", "5", "8", "28", "30", "23", "23", "12", "0", "33", "29", "26", "28", "18", "17", "17", "15", "14", "18", "7", "2", "2", "7", "2", "10", "28", "6", "4", "3", "10", "24", "31", "32", "19", "20", "20", "19", "22", "14", "17", "17", "13", "13", "15", "25", "26", "28", "24", "18", "16", "1", "2", "10", "9", "11", "8", "2", "4", "4", "6", "16", "16"], "time": [1400, 2720, 2967, 4499, 6152, 6916, 8032, 9949, 9984, 9999, 10268, 10566, 10907, 11900, 14685, 14973, 15742, 16816, 17983, 20099, 20132, 21933, 24199, 24216, 24232, 24500, 25632, 26033, 26050, 27603, 28017, 28316, 28666, 29084, 29611, 30216, 30900, 32549, 34932, 34999, 37399, 37704, 38051, 40467, 42183, 44749, 46298, 46632, 46683, 49797, 49831, 50100, 52032, 52816, 53416, 54959, 57249, 58631, 59033, 60687, 61332, 61650, 62884, 63183, 64439, 66566, 69250, 69266, 70549, 70600, 72153, 72432, 74062, 74465]}, "edge": {"target": [], "time": []}}}, "displayed_time": "79.39", "trialTime": 80462, "trial_type": "mouselab-mdp", "trial_index": 22, "time_elapsed": 1035243, "internal_node_id": "0.0-4.0-1.0-13.0"}}, {"uniqueid": "w33622262:a99291983", "current_trial": 23, "dateTime": 1691072611295, "trialdata": {"revealed_states": [], "clicked_states": ["23", "27"], "num_clicks_accrued": [0, 0, 0, 0, 0, 0, 0, 0, 0, 0, 0, 0, 0], "stateRewards": ["", -1, 2, -2, 13, -56, -28, 10, 14, 53, -80, -29, 1, -3, -3, -14, 14, 9, -40, -9, 18, 18, 48, 1, 1, 1, -9, 64, -39, -9, 7, -52, -78, 7], "withholdReward": false, "trial_id": "mdp_trial_15", "block": "test", "trialIndex": 16, "score": -70.8, "costs": -2.8, "simulationMode": [null, null, null, null, null], "rewards": [1, 1, 1, 7, -78], "path": ["0", "0", "23", "24", "25", "30", "32"], "rt": [5757, 37, 15, 522, 29], "actions": ["left", "left", "left", "down", "down"], "actionTimes": [7669, 8205, 8747, 9771, 10314], "queries": {"click": {"state": {"target": ["23", "27"], "time": [2687, 4673]}, "edge": {"target": [], "time": []}}, "mouseover": {"state": {"target": ["23", "28", "27", "26", "25", "30", "32"], "time": [2385, 3099, 3366, 5151, 5184, 5449, 5815]}, "edge": {"target": [], "time": []}}, "mouseout": {"state": {"target": ["15", "18", "23", "28", "27", "26", "25", "30", "32", "33", "30"], "time": [1217, 1249, 3066, 3316, 5150, 5166, 5433, 5482, 14748, 15971, 16086]}, "edge": {"target": [], "time": []}}}, "displayed_time": "15.91", "trialTime": 21143, "trial_type": "mouselab-mdp", "trial_index": 23, "time_elapsed": 1056557, "internal_node_id": "0.0-4.0-1.0-14.0"}}, {"uniqueid": "w33622262:a99291983", "current_trial": 24, "dateTime": 1691072630196, "trialdata": {"revealed_states": [], "clicked_states": ["13", "15", "10", "4", "20"], "num_clicks_accrued": [0, 0, 0, 0, 0, 0, 0, 0, 0, 0, 0, 0, 0], "stateRewards": ["", -1, 2, 7, 8, 75, 67, -11, 6, 52, -17, 38, -1, 4, -8, 14, 74, -37, -17, -12, 52, 55, 71, -2, -1, -5, 2, 21, 6, -88, -14, 64, -61, -47], "withholdReward": false, "trial_id": "mdp_trial_16", "block": "test", "trialIndex": 17, "score": 31, "costs": -7, "simulationMode": [null, null, null, null, null], "rewards": [-1, 4, -8, -12, 55], "path": ["0", "0", "12", "13", "14", "19", "21"], "rt": [12549, 94, 42, 750, 105], "actions": ["right", "right", "right", "down", "down"], "actionTimes": [14188, 14786, 15367, 16625, 17229], "queries": {"click": {"state": {"target": ["13", "15", "10", "4", "20"], "time": [2433, 4819, 6693, 8900, 11443]}, "edge": {"target": [], "time": []}}, "mouseover": {"state": {"target": ["13", "15", "15", "7", "10", "4", "4", "15", "20", "19"], "time": [2141, 3056, 3389, 5824, 6356, 7589, 8106, 10541, 11157, 13656]}, "edge": {"target": [], "time": []}}, "mouseout": {"state": {"target": ["12", "13", "15", "15", "7", "10", "4", "4", "4", "15", "20"], "time": [1241, 3005, 3223, 5806, 5840, 6909, 7606, 9121, 10157, 10855, 13642]}, "edge": {"target": [], "time": []}}}, "displayed_time": "17.73", "trialTime": 18700, "trial_type": "mouselab-mdp", "trial_index": 24, "time_elapsed": 1075457, "internal_node_id": "0.0-4.0-1.0-15.0"}}, {"uniqueid": "w33622262:a99291983", "current_trial": 25, "dateTime": 1691072650875, "trialdata": {"revealed_states": [], "clicked_states": ["9", "29", "15"], "num_clicks_accrued": [0, 0, 0, 0, 0, 0, 0, 0, 0, 0, 0, 0, 0], "stateRewards": ["", 2, 3, 6, -12, -29, 12, 87, 4, 35, -30, 67, 2, 3, -5, -9, 44, 69, -8, 1, 45, -8, 28, -2, -1, -8, 11, -12, -5, 81, 9, 87, 82, 88], "withholdReward": false, "trial_id": "mdp_trial_17", "block": "test", "trialIndex": 18, "score": 75.8, "costs": -4.199999999999999, "simulationMode": [null, null, null, null, null], "rewards": [-2, -1, -8, 9, 82], "path": ["0", "0", "23", "24", "25", "30", "32"], "rt": [14412, 15, 31, 678, 17], "actions": ["left", "left", "left", "down", "down"], "actionTimes": [16248, 16778, 17327, 18540, 19047], "queries": {"click": {"state": {"target": ["9", "29", "15"], "time": [2756, 5229, 8267]}, "edge": {"target": [], "time": []}}, "mouseover": {"state": {"target": ["1", "2", "3", "9", "27", "29", "26", "28", "1", "18", "15", "14", "0", "23", "24", "30", "31", "31"], "time": [2179, 2197, 2228, 2512, 3514, 3561, 7330, 7361, 7411, 7629, 7678, 8861, 10863, 11146, 11630, 11779, 12129, 13115]}, "edge": {"target": [], "time": []}}, "mouseout": {"state": {"target": ["19", "13", "12", "1", "2", "3", "9", "27", "29", "26", "28", "1", "18", "15", "14", "0", "23", "24", "30", "31"], "time": [1045, 1077, 1111, 2196, 2212, 2449, 3213, 3528, 5449, 7344, 7377, 7599, 7661, 8828, 10477, 11112, 11395, 11644, 12013, 12162]}, "edge": {"target": [], "time": []}}}, "displayed_time": "19.56", "trialTime": 20518, "trial_type": "mouselab-mdp", "trial_index": 25, "time_elapsed": 1096136, "internal_node_id": "0.0-4.0-1.0-16.0"}}, {"uniqueid": "w33622262:a99291983", "current_trial": 26, "dateTime": 1691072683730, "trialdata": {"revealed_states": [], "clicked_states": ["16", "11", "22", "25", "4", "15", "20", "17", "10", "29", "33"], "num_clicks_accrued": [0, 0, 0, 0, 0, 0, 0, 0, 0, 0, 0, 0, 0], "stateRewards": ["", -1, 1, -2, 5, 73, 15, 61, 8, 7, 38, 76, 2, 2, -4, -6, -6, -26, 43, -5, -45, -85, -35, -2, 1, -4, 15, -10, 69, 72, -11, 84, -49, -38], "withholdReward": false, "trial_id": "mdp_trial_18", "block": "test", "trialIndex": 19, "score": -80.4, "costs": -15.400000000000002, "simulationMode": [null, null, null, null, null], "rewards": [-2, 1, -4, -11, -49], "path": ["0", "0", "23", "24", "25", "30", "32"], "rt": [27478, 77, 163, 216, 42], "actions": ["left", "left", "left", "down", "down"], "actionTimes": [28741, 29307, 29978, 30695, 31237], "queries": {"click": {"state": {"target": ["16", "11", "22", "25", "4", "15", "20", "17", "10", "29", "33"], "time": [2178, 4123, 6057, 8514, 11041, 13837, 16527, 19112, 21174, 23864, 26952]}, "edge": {"target": [], "time": []}}, "mouseover": {"state": {"target": ["16", "2", "10", "11", "10", "1", "12", "22", "24", "25", "3", "4", "15", "20", "17", "7", "3", "10", "29", "33", "33", "30", "33"], "time": [1979, 2661, 2679, 3110, 4611, 4645, 4878, 4945, 7995, 8261, 10462, 10813, 13545, 16279, 18545, 19878, 20178, 20862, 23644, 25311, 25796, 26277, 26679]}, "edge": {"target": [], "time": []}}, "mouseout": {"state": {"target": ["31", "0", "16", "2", "10", "11", "10", "1", "12", "22", "24", "25", "3", "4", "15", "15", "20", "20", "17", "7", "3", "10", "29", "29", "33", "33", "30"], "time": [681, 1569, 2611, 2677, 2944, 4594, 4627, 4678, 4895, 7898, 8247, 10393, 10477, 13112, 14048, 15896, 16741, 18346, 19333, 19894, 20511, 23229, 24069, 25012, 25411, 26263, 26610]}, "edge": {"target": [], "time": []}}}, "displayed_time": "31.76", "trialTime": 32674, "trial_type": "mouselab-mdp", "trial_index": 26, "time_elapsed": 1128992, "internal_node_id": "0.0-4.0-1.0-17.0"}}, {"uniqueid": "w33622262:a99291983", "current_trial": 27, "dateTime": 1691072700641, "trialdata": {"revealed_states": [], "clicked_states": ["15", "10", "25"], "num_clicks_accrued": [0, 0, 0, 0, 0, 0, 0, 0, 0, 0, 0, 0, 0], "stateRewards": ["", -2, -3, 8, -4, -30, 31, 69, 9, 66, 87, 64, -2, 2, 8, 5, 47, 16, -39, -8, -54, 51, -19, 1, -2, -2, -11, -25, -26, 43, -9, 19, -84, 86], "withholdReward": false, "trial_id": "mdp_trial_19", "block": "test", "trialIndex": 20, "score": 46.8, "costs": -4.199999999999999, "simulationMode": [null, null, null, null, null], "rewards": [-2, 2, 8, -8, 51], "path": ["0", "0", "12", "13", "14", "19", "21"], "rt": [11314, 135, 139, 375, 97], "actions": ["right", "right", "right", "down", "down"], "actionTimes": [12672, 13310, 13945, 14814, 15420], "queries": {"click": {"state": {"target": ["15", "10", "25"], "time": [2269, 4269, 6224]}, "edge": {"target": [], "time": []}}, "mouseover": {"state": {"target": ["18", "15", "18", "1", "10", "10", "28", "25", "24"], "time": [1705, 2039, 2722, 2788, 3088, 3372, 4923, 5221, 8305]}, "edge": {"target": [], "time": []}}, "mouseout": {"state": {"target": ["33", "30", "24", "23", "18", "15", "18", "1", "10", "10", "10", "28", "25", "24"], "time": [544, 571, 604, 620, 1721, 2492, 2740, 3038, 3122, 4492, 4873, 4971, 8289, 8321]}, "edge": {"target": [], "time": []}}}, "displayed_time": "15.94", "trialTime": 16727, "trial_type": "mouselab-mdp", "trial_index": 27, "time_elapsed": 1145902, "internal_node_id": "0.0-4.0-1.0-18.0"}}, {"uniqueid": "w33622262:a99291983", "current_trial": 28, "dateTime": 1691072741120, "trialdata": {"revealed_states": [], "clicked_states": ["23", "14", "3", "11", "33", "6", "15", "13", "26", "31", "32", "21", "20", "7", "10"], "num_clicks_accrued": [0, 0, 0, 0, 0, 0, 0, 0, 0, 0, 0, 0, 0], "stateRewards": ["", -2, 4, 3, 5, -61, 4, 30, 1, -47, 83, 10, 1, 4, 7, -14, 19, -74, -83, 6, -2, -2, -65, -1, -2, 4, -11, 12, -1, -68, 11, -38, -28, 66], "withholdReward": false, "trial_id": "mdp_trial_20", "block": "test", "trialIndex": 21, "score": -4.9999999999999964, "costs": -20.999999999999996, "simulationMode": [null, null, null, null, null], "rewards": [1, 4, 7, 6, -2], "path": ["0", "0", "12", "13", "14", "19", "21"], "rt": [34805, 95, 36, 653, 15], "actions": ["right", "right", "right", "down", "down"], "actionTimes": [36317, 36909, 37435, 38600, 39112], "queries": {"click": {"state": {"target": ["23", "14", "3", "11", "33", "6", "15", "13", "26", "31", "32", "21", "20", "7", "10"], "time": [3480, 5379, 7374, 9334, 11507, 13766, 16626, 19138, 21160, 23178, 25173, 27428, 29466, 31367, 33556]}, "edge": {"target": [], "time": []}}, "mouseover": {"state": {"target": ["23", "0", "12", "15", "14", "18", "7", "3", "8", "11", "26", "25", "33", "30", "23", "7", "6", "15", "13", "12", "28", "26", "24", "31", "32", "21", "20", "13", "12", "7", "2", "10", "2", "4", "5", "4"], "time": [3249, 4181, 4281, 4547, 4848, 6032, 6315, 6648, 7847, 8164, 9881, 10131, 10380, 12299, 12330, 12598, 12648, 15849, 18916, 19630, 19980, 20381, 22380, 22696, 24815, 27132, 28314, 30230, 30249, 30631, 32965, 33047, 35013, 35065, 35464, 35679]}, "edge": {"target": [], "time": []}}, "mouseout": {"state": {"target": ["12", "0", "23", "0", "12", "15", "14", "18", "7", "3", "8", "11", "26", "25", "33", "30", "23", "7", "6", "15", "13", "12", "28", "26", "24", "31", "31", "32", "21", "20", "13", "12", "7", "2", "10", "10", "2", "4", "5", "4"], "time": [848, 3115, 4164, 4248, 4515, 4614, 6014, 6064, 6365, 7831, 8131, 9831, 9897, 10164, 12297, 12314, 12347, 12613, 14815, 17414, 19352, 19647, 20014, 22297, 22464, 23402, 24631, 25380, 28064, 30197, 30247, 30263, 31585, 32979, 33769, 34697, 35030, 35430, 35664, 35714]}, "edge": {"target": [], "time": []}}}, "displayed_time": "39.63", "trialTime": 40299, "trial_type": "mouselab-mdp", "trial_index": 28, "time_elapsed": 1186381, "internal_node_id": "0.0-4.0-1.0-19.0"}}, {"uniqueid": "w33622262:a99291983", "current_trial": 29, "dateTime": 1691072791534, "trialdata": {"revealed_states": [], "clicked_states": ["27", "15", "30", "4", "21", "10", "9", "17", "29", "5", "7", "25", "12", "23", "13", "22", "20", "3", "11", "16", "32"], "num_clicks_accrued": [0, 0, 0, 0, 0, 0, 0, 0, 0, 0, 0, 0, 0], "stateRewards": ["", -1, 3, 8, 10, -86, 61, -36, 10, 17, -60, 24, -1, -3, 3, 11, 50, 60, 33, -3, -20, 58, -6, 1, -4, -4, 13, -70, -71, 43, 14, 52, 82, -11], "withholdReward": false, "trial_id": "mdp_trial_21", "block": "test", "trialIndex": 22, "score": 24.60000000000001, "costs": -29.399999999999988, "simulationMode": [null, null, null, null, null], "rewards": [-1, -3, 3, -3, 58], "path": ["0", "0", "12", "13", "14", "19", "21"], "rt": [44361, 67, 7, 321, 123], "actions": ["right", "right", "right", "down", "down"], "actionTimes": [46419, 46979, 47485, 48330, 48950], "queries": {"click": {"state": {"target": ["27", "15", "30", "4", "21", "10", "9", "17", "29", "5", "7", "25", "12", "23", "13", "22", "20", "3", "11", "16", "32"], "time": [2945, 4848, 6786, 8785, 10913, 13003, 15339, 17727, 19595, 22242, 25121, 26949, 28938, 30810, 32769, 34398, 36210, 37806, 39669, 41385, 43465]}, "edge": {"target": [], "time": []}}, "mouseover": {"state": {"target": ["27", "18", "15", "14", "30", "33", "30", "23", "1", "7", "4", "7", "18", "13", "19", "21", "22", "12", "2", "10", "8", "9", "17", "17", "15", "24", "29", "3", "5", "4", "7", "1", "23", "24", "25", "24", "23", "12", "0", "23", "22", "13", "22", "19", "20", "14", "3", "8", "11", "8", "4", "6", "16", "1", "33", "32", "33"], "time": [2681, 3692, 3775, 5375, 5992, 6326, 6542, 7408, 7442, 7659, 8063, 9827, 9875, 10111, 10159, 10560, 11592, 11859, 12192, 12342, 14626, 15077, 16776, 17493, 18176, 18476, 18825, 21125, 21676, 24594, 24851, 25625, 25659, 25942, 26275, 27878, 27909, 28425, 29392, 29759, 31360, 31926, 33159, 35158, 35842, 36775, 37109, 38328, 38643, 40492, 40529, 40558, 40842, 41976, 42275, 42792, 44475]}, "edge": {"target": [], "time": []}}, "mouseout": {"state": {"target": ["7", "27", "18", "15", "15", "14", "30", "33", "30", "23", "1", "7", "4", "7", "18", "13", "19", "21", "22", "12", "2", "10", "8", "9", "17", "17", "15", "24", "29", "3", "5", "4", "7", "1", "23", "24", "25", "24", "23", "12", "0", "23", "22", "13", "22", "19", "20", "14", "3", "8", "11", "8", "4", "6", "16", "16", "1", "33", "32"], "time": [667, 3409, 3725, 5062, 5359, 5392, 6009, 6359, 7376, 7426, 7642, 7676, 9825, 9843, 10109, 10126, 10444, 11122, 11609, 11875, 12243, 14590, 14977, 16410, 17195, 18175, 18193, 18492, 20809, 21142, 24410, 24675, 25609, 25643, 25675, 26042, 27876, 27892, 27943, 29375, 29459, 31292, 31892, 33142, 35142, 35209, 36417, 36793, 38030, 38375, 40475, 40510, 40543, 40593, 41588, 41942, 41992, 42309, 43683]}, "edge": {"target": [], "time": []}}}, "displayed_time": "49.44", "trialTime": 50242, "trial_type": "mouselab-mdp", "trial_index": 29, "time_elapsed": 1236795, "internal_node_id": "0.0-4.0-1.0-20.0"}}, {"uniqueid": "w33622262:a99291983", "current_trial": 30, "dateTime": 1691072814969, "trialdata": {"revealed_states": [], "clicked_states": ["2", "26", "30", "19", "16", "9"], "num_clicks_accrued": [0, 0, 0, 0, 0, 0, 0, 0, 0, 0, 0, 0, 0], "stateRewards": ["", -2, 3, 8, -9, 59, 41, -50, -1, 82, 66, 33, 2, -2, 7, 8, 1, -38, 12, -16, 24, -37, 67, 1, 4, -2, 5, 35, -83, 28, 8, -27, 69, -64], "withholdReward": false, "trial_id": "mdp_trial_22", "block": "test", "trialIndex": 23, "score": -54.4, "costs": -8.4, "simulationMode": [null, null, null, null, null], "rewards": [2, -2, 7, -16, -37], "path": ["0", "0", "12", "13", "14", "19", "21"], "rt": [13933, 108, 1229, 2753, 108], "actions": ["right", "right", "right", "down", "down"], "actionTimes": [15334, 15954, 17674, 20917, 21521], "queries": {"click": {"state": {"target": ["2", "26", "30", "19", "16", "9"], "time": [2429, 4244, 6266, 8303, 10406, 12374]}, "edge": {"target": [], "time": []}}, "mouseover": {"state": {"target": ["1", "2", "28", "26", "25", "30", "12", "13", "14", "19", "14", "15", "16", "8", "9", "11", "10"], "time": [1813, 2096, 2745, 2764, 4845, 5295, 7061, 7094, 7379, 7880, 9395, 9428, 9845, 11578, 11894, 13212, 14644]}, "edge": {"target": [], "time": []}}, "mouseout": {"state": {"target": ["33", "24", "23", "0", "1", "2", "28", "26", "25", "30", "12", "13", "14", "19", "14", "15", "16", "8", "9", "11", "10", "12", "13", "19", "14"], "time": [579, 627, 883, 1062, 1845, 2729, 2762, 4829, 4878, 6483, 7078, 7361, 7394, 9378, 9412, 9761, 11244, 11594, 12862, 14618, 14662, 18713, 19080, 20063, 20513]}, "edge": {"target": [], "time": []}}}, "displayed_time": "22.01", "trialTime": 23246, "trial_type": "mouselab-mdp", "trial_index": 30, "time_elapsed": 1260231, "internal_node_id": "0.0-4.0-1.0-21.0"}}, {"uniqueid": "w33622262:a99291983", "current_trial": 31, "dateTime": 1691072870269, "trialdata": {"revealed_states": [], "clicked_states": ["18", "27", "30", "19", "15", "4", "11", "10", "5", "29", "17", "33", "2", "6", "24", "1", "22", "20", "21", "14", "12", "26", "25"], "num_clicks_accrued": [0, 0, 0, 0, 0, 0, 0, 0, 0, 0, 0, 0, 0], "stateRewards": ["", 1, -3, -1, 9, -34, -40, 22, -7, 45, 53, -11, 2, 4, 5, 15, 21, 37, -49, -3, 80, -28, -34, 1, -3, 1, 1, -40, -6, -5, -16, -85, -86, 59], "withholdReward": false, "trial_id": "mdp_trial_23", "block": "test", "trialIndex": 24, "score": -135.2, "costs": -32.19999999999999, "simulationMode": [null, null, null, null, null], "rewards": [1, -3, 1, -16, -86], "path": ["0", "0", "23", "24", "25", "30", "32"], "rt": [49920, 105, 44, 379, 93], "actions": ["left", "left", "left", "down", "down"], "actionTimes": [51227, 51827, 52365, 53251, 53849], "queries": {"click": {"state": {"target": ["18", "27", "30", "19", "15", "4", "11", "10", "5", "29", "17", "33", "2", "6", "24", "1", "22", "20", "21", "14", "12", "26", "25"], "time": [3038, 5228, 7114, 8698, 10672, 12572, 14851, 16427, 18373, 20650, 23037, 25164, 27824, 29999, 31978, 33986, 35647, 37626, 39531, 41775, 43797, 46503, 48557]}, "edge": {"target": [], "time": []}}, "mouseover": {"state": {"target": ["18", "2", "10", "27", "26", "25", "30", "19", "14", "15", "4", "3", "8", "11", "10", "3", "5", "8", "27", "29", "26", "16", "17", "13", "31", "30", "33", "25", "28", "2", "2", "7", "6", "18", "12", "23", "24", "10", "1", "12", "22", "20", "21", "19", "14", "13", "12", "0", "23", "26", "25"], "time": [2814, 3437, 3470, 3854, 5770, 5821, 6437, 8321, 9553, 9621, 11503, 13437, 13487, 14587, 16105, 17087, 17421, 19053, 19104, 19470, 21306, 21638, 22204, 23521, 23820, 24103, 24504, 25736, 25971, 26538, 27557, 28570, 29687, 30554, 30821, 31137, 31220, 33571, 33686, 34660, 34987, 36670, 38553, 41187, 41506, 42237, 42654, 45654, 45687, 46021, 47421]}, "edge": {"target": [], "time": []}}, "mouseout": {"state": {"target": ["12", "0", "18", "2", "10", "27", "26", "25", "30", "19", "14", "15", "4", "3", "8", "11", "10", "3", "5", "8", "27", "29", "26", "16", "17", "13", "31", "30", "33", "25", "28", "2", "2", "7", "6", "18", "12", "23", "24", "10", "1", "12", "22", "20", "21", "19", "14", "13", "12", "0", "23", "26", "25"], "time": [903, 987, 3243, 3454, 3704, 5754, 5787, 6104, 7325, 9538, 9570, 11170, 12792, 13470, 14569, 15420, 17070, 17103, 19037, 19070, 19403, 21304, 21321, 21654, 23247, 23538, 24087, 24137, 25703, 25755, 25987, 26588, 28536, 29438, 30214, 30570, 30853, 31154, 32191, 33671, 34638, 34687, 35859, 38237, 41165, 41222, 42221, 42270, 45639, 45670, 45958, 47088, 48774]}, "edge": {"target": [], "time": []}}}, "displayed_time": "54.34", "trialTime": 55106, "trial_type": "mouselab-mdp", "trial_index": 31, "time_elapsed": 1315531, "internal_node_id": "0.0-4.0-1.0-22.0"}}, {"uniqueid": "w33622262:a99291983", "current_trial": 32, "dateTime": 1691072887585, "trialdata": {"revealed_states": [], "clicked_states": ["15", "27"], "num_clicks_accrued": [0, 0, 0, 0, 0, 0, 0, 0, 0, 0, 0, 0, 0], "stateRewards": ["", -1, -1, 7, -15, -43, -21, -84, -9, -45, -66, 2, 1, -2, 2, 8, -27, 44, -52, -5, -84, 11, 53, 1, 4, -4, 16, 83, -82, -15, -16, 68, -43, 81], "withholdReward": false, "trial_id": "mdp_trial_24", "block": "test", "trialIndex": 25, "score": -60.8, "costs": -2.8, "simulationMode": [null, null, null, null, null], "rewards": [1, 4, -4, -16, -43], "path": ["0", "0", "23", "24", "25", "30", "32"], "rt": [8330, 54, 92, 484, 64], "actions": ["left", "left", "left", "down", "down"], "actionTimes": [9822, 10390, 11011, 11987, 12550], "queries": {"click": {"state": {"target": ["15", "27"], "time": [2947, 4915]}, "edge": {"target": [], "time": []}}, "mouseover": {"state": {"target": ["16", "15", "7", "27", "27", "26", "30", "32"], "time": [1985, 2752, 3586, 4135, 4653, 5668, 6252, 7187]}, "edge": {"target": [], "time": []}}, "mouseout": {"state": {"target": ["25", "24", "23", "0", "16", "15", "7", "27", "27", "26", "30"], "time": [687, 736, 852, 1894, 2270, 3160, 3602, 4268, 5635, 5919, 6385]}, "edge": {"target": [], "time": []}}}, "displayed_time": "15.49", "trialTime": 17134, "trial_type": "mouselab-mdp", "trial_index": 32, "time_elapsed": 1332846, "internal_node_id": "0.0-4.0-1.0-23.0"}}, {"uniqueid": "w33622262:a99291983", "current_trial": 33, "dateTime": 1691072904402, "trialdata": {"revealed_states": [], "clicked_states": ["16"], "num_clicks_accrued": [0, 0, 0, 0, 0, 0, 0, 0, 0, 0, 0, 0, 0], "stateRewards": ["", 1, 3, 1, -13, 52, -28, 67, -14, 3, 63, -70, -1, -4, 7, -11, -10, 47, -18, 6, 69, -9, -61, 2, 3, -6, 10, 63, -34, 40, -6, -79, -35, -32], "withholdReward": false, "trial_id": "mdp_trial_25", "block": "test", "trialIndex": 26, "score": -2.4000000000000004, "costs": -1.4, "simulationMode": [null, null, null, null, null], "rewards": [-1, -4, 7, 6, -9], "path": ["0", "0", "12", "13", "14", "19", "21"], "rt": [8166, 459, 2, 335, 132], "actions": ["right", "right", "right", "down", "down"], "actionTimes": [9873, 10827, 11321, 12169, 12800], "queries": {"click": {"state": {"target": ["16"], "time": [2936]}, "edge": {"target": [], "time": []}}, "mouseover": {"state": {"target": ["16", "3", "8", "11", "10", "1", "10", "10"], "time": [2684, 3449, 3683, 3966, 4932, 5869, 6116, 7667]}, "edge": {"target": [], "time": []}}, "mouseout": {"state": {"target": ["32", "12", "0", "16", "3", "8", "11", "10", "1", "10"], "time": [666, 1067, 2101, 3143, 3667, 3717, 4918, 4967, 6084, 6150]}, "edge": {"target": [], "time": []}}}, "displayed_time": "15.71", "trialTime": 16633, "trial_type": "mouselab-mdp", "trial_index": 33, "time_elapsed": 1349663, "internal_node_id": "0.0-4.0-1.0-24.0"}}, {"uniqueid": "w33622262:a99291983", "current_trial": 34, "dateTime": 1691072934595, "trialdata": {"revealed_states": [], "clicked_states": ["29", "15", "31", "3", "6", "11", "21", "14", "33", "30", "28"], "num_clicks_accrued": [0, 0, 0, 0, 0, 0, 0, 0, 0, 0, 0, 0, 0], "stateRewards": ["", 2, 4, -6, -13, -75, -81, 30, 7, 5, 59, -65, -1, -1, 7, 14, -38, 36, -41, 1, -54, -5, 64, 2, -1, 5, 6, -19, 79, 11, 16, -33, -50, 58], "withholdReward": false, "trial_id": "mdp_trial_26", "block": "test", "trialIndex": 27, "score": -43.400000000000006, "costs": -15.400000000000002, "simulationMode": [null, null, null, null, null], "rewards": [2, -1, 5, 16, -50], "path": ["0", "0", "23", "24", "25", "30", "32"], "rt": [24074, 2, 30, 99, 132], "actions": ["left", "left", "left", "down", "down"], "actionTimes": [26111, 26619, 27162, 27779, 28414], "queries": {"click": {"state": {"target": ["29", "15", "31", "3", "6", "11", "21", "14", "33", "30", "28"], "time": [2941, 4864, 6830, 8757, 10673, 12558, 14431, 16607, 18600, 20565, 22776]}, "edge": {"target": [], "time": []}}, "mouseover": {"state": {"target": ["23", "24", "29", "1", "15", "12", "0", "31", "2", "3", "6", "4", "8", "11", "2", "14", "21", "19", "19", "14", "13", "12", "23", "30", "33", "30", "28", "24", "31"], "time": [2364, 2380, 2699, 3463, 3713, 5396, 5646, 6063, 7614, 8047, 9847, 11030, 11066, 11113, 12998, 13030, 13714, 15347, 15830, 16330, 17114, 17131, 17413, 17797, 18297, 19463, 22481, 23647, 24448]}, "edge": {"target": [], "time": []}}, "mouseout": {"state": {"target": ["10", "1", "0", "0", "23", "24", "29", "1", "15", "12", "0", "31", "2", "3", "6", "4", "3", "8", "11", "2", "14", "21", "19", "19", "14", "13", "12", "23", "30", "33", "30", "28", "24"], "time": [1030, 1096, 1363, 1713, 2379, 2397, 3397, 3496, 5363, 5414, 5663, 7330, 7630, 9247, 10887, 11047, 11064, 11080, 12996, 13014, 13047, 15030, 15398, 16309, 17098, 17130, 17147, 17430, 18248, 19347, 20786, 23631, 23663]}, "edge": {"target": [], "time": []}}}, "displayed_time": "28.92", "trialTime": 30008, "trial_type": "mouselab-mdp", "trial_index": 34, "time_elapsed": 1379856, "internal_node_id": "0.0-4.0-1.0-25.0"}}, {"uniqueid": "w33622262:a99291983", "current_trial": 35, "dateTime": 1691072952704, "trialdata": {"revealed_states": [], "clicked_states": ["16", "11", "26", "23", "12"], "num_clicks_accrued": [0, 0, 0, 0, 0, 0, 0, 0, 0, 0, 0, 0, 0], "stateRewards": ["", 1, -1, 8, -3, 38, 85, -20, -4, 8, 23, 73, 2, -4, 6, -13, 44, 7, -28, -11, -77, 45, -69, 1, -1, -7, -11, 75, -51, -87, 7, 36, -53, -26], "withholdReward": false, "trial_id": "mdp_trial_27", "block": "test", "trialIndex": 28, "score": 31, "costs": -7, "simulationMode": [null, null, null, null, null], "rewards": [2, -4, 6, -11, 45], "path": ["0", "0", "12", "13", "14", "19", "21"], "rt": [12766, 37, 70, 313, 39], "actions": ["right", "right", "right", "down", "down"], "actionTimes": [14136, 14695, 15278, 16089, 16630], "queries": {"click": {"state": {"target": ["16", "11", "26", "23", "12"], "time": [2263, 4159, 6326, 8818, 11569]}, "edge": {"target": [], "time": []}}, "mouseover": {"state": {"target": ["16", "8", "11", "26", "28", "23", "12"], "time": [2024, 2840, 3157, 5223, 8222, 8557, 11275]}, "edge": {"target": [], "time": []}}, "mouseout": {"state": {"target": ["31", "0", "16", "8", "11", "26", "28", "23", "12", "12"], "time": [640, 1604, 2472, 3073, 4873, 8207, 8241, 9028, 11780, 13123]}, "edge": {"target": [], "time": []}}}, "displayed_time": "17.16", "trialTime": 17909, "trial_type": "mouselab-mdp", "trial_index": 35, "time_elapsed": 1397965, "internal_node_id": "0.0-4.0-1.0-26.0"}}, {"uniqueid": "w33622262:a99291983", "current_trial": 36, "dateTime": 1691072975303, "trialdata": {"revealed_states": [], "clicked_states": ["19", "30", "26", "7", "9", "6"], "num_clicks_accrued": [0, 0, 0, 0, 0, 0, 0, 0, 0, 0, 0, 0, 0], "stateRewards": ["", 1, 1, -3, 7, 49, 78, 26, -5, 26, 48, -43, -1, -3, 2, -5, 4, -1, -60, 10, -35, 51, 81, -2, 1, -7, -5, -39, -86, -54, 4, -3, 74, 77], "withholdReward": false, "trial_id": "mdp_trial_28", "block": "test", "trialIndex": 29, "score": 50.6, "costs": -8.4, "simulationMode": [null, null, null, null, null], "rewards": [-1, -3, 2, 10, 51], "path": ["0", "0", "12", "13", "14", "19", "21"], "rt": [16894, 3, 135, 505, 138], "actions": ["right", "right", "right", "down", "down"], "actionTimes": [17939, 18441, 19105, 20109, 20741], "queries": {"click": {"state": {"target": ["19", "30", "26", "7", "9", "6"], "time": [2786, 4968, 8208, 10171, 12512, 15097]}, "edge": {"target": [], "time": []}}, "mouseover": {"state": {"target": ["13", "19", "19", "31", "30", "26", "26", "10", "2", "7", "3", "9", "6", "6"], "time": [1436, 1602, 2536, 4168, 4201, 6369, 7909, 8718, 8752, 9352, 11460, 12003, 14469, 14753]}, "edge": {"target": [], "time": []}}, "mouseout": {"state": {"target": ["0", "13", "19", "19", "31", "30", "26", "26", "10", "2", "7", "3", "9", "6"], "time": [635, 1519, 1853, 3485, 4184, 6177, 6418, 8684, 8735, 9018, 11435, 11801, 14136, 14501]}, "edge": {"target": [], "time": []}}}, "displayed_time": "21.25", "trialTime": 22402, "trial_type": "mouselab-mdp", "trial_index": 36, "time_elapsed": 1420564, "internal_node_id": "0.0-4.0-1.0-27.0"}}, {"uniqueid": "w33622262:a99291983", "current_trial": 37, "dateTime": 1691073033832, "trialdata": {"revealed_states": [], "clicked_states": ["15", "27", "33", "22", "4", "10", "16", "20", "9", "5", "31", "23", "12", "29", "7", "25", "28", "3", "1", "14", "32", "24", "30", "13", "21", "11"], "num_clicks_accrued": [0, 0, 0, 0, 0, 0, 0, 0, 0, 0, 0, 0, 0], "stateRewards": ["", -1, 1, -1, 2, 19, 85, -18, 2, -3, -26, 36, 2, 4, 7, -9, -18, 70, 72, -5, 35, -20, -28, 1, -2, -4, -3, -59, -11, -63, -2, -72, 59, -69], "withholdReward": false, "trial_id": "mdp_trial_29", "block": "test", "trialIndex": 30, "score": -50.399999999999984, "costs": -36.399999999999984, "simulationMode": [null, null, null, null, null], "rewards": [2, 4, 7, -9, -18], "path": ["0", "0", "12", "13", "14", "15", "16"], "rt": [52673, 3, 3, 170, 167], "actions": ["right", "right", "right", "up", "up"], "actionTimes": [54134, 54634, 55166, 55850, 56517], "queries": {"click": {"state": {"target": ["15", "27", "33", "22", "4", "10", "16", "20", "9", "5", "31", "23", "12", "29", "7", "25", "28", "3", "1", "14", "32", "24", "30", "13", "21", "11"], "time": [2473, 4394, 6299, 8133, 10013, 11875, 13773, 15621, 17483, 19406, 21254, 23080, 24860, 26963, 28576, 30849, 32779, 35481, 37361, 39217, 41694, 43358, 45269, 47439, 49468, 51838]}, "edge": {"target": [], "time": []}}, "mouseover": {"state": {"target": ["18", "15", "27", "26", "33", "30", "22", "22", "13", "18", "4", "2", "10", "2", "16", "20", "14", "8", "9", "5", "10", "24", "31", "23", "23", "12", "24", "25", "29", "26", "28", "7", "1", "23", "24", "25", "28", "2", "3", "2", "3", "2", "1", "15", "14", "13", "12", "31", "32", "31", "24", "30", "2", "4", "6", "18", "13", "19", "21", "22", "12", "8", "11"], "time": [1861, 1929, 3310, 4845, 5194, 6862, 7478, 7761, 9045, 9077, 9461, 10877, 10994, 12496, 12845, 14945, 16111, 16427, 16761, 18412, 19861, 20111, 20594, 21778, 22094, 23811, 25728, 26061, 26660, 27412, 27428, 28295, 29180, 29229, 29463, 29828, 31845, 33662, 33961, 34795, 35279, 36211, 36744, 37978, 38328, 39694, 39713, 40027, 40378, 42429, 43112, 44045, 45961, 46161, 46478, 46678, 47079, 48528, 49146, 50378, 50411, 51029, 51545]}, "edge": {"target": [], "time": []}}, "mouseout": {"state": {"target": ["6", "7", "1", "18", "15", "27", "26", "33", "30", "22", "22", "13", "18", "4", "2", "10", "2", "16", "20", "14", "8", "9", "5", "10", "24", "31", "23", "23", "12", "24", "25", "29", "26", "28", "7", "1", "23", "24", "25", "28", "2", "3", "2", "3", "2", "1", "15", "14", "13", "12", "31", "32", "31", "24", "30", "2", "4", "6", "18", "13", "19", "21", "22", "12", "8", "11"], "time": [629, 694, 1011, 1895, 2688, 4828, 4862, 6844, 6878, 7494, 9044, 9061, 9095, 10544, 10894, 12100, 12514, 14345, 15839, 16128, 16445, 18061, 19811, 19878, 20144, 21472, 21795, 23606, 25073, 25765, 26212, 27181, 27427, 27444, 29178, 29196, 29461, 29479, 31661, 32990, 33928, 34763, 35214, 36178, 36611, 37570, 38245, 39435, 39711, 39727, 40061, 42378, 42678, 43996, 45896, 45978, 46178, 46611, 46979, 47650, 48579, 49688, 50395, 50445, 51078, 52055]}, "edge": {"target": [], "time": []}}}, "displayed_time": "57.01", "trialTime": 58324, "trial_type": "mouselab-mdp", "trial_index": 37, "time_elapsed": 1479093, "internal_node_id": "0.0-4.0-1.0-28.0"}}, {"uniqueid": "w33622262:a99291983", "current_trial": 38, "dateTime": 1691073062971, "trialdata": {"revealed_states": [], "clicked_states": ["1", "25", "13", "17", "11", "2", "21", "16", "4", "33", "32", "27"], "num_clicks_accrued": [0, 0, 0, 0, 0, 0, 0, 0, 0, 0, 0, 0, 0], "stateRewards": ["", 2, 3, -2, -8, -8, -41, 74, 15, -23, -80, 1, 1, 3, 3, -15, -63, -78, 67, 13, 75, -41, 86, 2, -2, 6, -3, -8, -49, 50, -6, 83, 74, 80], "withholdReward": false, "trial_id": "mdp_trial_30", "block": "test", "trialIndex": 31, "score": 57.2, "costs": -16.8, "simulationMode": [null, null, null, null, null], "rewards": [2, -2, 6, -6, 74], "path": ["0", "0", "23", "24", "25", "30", "32"], "rt": [23552, 3, 7, 531, 36], "actions": ["left", "left", "left", "down", "down"], "actionTimes": [25086, 25591, 26112, 27151, 27706], "queries": {"click": {"state": {"target": ["1", "25", "13", "17", "11", "2", "21", "16", "4", "33", "32", "27"], "time": [2980, 5006, 7093, 9029, 10914, 12520, 14368, 16125, 17718, 19600, 21360, 23323]}, "edge": {"target": [], "time": []}}, "mouseover": {"state": {"target": ["1", "23", "24", "25", "24", "13", "15", "17", "2", "11", "8", "2", "19", "21", "14", "15", "16", "6", "4", "2", "24", "30", "33", "32", "24", "26", "27", "24"], "time": [2804, 3719, 3969, 4269, 5485, 5852, 7719, 8302, 9535, 9852, 11436, 12236, 13540, 13802, 15103, 15120, 15403, 16585, 16919, 18369, 18886, 18919, 19303, 20219, 22252, 22818, 22985, 23852]}, "edge": {"target": [], "time": []}}, "mouseout": {"state": {"target": ["1", "1", "23", "24", "25", "24", "13", "15", "17", "2", "11", "8", "2", "19", "21", "14", "15", "16", "6", "4", "2", "24", "30", "33", "32", "24", "26", "27", "24"], "time": [952, 3669, 3953, 4003, 5469, 5503, 7309, 7752, 9241, 9786, 11420, 11452, 12725, 13619, 14591, 15119, 15336, 16569, 16619, 18352, 18386, 18903, 18939, 20136, 21574, 22503, 22936, 23819, 23919]}, "edge": {"target": [], "time": []}}}, "displayed_time": "28.22", "trialTime": 28955, "trial_type": "mouselab-mdp", "trial_index": 38, "time_elapsed": 1508232, "internal_node_id": "0.0-4.0-1.0-29.0"}}, {"uniqueid": "w33622262:a99291983", "current_trial": 39, "dateTime": 1691073099371, "trialdata": {"revealed_states": [], "clicked_states": ["14", "8", "29", "32", "6", "9", "17", "24", "23", "22", "7", "2", "5", "33"], "num_clicks_accrued": [0, 0, 0, 0, 0, 0, 0, 0, 0, 0, 0, 0, 0], "stateRewards": ["", -1, 2, -2, 5, 80, -61, -27, 12, 44, -26, -75, -2, -4, 1, -16, 42, -49, -50, 4, -44, 2, 80, -2, -2, 5, -2, 59, 10, 24, 7, -48, -86, -44], "withholdReward": false, "trial_id": "mdp_trial_31", "block": "test", "trialIndex": 32, "score": -18.599999999999998, "costs": -19.599999999999998, "simulationMode": [null, null, null, null, null, null], "rewards": [-2, -4, 1, 4, 2], "path": ["0", "0", "12", "13", "14", "19", "21"], "rt": [28571, 197, 150, 521, 115, 99], "actions": ["right", "right", "right", "right", "down", "down"], "actionTimes": [31827, 32027, 32709, 33746, 34356, 34956], "queries": {"click": {"state": {"target": ["14", "8", "29", "32", "6", "9", "17", "24", "23", "22", "7", "2", "5", "33"], "time": [4138, 6153, 8219, 10201, 12177, 14059, 16854, 18768, 20684, 22744, 24581, 26990, 28914, 30753]}, "edge": {"target": [], "time": []}}, "mouseover": {"state": {"target": ["12", "17", "14", "18", "4", "3", "8", "29", "25", "30", "32", "31", "23", "6", "5", "9", "3", "7", "17", "18", "23", "24", "23", "23", "12", "13", "22", "7", "2", "4", "5", "8", "33"], "time": [3524, 3608, 3875, 4543, 4808, 4874, 5625, 7324, 8724, 9057, 9207, 10657, 10676, 11341, 12657, 12974, 14492, 14526, 15191, 17358, 17641, 17674, 19442, 19824, 21308, 21340, 21600, 23891, 26608, 27674, 27974, 29490, 30073]}, "edge": {"target": [], "time": []}}, "mouseout": {"state": {"target": ["24", "23", "12", "17", "14", "18", "4", "3", "8", "29", "29", "25", "30", "32", "31", "23", "6", "5", "9", "9", "3", "7", "17", "18", "23", "24", "23", "23", "12", "13", "22", "7", "2", "4", "5", "8"], "time": [2090, 2157, 3541, 3641, 4541, 4558, 4841, 5141, 6362, 8432, 8707, 8741, 9091, 10419, 10674, 10691, 12640, 12674, 14277, 14491, 14524, 14540, 17071, 17374, 17657, 18982, 19457, 21274, 21324, 21540, 22962, 26541, 27212, 27940, 29456, 29506]}, "edge": {"target": [], "time": []}}}, "displayed_time": "35.48", "trialTime": 36209, "trial_type": "mouselab-mdp", "trial_index": 39, "time_elapsed": 1544632, "internal_node_id": "0.0-4.0-1.0-30.0"}}, {"uniqueid": "w33622262:a99291983", "current_trial": 40, "dateTime": 1691073159019, "trialdata": {"revealed_states": [], "clicked_states": ["14", "8", "29", "21", "16", "5", "25", "32", "33", "13", "15", "10", "27", "23", "24", "4", "6", "3", "18", "31", "20", "22", "17", "11", "9"], "num_clicks_accrued": [0, 0, 0, 0, 0, 0, 0, 0, 0, 0, 0, 0, 0], "stateRewards": ["", 2, -1, -1, -9, -81, -30, 55, -6, 78, 25, 62, 2, 4, -1, 9, -85, 1, -19, 1, -60, 12, -34, 1, 4, -1, -13, -24, -16, -83, -8, 16, 43, 9], "withholdReward": false, "trial_id": "mdp_trial_32", "block": "test", "trialIndex": 33, "score": 4.000000000000014, "costs": -34.999999999999986, "simulationMode": [null, null, null, null, null], "rewards": [1, 4, -1, -8, 43], "path": ["0", "0", "23", "24", "25", "30", "32"], "rt": [54027, 69, 151, 227, 6], "actions": ["left", "left", "left", "down", "down"], "actionTimes": [55638, 56225, 56890, 57616, 58110], "queries": {"click": {"state": {"target": ["14", "8", "29", "21", "16", "5", "25", "32", "33", "13", "15", "10", "27", "23", "24", "4", "6", "3", "18", "31", "20", "22", "17", "11", "9"], "time": [2756, 4661, 6646, 9726, 11437, 13478, 15315, 17227, 19310, 20938, 24731, 26730, 28722, 30299, 33313, 35455, 37391, 38960, 41286, 43213, 45330, 47296, 49823, 51897, 53939]}, "edge": {"target": [], "time": []}}, "mouseover": {"state": {"target": ["14", "1", "10", "8", "27", "29", "25", "21", "21", "19", "15", "14", "19", "21", "19", "14", "15", "16", "6", "5", "5", "8", "26", "25", "30", "32", "33", "24", "13", "13", "28", "26", "29", "26", "28", "18", "15", "18", "2", "10", "27", "1", "23", "24", "1", "6", "4", "6", "3", "2", "1", "18", "0", "31", "30", "31", "13", "14", "20", "19", "22", "14", "17", "2", "11", "9"], "time": [2453, 3286, 3519, 3552, 5552, 5902, 7052, 7352, 7702, 8601, 8888, 9052, 9119, 9402, 10103, 10121, 10162, 10518, 12036, 12319, 12719, 13919, 14186, 14435, 15836, 16186, 17785, 19902, 20186, 20485, 22219, 22453, 23053, 23071, 23635, 24121, 24453, 25120, 25403, 25435, 28169, 29485, 29768, 33086, 33769, 34020, 34452, 36036, 38635, 39752, 40035, 41003, 41869, 42119, 42154, 42636, 43919, 44136, 44519, 45868, 46268, 48968, 49269, 50319, 50853, 53420]}, "edge": {"target": [], "time": []}}, "mouseout": {"state": {"target": ["33", "24", "23", "1", "14", "1", "10", "8", "27", "29", "25", "21", "21", "19", "15", "14", "19", "21", "19", "14", "15", "16", "6", "5", "5", "8", "26", "25", "30", "32", "33", "24", "13", "13", "28", "26", "29", "26", "28", "18", "15", "18", "2", "10", "27", "1", "23", "24", "1", "6", "4", "6", "4", "3", "2", "1", "18", "0", "31", "30", "31", "13", "14", "20", "19", "22", "14", "17", "2", "11"], "time": [685, 870, 901, 1164, 3237, 3302, 3535, 5519, 5785, 7036, 7069, 7369, 8587, 8619, 9020, 9068, 9354, 9943, 10119, 10136, 10419, 12003, 12286, 12336, 13691, 13936, 14202, 15819, 16119, 17736, 19524, 19919, 20219, 22152, 22452, 22485, 23069, 23618, 23737, 24288, 24941, 25152, 25418, 27836, 29420, 29519, 32219, 33735, 33786, 34335, 36019, 37595, 38335, 39735, 39786, 40370, 41836, 41919, 42135, 42503, 43423, 44120, 44153, 45835, 46185, 48950, 48985, 50268, 50352, 52109]}, "edge": {"target": [], "time": []}}}, "displayed_time": "58.62", "trialTime": 59454, "trial_type": "mouselab-mdp", "trial_index": 40, "time_elapsed": 1604280, "internal_node_id": "0.0-4.0-1.0-31.0"}}, {"uniqueid": "w33622262:a99291983", "current_trial": 41, "dateTime": 1691073179736, "trialdata": {"revealed_states": [], "clicked_states": ["1", "19", "30", "29", "27", "6"], "num_clicks_accrued": [0, 0, 0, 0, 0, 0, 0, 0, 0, 0, 0, 0, 0], "stateRewards": ["", -2, -4, -2, -13, -15, 87, -19, -6, -80, 30, 12, 1, 1, -8, 2, 55, 56, 15, 11, -68, -7, 55, -2, 3, -3, -3, 48, 62, 4, 1, -3, 69, -33], "withholdReward": false, "trial_id": "mdp_trial_33", "block": "test", "trialIndex": 34, "score": -10.4, "costs": -8.4, "simulationMode": [null, null, null, null, null], "rewards": [1, 1, -8, 11, -7], "path": ["0", "0", "12", "13", "14", "19", "21"], "rt": [13522, 10, 177, 1203, 3], "actions": ["right", "right", "right", "down", "down"], "actionTimes": [14974, 15501, 16200, 17911, 18411], "queries": {"click": {"state": {"target": ["1", "19", "30", "29", "27", "6"], "time": [2333, 4355, 5944, 7903, 10008, 13310]}, "edge": {"target": [], "time": []}}, "mouseover": {"state": {"target": ["1", "14", "19", "22", "23", "24", "30", "25", "26", "29", "27", "10", "4", "6", "6"], "time": [2107, 3139, 3522, 4776, 5056, 5090, 5656, 6922, 7140, 7607, 9691, 10756, 11006, 11273, 13033]}, "edge": {"target": [], "time": []}}, "mouseout": {"state": {"target": ["9", "8", "1", "14", "19", "22", "23", "24", "30", "25", "26", "29", "27", "10", "4", "6"], "time": [758, 806, 2545, 3423, 4564, 4793, 5072, 5356, 6163, 7072, 7523, 8776, 10228, 10773, 11272, 11339]}, "edge": {"target": [], "time": []}}}, "displayed_time": "18.92", "trialTime": 20524, "trial_type": "mouselab-mdp", "trial_index": 41, "time_elapsed": 1624998, "internal_node_id": "0.0-4.0-1.0-32.0"}}, {"uniqueid": "w33622262:a99291983", "current_trial": 42, "dateTime": 1691073236936, "trialdata": {"revealed_states": [], "clicked_states": ["13", "24", "8", "6", "33", "21", "11", "29", "17", "16", "14", "10", "25", "4", "3", "1", "23", "12", "19", "32", "31", "27"], "num_clicks_accrued": [0, 0, 0, 0, 0, 0, 0, 0, 0, 0, 0, 0, 0], "stateRewards": ["", -2, -1, -3, -1, -78, -6, 2, -1, 22, -88, 32, 2, 2, -7, -8, -51, -17, 54, 2, -44, 54, 75, 2, -2, -8, -15, -29, 12, -67, 15, -1, -47, -47], "withholdReward": false, "trial_id": "mdp_trial_34", "block": "test", "trialIndex": 35, "score": -92.79999999999998, "costs": -30.799999999999986, "simulationMode": [null, null, null, null, null], "rewards": [2, 2, -7, -8, -51], "path": ["0", "0", "12", "13", "14", "15", "16"], "rt": [47745, 110, 805, 1212, 145], "actions": ["right", "right", "right", "up", "up"], "actionTimes": [50255, 50888, 52182, 53888, 54540], "queries": {"click": {"state": {"target": ["13", "24", "8", "6", "33", "21", "11", "29", "17", "16", "14", "10", "25", "4", "3", "1", "23", "12", "19", "32", "31", "27"], "time": [3260, 5350, 7190, 9113, 11060, 13210, 15252, 17313, 20375, 22724, 25087, 28043, 30016, 31899, 34306, 36300, 38030, 40294, 42162, 44050, 46361, 48147]}, "edge": {"target": [], "time": []}}, "mouseover": {"state": {"target": ["13", "14", "14", "12", "23", "24", "28", "8", "3", "6", "7", "30", "33", "30", "21", "22", "12", "1", "10", "11", "26", "29", "12", "13", "14", "14", "17", "16", "15", "14", "10", "10", "28", "25", "28", "4", "5", "3", "2", "1", "23", "12", "22", "19", "31", "30", "32", "31", "24", "26", "27"], "time": [2943, 4043, 4127, 4193, 4443, 5027, 5776, 6059, 7660, 8044, 9511, 9826, 10109, 11476, 11793, 13827, 14110, 14359, 14392, 14676, 16309, 16878, 18927, 18958, 19193, 19527, 20060, 22260, 24392, 24686, 27062, 27729, 28609, 29159, 30442, 30709, 33509, 34026, 35276, 35559, 36792, 38519, 40975, 41809, 43025, 43408, 43759, 45793, 47360, 47709, 47809]}, "edge": {"target": [], "time": []}}, "mouseout": {"state": {"target": ["6", "7", "13", "14", "14", "13", "12", "23", "24", "28", "8", "3", "6", "7", "24", "30", "33", "30", "21", "22", "12", "1", "10", "11", "26", "29", "12", "13", "14", "14", "17", "16", "15", "14", "10", "10", "28", "25", "28", "4", "5", "3", "3", "2", "1", "1", "23", "12", "22", "19", "31", "30", "32", "31", "24", "26", "27", "27", "10", "2", "7", "16"], "time": [659, 759, 3470, 4059, 4143, 4177, 4410, 4660, 5565, 5813, 7403, 7677, 9510, 9526, 9792, 9875, 11284, 11493, 13759, 14093, 14126, 14377, 14426, 16276, 16693, 18643, 18943, 18992, 19208, 19577, 22160, 24361, 24427, 26726, 27093, 28559, 28909, 30231, 30459, 32114, 33826, 34526, 35209, 35359, 36517, 36759, 38476, 40942, 41642, 42374, 43058, 43576, 44255, 47342, 47375, 47775, 48353, 55761, 55892, 55910, 55941, 56195]}, "edge": {"target": [], "time": []}}}, "displayed_time": "55.04", "trialTime": 56993, "trial_type": "mouselab-mdp", "trial_index": 42, "time_elapsed": 1682197, "internal_node_id": "0.0-4.0-1.0-33.0"}}, {"uniqueid": "w33622262:a99291983", "current_trial": 43, "dateTime": 1691073260020, "trialdata": {"revealed_states": [], "clicked_states": ["16", "11", "29", "32", "21"], "num_clicks_accrued": [0, 0, 0, 0, 0, 0, 0, 0, 0, 0, 0, 0, 0], "stateRewards": ["", -1, -3, 1, -4, -48, -63, -49, -2, -84, -19, 65, 2, -2, -2, -12, -4, 59, 9, 6, 75, 69, -13, -1, -3, -3, -2, -37, -68, -36, 13, 32, 18, -14], "withholdReward": false, "trial_id": "mdp_trial_35", "block": "test", "trialIndex": 36, "score": 66, "costs": -7, "simulationMode": [null, null, null, null, null], "rewards": [2, -2, -2, 6, 69], "path": ["0", "0", "12", "13", "14", "19", "21"], "rt": [16863, 79, 66, 631, 175], "actions": ["right", "right", "right", "down", "down"], "actionTimes": [18624, 19215, 19800, 20933, 21610], "queries": {"click": {"state": {"target": ["16", "11", "29", "32", "21"], "time": [2894, 4821, 6744, 9669, 12082]}, "edge": {"target": [], "time": []}}, "mouseover": {"state": {"target": ["18", "16", "2", "10", "11", "26", "29", "25", "30", "32", "31", "22", "21", "19", "16", "15"], "time": [2302, 2350, 3389, 3417, 3718, 5416, 5733, 8100, 8134, 9384, 10466, 11116, 11484, 12950, 14052, 14300]}, "edge": {"target": [], "time": []}}, "mouseout": {"state": {"target": ["22", "18", "16", "2", "10", "11", "26", "29", "25", "30", "32", "31", "22", "21", "19", "16", "15"], "time": [800, 2333, 3370, 3402, 3717, 5367, 5700, 7584, 8117, 8167, 9876, 10766, 11384, 12294, 12967, 14284, 14316]}, "edge": {"target": [], "time": []}}}, "displayed_time": "22.12", "trialTime": 22886, "trial_type": "mouselab-mdp", "trial_index": 43, "time_elapsed": 1705282, "internal_node_id": "0.0-4.0-1.0-34.0"}}, {"uniqueid": "w33622262:a99291983", "current_trial": 44, "dateTime": 1691073279048, "trialdata": {"revealed_states": [], "clicked_states": ["15", "27", "33", "5"], "num_clicks_accrued": [0, 0, 0, 0, 0, 0, 0, 0, 0, 0, 0, 0, 0], "stateRewards": ["", 2, -3, -8, 14, -7, -51, 73, 2, 36, 36, -43, -1, 3, -4, 1, 6, 87, -65, 15, 61, -42, -83, -1, 3, -2, -7, 30, -48, 35, 13, 26, 60, 78], "withholdReward": false, "trial_id": "mdp_trial_36", "block": "test", "trialIndex": 37, "score": -34.6, "costs": -5.6, "simulationMode": [null, null, null, null, null], "rewards": [-1, 3, -4, 15, -42], "path": ["0", "0", "12", "13", "14", "19", "21"], "rt": [12702, 215, 66, 1216, 101], "actions": ["right", "right", "right", "down", "down"], "actionTimes": [13958, 14665, 15233, 16964, 17566], "queries": {"click": {"state": {"target": ["15", "27", "33", "5"], "time": [2357, 4329, 6349, 8846]}, "edge": {"target": [], "time": []}}, "mouseover": {"state": {"target": ["15", "27", "26", "25", "30", "33", "5", "15", "14", "19"], "time": [2148, 3415, 4798, 4815, 4849, 5297, 7712, 11047, 11464, 11980]}, "edge": {"target": [], "time": []}}, "mouseout": {"state": {"target": ["1", "0", "15", "27", "27", "26", "25", "30", "33", "5", "15", "14"], "time": [847, 1550, 2568, 4535, 4796, 4813, 4847, 5246, 6567, 10964, 11430, 11548]}, "edge": {"target": [], "time": []}}}, "displayed_time": "18.08", "trialTime": 18826, "trial_type": "mouselab-mdp", "trial_index": 44, "time_elapsed": 1724309, "internal_node_id": "0.0-4.0-1.0-35.0"}}, {"uniqueid": "w33622262:a99291983", "current_trial": 45, "dateTime": 1691073326389, "trialdata": {"revealed_states": [], "clicked_states": ["1", "11", "17", "25", "32", "21", "5", "3", "16", "29", "27", "2", "24", "33", "12", "18", "22", "20", "10", "28"], "num_clicks_accrued": [0, 0, 0, 0, 0, 0, 0, 0, 0, 0, 0, 0, 0], "stateRewards": ["", 2, 3, -1, 16, -78, -11, 46, 2, -20, 79, -67, 2, 3, 2, 11, -83, -42, -58, -11, -67, -22, 55, 2, -1, -1, -16, -83, -82, 23, -11, -29, 13, 13], "withholdReward": false, "trial_id": "mdp_trial_37", "block": "test", "trialIndex": 38, "score": -53.999999999999986, "costs": -27.99999999999999, "simulationMode": [null, null, null, null, null], "rewards": [2, 3, 2, -11, -22], "path": ["0", "0", "12", "13", "14", "19", "21"], "rt": [42052, 42, 84, 761, 89], "actions": ["right", "right", "right", "down", "down"], "actionTimes": [43204, 43745, 44336, 45596, 46174], "queries": {"click": {"state": {"target": ["1", "11", "17", "25", "32", "21", "5", "3", "16", "29", "27", "2", "24", "33", "12", "18", "22", "20", "10", "28"], "time": [3912, 5820, 7911, 9644, 11643, 14019, 15998, 17588, 19747, 21877, 23871, 25480, 27290, 29104, 30665, 32315, 33977, 36490, 39016, 40852]}, "edge": {"target": [], "time": []}}, "mouseover": {"state": {"target": ["1", "1", "10", "11", "7", "17", "17", "13", "12", "23", "24", "25", "30", "32", "21", "13", "18", "4", "5", "4", "3", "16", "7", "10", "27", "29", "26", "27", "10", "2", "24", "30", "33", "23", "12", "13", "13", "12", "18", "18", "13", "22", "19", "20", "19", "13", "1", "10", "28"], "time": [1634, 3634, 4301, 4668, 6650, 6917, 7217, 8634, 8885, 8917, 8951, 9317, 10634, 10984, 12634, 14550, 14583, 14840, 15200, 16644, 17284, 18583, 20184, 20451, 20517, 21574, 22616, 22867, 24916, 25116, 26684, 28400, 28700, 29667, 29883, 29902, 30166, 30367, 31667, 32051, 33284, 33601, 34834, 35100, 36918, 36934, 37200, 37250, 40051]}, "edge": {"target": [], "time": []}}, "mouseout": {"state": {"target": ["19", "12", "0", "1", "1", "10", "11", "7", "17", "17", "13", "12", "23", "24", "25", "25", "30", "32", "21", "13", "18", "4", "5", "4", "3", "16", "7", "10", "27", "29", "26", "27", "10", "2", "24", "24", "30", "33", "23", "12", "13", "13", "12", "18", "18", "13", "22", "19", "20", "19", "13", "1", "10", "28"], "time": [501, 550, 783, 1718, 4122, 4317, 6617, 6667, 6950, 8584, 8667, 8900, 8934, 9218, 9860, 10617, 10667, 12033, 14517, 14568, 14800, 14883, 16602, 16658, 18234, 20167, 20201, 20467, 21017, 22092, 22650, 24434, 24950, 26284, 27506, 28117, 28417, 29617, 29684, 29901, 29933, 30234, 31634, 31684, 33267, 33583, 34767, 35067, 36916, 36933, 36950, 37216, 39567, 41067]}, "edge": {"target": [], "time": []}}}, "displayed_time": "46.67", "trialTime": 47138, "trial_type": "mouselab-mdp", "trial_index": 45, "time_elapsed": 1771650, "internal_node_id": "0.0-4.0-1.0-36.0"}}, {"uniqueid": "w33622262:a99291983", "current_trial": 46, "dateTime": 1691073359760, "trialdata": {"revealed_states": [], "clicked_states": ["24", "4", "11", "21", "17", "29", "30", "32", "5", "9", "2", "10", "6"], "num_clicks_accrued": [0, 0, 0, 0, 0, 0, 0, 0, 0, 0, 0, 0, 0], "stateRewards": ["", -2, 3, 3, -14, 62, 36, 49, 16, 11, 17, -84, 2, -1, 6, 2, -82, -73, 49, -6, -87, 48, 50, -1, -2, -1, -16, -11, 37, -44, 4, 55, 73, -10], "withholdReward": false, "trial_id": "mdp_trial_38", "block": "test", "trialIndex": 39, "score": 30.8, "costs": -18.2, "simulationMode": [null, null, null, null, null, null], "rewards": [2, -1, 6, -6, 48], "path": ["0", "0", "12", "13", "14", "19", "21"], "rt": [25709, 156, 146, 76, 505, 105], "actions": ["right", "right", "right", "right", "down", "down"], "actionTimes": [28544, 28702, 29339, 29917, 30912, 31529], "queries": {"click": {"state": {"target": ["24", "4", "11", "21", "17", "29", "30", "32", "5", "9", "2", "10", "6"], "time": [4466, 6034, 8001, 9702, 11392, 12968, 15380, 17309, 18901, 20860, 22625, 24527, 27053]}, "edge": {"target": [], "time": []}}, "mouseover": {"state": {"target": ["23", "24", "7", "4", "3", "8", "11", "10", "13", "19", "21", "20", "17", "18", "1", "26", "29", "25", "30", "32", "24", "10", "3", "5", "9", "2", "10", "1", "7", "6", "6"], "time": [3389, 4256, 5223, 5639, 6739, 7006, 7057, 8507, 8590, 8842, 9307, 10306, 10607, 11857, 12106, 12423, 12706, 13490, 13907, 15989, 17823, 17856, 18073, 18423, 20140, 22106, 24172, 26324, 26356, 26373, 26741]}, "edge": {"target": [], "time": []}}, "mouseout": {"state": {"target": ["28", "0", "23", "24", "7", "4", "3", "8", "11", "10", "13", "19", "21", "20", "17", "18", "1", "26", "29", "25", "30", "32", "24", "10", "3", "5", "9", "9", "2", "10", "1", "7", "6", "6"], "time": [773, 3341, 3490, 4906, 5240, 6244, 6789, 7039, 8489, 8523, 8807, 9189, 10257, 10540, 11602, 11873, 12123, 12689, 13473, 13540, 15890, 17528, 17839, 17873, 18106, 19790, 21069, 21506, 24118, 24738, 26339, 26372, 26406, 27264]}, "edge": {"target": [], "time": []}}}, "displayed_time": "32.04", "trialTime": 33166, "trial_type": "mouselab-mdp", "trial_index": 46, "time_elapsed": 1805022, "internal_node_id": "0.0-4.0-1.0-37.0"}}, {"uniqueid": "w33622262:a99291983", "current_trial": 47, "dateTime": 1691073412797, "trialdata": {"revealed_states": [], "clicked_states": ["18", "29", "32", "5", "11", "27", "21", "17", "25", "2", "6", "3", "12", "23", "31", "33", "16", "10", "14", "20", "22", "13", "28", "1"], "num_clicks_accrued": [0, 0, 0, 0, 0, 0, 0, 0, 0, 0, 0, 0, 0], "stateRewards": ["", 1, 4, -8, -5, -15, -7, 21, 13, -30, 40, -65, 1, 1, 5, -14, 35, 27, -38, -11, 36, -58, -47, -2, 4, -3, 13, -16, -49, 22, 15, -56, -44, -10], "withholdReward": false, "trial_id": "mdp_trial_39", "block": "test", "trialIndex": 40, "score": -95.6, "costs": -33.59999999999999, "simulationMode": [null, null, null, null, null, null], "rewards": [1, 1, 5, -11, -58], "path": ["0", "0", "12", "13", "14", "19", "21"], "rt": [47645, 413, 34, 167, 66, 27], "actions": ["right", "right", "right", "right", "down", "down"], "actionTimes": [49033, 49448, 50014, 50695, 51278, 51840], "queries": {"click": {"state": {"target": ["18", "29", "32", "5", "11", "27", "21", "17", "25", "2", "6", "3", "12", "23", "31", "33", "16", "10", "14", "20", "22", "13", "28", "1"], "time": [2282, 4258, 6056, 7771, 9739, 11703, 13404, 15071, 17057, 18954, 20877, 22607, 24539, 26842, 29403, 31312, 33607, 35339, 36957, 39338, 41545, 43879, 45814, 47951]}, "edge": {"target": [], "time": []}}, "mouseover": {"state": {"target": ["12", "18", "26", "29", "30", "32", "0", "7", "4", "5", "8", "11", "27", "1", "19", "20", "21", "20", "17", "15", "1", "24", "25", "24", "23", "1", "2", "6", "3", "12", "23", "24", "31", "30", "33", "23", "18", "15", "16", "7", "2", "10", "1", "13", "14", "13", "20", "19", "22", "13", "18", "13", "28", "1"], "time": [1694, 2012, 2945, 3262, 4744, 5032, 6628, 6877, 7144, 7428, 8561, 8611, 11045, 12178, 12428, 12461, 12745, 14195, 14495, 15544, 15828, 15911, 16177, 17545, 17580, 17812, 18428, 20464, 22078, 23711, 26127, 28779, 28861, 30179, 30579, 31811, 32062, 32361, 32394, 34128, 34147, 34961, 35961, 36278, 36561, 38612, 39045, 40761, 41278, 43044, 43098, 43494, 44627, 47612]}, "edge": {"target": [], "time": []}}, "mouseout": {"state": {"target": ["6", "7", "2", "1", "0", "12", "18", "26", "29", "29", "30", "32", "0", "7", "4", "5", "8", "11", "27", "1", "19", "20", "21", "20", "17", "15", "1", "24", "25", "24", "23", "1", "2", "6", "3", "2", "12", "23", "24", "31", "30", "33", "23", "18", "15", "16", "7", "2", "10", "1", "13", "14", "13", "20", "19", "22", "13", "18", "13", "28"], "time": [628, 660, 710, 927, 1678, 1728, 2499, 3212, 4474, 4712, 4778, 6561, 6647, 7128, 7161, 8528, 8578, 10678, 11908, 12195, 12445, 12661, 14178, 14444, 15528, 15561, 15844, 16144, 17528, 17561, 17595, 17828, 19944, 21445, 22819, 23344, 24756, 28345, 28811, 29618, 30194, 31762, 31828, 32329, 32378, 34111, 34145, 34162, 35928, 36228, 36545, 38245, 38628, 40728, 41244, 43028, 43078, 43462, 44227, 46025]}, "edge": {"target": [], "time": []}}}, "displayed_time": "52.33", "trialTime": 52807, "trial_type": "mouselab-mdp", "trial_index": 47, "time_elapsed": 1858058, "internal_node_id": "0.0-4.0-1.0-38.0"}}, {"uniqueid": "w33622262:a99291983", "current_trial": 48, "dateTime": 1691073449902, "trialdata": {"revealed_states": [], "clicked_states": ["27", "6", "32", "21", "17", "29", "2", "1", "12", "23", "5", "25", "14", "16", "28"], "num_clicks_accrued": [0, 0, 0, 0, 0, 0, 0, 0, 0, 0, 0, 0, 0], "stateRewards": ["", 1, -4, -6, -1, -21, 17, -72, 10, 77, 67, -46, -1, 4, -2, 14, -66, -49, -45, -15, -52, 23, -67, 2, -2, -2, 15, -3, 45, -64, 5, -44, 83, 61], "withholdReward": false, "trial_id": "mdp_trial_40", "block": "test", "trialIndex": 41, "score": -12, "costs": -20.999999999999996, "simulationMode": [null, null, null, null, null], "rewards": [-1, 4, -2, -15, 23], "path": ["0", "0", "12", "13", "14", "19", "21"], "rt": [32073, 155, 293, 53, 104], "actions": ["right", "right", "right", "down", "down"], "actionTimes": [33438, 34092, 34880, 35423, 36040], "queries": {"click": {"state": {"target": ["27", "6", "32", "21", "17", "29", "2", "1", "12", "23", "5", "25", "14", "16", "28"], "time": [2342, 3980, 6908, 8663, 10720, 12936, 15234, 17181, 19128, 20993, 22882, 24407, 27733, 29679, 31596]}, "edge": {"target": [], "time": []}}, "mouseover": {"state": {"target": ["27", "10", "2", "4", "6", "6", "7", "1", "23", "31", "32", "22", "19", "21", "19", "17", "15", "18", "23", "24", "25", "29", "26", "28", "2", "1", "12", "13", "12", "0", "23", "7", "5", "24", "25", "24", "0", "12", "13", "14", "15", "16", "28"], "time": [2052, 2935, 2985, 3185, 3218, 3551, 4702, 4753, 5018, 5302, 6665, 7584, 7618, 8067, 9435, 9818, 11587, 11604, 11651, 11886, 11935, 12268, 14120, 14169, 14752, 16052, 17719, 17768, 18101, 19552, 19585, 21535, 22102, 23639, 23718, 25034, 25102, 25318, 25351, 26786, 28702, 28752, 30535]}, "edge": {"target": [], "time": []}}, "mouseout": {"state": {"target": ["1", "0", "27", "10", "2", "4", "6", "6", "6", "7", "1", "23", "31", "32", "22", "19", "21", "19", "17", "17", "15", "18", "23", "24", "25", "29", "26", "28", "2", "2", "1", "12", "13", "12", "0", "23", "7", "5", "24", "25", "24", "23", "0", "12", "13", "14", "15", "16"], "time": [518, 1051, 2919, 2968, 3168, 3202, 3235, 4192, 4685, 4719, 4985, 5052, 5335, 7127, 7602, 7635, 9418, 9452, 10929, 11585, 11602, 11618, 11668, 11919, 11968, 14119, 14135, 14419, 15457, 16018, 17702, 17752, 18051, 19340, 19568, 21501, 21551, 23370, 23669, 25018, 25052, 25085, 25118, 25335, 25635, 27945, 28735, 30168]}, "edge": {"target": [], "time": []}}}, "displayed_time": "36.55", "trialTime": 36885, "trial_type": "mouselab-mdp", "trial_index": 48, "time_elapsed": 1895163, "internal_node_id": "0.0-4.0-1.0-39.0"}}, {"uniqueid": "w33622262:a99291983", "current_trial": 49, "dateTime": 1691073508876, "trialdata": {"rt": 58969, "response": {"Q0": "$-16 to 16", "Q1": "$-32 to $32", "Q2": "$-88 to $88", "Q3": "The cost was always $1.4.", "Q4": "Slightly motivated"}, "question_order": [0, 1, 2, 3, 4], "trial_id": "final_quiz_control", "trial_type": "survey-multi-choice", "trial_index": 49, "time_elapsed": 1954137, "internal_node_id": "0.0-4.0-2.0"}}, {"uniqueid": "w33622262:a99291983", "current_trial": 50, "dateTime": 1691073678340, "trialdata": {"rt": 169455, "response": {"Q0": "I had no strategy but what I would do is when my first few clicks yielded high positive numbers, I would stop using the noke so that I do not press negative numbers, which would bring my total value\\ down.", "Q1": "No as the game went, I just kept on making less points. ", "Q2": "Very difficult because I was not able to pick any trend that would help me select the next best noke. "}, "trial_id": "self_report_control", "trial_type": "survey-text", "trial_index": 50, "time_elapsed": 2123602, "internal_node_id": "0.0-4.0-3.0"}}, {"uniqueid": "w33622262:a99291983", "current_trial": 51, "dateTime": 1691073700700, "trialdata": {"rt": 22234, "response": {"gender": "female", "age": "21", "colorblind": "0", "effort": "0"}, "trial_type": "survey-html-form", "trial_index": 51, "time_elapsed": 2145962, "internal_node_id": "0.0-4.0-4.0"}}, {"uniqueid": "w33622262:a99291983", "current_trial": 52, "dateTime": 1691073720690, "trialdata": {"rt": 19983, "response": {"Q0": "No", "Q1": "No", "Q2": "None"}, "trial_type": "survey-text", "trial_index": 52, "time_elapsed": 2165952, "internal_node_id": "0.0-4.0-5.0"}}, {"uniqueid": "w33622262:a99291983", "current_trial": 53, "dateTime": 1691073723407, "trialdata": {"rt": 2712, "stimulus": "Press 'Finish HIT' in order to reach the completion code. Once the data has been saved, you will receive the code either in this window or in the original browser window where you started the experiment.\n", "response": 0, "trial_type": "html-button-response", "trial_index": 53, "time_elapsed": 2168669, "internal_node_id": "0.0-5.0"}}, {"uniqueid": "w33622262:a99291983", "current_trial": 54, "dateTime": 1691073724452, "trialdata": {"success": true, "trial_type": "fullscreen", "trial_index": 54, "time_elapsed": 2169714