{"condition": 1, "counterbalance": 0, "assignmentId": "a36373858", "workerId": "w60047818", "hitId": "h66789717", "currenttrial": 56, "bonus": 0, "data": [{"uniqueid": "w60047818:a36373858", "current_trial": 0, "dateTime": 1691142110095, "trialdata": {"success": true, "trial_type": "fullscreen", "trial_index": 0, "time_elapsed": 2776, "internal_node_id": "0.0-0.0"}}, {"uniqueid": "w60047818:a36373858", "current_trial": 1, "dateTime": 1691142134282, "trialdata": {"view_history": [{"page_index": 0, "viewing_time": 24179}], "rt": 24181, "trial_id": "exp_instructions_misaligned", "trial_type": "instructions", "trial_index": 1, "time_elapsed": 26964, "internal_node_id": "0.0-1.0"}}, {"uniqueid": "w60047818:a36373858", "current_trial": 2, "dateTime": 1691142137024, "trialdata": {"success": true, "trial_type": "fullscreen", "trial_index": 2, "time_elapsed": 29706, "internal_node_id": "0.0-2.0-0.0"}}, {"uniqueid": "w60047818:a36373858", "current_trial": 3, "dateTime": 1691142453279, "trialdata": {"view_history": [{"page_index": 0, "viewing_time": 143539}, {"page_index": 1, "viewing_time": 81675}, {"page_index": 2, "viewing_time": 36083}, {"page_index": 3, "viewing_time": 54954}], "rt": 316251, "trial_id": "mouselab_instructions_1_misaligned", "trial_type": "instructions", "trial_index": 3, "time_elapsed": 345961, "internal_node_id": "0.0-2.0-1.0"}}, {"uniqueid": "w60047818:a36373858", "current_trial": 4, "dateTime": 1691142479890, "trialdata": {"revealed_states": [], "clicked_states": ["14"], "num_clicks_accrued": [0, 0, 0, 0, 0, 0, 0, 0, 0, 0, 0, 0, 0], "stateRewards": ["", -10, 10, 10, -10, 10, -10, -10, -10, -10, 10, -10, 10, 10, 10, 10, 10, 10, -10, 10, 10, -10, 10, 10, 10, 10, 10, -10, 10, -10, -10, 10, -10, 10], "withholdReward": false, "trial_id": "practice_1", "block": "test", "trialIndex": 0, "score": 33, "costs": -0.5, "simulationMode": [null, null, null, null, null], "rewards": [10, 10, 10, 10, -10], "path": ["0", "0", "12", "13", "14", "19", "21"], "rt": [5909, 354, 720, 4427, 403], "actions": ["right", "right", "right", "down", "down"], "actionTimes": [7488, 8354, 9568, 14492, 15388], "queries": {"click": {"state": {"target": ["14"], "time": [4807]}, "edge": {"target": [], "time": []}}, "mouseover": {"state": {"target": ["0", "14", "14"], "time": [1596, 3962, 4412]}, "edge": {"target": [], "time": []}}, "mouseout": {"state": {"target": ["7", "4", "10", "0", "14", "14"], "time": [null, null, 712, 2048, 3978, 5415]}, "edge": {"target": [], "time": []}}}, "displayed_time": "15.90", "trialTime": 25308, "trial_type": "mouselab-mdp", "trial_index": 4, "time_elapsed": 372572, "internal_node_id": "0.0-2.0-2.0-0.0"}}, {"uniqueid": "w60047818:a36373858", "current_trial": 5, "dateTime": 1691142497463, "trialdata": {"revealed_states": [], "clicked_states": ["2"], "num_clicks_accrued": [0, 0, 0, 0, 0, 0, 0, 0, 0, 0, 0, 0, 0], "stateRewards": ["", -10, -10, 10, -10, 10, 10, 10, -10, -10, 10, 10, -10, 10, 10, -10, -10, -10, 10, 10, 10, 10, 10, -10, -10, -10, -10, -10, -10, -10, 10, -10, -10, 10], "withholdReward": false, "trial_id": "practice_2", "block": "test", "trialIndex": 1, "score": -7, "costs": -0.5, "simulationMode": [null, null, null, null, null], "rewards": [-10, -10, 10, -10, 10], "path": ["0", "0", "1", "2", "3", "4", "6"], "rt": [3942, 297, 189, 949, 210], "actions": ["up", "up", "up", "right", "right"], "actionTimes": [7420, 8219, 8926, 10372, 11083], "queries": {"click": {"state": {"target": ["2"], "time": [5426]}, "edge": {"target": [], "time": []}}, "mouseover": {"state": {"target": ["2", "18"], "time": [5203, 5918]}, "edge": {"target": [], "time": []}}, "mouseout": {"state": {"target": ["14", "23", "24", "31", "31", "12", "0", "2", "18", "17", "17", "13", "12"], "time": [2303, 2353, 2368, 2452, 2586, 2853, 4852, 5718, 15284, 15701, 15717, 16084, 16337]}, "edge": {"target": [], "time": []}}}, "displayed_time": "11.57", "trialTime": 17454, "trial_type": "mouselab-mdp", "trial_index": 5, "time_elapsed": 390144, "internal_node_id": "0.0-2.0-2.0-1.0"}}, {"uniqueid": "w60047818:a36373858", "current_trial": 6, "dateTime": 1691142570881, "trialdata": {"view_history": [{"page_index": 0, "viewing_time": 58717}, {"page_index": 1, "viewing_time": 14696}], "rt": 73414, "trial_id": "mouselab_instructions_2_misaligned", "trial_type": "instructions", "trial_index": 6, "time_elapsed": 463563, "internal_node_id": "0.0-2.0-3.0"}}, {"uniqueid": "w60047818:a36373858", "current_trial": 7, "dateTime": 1691142620278, "trialdata": {"rt": 49392, "response": {"Q0": "The cost for clicking on nodes may vary between nodes.", "Q1": "The better I perform the higher my bonus will be.", "Q2": "No, the amount of cash at each node of the web may be different each time.", "Q3": "To get the highest total score.", "Q4": "Only before moving the spider.", "Q5": "3 seconds"}, "question_order": [0, 1, 2, 3, 4, 5], "correct": {"Q0": "The cost for clicking on nodes may vary between nodes.", "Q1": "The better I perform the higher my bonus will be.", "Q2": "No, the amount of cash at each node of the web may be different each time.", "Q3": "To get the highest total score.", "Q4": "Only before moving the spider.", "Q5": "3 seconds"}, "trial_id": "mouselab_quiz_misaligned", "trial_type": "survey-multi-choice", "trial_index": 7, "time_elapsed": 512960, "internal_node_id": "0.0-2.0-4.0"}}, {"uniqueid": "w60047818:a36373858", "current_trial": 8, "dateTime": 1691142636681, "trialdata": {"rt": 16393, "stimulus": "\n<h1> Get ready to start the game! </h1>\n\nThank you for reading the instructions. Get ready start with the 40 rounds of this game.\n<br><br>\nIf you need to take a break, feel free to take one after the end of a round, before continuing to the next one.\n<br><br>\nRemember, the more money the spider gets, the bigger your bonus will be!\n<br><br>\n<div style='text-align: center;'>Press <code>space</code> to begin.</div>\n\n<br><br>\n(If, at any point, the <code>space</code> key does not take you to the next page, click once on the text and try again.)", "response": " ", "trial_id": "mdp_ready", "trial_type": "html-keyboard-response", "trial_index": 8, "time_elapsed": 529363, "internal_node_id": "0.0-4.0-0.0"}}, {"uniqueid": "w60047818:a36373858", "current_trial": 9, "dateTime": 1691142660128, "trialdata": {"revealed_states": [], "clicked_states": [], "num_clicks_accrued": [0, 0, 0, 0, 0, 0, 0, 0, 0, 0, 0, 0, 0], "stateRewards": ["", -2, 3, -1, 2, -72, 63, 20, -1, 62, -66, 39, -2, 3, -6, 14, 22, 47, 1, 8, -49, -1, -41, 2, 2, -6, -16, -64, -60, -34, 16, 54, 22, -7], "withholdReward": false, "trial_id": "mdp_trial_1", "block": "test", "trialIndex": 2, "score": 38, "costs": 0, "simulationMode": [null, null, null, null, null], "rewards": [-2, 3, -1, -1, 39], "path": ["0", "0", "1", "2", "3", "8", "11"], "rt": [7424, 365, 341, 1105, 626], "actions": ["up", "up", "up", "left", "left"], "actionTimes": [10802, 11684, 12526, 14139, 15277], "queries": {"click": {"state": {"target": [], "time": []}, "edge": {"target": [], "time": []}}, "mouseover": {"state": {"target": ["1", "2", "3", "8", "10", "2"], "time": [5464, 6333, 6784, 7050, 8833, 9016]}, "edge": {"target": [], "time": []}}, "mouseout": {"state": {"target": ["28", "23", "0", "1", "2", "3", "8", "10", "2", "0", "23", "24", "25", "25"], "time": [1898, 2082, 3699, 6166, 6583, 6798, 8766, 8933, 9700, 19950, 20350, 20782, 20816, 20899]}, "edge": {"target": [], "time": []}}}, "displayed_time": "17.38", "trialTime": 23332, "trial_type": "mouselab-mdp", "trial_index": 9, "time_elapsed": 552809, "internal_node_id": "0.0-4.0-1.0-0.0"}}, {"uniqueid": "w60047818:a36373858", "current_trial": 10, "dateTime": 1691142679461, "trialdata": {"revealed_states": [], "clicked_states": ["14"], "num_clicks_accrued": [0, 0, 0, 0, 0, 0, 0, 0, 0, 0, 0, 0, 0], "stateRewards": ["", 2, 3, -1, 6, 44, -4, -59, -14, -3, 64, 16, 1, -3, 3, 6, 3, 49, 19, 3, -49, -14, -86, 1, 2, -3, -8, -33, 14, 32, -13, -77, -47, -67], "withholdReward": false, "trial_id": "mdp_trial_2", "block": "test", "trialIndex": 3, "score": -45.95, "costs": -0.95, "simulationMode": [null, null, null, null, null], "rewards": [1, -3, 3, 3, -49], "path": ["0", "0", "12", "13", "14", "19", "20"], "rt": [6376, 170, 124, 750, 169], "actions": ["right", "right", "right", "down", "right"], "actionTimes": [8346, 9035, 9672, 10916, 11601], "queries": {"click": {"state": {"target": ["14"], "time": [3674]}, "edge": {"target": [], "time": []}}, "mouseover": {"state": {"target": ["0", "12", "13", "14"], "time": [2156, 2547, 3146, 3447]}, "edge": {"target": [], "time": []}}, "mouseout": {"state": {"target": ["0", "0", "12", "13", "14", "14", "13", "13"], "time": [1578, 2496, 2580, 3379, 3790, 4095, 18046, 18062]}, "edge": {"target": [], "time": []}}}, "displayed_time": "15.97", "trialTime": 19212, "trial_type": "mouselab-mdp", "trial_index": 10, "time_elapsed": 572142, "internal_node_id": "0.0-4.0-1.0-1.0"}}, {"uniqueid": "w60047818:a36373858", "current_trial": 11, "dateTime": 1691142700901, "trialdata": {"revealed_states": [], "clicked_states": ["28"], "num_clicks_accrued": [0, 0, 0, 0, 0, 0, 0, 0, 0, 0, 0, 0, 0], "stateRewards": ["", -1, 3, -4, -14, 78, 67, 2, 13, -32, 28, 39, -2, 1, -4, -4, -4, -42, -86, 11, 64, -29, -32, -1, -4, 2, -7, 5, 68, -61, 2, -21, 85, 50], "withholdReward": false, "trial_id": "mdp_trial_3", "block": "test", "trialIndex": 4, "score": 55.85, "costs": -2.15, "simulationMode": [null, null, null, null, null], "rewards": [-1, -4, 2, -7, 68], "path": ["0", "0", "23", "24", "25", "26", "28"], "rt": [8588, 196, 286, 447, 268], "actions": ["left", "left", "left", "up", "right"], "actionTimes": [10552, 11258, 12048, 13009, 13794], "queries": {"click": {"state": {"target": ["28"], "time": [4421]}, "edge": {"target": [], "time": []}}, "mouseover": {"state": {"target": ["1", "10", "28"], "time": [3144, 3627, 3860]}, "edge": {"target": [], "time": []}}, "mouseout": {"state": {"target": ["27", "30", "31", "0", "1", "10", "28", "1", "0"], "time": [927, 1107, 1359, 1824, 3427, 3810, 5041, 19076, 19461]}, "edge": {"target": [], "time": []}}}, "displayed_time": "15.96", "trialTime": 21315, "trial_type": "mouselab-mdp", "trial_index": 11, "time_elapsed": 593582, "internal_node_id": "0.0-4.0-1.0-2.0"}}, {"uniqueid": "w60047818:a36373858", "current_trial": 12, "dateTime": 1691142724327, "trialdata": {"revealed_states": [], "clicked_states": ["31"], "num_clicks_accrued": [0, 0, 0, 0, 0, 0, 0, 0, 0, 0, 0, 0, 0], "stateRewards": ["", -1, -3, -6, 14, 41, 18, 63, -14, 80, 21, 17, -2, -4, -2, -5, 13, 70, 8, -4, -64, -10, -20, 2, -1, 4, -1, -17, -55, 42, -7, 47, 54, 15], "withholdReward": false, "trial_id": "mdp_trial_4", "block": "test", "trialIndex": 5, "score": 42.85, "costs": -2.15, "simulationMode": [null, null, null, null, null], "rewards": [2, -1, 4, -7, 47], "path": ["0", "0", "23", "24", "25", "30", "31"], "rt": [6925, 211, 152, 302, 178], "actions": ["left", "left", "left", "down", "right"], "actionTimes": [9319, 10043, 10715, 11533, 12224], "queries": {"click": {"state": {"target": ["31"], "time": [4829]}, "edge": {"target": [], "time": []}}, "mouseover": {"state": {"target": ["0", "23", "31", "31"], "time": [2912, 3012, 3179, 3629]}, "edge": {"target": [], "time": []}}, "mouseout": {"state": {"target": ["0", "0", "23", "31", "31"], "time": [2284, 2945, 3045, 3262, 19988]}, "edge": {"target": [], "time": []}}}, "displayed_time": "16.40", "trialTime": 23294, "trial_type": "mouselab-mdp", "trial_index": 12, "time_elapsed": 617008, "internal_node_id": "0.0-4.0-1.0-3.0"}}, {"uniqueid": "w60047818:a36373858", "current_trial": 13, "dateTime": 1691142744729, "trialdata": {"revealed_states": [], "clicked_states": [], "num_clicks_accrued": [0, 0, 0, 0, 0, 0, 0, 0, 0, 0, 0, 0, 0], "stateRewards": ["", 1, 1, 6, -14, -40, 37, 16, -13, 33, -68, 49, 2, 4, 3, 6, 55, 27, 32, 10, -65, 20, -87, 2, 1, -6, -5, -42, 12, 29, -8, 16, 76, -33], "withholdReward": false, "trial_id": "mdp_trial_5", "block": "test", "trialIndex": 6, "score": 65, "costs": 0, "simulationMode": [null, null, null, null, null], "rewards": [2, 1, -6, -8, 76], "path": ["0", "0", "23", "24", "25", "30", "32"], "rt": [9018, 583, 270, 441, 308], "actions": ["left", "left", "left", "down", "down"], "actionTimes": [11815, 12915, 13704, 14657, 15475], "queries": {"click": {"state": {"target": [], "time": []}, "edge": {"target": [], "time": []}}, "mouseover": {"state": {"target": ["23", "24", "25", "25", "28", "11", "9", "3", "12", "0", "12", "13", "31", "33"], "time": [3164, 3199, 3214, 4198, 4549, 5282, 6281, 8215, 8465, 8532, 8698, 8781, 8998, 9030]}, "edge": {"target": [], "time": []}}, "mouseout": {"state": {"target": ["23", "0", "23", "24", "25", "25", "28", "11", "9", "3", "12", "0", "12", "13", "31", "33", "31"], "time": [1564, 3148, 3197, 3213, 3230, 4248, 4998, 6164, 8149, 8248, 8498, 8635, 8748, 8949, 9014, 9047, 18732]}, "edge": {"target": [], "time": []}}}, "displayed_time": "16.80", "trialTime": 20265, "trial_type": "mouselab-mdp", "trial_index": 13, "time_elapsed": 637410, "internal_node_id": "0.0-4.0-1.0-4.0"}}, {"uniqueid": "w60047818:a36373858", "current_trial": 14, "dateTime": 1691142765446, "trialdata": {"revealed_states": [], "clicked_states": ["16"], "num_clicks_accrued": [0, 0, 0, 0, 0, 0, 0, 0, 0, 0, 0, 0, 0], "stateRewards": ["", -2, 2, 5, -14, -56, 64, 84, -5, 52, 39, 85, -2, 1, 7, 8, 21, 29, -78, -9, -10, -69, 10, -2, -1, -7, 15, 72, 20, 41, -2, 52, 80, 22], "withholdReward": false, "trial_id": "mdp_trial_6", "block": "test", "trialIndex": 7, "score": 4.85, "costs": -2.15, "simulationMode": [null, null, null, null, null], "rewards": [-2, 1, 7, -9, 10], "path": ["0", "0", "12", "13", "14", "19", "22"], "rt": [6220, 153, 98, 460, 288], "actions": ["right", "right", "right", "down", "left"], "actionTimes": [7886, 8558, 9170, 10148, 10944], "queries": {"click": {"state": {"target": ["16"], "time": [3304]}, "edge": {"target": [], "time": []}}, "mouseover": {"state": {"target": ["23", "16"], "time": [2037, 3102]}, "edge": {"target": [], "time": []}}, "mouseout": {"state": {"target": ["0", "23", "16", "12"], "time": [1402, 2086, 3852, 19703]}, "edge": {"target": [], "time": []}}}, "displayed_time": "15.67", "trialTime": 20587, "trial_type": "mouselab-mdp", "trial_index": 14, "time_elapsed": 658127, "internal_node_id": "0.0-4.0-1.0-5.0"}}, {"uniqueid": "w60047818:a36373858", "current_trial": 15, "dateTime": 1691142791090, "trialdata": {"revealed_states": [], "clicked_states": ["6"], "num_clicks_accrued": [0, 0, 0, 0, 0, 0, 0, 0, 0, 0, 0, 0, 0], "stateRewards": ["", -2, 3, 8, -9, 59, 41, -50, -1, 82, 66, 33, 2, -2, 7, 8, 1, -38, 12, -16, 24, -37, 67, 1, 4, -2, 5, 35, -83, 28, 8, -27, 69, -64], "withholdReward": false, "trial_id": "mdp_trial_7", "block": "test", "trialIndex": 8, "score": 38.85, "costs": -2.15, "simulationMode": [null, null, null, null, null], "rewards": [-2, 3, 8, -9, 41], "path": ["0", "0", "1", "2", "3", "4", "6"], "rt": [5142, 348, 457, 358, 179], "actions": ["up", "up", "up", "right", "right"], "actionTimes": [8911, 9778, 10755, 11623, 12311], "queries": {"click": {"state": {"target": ["6"], "time": [4583]}, "edge": {"target": [], "time": []}}, "mouseover": {"state": {"target": ["6"], "time": [4313]}, "edge": {"target": [], "time": []}}, "mouseout": {"state": {"target": ["0", "23", "24", "25", "29", "27", "8", "3", "4", "6", "7", "1", "2", "2", "7", "12", "0", "6"], "time": [745, 760, 794, 810, 1015, 1043, 1178, 1228, 1261, 1436, 1594, 1811, 2545, 2795, 2828, 3162, 3411, 4911]}, "edge": {"target": [], "time": []}}}, "displayed_time": "17.77", "trialTime": 25506, "trial_type": "mouselab-mdp", "trial_index": 15, "time_elapsed": 683771, "internal_node_id": "0.0-4.0-1.0-6.0"}}, {"uniqueid": "w60047818:a36373858", "current_trial": 16, "dateTime": 1691142814233, "trialdata": {"revealed_states": [], "clicked_states": ["10"], "num_clicks_accrued": [0, 0, 0, 0, 0, 0, 0, 0, 0, 0, 0, 0, 0], "stateRewards": ["", -1, 2, -7, -12, -62, 12, -13, 5, 77, -71, 83, 1, -4, 7, 15, -42, -87, -4, 5, -25, 44, 88, -1, 4, -5, -8, 14, 51, 8, -5, 83, -24, -19], "withholdReward": false, "trial_id": "mdp_trial_8", "block": "test", "trialIndex": 9, "score": -74.15, "costs": -2.15, "simulationMode": [null, null, null, null, null], "rewards": [-1, 2, -7, 5, -71], "path": ["0", "0", "1", "2", "3", "8", "10"], "rt": [5029, 91, 146, 60, 2], "actions": ["up", "up", "up", "left", "down"], "actionTimes": [6787, 7390, 8030, 8593, 9117], "queries": {"click": {"state": {"target": ["10"], "time": [3137]}, "edge": {"target": [], "time": []}}, "mouseover": {"state": {"target": ["1", "10", "18"], "time": [2296, 2896, 3980]}, "edge": {"target": [], "time": []}}, "mouseout": {"state": {"target": ["12", "0", "1", "10", "18", "28", "26", "2", "12"], "time": [1030, 1464, 2399, 3413, 18414, 18498, 18679, 19981, 20164]}, "edge": {"target": [], "time": []}}}, "displayed_time": "15.76", "trialTime": 23002, "trial_type": "mouselab-mdp", "trial_index": 16, "time_elapsed": 706914, "internal_node_id": "0.0-4.0-1.0-7.0"}}, {"uniqueid": "w60047818:a36373858", "current_trial": 17, "dateTime": 1691142833314, "trialdata": {"revealed_states": [], "clicked_states": ["9"], "num_clicks_accrued": [0, 0, 0, 0, 0, 0, 0, 0, 0, 0, 0, 0, 0], "stateRewards": ["", -1, -1, 4, -16, -75, 81, -51, -7, -84, 73, -30, -2, 1, -3, -16, -77, 33, 14, 1, 45, 87, -66, 2, 2, -5, -7, -19, -17, 79, -3, 8, 49, 47], "withholdReward": false, "trial_id": "mdp_trial_9", "block": "test", "trialIndex": 10, "score": -37.15, "costs": -2.15, "simulationMode": [null, null, null, null, null], "rewards": [-1, -1, 4, -7, -30], "path": ["0", "0", "1", "2", "3", "8", "11"], "rt": [6589, 23, 54, 115, 61], "actions": ["up", "up", "up", "left", "left"], "actionTimes": [7419, 7948, 8512, 9126, 9688], "queries": {"click": {"state": {"target": ["9"], "time": [2310]}, "edge": {"target": [], "time": []}}, "mouseover": {"state": {"target": ["1", "3", "9", "8", "3"], "time": [1189, 1674, 2109, 3339, 5926]}, "edge": {"target": [], "time": []}}, "mouseout": {"state": {"target": ["0", "1", "3", "9", "8", "3"], "time": [1173, 1206, 1690, 2790, 5924, 5956]}, "edge": {"target": [], "time": []}}}, "displayed_time": "14.83", "trialTime": 18943, "trial_type": "mouselab-mdp", "trial_index": 17, "time_elapsed": 725995, "internal_node_id": "0.0-4.0-1.0-8.0"}}, {"uniqueid": "w60047818:a36373858", "current_trial": 18, "dateTime": 1691142850577, "trialdata": {"revealed_states": [], "clicked_states": ["25"], "num_clicks_accrued": [0, 0, 0, 0, 0, 0, 0, 0, 0, 0, 0, 0, 0], "stateRewards": ["", -2, 1, -5, 2, -68, 80, 33, 10, 67, -59, 20, -1, -3, 3, 14, 74, -2, 24, -16, 63, 80, 46, -1, 4, 6, 12, 83, -38, -43, -4, 43, 14, -79], "withholdReward": false, "trial_id": "mdp_trial_10", "block": "test", "trialIndex": 11, "score": -22.95, "costs": -0.95, "simulationMode": [null, null, null, null, null], "rewards": [-1, 4, 6, 12, -43], "path": ["0", "0", "23", "24", "25", "26", "29"], "rt": [4925, 56, 142, 305, 1], "actions": ["left", "left", "left", "up", "left"], "actionTimes": [6433, 7010, 7661, 8477, 8988], "queries": {"click": {"state": {"target": ["25"], "time": [2801]}, "edge": {"target": [], "time": []}}, "mouseover": {"state": {"target": ["28", "25", "24", "12"], "time": [2035, 2586, 3168, 4036]}, "edge": {"target": [], "time": []}}, "mouseout": {"state": {"target": ["1", "0", "28", "25", "25", "24", "12"], "time": [818, 1814, 2402, 2819, 3151, 3201, 4502]}, "edge": {"target": [], "time": []}}}, "displayed_time": "15.51", "trialTime": 17133, "trial_type": "mouselab-mdp", "trial_index": 18, "time_elapsed": 743258, "internal_node_id": "0.0-4.0-1.0-9.0"}}, {"uniqueid": "w60047818:a36373858", "current_trial": 19, "dateTime": 1691142870915, "trialdata": {"revealed_states": [], "clicked_states": ["18"], "num_clicks_accrued": [0, 0, 0, 0, 0, 0, 0, 0, 0, 0, 0, 0, 0], "stateRewards": ["", -2, 2, -5, 1, 42, -63, -58, -6, 2, 16, 81, -2, 4, 7, -10, 33, 3, -33, -2, -52, -84, -27, 2, -3, -3, 15, -74, -14, -5, -5, -84, 79, -31], "withholdReward": false, "trial_id": "mdp_trial_11", "block": "test", "trialIndex": 12, "score": -79.15, "costs": -2.15, "simulationMode": [null, null, null, null, null], "rewards": [-2, 4, 7, -2, -84], "path": ["0", "0", "12", "13", "14", "19", "21"], "rt": [7024, 648, 227, 690, 13], "actions": ["right", "right", "right", "down", "down"], "actionTimes": [8648, 9808, 10552, 11749, 12272], "queries": {"click": {"state": {"target": ["18"], "time": [3633]}, "edge": {"target": [], "time": []}}, "mouseover": {"state": {"target": ["12", "13", "16", "15", "18", "17"], "time": [2207, 2291, 2714, 3241, 3424, 4639]}, "edge": {"target": [], "time": []}}, "mouseout": {"state": {"target": ["7", "12", "0", "0", "12", "13", "16", "15", "18", "17"], "time": [724, 973, 1106, 1457, 2240, 2341, 3191, 3255, 4372, 4656]}, "edge": {"target": [], "time": []}}}, "displayed_time": "15.63", "trialTime": 20194, "trial_type": "mouselab-mdp", "trial_index": 19, "time_elapsed": 763597, "internal_node_id": "0.0-4.0-1.0-10.0"}}, {"uniqueid": "w60047818:a36373858", "current_trial": 20, "dateTime": 1691142891296, "trialdata": {"revealed_states": [], "clicked_states": [], "num_clicks_accrued": [0, 0, 0, 0, 0, 0, 0, 0, 0, 0, 0, 0, 0], "stateRewards": ["", 1, -2, 7, -14, 88, -56, -44, -14, 64, -51, -57, -2, 3, -4, -9, -11, 19, -77, -1, 68, 75, -67, -1, 1, -2, 5, -37, 70, -34, -10, -72, 63, -41], "withholdReward": false, "trial_id": "mdp_trial_12", "block": "test", "trialIndex": 13, "score": -52, "costs": 0, "simulationMode": [null, null, null, null, null], "rewards": [1, -2, 7, -14, -44], "path": ["0", "0", "1", "2", "3", "4", "7"], "rt": [4649, 144, 140, 1387, 14], "actions": ["up", "up", "up", "right", "down"], "actionTimes": [7887, 8545, 9191, 11088, 11616], "queries": {"click": {"state": {"target": [], "time": []}, "edge": {"target": [], "time": []}}, "mouseover": {"state": {"target": ["1", "10", "10", "3", "4", "6", "3", "32", "31", "31", "30", "30", "31"], "time": [3901, 4100, 4350, 4833, 4864, 4898, 5250, 5599, 5682, 5966, 6280, 6884, 7132]}, "edge": {"target": [], "time": []}}, "mouseout": {"state": {"target": ["0", "0", "1", "10", "10", "3", "4", "6", "3", "32", "31", "31", "30", "30", "31", "24"], "time": [1966, 3608, 4050, 4133, 4399, 4848, 4881, 5066, 5282, 5632, 5783, 6248, 6366, 7100, 7200, 19099]}, "edge": {"target": [], "time": []}}}, "displayed_time": "17.24", "trialTime": 20233, "trial_type": "mouselab-mdp", "trial_index": 20, "time_elapsed": 783977, "internal_node_id": "0.0-4.0-1.0-11.0"}}, {"uniqueid": "w60047818:a36373858", "current_trial": 21, "dateTime": 1691142909777, "trialdata": {"revealed_states": [], "clicked_states": ["28"], "num_clicks_accrued": [0, 0, 0, 0, 0, 0, 0, 0, 0, 0, 0, 0, 0], "stateRewards": ["", -2, -4, -2, -13, -15, 87, -19, -6, -80, 30, 12, 1, 1, -8, 2, 55, 56, 15, 11, -68, -7, 55, -2, 3, -3, -3, 48, 62, 4, 1, -3, 69, -33], "withholdReward": false, "trial_id": "mdp_trial_13", "block": "test", "trialIndex": 14, "score": 54.85, "costs": -2.15, "simulationMode": [null, null, null, null, null], "rewards": [-2, 3, -3, -3, 62], "path": ["0", "0", "23", "24", "25", "26", "28"], "rt": [5123, 357, 175, 42, 460], "actions": ["left", "left", "left", "up", "right"], "actionTimes": [7403, 8275, 8960, 9509, 10477], "queries": {"click": {"state": {"target": ["28"], "time": [3792]}, "edge": {"target": [], "time": []}}, "mouseover": {"state": {"target": ["23", "28", "28", "23"], "time": [2665, 2784, 3583, 4516]}, "edge": {"target": [], "time": []}}, "mouseout": {"state": {"target": ["0", "23", "28", "28", "23", "0", "0"], "time": [2616, 2681, 3382, 4131, 4765, 11933, 17783]}, "edge": {"target": [], "time": []}}}, "displayed_time": "16.28", "trialTime": 18315, "trial_type": "mouselab-mdp", "trial_index": 21, "time_elapsed": 802459, "internal_node_id": "0.0-4.0-1.0-12.0"}}, {"uniqueid": "w60047818:a36373858", "current_trial": 22, "dateTime": 1691142931925, "trialdata": {"revealed_states": [], "clicked_states": ["33"], "num_clicks_accrued": [0, 0, 0, 0, 0, 0, 0, 0, 0, 0, 0, 0, 0], "stateRewards": ["", -2, -3, 4, 1, 33, -53, 15, 9, -12, 61, -6, -2, 4, 6, -11, 47, -43, -7, -11, 46, 23, -28, -1, -1, 3, -10, 11, 76, -76, 10, 18, -38, 87], "withholdReward": false, "trial_id": "mdp_trial_14", "block": "test", "trialIndex": 15, "score": 95.85, "costs": -2.15, "simulationMode": [null, null, null, null, null], "rewards": [-1, -1, 3, 10, 87], "path": ["0", "0", "23", "24", "25", "30", "33"], "rt": [5003, 80, 1724, 293, 4], "actions": ["left", "left", "left", "down", "left"], "actionTimes": [8183, 8772, 11000, 11801, 12312], "queries": {"click": {"state": {"target": ["33"], "time": [4383]}, "edge": {"target": [], "time": []}}, "mouseover": {"state": {"target": ["23", "24", "25", "33", "30", "24", "23", "0"], "time": [3605, 3690, 3841, 4058, 4806, 4889, 4939, 7524]}, "edge": {"target": [], "time": []}}, "mouseout": {"state": {"target": ["26", "28", "0", "12", "0", "23", "24", "25", "33", "30", "24", "23", "0", "0", "31"], "time": [1124, 1474, 2541, 2807, 3572, 3656, 3774, 3856, 4773, 4822, 4906, 5006, 10525, 13357, 15174]}, "edge": {"target": [], "time": []}}}, "displayed_time": "17.18", "trialTime": 22002, "trial_type": "mouselab-mdp", "trial_index": 22, "time_elapsed": 824607, "internal_node_id": "0.0-4.0-1.0-13.0"}}, {"uniqueid": "w60047818:a36373858", "current_trial": 23, "dateTime": 1691142949300, "trialdata": {"revealed_states": [], "clicked_states": ["21"], "num_clicks_accrued": [0, 0, 0, 0, 0, 0, 0, 0, 0, 0, 0, 0, 0], "stateRewards": ["", -2, -3, 8, -4, -30, 31, 69, 9, 66, 87, 64, -2, 2, 8, 5, 47, 16, -39, -8, -54, 51, -19, 1, -2, -2, -11, -25, -26, 43, -9, 19, -84, 86], "withholdReward": false, "trial_id": "mdp_trial_15", "block": "test", "trialIndex": 16, "score": 48.85, "costs": -2.15, "simulationMode": [null, null, null, null, null], "rewards": [-2, 2, 8, -8, 51], "path": ["0", "0", "12", "13", "14", "19", "21"], "rt": [5583, 39, 142, 95, 74], "actions": ["right", "right", "right", "down", "down"], "actionTimes": [6966, 7517, 8169, 8773, 9337], "queries": {"click": {"state": {"target": ["21"], "time": [3740]}, "edge": {"target": [], "time": []}}, "mouseover": {"state": {"target": ["0", "12", "13", "14", "19", "21", "14"], "time": [1779, 2161, 2226, 2762, 3144, 3428, 5293]}, "edge": {"target": [], "time": []}}, "mouseout": {"state": {"target": ["2", "1", "0", "0", "0", "12", "13", "14", "19", "21"], "time": [794, 828, 877, 1195, 1845, 2211, 2243, 2945, 3362, 4327]}, "edge": {"target": [], "time": []}}}, "displayed_time": "15.38", "trialTime": 17232, "trial_type": "mouselab-mdp", "trial_index": 23, "time_elapsed": 841982, "internal_node_id": "0.0-4.0-1.0-14.0"}}, {"uniqueid": "w60047818:a36373858", "current_trial": 24, "dateTime": 1691142967430, "trialdata": {"revealed_states": [], "clicked_states": ["29"], "num_clicks_accrued": [0, 0, 0, 0, 0, 0, 0, 0, 0, 0, 0, 0, 0], "stateRewards": ["", 2, -1, -2, -5, -47, -57, -33, -11, 31, -18, -72, -2, 1, -4, -8, -46, -53, -50, 15, -85, -9, 39, -2, -2, 1, 14, -1, -8, 53, -12, -41, -74, 62], "withholdReward": false, "trial_id": "mdp_trial_16", "block": "test", "trialIndex": 17, "score": 61.85, "costs": -2.15, "simulationMode": [null, null, null, null, null], "rewards": [-2, -2, 1, 14, 53], "path": ["0", "0", "23", "24", "25", "26", "29"], "rt": [4709, 455, 153, 285, 400], "actions": ["left", "left", "left", "up", "left"], "actionTimes": [6890, 7862, 8527, 9325, 10239], "queries": {"click": {"state": {"target": ["29"], "time": [3255]}, "edge": {"target": [], "time": []}}, "mouseover": {"state": {"target": ["23", "24", "29", "26", "28", "23"], "time": [2521, 2554, 2889, 3555, 3590, 3671]}, "edge": {"target": [], "time": []}}, "mouseout": {"state": {"target": ["15", "18", "12", "0", "0", "23", "24", "29", "26", "28", "23"], "time": [571, 605, 1239, 1472, 2506, 2538, 2571, 3538, 3588, 3605, 3688]}, "edge": {"target": [], "time": []}}}, "displayed_time": "16.18", "trialTime": 17974, "trial_type": "mouselab-mdp", "trial_index": 24, "time_elapsed": 860111, "internal_node_id": "0.0-4.0-1.0-15.0"}}, {"uniqueid": "w60047818:a36373858", "current_trial": 25, "dateTime": 1691142990780, "trialdata": {"revealed_states": [], "clicked_states": ["33"], "num_clicks_accrued": [0, 0, 0, 0, 0, 0, 0, 0, 0, 0, 0, 0, 0], "stateRewards": ["", 2, -4, 1, -12, -59, -53, -74, 16, -88, -66, 66, 1, -2, 8, -9, -14, 22, 25, -1, -39, 47, -14, -1, -1, -2, 1, -4, 52, -26, 15, -7, 46, 43], "withholdReward": false, "trial_id": "mdp_trial_17", "block": "test", "trialIndex": 18, "score": 51.85, "costs": -2.15, "simulationMode": [null, null, null, null, null], "rewards": [-1, -1, -2, 15, 43], "path": ["0", "0", "23", "24", "25", "30", "33"], "rt": [5455, 361, 147, 125, 2], "actions": ["left", "left", "left", "down", "left"], "actionTimes": [7781, 8661, 9344, 9972, 10484], "queries": {"click": {"state": {"target": ["33"], "time": [4266]}, "edge": {"target": [], "time": []}}, "mouseover": {"state": {"target": ["23", "24", "24", "31", "30", "33", "30", "31", "22"], "time": [2780, 2897, 3362, 3481, 3696, 3797, 4595, 4628, 6429]}, "edge": {"target": [], "time": []}}, "mouseout": {"state": {"target": ["0", "23", "23", "24", "24", "31", "30", "33", "30", "31", "22"], "time": [996, 1396, 2846, 2948, 3414, 3663, 3730, 4562, 4612, 4645, 6562]}, "edge": {"target": [], "time": []}}}, "displayed_time": "16.33", "trialTime": 23199, "trial_type": "mouselab-mdp", "trial_index": 25, "time_elapsed": 883462, "internal_node_id": "0.0-4.0-1.0-16.0"}}, {"uniqueid": "w60047818:a36373858", "current_trial": 26, "dateTime": 1691143009129, "trialdata": {"revealed_states": [], "clicked_states": ["10"], "num_clicks_accrued": [0, 0, 0, 0, 0, 0, 0, 0, 0, 0, 0, 0, 0], "stateRewards": ["", 1, 1, -3, 2, 22, -25, -11, -5, 50, 49, 3, 1, -1, 8, 14, -85, -30, 57, -6, -39, -16, 59, -2, -1, 5, 5, 59, -16, 8, 4, 67, 56, -9], "withholdReward": false, "trial_id": "mdp_trial_18", "block": "test", "trialIndex": 19, "score": 40.85, "costs": -2.15, "simulationMode": [null, null, null, null, null], "rewards": [1, 1, -3, -5, 49], "path": ["0", "0", "1", "2", "3", "8", "10"], "rt": [6439, 45, 149, 70, 50], "actions": ["up", "up", "up", "left", "down"], "actionTimes": [7828, 8393, 9045, 9619, 10182], "queries": {"click": {"state": {"target": ["10"], "time": [4219]}, "edge": {"target": [], "time": []}}, "mouseover": {"state": {"target": ["12", "13", "15", "16", "15", "18", "2", "10", "1"], "time": [1830, 1929, 2147, 2213, 2515, 2579, 3279, 4015, 5195]}, "edge": {"target": [], "time": []}}, "mouseout": {"state": {"target": ["0", "12", "13", "15", "16", "15", "18", "2", "10", "1"], "time": [1796, 1879, 2013, 2179, 2228, 2546, 3247, 3713, 4844, 5378]}, "edge": {"target": [], "time": []}}}, "displayed_time": "15.39", "trialTime": 18197, "trial_type": "mouselab-mdp", "trial_index": 26, "time_elapsed": 901810, "internal_node_id": "0.0-4.0-1.0-17.0"}}, {"uniqueid": "w60047818:a36373858", "current_trial": 27, "dateTime": 1691143028398, "trialdata": {"revealed_states": [], "clicked_states": ["7"], "num_clicks_accrued": [0, 0, 0, 0, 0, 0, 0, 0, 0, 0, 0, 0, 0], "stateRewards": ["", -2, 1, -3, -16, -39, -52, 30, -7, -41, -59, 11, 2, 1, 8, 2, -11, -26, -42, -13, 87, -59, -48, -1, -1, -1, 16, -79, 31, 50, -1, -84, 34, -82], "withholdReward": false, "trial_id": "mdp_trial_19", "block": "test", "trialIndex": 20, "score": 7.850000000000001, "costs": -2.15, "simulationMode": [null, null, null, null, null], "rewards": [-2, 1, -3, -16, 30], "path": ["0", "0", "1", "2", "3", "4", "7"], "rt": [5708, 426, 200, 40, 125], "actions": ["up", "up", "up", "right", "down"], "actionTimes": [6931, 7876, 8584, 9139, 9775], "queries": {"click": {"state": {"target": ["7"], "time": [3392]}, "edge": {"target": [], "time": []}}, "mouseover": {"state": {"target": ["4", "4", "7"], "time": [1981, 2798, 2999]}, "edge": {"target": [], "time": []}}, "mouseout": {"state": {"target": ["7", "0", "4", "4", "7", "20", "19", "22"], "time": [665, 1497, 2247, 2865, 3948, 18116, 18129, 18146]}, "edge": {"target": [], "time": []}}}, "displayed_time": "15.22", "trialTime": 19117, "trial_type": "mouselab-mdp", "trial_index": 27, "time_elapsed": 921079, "internal_node_id": "0.0-4.0-1.0-18.0"}}, {"uniqueid": "w60047818:a36373858", "current_trial": 28, "dateTime": 1691143048198, "trialdata": {"revealed_states": [], "clicked_states": ["17"], "num_clicks_accrued": [0, 0, 0, 0, 0, 0, 0, 0, 0, 0, 0, 0, 0], "stateRewards": ["", -2, 2, 2, -6, 9, 37, 50, -13, -7, -18, -75, -2, -4, 4, 7, 23, -57, -66, -7, -81, -48, -76, 1, 1, -8, 1, 51, -2, 70, 14, 59, 71, -37], "withholdReward": false, "trial_id": "mdp_trial_20", "block": "test", "trialIndex": 21, "score": 76.85, "costs": -2.15, "simulationMode": [null, null, null, null, null], "rewards": [1, 1, -8, 14, 71], "path": ["0", "0", "23", "24", "25", "30", "32"], "rt": [5628, 94, 192, 456, 70], "actions": ["left", "left", "left", "down", "down"], "actionTimes": [7606, 8201, 8899, 9862, 10428], "queries": {"click": {"state": {"target": ["17"], "time": [3003]}, "edge": {"target": [], "time": []}}, "mouseover": {"state": {"target": ["12", "13", "14", "17", "14", "22", "19", "22", "23", "12"], "time": [2354, 2403, 2488, 2839, 3854, 4921, 6181, 6554, 6688, 6989]}, "edge": {"target": [], "time": []}}, "mouseout": {"state": {"target": ["24", "23", "0", "12", "13", "14", "17", "14", "22", "19", "22", "23", "12"], "time": [638, 871, 2322, 2388, 2455, 2503, 3437, 4005, 5204, 6188, 6588, 6703, 11820]}, "edge": {"target": [], "time": []}}}, "displayed_time": "15.98", "trialTime": 19624, "trial_type": "mouselab-mdp", "trial_index": 28, "time_elapsed": 940879, "internal_node_id": "0.0-4.0-1.0-19.0"}}, {"uniqueid": "w60047818:a36373858", "current_trial": 29, "dateTime": 1691143065850, "trialdata": {"revealed_states": [], "clicked_states": ["16"], "num_clicks_accrued": [0, 0, 0, 0, 0, 0, 0, 0, 0, 0, 0, 0, 0], "stateRewards": ["", -2, -4, -2, 10, -8, -15, -47, 7, -84, 53, 5, -1, 2, -7, 3, 83, 31, 47, -1, 30, -8, 69, 2, -4, -1, 8, -7, 12, -8, -8, -13, 30, -84], "withholdReward": false, "trial_id": "mdp_trial_21", "block": "test", "trialIndex": 22, "score": 77.85, "costs": -2.15, "simulationMode": [null, null, null, null, null], "rewards": [-1, 2, -7, 3, 83], "path": ["0", "0", "12", "13", "14", "15", "16"], "rt": [5237, 16, 159, 199, 10], "actions": ["right", "right", "right", "up", "up"], "actionTimes": [7486, 8005, 8683, 9388, 9898], "queries": {"click": {"state": {"target": ["16"], "time": [4023]}, "edge": {"target": [], "time": []}}, "mouseover": {"state": {"target": ["23", "21", "14", "15", "16", "15", "14", "33"], "time": [2722, 3055, 3440, 3571, 3705, 4521, 5138, 5941]}, "edge": {"target": [], "time": []}}, "mouseout": {"state": {"target": ["12", "0", "23", "21", "14", "15", "16", "16", "15", "14", "33"], "time": [821, 2689, 2823, 3088, 3521, 3673, 4099, 4404, 4904, 5354, 5970]}, "edge": {"target": [], "time": []}}}, "displayed_time": "16.25", "trialTime": 17493, "trial_type": "mouselab-mdp", "trial_index": 29, "time_elapsed": 958531, "internal_node_id": "0.0-4.0-1.0-20.0"}}, {"uniqueid": "w60047818:a36373858", "current_trial": 30, "dateTime": 1691143087836, "trialdata": {"revealed_states": [], "clicked_states": ["27"], "num_clicks_accrued": [0, 0, 0, 0, 0, 0, 0, 0, 0, 0, 0, 0, 0], "stateRewards": ["", 1, 1, -5, 10, -31, 73, 14, -8, -23, 63, -70, -1, 2, 8, 7, 25, -59, 27, -10, -40, -71, -15, -2, 3, -8, -5, -19, 77, -34, 7, 67, 63, 19], "withholdReward": false, "trial_id": "mdp_trial_22", "block": "test", "trialIndex": 23, "score": 40.85, "costs": -2.15, "simulationMode": [null, null, null, null, null], "rewards": [-1, 2, 8, 7, 27], "path": ["0", "0", "12", "13", "14", "15", "18"], "rt": [7480, 444, 282, 142, 113], "actions": ["right", "right", "right", "up", "left"], "actionTimes": [9002, 9951, 10739, 11384, 12003], "queries": {"click": {"state": {"target": ["27"], "time": [2675]}, "edge": {"target": [], "time": []}}, "mouseover": {"state": {"target": ["26", "27", "1"], "time": [2006, 2439, 3054]}, "edge": {"target": [], "time": []}}, "mouseout": {"state": {"target": ["0", "26", "27", "1", "0"], "time": [1355, 2038, 2971, 3071, 13489]}, "edge": {"target": [], "time": []}}}, "displayed_time": "15.52", "trialTime": 21796, "trial_type": "mouselab-mdp", "trial_index": 30, "time_elapsed": 980517, "internal_node_id": "0.0-4.0-1.0-21.0"}}, {"uniqueid": "w60047818:a36373858", "current_trial": 31, "dateTime": 1691143106083, "trialdata": {"revealed_states": [], "clicked_states": ["6"], "num_clicks_accrued": [0, 0, 0, 0, 0, 0, 0, 0, 0, 0, 0, 0, 0], "stateRewards": ["", 1, -2, 4, 7, -43, -83, -60, -5, -86, -80, 83, -1, -2, 6, 11, -15, 21, 13, 9, 29, -49, 11, -1, 4, -6, -11, 87, 40, 63, -8, -39, -11, 62], "withholdReward": false, "trial_id": "mdp_trial_23", "block": "test", "trialIndex": 24, "score": -52.15, "costs": -2.15, "simulationMode": [null, null, null, null, null], "rewards": [-1, 4, -6, -8, -39], "path": ["0", "0", "23", "24", "25", "30", "31"], "rt": [7356, 76, 53, 97, 400], "actions": ["left", "left", "left", "down", "right"], "actionTimes": [9309, 9886, 10445, 11058, 11960], "queries": {"click": {"state": {"target": ["6"], "time": [4106]}, "edge": {"target": [], "time": []}}, "mouseover": {"state": {"target": ["18", "6", "7"], "time": [3392, 3901, 4625]}, "edge": {"target": [], "time": []}}, "mouseout": {"state": {"target": ["1", "0", "18", "6", "7", "12", "0", "0", "23", "24"], "time": [744, 2291, 3425, 4490, 4657, 13909, 14109, 17058, 17759, 17876]}, "edge": {"target": [], "time": []}}}, "displayed_time": "15.96", "trialTime": 18079, "trial_type": "mouselab-mdp", "trial_index": 31, "time_elapsed": 998764, "internal_node_id": "0.0-4.0-1.0-22.0"}}, {"uniqueid": "w60047818:a36373858", "current_trial": 32, "dateTime": 1691143124030, "trialdata": {"revealed_states": [], "clicked_states": ["10"], "num_clicks_accrued": [0, 0, 0, 0, 0, 0, 0, 0, 0, 0, 0, 0, 0], "stateRewards": ["", 2, -1, 1, 10, -52, 86, -22, -2, -14, -63, 38, 1, 3, 7, -8, 11, -32, -27, 9, -71, 40, -87, -2, -1, 5, -7, 12, 31, -57, 13, 86, -58, 29], "withholdReward": false, "trial_id": "mdp_trial_24", "block": "test", "trialIndex": 25, "score": -42.15, "costs": -2.15, "simulationMode": [null, null, null, null, null], "rewards": [2, -1, 1, 10, -52], "path": ["0", "0", "1", "2", "3", "4", "5"], "rt": [5167, 76, 46, 436, 515], "actions": ["up", "up", "up", "right", "up"], "actionTimes": [6604, 7191, 7745, 8716, 9746], "queries": {"click": {"state": {"target": ["10"], "time": [2126]}, "edge": {"target": [], "time": []}}, "mouseover": {"state": {"target": ["10", "22", "30", "33", "33", "30", "31"], "time": [1999, 2735, 3579, 3597, 3831, 3864, 3897]}, "edge": {"target": [], "time": []}}, "mouseout": {"state": {"target": ["25", "26", "10", "1", "0", "10", "22", "30", "33", "33", "30", "31"], "time": [10, 297, 364, 697, 1263, 2363, 2746, 3595, 3612, 3863, 3896, 3929]}, "edge": {"target": [], "time": []}}}, "displayed_time": "15.44", "trialTime": 17748, "trial_type": "mouselab-mdp", "trial_index": 32, "time_elapsed": 1016711, "internal_node_id": "0.0-4.0-1.0-23.0"}}, {"uniqueid": "w60047818:a36373858", "current_trial": 33, "dateTime": 1691143141875, "trialdata": {"revealed_states": [], "clicked_states": ["26"], "num_clicks_accrued": [0, 0, 0, 0, 0, 0, 0, 0, 0, 0, 0, 0, 0], "stateRewards": ["", 2, 4, 7, -6, -76, -81, 2, 5, -66, -3, 36, -2, -4, 6, -2, -69, 4, -49, -6, 67, 38, -67, 2, 1, 1, 6, -68, -21, 52, -16, -16, 6, -70], "withholdReward": false, "trial_id": "mdp_trial_25", "block": "test", "trialIndex": 26, "score": -12.55, "costs": -1.55, "simulationMode": [null, null, null, null, null], "rewards": [2, 1, 1, 6, -21], "path": ["0", "0", "23", "24", "25", "26", "28"], "rt": [5301, 184, 148, 803, 269], "actions": ["left", "left", "left", "up", "right"], "actionTimes": [7537, 8218, 8865, 10172, 10938], "queries": {"click": {"state": {"target": ["26"], "time": [3651]}, "edge": {"target": [], "time": []}}, "mouseover": {"state": {"target": ["23", "24", "26", "29", "26", "23"], "time": [2633, 2666, 3118, 3166, 3417, 3966]}, "edge": {"target": [], "time": []}}, "mouseout": {"state": {"target": ["30", "31", "0", "0", "23", "24", "26", "29", "26", "23"], "time": [1267, 1283, 1700, 2617, 2649, 2786, 3150, 3385, 3916, 4000]}, "edge": {"target": [], "time": []}}}, "displayed_time": "16.24", "trialTime": 17680, "trial_type": "mouselab-mdp", "trial_index": 33, "time_elapsed": 1034556, "internal_node_id": "0.0-4.0-1.0-24.0"}}, {"uniqueid": "w60047818:a36373858", "current_trial": 34, "dateTime": 1691143160031, "trialdata": {"revealed_states": [], "clicked_states": ["17"], "num_clicks_accrued": [0, 0, 0, 0, 0, 0, 0, 0, 0, 0, 0, 0, 0], "stateRewards": ["", 1, -3, -2, 14, 49, -40, -39, 2, 26, -61, 73, 1, -4, -8, 12, 79, 29, -65, -13, 55, -26, 27, -1, 3, 3, 9, -17, -60, -18, -8, 35, -88, 69], "withholdReward": false, "trial_id": "mdp_trial_26", "block": "test", "trialIndex": 27, "score": 27.85, "costs": -2.15, "simulationMode": [null, null, null, null, null], "rewards": [1, -4, -8, 12, 29], "path": ["0", "0", "12", "13", "14", "15", "17"], "rt": [4863, 335, 207, 154, 449], "actions": ["right", "right", "right", "up", "right"], "actionTimes": [6715, 7541, 8245, 8908, 9869], "queries": {"click": {"state": {"target": ["17"], "time": [3200]}, "edge": {"target": [], "time": []}}, "mouseover": {"state": {"target": ["0", "12", "15", "17", "17", "17", "14"], "time": [2171, 2219, 2486, 2518, 2753, 2997, 4553]}, "edge": {"target": [], "time": []}}, "mouseout": {"state": {"target": ["23", "0", "0", "0", "12", "15", "17", "17", "17", "14"], "time": [620, 937, 1570, 2184, 2453, 2501, 2535, 2820, 3619, 5038]}, "edge": {"target": [], "time": []}}}, "displayed_time": "15.85", "trialTime": 17989, "trial_type": "mouselab-mdp", "trial_index": 34, "time_elapsed": 1052712, "internal_node_id": "0.0-4.0-1.0-25.0"}}, {"uniqueid": "w60047818:a36373858", "current_trial": 35, "dateTime": 1691143177912, "trialdata": {"revealed_states": [], "clicked_states": ["27"], "num_clicks_accrued": [0, 0, 0, 0, 0, 0, 0, 0, 0, 0, 0, 0, 0], "stateRewards": ["", -2, -1, -1, 5, -54, -87, 35, 2, -8, 20, -22, 1, 3, 6, 13, -75, -32, -55, -3, 56, 62, -22, -1, -4, -1, -7, -51, 84, 70, 7, -15, 5, 55], "withholdReward": false, "trial_id": "mdp_trial_27", "block": "test", "trialIndex": 28, "score": -17.15, "costs": -2.15, "simulationMode": [null, null, null, null, null], "rewards": [1, 3, 6, -3, -22], "path": ["0", "0", "12", "13", "14", "19", "22"], "rt": [6105, 176, 520, 100, 331], "actions": ["right", "right", "right", "down", "left"], "actionTimes": [7714, 8396, 9406, 10003, 10833], "queries": {"click": {"state": {"target": ["27"], "time": [3108]}, "edge": {"target": [], "time": []}}, "mouseover": {"state": {"target": ["23", "26", "27"], "time": [2036, 2119, 2736]}, "edge": {"target": [], "time": []}}, "mouseout": {"state": {"target": ["13", "0", "23", "26", "27", "28"], "time": [702, 1303, 2050, 2169, 3534, 12202]}, "edge": {"target": [], "time": []}}}, "displayed_time": "15.61", "trialTime": 17719, "trial_type": "mouselab-mdp", "trial_index": 35, "time_elapsed": 1070593, "internal_node_id": "0.0-4.0-1.0-26.0"}}, {"uniqueid": "w60047818:a36373858", "current_trial": 36, "dateTime": 1691143195127, "trialdata": {"revealed_states": [], "clicked_states": ["33"], "num_clicks_accrued": [0, 0, 0, 0, 0, 0, 0, 0, 0, 0, 0, 0, 0], "stateRewards": ["", 2, -4, -4, 13, -80, 62, 13, -11, 57, -13, -44, 1, 4, 3, -4, -29, -88, 15, 16, -58, 68, -45, -1, -3, -1, -9, -44, -86, -19, -7, -36, 59, 66], "withholdReward": false, "trial_id": "mdp_trial_28", "block": "test", "trialIndex": 29, "score": 51.85, "costs": -2.15, "simulationMode": [null, null, null, null, null], "rewards": [-1, -3, -1, -7, 66], "path": ["0", "0", "23", "24", "25", "30", "33"], "rt": [5582, 318, 176, 258, 135], "actions": ["left", "left", "left", "down", "left"], "actionTimes": [6924, 7736, 8429, 9193, 9836], "queries": {"click": {"state": {"target": ["33"], "time": [3319]}, "edge": {"target": [], "time": []}}, "mouseover": {"state": {"target": ["23", "24", "30", "32", "33", "33", "30", "31", "32"], "time": [1732, 1765, 2033, 2116, 2366, 3150, 3598, 3648, 6600]}, "edge": {"target": [], "time": []}}, "mouseout": {"state": {"target": ["12", "0", "23", "24", "30", "32", "33", "33", "30", "31", "32", "23"], "time": [932, 1702, 1748, 1799, 2067, 2283, 2900, 3582, 3615, 3665, 10651, 14168]}, "edge": {"target": [], "time": []}}}, "displayed_time": "15.35", "trialTime": 17016, "trial_type": "mouselab-mdp", "trial_index": 36, "time_elapsed": 1087808, "internal_node_id": "0.0-4.0-1.0-27.0"}}, {"uniqueid": "w60047818:a36373858", "current_trial": 37, "dateTime": 1691143211663, "trialdata": {"revealed_states": [], "clicked_states": ["6"], "num_clicks_accrued": [0, 0, 0, 0, 0, 0, 0, 0, 0, 0, 0, 0, 0], "stateRewards": ["", 1, 4, -8, -5, -15, -7, 21, 13, -30, 40, -65, 1, 1, 5, -14, 35, 27, -38, -11, 36, -58, -47, -2, 4, -3, 13, -16, -49, 22, 15, -56, -44, -10], "withholdReward": false, "trial_id": "mdp_trial_29", "block": "test", "trialIndex": 30, "score": 25.85, "costs": -2.15, "simulationMode": [null, null, null, null, null], "rewards": [1, 1, 5, -14, 35], "path": ["0", "0", "12", "13", "14", "15", "16"], "rt": [8777, 377, 165, 563, 125], "actions": ["right", "right", "right", "up", "up"], "actionTimes": [9773, 10661, 11317, 12407, 13044], "queries": {"click": {"state": {"target": ["6"], "time": [2825]}, "edge": {"target": [], "time": []}}, "mouseover": {"state": {"target": ["12", "6", "5", "5", "6", "18", "12"], "time": [1418, 1802, 2035, 2301, 2534, 4283, 7068]}, "edge": {"target": [], "time": []}}, "mouseout": {"state": {"target": ["23", "23", "0", "12", "6", "5", "5", "6", "6", "18", "12"], "time": [167, 616, 1384, 1451, 1851, 2067, 2501, 2835, 3233, 4300, 8068]}, "edge": {"target": [], "time": []}}}, "displayed_time": "15.01", "trialTime": 16385, "trial_type": "mouselab-mdp", "trial_index": 37, "time_elapsed": 1104344, "internal_node_id": "0.0-4.0-1.0-28.0"}}, {"uniqueid": "w60047818:a36373858", "current_trial": 38, "dateTime": 1691143229832, "trialdata": {"revealed_states": [], "clicked_states": ["11"], "num_clicks_accrued": [0, 0, 0, 0, 0, 0, 0, 0, 0, 0, 0, 0, 0], "stateRewards": ["", -1, -3, -6, -2, -7, 80, -45, -3, -38, -72, 76, 2, 1, 7, 4, -62, 14, -74, 14, -87, -21, -88, -2, 1, -7, -10, 66, 56, -76, 10, -29, -72, -70], "withholdReward": false, "trial_id": "mdp_trial_30", "block": "test", "trialIndex": 31, "score": 60.85, "costs": -2.15, "simulationMode": [null, null, null, null, null], "rewards": [-1, -3, -6, -3, 76], "path": ["0", "0", "1", "2", "3", "8", "11"], "rt": [5505, 183, 223, 118, 143], "actions": ["up", "up", "up", "left", "left"], "actionTimes": [6789, 7479, 8203, 8831, 9474], "queries": {"click": {"state": {"target": ["11"], "time": [3350]}, "edge": {"target": [], "time": []}}, "mouseover": {"state": {"target": ["24", "26", "27", "11", "10", "2", "12", "22"], "time": [1777, 2311, 2431, 3130, 3678, 3711, 3910, 3961]}, "edge": {"target": [], "time": []}}, "mouseout": {"state": {"target": ["0", "24", "26", "27", "11", "10", "2", "12", "22", "22"], "time": [1629, 1879, 2346, 2980, 3628, 3694, 3729, 3927, 4011, 16881]}, "edge": {"target": [], "time": []}}}, "displayed_time": "15.29", "trialTime": 18016, "trial_type": "mouselab-mdp", "trial_index": 38, "time_elapsed": 1122514, "internal_node_id": "0.0-4.0-1.0-29.0"}}, {"uniqueid": "w60047818:a36373858", "current_trial": 39, "dateTime": 1691143246908, "trialdata": {"revealed_states": [], "clicked_states": ["7"], "num_clicks_accrued": [0, 0, 0, 0, 0, 0, 0, 0, 0, 0, 0, 0, 0], "stateRewards": ["", -1, -3, -3, 1, -38, 2, -53, -2, -1, -81, 70, -1, 1, -5, -9, 46, 15, 35, -1, -22, 38, 59, -2, 4, -8, 13, 1, -83, -43, 4, 76, 13, 48], "withholdReward": false, "trial_id": "mdp_trial_31", "block": "test", "trialIndex": 32, "score": 5.85, "costs": -2.15, "simulationMode": [null, null, null, null, null], "rewards": [-2, 4, -8, 13, 1], "path": ["0", "0", "23", "24", "25", "26", "27"], "rt": [5859, 48, 168, 113, 57], "actions": ["left", "left", "left", "up", "up"], "actionTimes": [7017, 7566, 8252, 8865, 9442], "queries": {"click": {"state": {"target": ["7"], "time": [2782]}, "edge": {"target": [], "time": []}}, "mouseover": {"state": {"target": ["0", "12", "7", "7", "7"], "time": [1351, 1434, 1885, 2268, 2568]}, "edge": {"target": [], "time": []}}, "mouseout": {"state": {"target": ["22", "0", "0", "12", "7", "7", "7"], "time": [584, 934, 1383, 1636, 1933, 2298, 3117]}, "edge": {"target": [], "time": []}}}, "displayed_time": "15.16", "trialTime": 16895, "trial_type": "mouselab-mdp", "trial_index": 39, "time_elapsed": 1139589, "internal_node_id": "0.0-4.0-1.0-30.0"}}, {"uniqueid": "w60047818:a36373858", "current_trial": 40, "dateTime": 1691143267224, "trialdata": {"revealed_states": [], "clicked_states": ["29"], "num_clicks_accrued": [0, 0, 0, 0, 0, 0, 0, 0, 0, 0, 0, 0, 0], "stateRewards": ["", 1, 1, 1, 15, -76, 52, -32, 14, -57, 37, 49, 1, -4, -3, 6, 83, -76, 25, 9, 36, -1, -17, -1, 4, 4, -2, -22, -21, 58, -15, -57, 49, -24], "withholdReward": false, "trial_id": "mdp_trial_32", "block": "test", "trialIndex": 33, "score": 60.85, "costs": -2.15, "simulationMode": [null, null, null, null, null], "rewards": [-1, 4, 4, -2, 58], "path": ["0", "0", "23", "24", "25", "26", "29"], "rt": [5591, 61, 115, 269, 33], "actions": ["left", "left", "left", "up", "left"], "actionTimes": [7028, 7587, 8223, 9011, 9542], "queries": {"click": {"state": {"target": ["29"], "time": [3183]}, "edge": {"target": [], "time": []}}, "mouseover": {"state": {"target": ["23", "24", "30", "33", "29", "24", "23", "0"], "time": [1791, 1839, 1990, 2291, 2974, 3523, 3540, 3557]}, "edge": {"target": [], "time": []}}, "mouseout": {"state": {"target": ["1", "0", "23", "24", "30", "33", "29", "24", "23", "0"], "time": [674, 1691, 1823, 1873, 2207, 2675, 3473, 3539, 3556, 3590]}, "edge": {"target": [], "time": []}}}, "displayed_time": "15.44", "trialTime": 20102, "trial_type": "mouselab-mdp", "trial_index": 40, "time_elapsed": 1159905, "internal_node_id": "0.0-4.0-1.0-31.0"}}, {"uniqueid": "w60047818:a36373858", "current_trial": 41, "dateTime": 1691143285034, "trialdata": {"revealed_states": [], "clicked_states": ["14"], "num_clicks_accrued": [0, 0, 0, 0, 0, 0, 0, 0, 0, 0, 0, 0, 0], "stateRewards": ["", -1, 3, -5, -2, -13, -9, -34, -7, -81, 32, 35, -2, -2, 1, -14, -32, 81, 7, 4, 82, 56, -8, -1, 3, -8, 6, -24, -24, -53, 2, 38, 61, 54], "withholdReward": false, "trial_id": "mdp_trial_33", "block": "test", "trialIndex": 34, "score": 56.05, "costs": -0.95, "simulationMode": [null, null, null, null, null], "rewards": [-2, -2, 1, 4, 56], "path": ["0", "0", "12", "13", "14", "19", "21"], "rt": [4009, 92, 243, 123, 153], "actions": ["right", "right", "right", "down", "down"], "actionTimes": [4660, 5267, 6020, 6633, 7280], "queries": {"click": {"state": {"target": ["14"], "time": [1325]}, "edge": {"target": [], "time": []}}, "mouseover": {"state": {"target": ["12", "13", "14"], "time": [976, 990, 1023]}, "edge": {"target": [], "time": []}}, "mouseout": {"state": {"target": ["0", "12", "13", "14", "14", "19", "20"], "time": [975, 990, 1007, 1420, 8810, 8926, 16024]}, "edge": {"target": [], "time": []}}}, "displayed_time": "14.66", "trialTime": 17596, "trial_type": "mouselab-mdp", "trial_index": 41, "time_elapsed": 1177715, "internal_node_id": "0.0-4.0-1.0-32.0"}}, {"uniqueid": "w60047818:a36373858", "current_trial": 42, "dateTime": 1691143305012, "trialdata": {"revealed_states": [], "clicked_states": ["1"], "num_clicks_accrued": [0, 0, 0, 0, 0, 0, 0, 0, 0, 0, 0, 0, 0], "stateRewards": ["", -1, -4, -3, 1, -45, -67, -24, 14, 32, 22, 22, -1, 1, -5, -7, 72, 84, -79, -5, 19, -40, -2, -1, -2, 8, -3, 84, -25, -28, 11, 64, -66, 77], "withholdReward": false, "trial_id": "mdp_trial_34", "block": "test", "trialIndex": 35, "score": 93.25, "costs": 0.25, "simulationMode": [null, null, null, null, null], "rewards": [-1, -2, 8, 11, 77], "path": ["0", "0", "23", "24", "25", "30", "33"], "rt": [4328, 141, 102, 666, 3], "actions": ["left", "left", "left", "down", "left"], "actionTimes": [6865, 7516, 8127, 9309, 9810], "queries": {"click": {"state": {"target": ["1"], "time": [4043]}, "edge": {"target": [], "time": []}}, "mouseover": {"state": {"target": ["1"], "time": [3074]}, "edge": {"target": [], "time": []}}, "mouseout": {"state": {"target": ["2", "2", "15", "18", "0", "1", "1", "12", "0"], "time": [824, 974, 1191, 1240, 2891, 4177, 5124, 14842, 17574]}, "edge": {"target": [], "time": []}}}, "displayed_time": "16.54", "trialTime": 19773, "trial_type": "mouselab-mdp", "trial_index": 42, "time_elapsed": 1197693, "internal_node_id": "0.0-4.0-1.0-33.0"}}, {"uniqueid": "w60047818:a36373858", "current_trial": 43, "dateTime": 1691143322716, "trialdata": {"revealed_states": [], "clicked_states": ["24"], "num_clicks_accrued": [0, 0, 0, 0, 0, 0, 0, 0, 0, 0, 0, 0, 0], "stateRewards": ["", 2, -3, -8, 14, -7, -51, 73, 2, 36, 36, -43, -1, 3, -4, 1, 6, 87, -65, 15, 61, -42, -83, -1, 3, -2, -7, 30, -48, 35, 13, 26, 60, 78], "withholdReward": false, "trial_id": "mdp_trial_35", "block": "test", "trialIndex": 36, "score": 72.65, "costs": -0.35, "simulationMode": [null, null, null, null, null], "rewards": [-1, 3, -2, 13, 60], "path": ["0", "0", "23", "24", "25", "30", "32"], "rt": [5586, 471, 237, 165, 267], "actions": ["left", "left", "left", "down", "down"], "actionTimes": [7067, 8051, 8800, 9479, 10247], "queries": {"click": {"state": {"target": ["24"], "time": [2235]}, "edge": {"target": [], "time": []}}, "mouseover": {"state": {"target": ["23", "24"], "time": [1745, 1778]}, "edge": {"target": [], "time": []}}, "mouseout": {"state": {"target": ["23", "24", "24", "8", "10", "24", "31", "24"], "time": [1761, 2391, 2811, 11913, 12097, 12429, 16832, 16930]}, "edge": {"target": [], "time": []}}}, "displayed_time": "15.48", "trialTime": 17500, "trial_type": "mouselab-mdp", "trial_index": 43, "time_elapsed": 1215398, "internal_node_id": "0.0-4.0-1.0-34.0"}}, {"uniqueid": "w60047818:a36373858", "current_trial": 44, "dateTime": 1691143341611, "trialdata": {"revealed_states": [], "clicked_states": ["13"], "num_clicks_accrued": [0, 0, 0, 0, 0, 0, 0, 0, 0, 0, 0, 0, 0], "stateRewards": ["", -1, 2, 6, 11, 21, -21, -21, -6, 48, -71, 88, -1, -3, 3, 7, 64, 2, 9, -4, 37, -67, 72, 2, 2, -8, -8, -10, 71, -40, -3, 73, 80, 47], "withholdReward": false, "trial_id": "mdp_trial_36", "block": "test", "trialIndex": 37, "score": 14.65, "costs": -0.35, "simulationMode": [null, null, null, null, null], "rewards": [-1, -3, 3, 7, 9], "path": ["0", "0", "12", "13", "14", "15", "18"], "rt": [7438, 57, 69, 123, 31], "actions": ["right", "right", "right", "up", "left"], "actionTimes": [10258, 10820, 11398, 12019, 12560], "queries": {"click": {"state": {"target": ["13"], "time": [5249]}, "edge": {"target": [], "time": []}}, "mouseover": {"state": {"target": ["23", "0", "12", "13", "12", "18"], "time": [3881, 4247, 4311, 4862, 6496, 8912]}, "edge": {"target": [], "time": []}}, "mouseout": {"state": {"target": ["28", "26", "27", "2", "12", "23", "0", "12", "13", "12", "18", "7", "2"], "time": [362, 394, 562, 611, 1079, 4179, 4295, 4344, 5544, 6996, 13718, 17812, 17928]}, "edge": {"target": [], "time": []}}}, "displayed_time": "16.82", "trialTime": 18677, "trial_type": "mouselab-mdp", "trial_index": 44, "time_elapsed": 1234292, "internal_node_id": "0.0-4.0-1.0-35.0"}}, {"uniqueid": "w60047818:a36373858", "current_trial": 45, "dateTime": 1691143359167, "trialdata": {"revealed_states": [], "clicked_states": ["30"], "num_clicks_accrued": [0, 0, 0, 0, 0, 0, 0, 0, 0, 0, 0, 0, 0], "stateRewards": ["", 2, -3, 5, -14, -63, -9, -24, -11, -54, -43, 68, 2, -2, -4, 7, -64, 30, 47, 12, -74, 11, 86, 1, -3, 3, 10, -71, -42, -52, -1, -29, -16, 69], "withholdReward": false, "trial_id": "mdp_trial_37", "block": "test", "trialIndex": 38, "score": -32.55, "costs": -1.55, "simulationMode": [null, null, null, null, null], "rewards": [1, -3, 3, 10, -42], "path": ["0", "0", "23", "24", "25", "26", "28"], "rt": [5544, 451, 127, 360, 437], "actions": ["left", "left", "left", "up", "right"], "actionTimes": [7628, 8595, 9238, 10103, 11047], "queries": {"click": {"state": {"target": ["30"], "time": [4242]}, "edge": {"target": [], "time": []}}, "mouseover": {"state": {"target": ["28", "26", "26", "25", "30", "31"], "time": [2727, 3042, 3609, 3676, 3977, 4725]}, "edge": {"target": [], "time": []}}, "mouseout": {"state": {"target": ["11", "11", "10", "1", "28", "26", "26", "25", "30", "31"], "time": [909, 1359, 1426, 1676, 3009, 3260, 3625, 3743, 4627, 5093]}, "edge": {"target": [], "time": []}}}, "displayed_time": "16.09", "trialTime": 17347, "trial_type": "mouselab-mdp", "trial_index": 45, "time_elapsed": 1251848, "internal_node_id": "0.0-4.0-1.0-36.0"}}, {"uniqueid": "w60047818:a36373858", "current_trial": 46, "dateTime": 1691143377808, "trialdata": {"revealed_states": [], "clicked_states": ["10"], "num_clicks_accrued": [0, 0, 0, 0, 0, 0, 0, 0, 0, 0, 0, 0, 0], "stateRewards": ["", -1, -3, 3, 5, 56, 39, 50, -1, -80, 33, -46, 1, -2, -6, -8, 87, 48, 54, -11, -20, -64, -54, -2, 3, -7, -3, 12, 88, 35, -16, -46, -70, -3], "withholdReward": false, "trial_id": "mdp_trial_38", "block": "test", "trialIndex": 39, "score": 28.85, "costs": -2.15, "simulationMode": [null, null, null, null, null], "rewards": [-1, -3, 3, -1, 33], "path": ["0", "0", "1", "2", "3", "8", "10"], "rt": [5913, 475, 213, 81, 45], "actions": ["up", "up", "up", "left", "down"], "actionTimes": [8047, 9024, 9747, 10346, 10909], "queries": {"click": {"state": {"target": ["10"], "time": [4049]}, "edge": {"target": [], "time": []}}, "mouseover": {"state": {"target": ["23", "24", "10", "2", "2", "10"], "time": [2613, 2715, 3099, 3132, 3399, 3782]}, "edge": {"target": [], "time": []}}, "mouseout": {"state": {"target": ["0", "0", "23", "24", "10", "2", "2", "10", "7", "1", "0"], "time": [1281, 2599, 2648, 2766, 3131, 3199, 3701, 4414, 16398, 17398, 17847]}, "edge": {"target": [], "time": []}}}, "displayed_time": "16.14", "trialTime": 18425, "trial_type": "mouselab-mdp", "trial_index": 46, "time_elapsed": 1270489, "internal_node_id": "0.0-4.0-1.0-37.0"}}, {"uniqueid": "w60047818:a36373858", "current_trial": 47, "dateTime": 1691143395809, "trialdata": {"revealed_states": [], "clicked_states": ["16"], "num_clicks_accrued": [0, 0, 0, 0, 0, 0, 0, 0, 0, 0, 0, 0, 0], "stateRewards": ["", -2, 2, 3, -7, 76, 63, 21, 15, 35, -8, -44, 1, 1, -2, -12, 23, 24, 76, -9, 46, 66, -49, -2, -1, 7, 12, 40, -71, -45, -6, 38, -49, 46], "withholdReward": false, "trial_id": "mdp_trial_39", "block": "test", "trialIndex": 40, "score": 9.85, "costs": -2.15, "simulationMode": [null, null, null, null, null], "rewards": [1, 1, -2, -12, 24], "path": ["0", "0", "12", "13", "14", "15", "17"], "rt": [6090, 47, 607, 509, 316], "actions": ["right", "right", "right", "up", "right"], "actionTimes": [7501, 8061, 9187, 10189, 10995], "queries": {"click": {"state": {"target": ["16"], "time": [3232]}, "edge": {"target": [], "time": []}}, "mouseover": {"state": {"target": ["12", "15", "16", "17", "19", "21"], "time": [1896, 1997, 2996, 3595, 4328, 4712]}, "edge": {"target": [], "time": []}}, "mouseout": {"state": {"target": ["0", "12", "15", "16", "17", "19", "21", "22"], "time": [978, 1911, 2663, 3561, 3612, 4662, 4797, 14212]}, "edge": {"target": [], "time": []}}}, "displayed_time": "15.41", "trialTime": 17795, "trial_type": "mouselab-mdp", "trial_index": 47, "time_elapsed": 1288490, "internal_node_id": "0.0-4.0-1.0-38.0"}}, {"uniqueid": "w60047818:a36373858", "current_trial": 48, "dateTime": 1691143415879, "trialdata": {"revealed_states": [], "clicked_states": ["7"], "num_clicks_accrued": [0, 0, 0, 0, 0, 0, 0, 0, 0, 0, 0, 0, 0], "stateRewards": ["", 2, -1, 8, -2, -16, 69, -39, -7, -13, -27, -86, 2, -2, 2, 13, -34, -16, -20, -5, 19, 81, 32, -2, -1, 2, -14, 20, 80, 58, 4, 70, 12, 73], "withholdReward": false, "trial_id": "mdp_trial_40", "block": "test", "trialIndex": 41, "score": 40.85, "costs": -2.15, "simulationMode": [null, null, null, null, null], "rewards": [-2, -1, 2, -14, 58], "path": ["0", "0", "23", "24", "25", "26", "29"], "rt": [6381, 52, 74, 96, 28], "actions": ["left", "left", "left", "up", "left"], "actionTimes": [7977, 8518, 9106, 9712, 10229], "queries": {"click": {"state": {"target": ["7"], "time": [3910]}, "edge": {"target": [], "time": []}}, "mouseover": {"state": {"target": ["28", "26", "10", "7"], "time": [2250, 2381, 2916, 3649]}, "edge": {"target": [], "time": []}}, "mouseout": {"state": {"target": ["0", "28", "26", "10", "7", "7"], "time": [832, 2364, 2514, 2948, 3917, 4914]}, "edge": {"target": [], "time": []}}}, "displayed_time": "15.60", "trialTime": 19866, "trial_type": "mouselab-mdp", "trial_index": 48, "time_elapsed": 1308561, "internal_node_id": "0.0-4.0-1.0-39.0"}}, {"uniqueid": "w60047818:a36373858", "current_trial": 49, "dateTime": 1691143484398, "trialdata": {"rt": 68512, "response": {"Q0": "$-2 to $2", "Q1": "$-4 to $4", "Q2": "$-88 to $88", "Q3": "The cost for clicking on nodes varied between nodes.", "Q4": "Very motivated"}, "question_order": [0, 1, 2, 3, 4], "trial_id": "final_quiz_control", "trial_type": "survey-multi-choice", "trial_index": 49, "time_elapsed": 1377080, "internal_node_id": "0.0-4.0-2.0"}}, {"uniqueid": "w60047818:a36373858", "current_trial": 50, "dateTime": 1691143781482, "trialdata": {"rt": 297076, "response": {"Q0": "The strategy i used for this game was clicking on a particular node to see the value inside the node. if the value was i negative i choose a different node. if the node was positive but the positive value was low i would either choose that node or choose another node in hopes of getting a higher amount.", "Q1": "yes. at the beginning after inspecting the node i would choose that very same node i inspected regardless of the value(be it positive or negative). after playing a few times i realized that inspecting the node helps me make the right decision and that i dont have to make the insepected node my final decision.", "Q2": "it was not that difficult"}, "trial_id": "self_report_control", "trial_type": "survey-text", "trial_index": 50, "time_elapsed": 1674163, "internal_node_id": "0.0-4.0-3.0"}}, {"uniqueid": "w60047818:a36373858", "current_trial": 51, "dateTime": 1691143862265, "trialdata": {"rt": 80778, "response": {"Q0": "Strongly disagree", "Q1": "Disagree", "Q2": "Agree", "Q3": "Strongly agree", "Q4": "Strongly agree", "Q5": "Agree", "Q6": "Disagree"}, "question_order": [0, 1, 2, 3, 4, 5, 6], "trial_id": "self_report_2", "trial_type": "survey-multi-choice", "trial_index": 51, "time_elapsed": 1754947, "internal_node_id": "0.0-4.0-4.0"}}, {"uniqueid": "w60047818:a36373858", "current_trial": 52, "dateTime": 1691143904835, "trialdata": {"rt": 42562, "response": {"gender": "female", "age": "33", "colorblind": "0", "effort": "0"}, "trial_type": "survey-html-form", "trial_index": 52, "time_elapsed": 1797517, "internal_node_id": "0.0-4.0-5.0"}}, {"uniqueid": "w60047818:a36373858", "current_trial": 53, "dateTime": 1691143985459, "trialdata": {"rt": 80616, "response": {"Q0": "nope, everything was clear.", "Q1": "i do not recall participating in other HITs", "Q2": "no additional comments"}, "trial_type": "survey-text", "trial_index": 53, "time_elapsed": 1878141, "internal_node_id": "0.0-4.0-6.0"}}, {"uniqueid": "w60047818:a36373858", "current_trial": 54, "dateTime": 1691143989281, "trialdata": {"rt": 3815, "stimulus": "Press 'Finish HIT' in order to reach the completion code. Once the data has been saved, you will receive the code either in this window or in the original browser window where you started the experiment.\n", "response": 0, "trial_type": "html-button-response", "trial_index": 54, "time_elapsed": 1881963, "internal_node_id": "0.0-5.0"}}, {"uniqueid": "w60047818:a36373858", "current_trial": 55, "dateTime": 1691143990285, "trialdata": {"success": true, "trial_type": "fullscreen", "trial_index": 55, "time_elapsed": 1882967, "internal_node_id": "0.0-6.0"}}], "questiondata": {"params": {"CODE": "C6DMOQA6", "MIN_TIME": 14, "inspectCost": 1, "startTime": "Fri Aug 04 2023 11:41:45 GMT+0200 (South Africa Standard Time)", "bonusRate": 0.002, "variance": "1_2_4_8_44", "branching": "31123"}, "final_score": 884.25}, "eventdata": [{"eventtype": "initialized", "value": null, "timestamp": 1691142105102, "interval": 0}, {"eventtype": "window_resize", "value": [1032, 600], "timestamp": 1691142105102, "interval": 0}, {"eventtype": "window_resize", "value": [1032, 600], "timestamp": 1691142105588, "interval": 486}, {"eventtype": "window_resize", "value": [1280, 720], "timestamp": 1691142109332, "interval": 3744}, {"eventtype": "window_resize", "value": [1032, 600], "timestamp": 1691143989529, "interval": 1880197}], "useragent": "Mozilla/5.0 (Windows NT 10.0; Win64; x64) AppleWebKit/537.36 (KHTML, like Gecko) Chrome/115.0.0.0 Safari/537.36", "mode": "live", "id": "w60047818:a36373858", "status": "user data saved", "Beginhit": "2023-08-04 09:41:40.02148", "Beginexp": "2023-08-04 09:41:48.013314", "Endhit": "2023-08-04 10:13:09.252172", "psiturkStatus": 3, "browser": "<redacted>", "platform": "windows", "language": "en-US"}