{"condition": 0, "counterbalance": 0, "assignmentId": "a59978130", "workerId": "w54160308", "hitId": "h99836586", "currenttrial": 67, "bonus": 0, "data": [{"uniqueid": "w54160308:a59978130", "current_trial": 0, "dateTime": 1693388950593, "trialdata": {"success": true, "trial_type": "fullscreen", "trial_index": 0, "time_elapsed": 6406, "internal_node_id": "0.0-0.0"}}, {"uniqueid": "w54160308:a59978130", "current_trial": 1, "dateTime": 1693388976617, "trialdata": {"view_history": [{"page_index": 0, "viewing_time": 25982}], "rt": 25985, "trial_id": "exp_instructions_control", "trial_type": "instructions", "trial_index": 1, "time_elapsed": 32431, "internal_node_id": "0.0-1.0"}}, {"uniqueid": "w54160308:a59978130", "current_trial": 2, "dateTime": 1693389099515, "trialdata": {"view_history": [{"page_index": 0, "viewing_time": 52555}, {"page_index": 1, "viewing_time": 37834}, {"page_index": 2, "viewing_time": 15803}, {"page_index": 3, "viewing_time": 16701}], "rt": 122894, "trial_id": "mouselab_instructions_1_control", "trial_type": "instructions", "trial_index": 2, "time_elapsed": 155329, "internal_node_id": "0.0-2.0-1.0"}}, {"uniqueid": "w54160308:a59978130", "current_trial": 3, "dateTime": 1693389121057, "trialdata": {"revealed_states": [], "clicked_states": [], "num_clicks_accrued": [0, 0, 0, 0, 0, 0, 0, 0, 0, 0, 0, 0, 0], "stateRewards": ["", -10, -10, 10, 10, 10, -10, -10, 10, 10, -10, 10, 10, 10, 10, -10, 10, 10, 10, 10, -10, 10, 10, 10, -10, 10, 10, 10, -10, 10, -10, 10, 10, -10], "withholdReward": false, "trial_id": "practice_1", "block": "test", "trialIndex": 0, "score": -6.5, "costs": 0, "simulationMode": [null, null, null, null, null], "rewards": [-10, -10, 10, 10, -10], "path": ["0", "0", "1", "2", "3", "8", "10"], "rt": [1305, 753, 1276, 437, 293], "actions": ["up", "up", "up", "left", "down"], "actionTimes": [5624, 6945, 8750, 9723, 10554], "queries": {"click": {"state": {"target": [], "time": []}, "edge": {"target": [], "time": []}}, "mouseover": {"state": {"target": [], "time": []}, "edge": {"target": [], "time": []}}, "mouseout": {"state": {"target": ["0"], "time": [3661]}, "edge": {"target": [], "time": []}}}, "displayed_time": "11.11", "trialTime": 20273, "trial_type": "mouselab-mdp", "trial_index": 3, "time_elapsed": 176869, "internal_node_id": "0.0-2.0-2.0-0.0"}}, {"uniqueid": "w54160308:a59978130", "current_trial": 4, "dateTime": 1693389134051, "trialdata": {"revealed_states": [], "clicked_states": [], "num_clicks_accrued": [0, 0, 0, 0, 0, 0, 0, 0, 0, 0, 0, 0, 0], "stateRewards": ["", -10, 10, -10, -10, 10, 10, -10, 10, -10, 10, -10, 10, 10, -10, -10, -10, 10, -10, -10, -10, 10, 10, -10, -10, -10, 10, -10, -10, 10, 10, 10, 10, 10], "withholdReward": false, "trial_id": "practice_2", "block": "test", "trialIndex": 1, "score": 13.5, "costs": 0, "simulationMode": [null, null, null, null, null], "rewards": [10, 10, -10, -10, 10], "path": ["0", "0", "12", "13", "14", "15", "17"], "rt": [2637, 644, 652, 790, 155], "actions": ["right", "right", "right", "up", "right"], "actionTimes": [4367, 5560, 6770, 8086, 8770], "queries": {"click": {"state": {"target": [], "time": []}, "edge": {"target": [], "time": []}}, "mouseover": {"state": {"target": [], "time": []}, "edge": {"target": [], "time": []}}, "mouseout": {"state": {"target": ["0", "0", "18"], "time": [1313, 10739, 10790]}, "edge": {"target": [], "time": []}}}, "displayed_time": "9.30", "trialTime": 12313, "trial_type": "mouselab-mdp", "trial_index": 4, "time_elapsed": 189864, "internal_node_id": "0.0-2.0-2.0-1.0"}}, {"uniqueid": "w54160308:a59978130", "current_trial": 5, "dateTime": 1693389206984, "trialdata": {"view_history": [{"page_index": 0, "viewing_time": 23259}, {"page_index": 1, "viewing_time": 6577}, {"page_index": 0, "viewing_time": 35156}, {"page_index": 1, "viewing_time": 7931}], "rt": 72923, "trial_id": "mouselab_instructions_2_control", "trial_type": "instructions", "trial_index": 5, "time_elapsed": 262798, "internal_node_id": "0.0-2.0-3.0"}}, {"uniqueid": "w54160308:a59978130", "current_trial": 6, "dateTime": 1693389291547, "trialdata": {"rt": 84555, "response": {"Q0": "The cost for clicking on nodes may vary between nodes.", "Q1": "The better I perform the higher my bonus will be.", "Q2": "No, the amount of cash at each node of the web may be different each time.", "Q3": "To get the highest total score.", "Q4": "Any time during the round.", "Q5": "3 seconds"}, "question_order": [0, 1, 2, 3, 4, 5], "correct": {"Q0": "The cost for clicking on nodes may vary between nodes.", "Q1": "The better I perform the higher my bonus will be.", "Q2": "No, the amount of cash at each node of the web may be different each time.", "Q3": "To get the highest total score.", "Q4": "Only before moving the spider.", "Q5": "3 seconds"}, "trial_id": "mouselab_quiz_control", "trial_type": "survey-multi-choice", "trial_index": 6, "time_elapsed": 347361, "internal_node_id": "0.0-2.0-4.0"}}, {"uniqueid": "w54160308:a59978130", "current_trial": 7, "dateTime": 1693389316514, "trialdata": {"success": true, "trial_type": "fullscreen", "trial_index": 7, "time_elapsed": 372328, "internal_node_id": "0.0-2.1-0.1-0.1"}}, {"uniqueid": "w54160308:a59978130", "current_trial": 8, "dateTime": 1693389431605, "trialdata": {"view_history": [{"page_index": 0, "viewing_time": 38800}, {"page_index": 1, "viewing_time": 41946}, {"page_index": 2, "viewing_time": 14024}, {"page_index": 3, "viewing_time": 20304}], "rt": 115074, "trial_id": "mouselab_instructions_1_control", "trial_type": "instructions", "trial_index": 8, "time_elapsed": 487419, "internal_node_id": "0.0-2.1-1.1"}}, {"uniqueid": "w54160308:a59978130", "current_trial": 9, "dateTime": 1693389449397, "trialdata": {"revealed_states": [], "clicked_states": ["23", "12"], "num_clicks_accrued": [0, 0, 0, 0, 0, 0, 0, 0, 0, 0, 0, 0, 0], "stateRewards": ["", -10, -10, 10, 10, 10, -10, -10, 10, 10, -10, 10, 10, 10, 10, -10, 10, 10, 10, 10, -10, 10, 10, 10, -10, 10, 10, 10, -10, 10, -10, 10, 10, -10], "withholdReward": false, "trial_id": "practice_1", "block": "test", "trialIndex": 2, "score": 32.5, "costs": -1, "simulationMode": [null, null, null, null, null], "rewards": [10, 10, 10, -10, 10], "path": ["0", "0", "12", "13", "14", "15", "18"], "rt": [5445, 2983, 1295, 294, 370], "actions": ["right", "right", "right", "up", "left"], "actionTimes": [7592, 11099, 12924, 13765, 14664], "queries": {"click": {"state": {"target": ["23", "12"], "time": [3949, 5478]}, "edge": {"target": [], "time": []}}, "mouseover": {"state": {"target": ["23", "24", "23", "0", "12"], "time": [2639, 2786, 3385, 4731, 4975]}, "edge": {"target": [], "time": []}}, "mouseout": {"state": {"target": ["0", "23", "24", "23", "0", "12", "13"], "time": [2617, 2668, 3173, 4713, 4791, 8569, 16999]}, "edge": {"target": [], "time": []}}}, "displayed_time": "15.20", "trialTime": 17318, "trial_type": "mouselab-mdp", "trial_index": 9, "time_elapsed": 505209, "internal_node_id": "0.0-2.1-2.1-0.1"}}, {"uniqueid": "w54160308:a59978130", "current_trial": 10, "dateTime": 1693389469235, "trialdata": {"revealed_states": [], "clicked_states": ["21", "13", "23"], "num_clicks_accrued": [0, 0, 0, 0, 0, 0, 0, 0, 0, 0, 0, 0, 0], "stateRewards": ["", -10, 10, -10, -10, 10, 10, -10, 10, -10, 10, -10, 10, 10, -10, -10, -10, 10, -10, -10, -10, 10, 10, -10, -10, -10, 10, -10, -10, 10, 10, 10, 10, 10], "withholdReward": false, "trial_id": "practice_2", "block": "test", "trialIndex": 3, "score": -8, "costs": -1.5, "simulationMode": [null, null, null, null, null], "rewards": [-10, -10, -10, 10, 10], "path": ["0", "0", "23", "24", "25", "26", "29"], "rt": [10529, 184, 325, 146, 188], "actions": ["left", "left", "left", "up", "left"], "actionTimes": [14027, 14759, 15609, 16298, 17015], "queries": {"click": {"state": {"target": ["21", "13", "23"], "time": [4965, 10597, 12535]}, "edge": {"target": [], "time": []}}, "mouseover": {"state": {"target": ["21", "22", "13", "18", "12", "0", "23"], "time": [4322, 6139, 6936, 11165, 11779, 11799, 12218]}, "edge": {"target": [], "time": []}}, "mouseout": {"state": {"target": ["0", "21", "22", "13", "18", "12", "0", "23", "0"], "time": [3866, 5145, 6187, 11018, 11761, 11796, 11811, 18627, 18645]}, "edge": {"target": [], "time": []}}}, "displayed_time": "17.53", "trialTime": 18995, "trial_type": "mouselab-mdp", "trial_index": 10, "time_elapsed": 525047, "internal_node_id": "0.0-2.1-2.1-1.1"}}, {"uniqueid": "w54160308:a59978130", "current_trial": 11, "dateTime": 1693389478958, "trialdata": {"view_history": [{"page_index": 0, "viewing_time": 7892}, {"page_index": 1, "viewing_time": 1822}], "rt": 9714, "trial_id": "mouselab_instructions_2_control", "trial_type": "instructions", "trial_index": 11, "time_elapsed": 534772, "internal_node_id": "0.0-2.1-3.1"}}, {"uniqueid": "w54160308:a59978130", "current_trial": 12, "dateTime": 1693389574989, "trialdata": {"rt": 96025, "response": {"Q0": "The cost for clicking on nodes may vary between nodes.", "Q1": "I will receive a $1 bonus regardless of my performance.", "Q2": "No, the amount of cash at each node of the web may be different each time.", "Q3": "To get the highest total score.", "Q4": "Only before moving the spider.", "Q5": "3 seconds"}, "question_order": [0, 1, 2, 3, 4, 5], "correct": {"Q0": "The cost for clicking on nodes may vary between nodes.", "Q1": "The better I perform the higher my bonus will be.", "Q2": "No, the amount of cash at each node of the web may be different each time.", "Q3": "To get the highest total score.", "Q4": "Only before moving the spider.", "Q5": "3 seconds"}, "trial_id": "mouselab_quiz_control", "trial_type": "survey-multi-choice", "trial_index": 12, "time_elapsed": 630803, "internal_node_id": "0.0-2.1-4.1"}}, {"uniqueid": "w54160308:a59978130", "current_trial": 13, "dateTime": 1693389605236, "trialdata": {"success": true, "trial_type": "fullscreen", "trial_index": 13, "time_elapsed": 661050, "internal_node_id": "0.0-2.2-0.2-0.2"}}, {"uniqueid": "w54160308:a59978130", "current_trial": 14, "dateTime": 1693389613992, "trialdata": {"view_history": [{"page_index": 0, "viewing_time": 3485}, {"page_index": 1, "viewing_time": 3918}, {"page_index": 2, "viewing_time": 5}, {"page_index": 3, "viewing_time": 1335}], "rt": 8744, "trial_id": "mouselab_instructions_1_control", "trial_type": "instructions", "trial_index": 14, "time_elapsed": 669806, "internal_node_id": "0.0-2.2-1.2"}}, {"uniqueid": "w54160308:a59978130", "current_trial": 15, "dateTime": 1693389623558, "trialdata": {"revealed_states": [], "clicked_states": [], "num_clicks_accrued": [0, 0, 0, 0, 0, 0, 0, 0, 0, 0, 0, 0, 0], "stateRewards": ["", -10, -10, 10, 10, 10, -10, -10, 10, 10, -10, 10, 10, 10, 10, -10, 10, 10, 10, 10, -10, 10, 10, 10, -10, 10, 10, 10, -10, 10, -10, 10, 10, -10], "withholdReward": false, "trial_id": "practice_1", "block": "test", "trialIndex": 4, "score": 13.5, "costs": 0, "simulationMode": [null, null, null, null, null], "rewards": [-10, -10, 10, 10, 10], "path": ["0", "0", "1", "2", "3", "8", "9"], "rt": [1475, 265, 805, 77, 55], "actions": ["up", "up", "up", "left", "up"], "actionTimes": [4120, 4914, 6250, 6865, 7435], "queries": {"click": {"state": {"target": [], "time": []}, "edge": {"target": [], "time": []}}, "mouseover": {"state": {"target": [], "time": []}, "edge": {"target": [], "time": []}}, "mouseout": {"state": {"target": ["0"], "time": [1111]}, "edge": {"target": [], "time": []}}}, "displayed_time": "7.98", "trialTime": 8725, "trial_type": "mouselab-mdp", "trial_index": 15, "time_elapsed": 679370, "internal_node_id": "0.0-2.2-2.2-0.2"}}, {"uniqueid": "w54160308:a59978130", "current_trial": 16, "dateTime": 1693389631128, "trialdata": {"revealed_states": [], "clicked_states": [], "num_clicks_accrued": [0, 0, 0, 0, 0, 0, 0, 0, 0, 0, 0, 0, 0], "stateRewards": ["", -10, 10, -10, -10, 10, 10, -10, 10, -10, 10, -10, 10, 10, -10, -10, -10, 10, -10, -10, -10, 10, 10, -10, -10, -10, 10, -10, -10, 10, 10, 10, 10, 10], "withholdReward": false, "trial_id": "practice_2", "block": "test", "trialIndex": 5, "score": -6.5, "costs": 0, "simulationMode": [null, null, null, null, null], "rewards": [-10, -10, -10, 10, 10], "path": ["0", "0", "23", "24", "25", "30", "31"], "rt": [1662, 138, 88, 53, 348], "actions": ["left", "left", "left", "down", "right"], "actionTimes": [2877, 3588, 4201, 4785, 5679], "queries": {"click": {"state": {"target": [], "time": []}, "edge": {"target": [], "time": []}}, "mouseover": {"state": {"target": [], "time": []}, "edge": {"target": [], "time": []}}, "mouseout": {"state": {"target": [], "time": []}, "edge": {"target": [], "time": []}}}, "displayed_time": "6.22", "trialTime": 6854, "trial_type": "mouselab-mdp", "trial_index": 16, "time_elapsed": 686941, "internal_node_id": "0.0-2.2-2.2-1.2"}}, {"uniqueid": "w54160308:a59978130", "current_trial": 17, "dateTime": 1693389679108, "trialdata": {"view_history": [{"page_index": 0, "viewing_time": 46072}, {"page_index": 1, "viewing_time": 1900}], "rt": 47973, "trial_id": "mouselab_instructions_2_control", "trial_type": "instructions", "trial_index": 17, "time_elapsed": 734922, "internal_node_id": "0.0-2.2-3.2"}}, {"uniqueid": "w54160308:a59978130", "current_trial": 18, "dateTime": 1693389815649, "trialdata": {"rt": 136485, "response": {"Q0": "The cost for clicking on nodes may vary between nodes.", "Q1": "The better I perform the higher my bonus will be.", "Q2": "No, the amount of cash at each node of the web may be different each time.", "Q3": "To get the highest total score.", "Q4": "Only before moving the spider.", "Q5": "3 seconds"}, "question_order": [0, 1, 2, 3, 4, 5], "correct": {"Q0": "The cost for clicking on nodes may vary between nodes.", "Q1": "The better I perform the higher my bonus will be.", "Q2": "No, the amount of cash at each node of the web may be different each time.", "Q3": "To get the highest total score.", "Q4": "Only before moving the spider.", "Q5": "3 seconds"}, "trial_id": "mouselab_quiz_control", "trial_type": "survey-multi-choice", "trial_index": 18, "time_elapsed": 871463, "internal_node_id": "0.0-2.2-4.2"}}, {"uniqueid": "w54160308:a59978130", "current_trial": 19, "dateTime": 1693389824599, "trialdata": {"rt": 8937, "response": {"Q0": "No"}, "question_order": [0], "trial_id": "repeat_check", "trial_type": "survey-multi-choice", "trial_index": 19, "time_elapsed": 880412, "internal_node_id": "0.0-4.0-0.0"}}, {"uniqueid": "w54160308:a59978130", "current_trial": 20, "dateTime": 1693389838984, "trialdata": {"rt": 14376, "stimulus": "\n<h1> Get ready to start the game! </h1>\n\nThank you for reading the instructions. Get ready start with the 40 rounds of this game.\n<br><br>\nIf you need to take a break, feel free to take one after the end of a round, before continuing to the next one.\n<br><br>\nRemember, the more money the spider gets, the bigger your bonus will be!\n<br><br>\n<div style='text-align: center;'>Press <code>space</code> to begin.</div>\n\n<br><br>\n(If, at any point, the <code>space</code> key does not take you to the next page, click once on the text and try again.)", "response": " ", "trial_id": "mdp_ready", "trial_type": "html-keyboard-response", "trial_index": 20, "time_elapsed": 894798, "internal_node_id": "0.0-6.0-0.0"}}, {"uniqueid": "w54160308:a59978130", "current_trial": 21, "dateTime": 1693389858334, "trialdata": {"revealed_states": [], "clicked_states": ["1", "12", "23"], "num_clicks_accrued": [0, 0, 0, 0, 0, 0, 0, 0, 0, 0, 0, 0, 0], "stateRewards": ["", -1, 1, 8, -3, -24, 11, -65, -6, -77, 48, 44, -2, 1, -2, -7, -55, -35, 33, 8, -28, 19, -53, -1, -1, -5, -5, -70, 10, 44, 8, -58, -70, 51], "withholdReward": false, "trial_id": "mdp_trial_1", "block": "test", "trialIndex": 6, "score": -23.2, "costs": -4.199999999999999, "simulationMode": [null, null, null, null, null], "rewards": [-1, 1, 8, -3, -24], "path": ["0", "0", "1", "2", "3", "4", "5"], "rt": [7425, 482, 456, 307, 135], "actions": ["up", "up", "up", "right", "up"], "actionTimes": [9679, 10703, 11713, 12525, 13169], "queries": {"click": {"state": {"target": ["1", "12", "23"], "time": [4012, 6032, 7937]}, "edge": {"target": [], "time": []}}, "mouseover": {"state": {"target": ["1", "2", "2", "1", "12", "21", "22", "12", "23"], "time": [3016, 3110, 3467, 3524, 4646, 4712, 5196, 5544, 7066]}, "edge": {"target": [], "time": []}}, "mouseout": {"state": {"target": ["1", "0", "1", "2", "2", "1", "12", "21", "22", "12"], "time": [1345, 2969, 3076, 3135, 3497, 4618, 4663, 5192, 5215, 6812]}, "edge": {"target": [], "time": []}}}, "displayed_time": "16.27", "trialTime": 18609, "trial_type": "mouselab-mdp", "trial_index": 21, "time_elapsed": 914146, "internal_node_id": "0.0-6.0-1.0-0.0"}}, {"uniqueid": "w54160308:a59978130", "current_trial": 22, "dateTime": 1693389876135, "trialdata": {"revealed_states": [], "clicked_states": ["25", "24"], "num_clicks_accrued": [0, 0, 0, 0, 0, 0, 0, 0, 0, 0, 0, 0, 0], "stateRewards": ["", -1, 2, -2, 5, 80, -61, -27, 12, 44, -26, -75, -2, -4, 1, -16, 42, -49, -50, 4, -44, 2, 80, -2, -2, 5, -2, 59, 10, 24, 7, -48, -86, -44], "withholdReward": false, "trial_id": "mdp_trial_2", "block": "test", "trialIndex": 7, "score": 20.2, "costs": -2.8, "simulationMode": [null, null, null, null, null, null], "rewards": [-2, -2, 5, -2, 24], "path": ["0", "0", "23", "24", "25", "26", "29"], "rt": [6354, 1231, 244, 163, 239, 136], "actions": ["left", "left", "left", "left", "up", "left"], "actionTimes": [8000, 9241, 10028, 10745, 11506, 12170], "queries": {"click": {"state": {"target": ["25", "24"], "time": [3741, 6491]}, "edge": {"target": [], "time": []}}, "mouseover": {"state": {"target": ["23", "24", "32", "30", "25", "23", "0", "13", "13", "26", "26", "24", "24"], "time": [1844, 2092, 2607, 2920, 3427, 4444, 4470, 4522, 5323, 5407, 5592, 5688, 6047]}, "edge": {"target": [], "time": []}}, "mouseout": {"state": {"target": ["23", "0", "23", "24", "32", "30", "25", "23", "0", "13", "13", "26", "26", "24"], "time": [89, 1813, 2008, 2192, 2846, 2959, 4419, 4464, 4488, 4548, 5354, 5424, 5618, 5714]}, "edge": {"target": [], "time": []}}}, "displayed_time": "15.65", "trialTime": 16934, "trial_type": "mouselab-mdp", "trial_index": 22, "time_elapsed": 931948, "internal_node_id": "0.0-6.0-1.0-1.0"}}, {"uniqueid": "w54160308:a59978130", "current_trial": 23, "dateTime": 1693389894481, "trialdata": {"revealed_states": [], "clicked_states": ["9", "2"], "num_clicks_accrued": [0, 0, 0, 0, 0, 0, 0, 0, 0, 0, 0, 0, 0], "stateRewards": ["", 1, 3, 1, -13, 52, -28, 67, -14, 3, 63, -70, -1, -4, 7, -11, -10, 47, -18, 6, 69, -9, -61, 2, 3, -6, 10, 63, -34, 40, -6, -79, -35, -32], "withholdReward": false, "trial_id": "mdp_trial_3", "block": "test", "trialIndex": 8, "score": -81.8, "costs": -2.8, "simulationMode": [null, null, null, null, null], "rewards": [1, 3, 1, -14, -70], "path": ["0", "0", "1", "2", "3", "8", "11"], "rt": [6993, 117, 988, 50, 149], "actions": ["up", "up", "up", "left", "left"], "actionTimes": [8874, 9511, 11026, 11605, 12303], "queries": {"click": {"state": {"target": ["9", "2"], "time": [3040, 6246]}, "edge": {"target": [], "time": []}}, "mouseover": {"state": {"target": ["1", "9", "8", "10", "10", "2"], "time": [2394, 2645, 3854, 4177, 5030, 5845]}, "edge": {"target": [], "time": []}}, "mouseout": {"state": {"target": ["24", "0", "1", "9", "8", "10", "10", "2", "7"], "time": [738, 978, 2417, 3680, 4030, 4199, 5540, 14955, 15001]}, "edge": {"target": [], "time": []}}}, "displayed_time": "15.89", "trialTime": 17797, "trial_type": "mouselab-mdp", "trial_index": 23, "time_elapsed": 950293, "internal_node_id": "0.0-6.0-1.0-2.0"}}, {"uniqueid": "w54160308:a59978130", "current_trial": 24, "dateTime": 1693389912840, "trialdata": {"revealed_states": [], "clicked_states": [], "num_clicks_accrued": [0, 0, 0, 0, 0, 0, 0, 0, 0, 0, 0, 0, 0], "stateRewards": ["", -1, 3, -4, -14, 78, 67, 2, 13, -32, 28, 39, -2, 1, -4, -4, -4, -42, -86, 11, 64, -29, -32, -1, -4, 2, -7, 5, 68, -61, 2, -21, 85, 50], "withholdReward": false, "trial_id": "mdp_trial_4", "block": "test", "trialIndex": 9, "score": -13, "costs": 0, "simulationMode": [null, null, null, null, null], "rewards": [-2, 1, -4, -4, -4], "path": ["0", "0", "12", "13", "14", "15", "16"], "rt": [6332, 113, 673, 179, 50], "actions": ["right", "right", "right", "up", "up"], "actionTimes": [9116, 9771, 10968, 11661, 12236], "queries": {"click": {"state": {"target": [], "time": []}, "edge": {"target": [], "time": []}}, "mouseover": {"state": {"target": ["12", "18", "16", "15"], "time": [3911, 5155, 6532, 7296]}, "edge": {"target": [], "time": []}}, "mouseout": {"state": {"target": ["0", "12", "18", "16", "15", "17"], "time": [3889, 5098, 5247, 7262, 7395, 13860]}, "edge": {"target": [], "time": []}}}, "displayed_time": "16.80", "trialTime": 17549, "trial_type": "mouselab-mdp", "trial_index": 24, "time_elapsed": 968653, "internal_node_id": "0.0-6.0-1.0-3.0"}}, {"uniqueid": "w54160308:a59978130", "current_trial": 25, "dateTime": 1693389931315, "trialdata": {"revealed_states": [], "clicked_states": [], "num_clicks_accrued": [0, 0, 0, 0, 0, 0, 0, 0, 0, 0, 0, 0, 0], "stateRewards": ["", -1, -3, -7, -4, -85, -70, 79, 8, 84, -66, 42, 2, -2, -3, -16, -54, -66, 68, -3, 21, -14, 7, -2, -1, -3, -8, 75, 80, 86, -7, -84, 73, -16], "withholdReward": false, "trial_id": "mdp_trial_5", "block": "test", "trialIndex": 10, "score": 66, "costs": 0, "simulationMode": [null, null, null, null, null], "rewards": [-2, -1, -3, -8, 80], "path": ["0", "0", "23", "24", "25", "26", "28"], "rt": [5036, 230, 31, 713, 263], "actions": ["left", "left", "left", "up", "right"], "actionTimes": [7739, 8506, 9074, 10332, 11145], "queries": {"click": {"state": {"target": [], "time": []}, "edge": {"target": [], "time": []}}, "mouseover": {"state": {"target": ["24", "25", "23", "23"], "time": [3165, 3598, 3677, 4112]}, "edge": {"target": [], "time": []}}, "mouseout": {"state": {"target": ["20", "19", "12", "0", "24", "25", "23", "23", "15"], "time": [1688, 1737, 1761, 2083, 3191, 3627, 3718, 12380, 12448]}, "edge": {"target": [], "time": []}}}, "displayed_time": "16.72", "trialTime": 17868, "trial_type": "mouselab-mdp", "trial_index": 25, "time_elapsed": 987128, "internal_node_id": "0.0-6.0-1.0-4.0"}}, {"uniqueid": "w54160308:a59978130", "current_trial": 26, "dateTime": 1693389948786, "trialdata": {"revealed_states": [], "clicked_states": [], "num_clicks_accrued": [0, 0, 0, 0, 0, 0, 0, 0, 0, 0, 0, 0, 0], "stateRewards": ["", -2, 4, -7, -3, -76, 39, -28, 10, 14, 12, 60, 2, -3, 6, -10, 88, -34, -41, -3, 72, -13, -56, 1, 3, 2, 8, -51, 23, -57, 1, 14, -46, -16], "withholdReward": false, "trial_id": "mdp_trial_6", "block": "test", "trialIndex": 11, "score": -84, "costs": 0, "simulationMode": [null, null, null, null, null], "rewards": [-2, 4, -7, -3, -76], "path": ["0", "0", "1", "2", "3", "4", "5"], "rt": [1918, 87, 71, 37, 63], "actions": ["up", "up", "up", "right", "up"], "actionTimes": [3804, 4411, 5018, 5585, 6193], "queries": {"click": {"state": {"target": [], "time": []}, "edge": {"target": [], "time": []}}, "mouseover": {"state": {"target": [], "time": []}, "edge": {"target": [], "time": []}}, "mouseout": {"state": {"target": ["0", "0", "14"], "time": [928, 7301, 7372]}, "edge": {"target": [], "time": []}}}, "displayed_time": "15.89", "trialTime": 16741, "trial_type": "mouselab-mdp", "trial_index": 26, "time_elapsed": 1004598, "internal_node_id": "0.0-6.0-1.0-5.0"}}, {"uniqueid": "w54160308:a59978130", "current_trial": 27, "dateTime": 1693389966591, "trialdata": {"revealed_states": [], "clicked_states": ["23", "32", "12"], "num_clicks_accrued": [0, 0, 0, 0, 0, 0, 0, 0, 0, 0, 0, 0, 0], "stateRewards": ["", 1, -4, 6, -3, 40, 76, -51, 5, -24, -63, 44, -2, -2, 8, 1, 76, -85, -58, 10, 59, 20, 11, -2, 3, -3, 3, -82, -10, 54, -7, -57, -6, -32], "withholdReward": false, "trial_id": "mdp_trial_7", "block": "test", "trialIndex": 12, "score": 20.8, "costs": -4.199999999999999, "simulationMode": [null, null, null, null, null, null], "rewards": [-2, -2, 8, 10, 11], "path": ["0", "0", "12", "13", "14", "19", "22"], "rt": [8632, 770, 307, 207, 4, 222], "actions": ["right", "right", "right", "right", "down", "left"], "actionTimes": [10856, 11643, 12477, 13216, 13757, 14504], "queries": {"click": {"state": {"target": ["23", "32", "12"], "time": [4091, 6370, 9484]}, "edge": {"target": [], "time": []}}, "mouseover": {"state": {"target": ["23", "30", "32", "30", "24", "13", "12", "13"], "time": [3807, 4749, 4877, 6999, 8656, 9113, 9153, 10049]}, "edge": {"target": [], "time": []}}, "mouseout": {"state": {"target": ["19", "12", "0", "23", "30", "32", "30", "24", "13", "12", "13", "14", "14"], "time": [1201, 1236, 3639, 4651, 4819, 6557, 7170, 8702, 9127, 10015, 10119, 15451, 16734]}, "edge": {"target": [], "time": []}}}, "displayed_time": "16.23", "trialTime": 17118, "trial_type": "mouselab-mdp", "trial_index": 27, "time_elapsed": 1022404, "internal_node_id": "0.0-6.0-1.0-6.0"}}, {"uniqueid": "w54160308:a59978130", "current_trial": 28, "dateTime": 1693389987287, "trialdata": {"revealed_states": [], "clicked_states": ["15", "1"], "num_clicks_accrued": [0, 0, 0, 0, 0, 0, 0, 0, 0, 0, 0, 0, 0], "stateRewards": ["", -1, -3, 1, -4, -48, -63, -49, -2, -84, -19, 65, 2, -2, -2, -12, -4, 59, 9, 6, 75, 69, -13, -1, -3, -3, -2, -37, -68, -36, 13, 32, 18, -14], "withholdReward": false, "trial_id": "mdp_trial_8", "block": "test", "trialIndex": 13, "score": -72.8, "costs": -2.8, "simulationMode": [null, null, null, null, null], "rewards": [-1, -3, 1, -4, -63], "path": ["0", "0", "1", "2", "3", "4", "6"], "rt": [6699, 117, 59, 549, 562], "actions": ["up", "up", "up", "right", "right"], "actionTimes": [9232, 9864, 10464, 11523, 12689], "queries": {"click": {"state": {"target": ["15", "1"], "time": [4484, 7406]}, "edge": {"target": [], "time": []}}, "mouseover": {"state": {"target": ["18", "15", "18", "28", "1", "1"], "time": [4070, 4183, 5380, 5479, 5766, 7018]}, "edge": {"target": [], "time": []}}, "mouseout": {"state": {"target": ["13", "12", "0", "23", "18", "15", "18", "28", "1", "1", "16"], "time": [778, 819, 851, 1720, 4139, 4658, 5412, 5582, 5900, 13838, 13915]}, "edge": {"target": [], "time": []}}}, "displayed_time": "16.54", "trialTime": 19934, "trial_type": "mouselab-mdp", "trial_index": 28, "time_elapsed": 1043100, "internal_node_id": "0.0-6.0-1.0-7.0"}}, {"uniqueid": "w54160308:a59978130", "current_trial": 29, "dateTime": 1693390004576, "trialdata": {"revealed_states": [], "clicked_states": [], "num_clicks_accrued": [0, 0, 0, 0, 0, 0, 0, 0, 0, 0, 0, 0, 0], "stateRewards": ["", 1, 2, 8, -2, 23, -69, -18, -16, 54, -21, 71, -1, -4, 7, 11, 43, -6, 88, 6, -55, 72, 43, 1, -3, -2, -1, 68, -31, -54, 4, -8, 25, -2], "withholdReward": false, "trial_id": "mdp_trial_9", "block": "test", "trialIndex": 14, "score": 101, "costs": 0, "simulationMode": [null, null, null, null, null], "rewards": [-1, -4, 7, 11, 88], "path": ["0", "0", "12", "13", "14", "15", "18"], "rt": [5977, 36, 70, 547, 5], "actions": ["right", "right", "right", "up", "left"], "actionTimes": [7918, 8488, 9098, 10175, 10711], "queries": {"click": {"state": {"target": [], "time": []}, "edge": {"target": [], "time": []}}, "mouseover": {"state": {"target": ["28", "26", "30", "31", "14", "15"], "time": [3440, 4024, 4441, 4866, 5323, 5408]}, "edge": {"target": [], "time": []}}, "mouseout": {"state": {"target": ["12", "0", "28", "26", "30", "31", "14", "15", "19", "22"], "time": [923, 2624, 3490, 4174, 4841, 4892, 5376, 12907, 14374, 14423]}, "edge": {"target": [], "time": []}}}, "displayed_time": "15.95", "trialTime": 16509, "trial_type": "mouselab-mdp", "trial_index": 29, "time_elapsed": 1060388, "internal_node_id": "0.0-6.0-1.0-8.0"}}, {"uniqueid": "w54160308:a59978130", "current_trial": 30, "dateTime": 1693390021977, "trialdata": {"revealed_states": [], "clicked_states": ["23", "24"], "num_clicks_accrued": [0, 0, 0, 0, 0, 0, 0, 0, 0, 0, 0, 0, 0], "stateRewards": ["", -1, -4, -1, -11, 43, 69, 39, 4, 17, -20, -82, -2, -1, 4, 8, -79, 24, -79, 11, 36, 64, 41, 2, 4, -1, 11, -79, -47, 75, -3, 63, -36, -19], "withholdReward": false, "trial_id": "mdp_trial_10", "block": "test", "trialIndex": 15, "score": 88.2, "costs": -2.8, "simulationMode": [null, null, null, null, null, null], "rewards": [2, 4, -1, 11, 75], "path": ["0", "0", "23", "24", "25", "26", "29"], "rt": [3176, 663, 74, 109, 509, 7], "actions": ["left", "left", "left", "left", "up", "left"], "actionTimes": [5414, 6085, 6684, 7334, 8376, 8924], "queries": {"click": {"state": {"target": ["23", "24"], "time": [3136, 4725]}, "edge": {"target": [], "time": []}}, "mouseover": {"state": {"target": ["23", "23", "24"], "time": [2275, 2777, 3728]}, "edge": {"target": [], "time": []}}, "mouseout": {"state": {"target": ["0", "23", "23", "24"], "time": [2270, 2631, 3523, 10345]}, "edge": {"target": [], "time": []}}}, "displayed_time": "16.25", "trialTime": 16714, "trial_type": "mouselab-mdp", "trial_index": 30, "time_elapsed": 1077789, "internal_node_id": "0.0-6.0-1.0-9.0"}}, {"uniqueid": "w54160308:a59978130", "current_trial": 31, "dateTime": 1693390039704, "trialdata": {"revealed_states": [], "clicked_states": ["23"], "num_clicks_accrued": [0, 0, 0, 0, 0, 0, 0, 0, 0, 0, 0, 0, 0], "stateRewards": ["", 1, -3, -2, 14, 49, -40, -39, 2, 26, -61, 73, 1, -4, -8, 12, 79, 29, -65, -13, 55, -26, 27, -1, 3, 3, 9, -17, -60, -18, -8, 35, -88, 69], "withholdReward": false, "trial_id": "mdp_trial_11", "block": "test", "trialIndex": 16, "score": -92.4, "costs": -1.4, "simulationMode": [null, null, null, null, null], "rewards": [-1, 3, 3, -8, -88], "path": ["0", "0", "23", "24", "25", "30", "32"], "rt": [3245, 99, 87, 22, 47], "actions": ["left", "left", "left", "down", "down"], "actionTimes": [5531, 6158, 6763, 7307, 7873], "queries": {"click": {"state": {"target": ["23"], "time": [3846]}, "edge": {"target": [], "time": []}}, "mouseover": {"state": {"target": ["23", "23", "24"], "time": [2686, 2952, 4235]}, "edge": {"target": [], "time": []}}, "mouseout": {"state": {"target": ["20", "22", "0", "0", "0", "23", "23", "24", "16", "22"], "time": [846, 867, 898, 1351, 2586, 2735, 4183, 9378, 9452, 11719]}, "edge": {"target": [], "time": []}}}, "displayed_time": "16.30", "trialTime": 17006, "trial_type": "mouselab-mdp", "trial_index": 31, "time_elapsed": 1095517, "internal_node_id": "0.0-6.0-1.0-10.0"}}, {"uniqueid": "w54160308:a59978130", "current_trial": 32, "dateTime": 1693390058297, "trialdata": {"revealed_states": [], "clicked_states": [], "num_clicks_accrued": [0, 0, 0, 0, 0, 0, 0, 0, 0, 0, 0, 0, 0], "stateRewards": ["", -2, -3, 1, -14, 48, -49, 67, -1, -35, -48, 3, -2, 1, -4, -5, 86, -84, 39, 1, 48, 41, -42, -1, -4, 2, -7, 18, -86, 17, 7, -9, 57, -69], "withholdReward": false, "trial_id": "mdp_trial_12", "block": "test", "trialIndex": 17, "score": -67, "costs": 0, "simulationMode": [null, null, null, null, null], "rewards": [-2, -3, 1, -14, -49], "path": ["0", "0", "1", "2", "3", "4", "6"], "rt": [1117, 23, 544, 281, 546], "actions": ["up", "up", "up", "right", "right"], "actionTimes": [3372, 3930, 5045, 5855, 6937], "queries": {"click": {"state": {"target": [], "time": []}, "edge": {"target": [], "time": []}}, "mouseover": {"state": {"target": [], "time": []}, "edge": {"target": [], "time": []}}, "mouseout": {"state": {"target": ["0", "0", "16"], "time": [1585, 8240, 8298]}, "edge": {"target": [], "time": []}}}, "displayed_time": "16.26", "trialTime": 17901, "trial_type": "mouselab-mdp", "trial_index": 32, "time_elapsed": 1114110, "internal_node_id": "0.0-6.0-1.0-11.0"}}, {"uniqueid": "w54160308:a59978130", "current_trial": 33, "dateTime": 1693390076758, "trialdata": {"revealed_states": [], "clicked_states": ["1", "24", "12"], "num_clicks_accrued": [0, 0, 0, 0, 0, 0, 0, 0, 0, 0, 0, 0, 0], "stateRewards": ["", 2, -1, 1, 10, -52, 86, -22, -2, -14, -63, 38, 1, 3, 7, -8, 11, -32, -27, 9, -71, 40, -87, -2, -1, 5, -7, 12, 31, -57, 13, 86, -58, 29], "withholdReward": false, "trial_id": "mdp_trial_13", "block": "test", "trialIndex": 18, "score": -18.2, "costs": -4.199999999999999, "simulationMode": [null, null, null, null, null], "rewards": [2, -1, 1, -2, -14], "path": ["0", "0", "1", "2", "3", "8", "9"], "rt": [9548, 7, 30, 416, 109], "actions": ["up", "up", "up", "left", "up"], "actionTimes": [12430, 12989, 13562, 14509, 15154], "queries": {"click": {"state": {"target": ["1", "24", "12"], "time": [5197, 7864, 10064]}, "edge": {"target": [], "time": []}}, "mouseover": {"state": {"target": ["23", "12", "13", "12", "1", "23", "23", "24", "23", "12"], "time": [3599, 4263, 4346, 4661, 4763, 5981, 6348, 7058, 8407, 9763]}, "edge": {"target": [], "time": []}}, "mouseout": {"state": {"target": ["17", "15", "23", "0", "23", "12", "13", "12", "1", "23", "23", "24", "23", "12", "17"], "time": [1250, 1287, 1615, 3564, 3944, 4292, 4613, 4712, 5882, 6030, 6976, 8390, 9427, 16014, 16063]}, "edge": {"target": [], "time": []}}}, "displayed_time": "16.88", "trialTime": 17809, "trial_type": "mouselab-mdp", "trial_index": 33, "time_elapsed": 1132570, "internal_node_id": "0.0-6.0-1.0-12.0"}}, {"uniqueid": "w54160308:a59978130", "current_trial": 34, "dateTime": 1693390095053, "trialdata": {"revealed_states": [], "clicked_states": ["1", "12", "13"], "num_clicks_accrued": [0, 0, 0, 0, 0, 0, 0, 0, 0, 0, 0, 0, 0], "stateRewards": ["", -2, 3, 3, -14, 62, 36, 49, 16, 11, 17, -84, 2, -1, 6, 2, -82, -73, 49, -6, -87, 48, 50, -1, -2, -1, -16, -11, 37, -44, 4, 55, 73, -10], "withholdReward": false, "trial_id": "mdp_trial_14", "block": "test", "trialIndex": 19, "score": 46.8, "costs": -4.199999999999999, "simulationMode": [null, null, null, null, null], "rewards": [2, -1, 6, -6, 50], "path": ["0", "0", "12", "13", "14", "19", "22"], "rt": [7179, 84, 56, 14, 194], "actions": ["right", "right", "right", "down", "left"], "actionTimes": [9803, 10391, 10988, 11521, 12312], "queries": {"click": {"state": {"target": ["1", "12", "13"], "time": [3965, 5963, 7669]}, "edge": {"target": [], "time": []}}, "mouseover": {"state": {"target": ["1", "23", "0", "12", "13"], "time": [3678, 4656, 5471, 5573, 6643]}, "edge": {"target": [], "time": []}}, "mouseout": {"state": {"target": ["0", "1", "23", "0", "12", "13"], "time": [3557, 4588, 5436, 5521, 6616, 13574]}, "edge": {"target": [], "time": []}}}, "displayed_time": "16.63", "trialTime": 17603, "trial_type": "mouselab-mdp", "trial_index": 34, "time_elapsed": 1150867, "internal_node_id": "0.0-6.0-1.0-13.0"}}, {"uniqueid": "w54160308:a59978130", "current_trial": 35, "dateTime": 1693390112562, "trialdata": {"revealed_states": [], "clicked_states": ["24"], "num_clicks_accrued": [0, 0, 0, 0, 0, 0, 0, 0, 0, 0, 0, 0, 0], "stateRewards": ["", -2, -3, -6, -7, 9, 16, 65, 5, -41, 20, -25, -1, -4, 1, -11, -49, -4, 71, 1, 39, -62, 52, -2, -3, 7, -9, -28, -70, 84, 8, 24, -58, 82], "withholdReward": false, "trial_id": "mdp_trial_15", "block": "test", "trialIndex": 20, "score": -48.4, "costs": -1.4, "simulationMode": [null, null, null, null, null], "rewards": [-2, -3, -6, 5, -41], "path": ["0", "0", "1", "2", "3", "8", "9"], "rt": [5848, 5, 30, 39, 4], "actions": ["up", "up", "up", "left", "up"], "actionTimes": [7511, 8068, 8643, 9221, 9772], "queries": {"click": {"state": {"target": ["24"], "time": [4210]}, "edge": {"target": [], "time": []}}, "mouseover": {"state": {"target": ["23", "24", "25", "1", "1"], "time": [3181, 3979, 4807, 6626, 6920]}, "edge": {"target": [], "time": []}}, "mouseout": {"state": {"target": ["0", "23", "24", "25", "1", "1"], "time": [3121, 3290, 4726, 6409, 6843, 10580]}, "edge": {"target": [], "time": []}}}, "displayed_time": "15.68", "trialTime": 16809, "trial_type": "mouselab-mdp", "trial_index": 35, "time_elapsed": 1168374, "internal_node_id": "0.0-6.0-1.0-14.0"}}, {"uniqueid": "w54160308:a59978130", "current_trial": 36, "dateTime": 1693390130833, "trialdata": {"revealed_states": [], "clicked_states": ["21", "20"], "num_clicks_accrued": [0, 0, 0, 0, 0, 0, 0, 0, 0, 0, 0, 0, 0], "stateRewards": ["", -1, 3, -7, 16, -32, -74, -48, 2, 10, 15, -30, 1, 1, -2, 10, 12, -83, 67, 13, -66, 47, 65, -2, 4, 2, -14, -8, -57, 24, 9, 65, 12, 46], "withholdReward": false, "trial_id": "mdp_trial_16", "block": "test", "trialIndex": 21, "score": 57.2, "costs": -2.8, "simulationMode": [null, null, null, null, null, null], "rewards": [1, 1, -2, 13, 47], "path": ["0", "0", "12", "13", "14", "19", "21"], "rt": [4018, 622, 39, 24, 189, 615], "actions": ["right", "right", "right", "right", "down", "down"], "actionTimes": [6839, 7470, 8040, 8621, 9332, 10488], "queries": {"click": {"state": {"target": ["21", "20"], "time": [3992, 5552]}, "edge": {"target": [], "time": []}}, "mouseover": {"state": {"target": ["0", "22", "21", "19", "20"], "time": [3017, 3294, 3665, 4415, 5181]}, "edge": {"target": [], "time": []}}, "mouseout": {"state": {"target": ["1", "0", "22", "21", "19", "20", "22", "14"], "time": [1434, 3061, 3351, 4287, 5137, 6284, 11914, 11930]}, "edge": {"target": [], "time": []}}}, "displayed_time": "16.83", "trialTime": 17529, "trial_type": "mouselab-mdp", "trial_index": 36, "time_elapsed": 1186645, "internal_node_id": "0.0-6.0-1.0-15.0"}}, {"uniqueid": "w54160308:a59978130", "current_trial": 37, "dateTime": 1693390150809, "trialdata": {"revealed_states": [], "clicked_states": ["29", "33", "32", "31"], "num_clicks_accrued": [0, 0, 0, 0, 0, 0, 0, 0, 0, 0, 0, 0, 0], "stateRewards": ["", 2, -1, -1, -9, -81, -30, 55, -6, 78, 25, 62, 2, 4, -1, 9, -85, 1, -19, 1, -60, 12, -34, 1, 4, -1, -13, -24, -16, -83, -8, 16, 43, 9], "withholdReward": false, "trial_id": "mdp_trial_17", "block": "test", "trialIndex": 22, "score": 33.4, "costs": -5.6, "simulationMode": [null, null, null, null, null], "rewards": [1, 4, -1, -8, 43], "path": ["0", "0", "23", "24", "25", "30", "32"], "rt": [9163, 312, 131, 149, 91], "actions": ["left", "left", "left", "down", "down"], "actionTimes": [13789, 14637, 15310, 15981, 16627], "queries": {"click": {"state": {"target": ["29", "33", "32", "31"], "time": [5849, 8355, 10025, 11790]}, "edge": {"target": [], "time": []}}, "mouseover": {"state": {"target": ["26", "29", "26", "33", "33", "33", "33", "32", "31", "30"], "time": [5176, 5507, 6293, 6492, 6823, 7823, 8041, 8823, 10521, 12733]}, "edge": {"target": [], "time": []}}, "mouseout": {"state": {"target": ["2", "27", "28", "23", "0", "26", "29", "26", "33", "33", "33", "33", "32", "31", "30"], "time": [1655, 3395, 3455, 3904, 5092, 5223, 6243, 6426, 6555, 7490, 7848, 8758, 10426, 12699, 18309]}, "edge": {"target": [], "time": []}}}, "displayed_time": "18.63", "trialTime": 19399, "trial_type": "mouselab-mdp", "trial_index": 37, "time_elapsed": 1206622, "internal_node_id": "0.0-6.0-1.0-16.0"}}, {"uniqueid": "w54160308:a59978130", "current_trial": 38, "dateTime": 1693390168899, "trialdata": {"revealed_states": [], "clicked_states": ["10", "7", "6"], "num_clicks_accrued": [0, 0, 0, 0, 0, 0, 0, 0, 0, 0, 0, 0, 0], "stateRewards": ["", 2, -3, -2, 14, -4, 85, 46, 15, -28, 41, 31, -1, -1, -1, 5, 62, 79, 57, 12, -73, -64, 86, -1, 1, -3, -5, 68, 11, -32, 8, -80, -21, -56], "withholdReward": false, "trial_id": "mdp_trial_18", "block": "test", "trialIndex": 23, "score": 91.8, "costs": -4.199999999999999, "simulationMode": [null, null, null, null, null], "rewards": [2, -3, -2, 14, 85], "path": ["0", "0", "1", "2", "3", "4", "6"], "rt": [8160, 275, 126, 110, 41], "actions": ["up", "up", "up", "right", "right"], "actionTimes": [10999, 11806, 12460, 13088, 13652], "queries": {"click": {"state": {"target": ["10", "7", "6"], "time": [4547, 6406, 7959]}, "edge": {"target": [], "time": []}}, "mouseover": {"state": {"target": ["2", "3", "9", "8", "10", "11", "8", "7", "7", "6", "5"], "time": [3397, 3451, 3916, 4024, 4213, 4955, 5715, 5796, 6109, 7043, 8659]}, "edge": {"target": [], "time": []}}, "mouseout": {"state": {"target": ["14", "22", "0", "2", "3", "9", "8", "10", "11", "8", "7", "7", "6", "5"], "time": [1481, 1754, 3364, 3426, 3522, 3981, 4112, 4711, 5694, 5733, 5817, 6876, 8595, 14748]}, "edge": {"target": [], "time": []}}}, "displayed_time": "16.85", "trialTime": 17397, "trial_type": "mouselab-mdp", "trial_index": 38, "time_elapsed": 1224712, "internal_node_id": "0.0-6.0-1.0-17.0"}}, {"uniqueid": "w54160308:a59978130", "current_trial": 39, "dateTime": 1693390186732, "trialdata": {"revealed_states": [], "clicked_states": ["18", "29", "28"], "num_clicks_accrued": [0, 0, 0, 0, 0, 0, 0, 0, 0, 0, 0, 0, 0], "stateRewards": ["", -1, 1, -5, -6, -78, 47, -13, 12, 48, -88, 20, 2, -3, -2, 13, -20, 37, -57, 14, -38, 30, 31, -2, -2, 8, 2, -23, 78, 28, 12, -74, -88, 8], "withholdReward": false, "trial_id": "mdp_trial_19", "block": "test", "trialIndex": 24, "score": 79.8, "costs": -4.199999999999999, "simulationMode": [null, null, null, null, null], "rewards": [-2, -2, 8, 2, 78], "path": ["0", "0", "23", "24", "25", "26", "28"], "rt": [7424, 4, 74, 470, 324], "actions": ["left", "left", "left", "up", "right"], "actionTimes": [9906, 10437, 11050, 12062, 12939], "queries": {"click": {"state": {"target": ["18", "29", "28"], "time": [3733, 6065, 7734]}, "edge": {"target": [], "time": []}}, "mouseover": {"state": {"target": ["15", "18", "29", "26", "29", "26", "28"], "time": [3152, 3377, 4282, 5401, 5767, 6615, 6929]}, "edge": {"target": [], "time": []}}, "mouseout": {"state": {"target": ["19", "12", "0", "15", "18", "29", "26", "29", "26", "28", "7"], "time": [1176, 1242, 2973, 3274, 4223, 5373, 5739, 6597, 6658, 14276, 14371]}, "edge": {"target": [], "time": []}}}, "displayed_time": "16.50", "trialTime": 17027, "trial_type": "mouselab-mdp", "trial_index": 39, "time_elapsed": 1242544, "internal_node_id": "0.0-6.0-1.0-18.0"}}, {"uniqueid": "w54160308:a59978130", "current_trial": 40, "dateTime": 1693390204434, "trialdata": {"revealed_states": [], "clicked_states": ["10", "28", "18"], "num_clicks_accrued": [0, 0, 0, 0, 0, 0, 0, 0, 0, 0, 0, 0, 0], "stateRewards": ["", 1, 2, 2, -15, -84, 28, -26, 13, 31, 86, 30, -2, 1, -1, -8, 66, -40, -1, -10, -32, 57, -17, 1, 2, -2, 9, -23, 77, 85, 12, -32, -62, -35], "withholdReward": false, "trial_id": "mdp_trial_20", "block": "test", "trialIndex": 25, "score": 99.8, "costs": -4.199999999999999, "simulationMode": [null, null, null, null, null], "rewards": [1, 2, 2, 13, 86], "path": ["0", "0", "1", "2", "3", "8", "10"], "rt": [6777, 15, 56, 9, 520], "actions": ["up", "up", "up", "left", "down"], "actionTimes": [9400, 9957, 10549, 11079, 12160], "queries": {"click": {"state": {"target": ["10", "28", "18"], "time": [3783, 5570, 7276]}, "edge": {"target": [], "time": []}}, "mouseover": {"state": {"target": ["10", "10", "28", "1", "15", "18"], "time": [3198, 3488, 4236, 5988, 6265, 6347]}, "edge": {"target": [], "time": []}}, "mouseout": {"state": {"target": ["0", "10", "10", "28", "1", "15", "18", "16"], "time": [3125, 3224, 4170, 5952, 6015, 6313, 13195, 13224]}, "edge": {"target": [], "time": []}}}, "displayed_time": "16.63", "trialTime": 16976, "trial_type": "mouselab-mdp", "trial_index": 40, "time_elapsed": 1260246, "internal_node_id": "0.0-6.0-1.0-19.0"}}, {"uniqueid": "w54160308:a59978130", "current_trial": 41, "dateTime": 1693390222962, "trialdata": {"revealed_states": [], "clicked_states": ["9", "5", "18"], "num_clicks_accrued": [0, 0, 0, 0, 0, 0, 0, 0, 0, 0, 0, 0, 0], "stateRewards": ["", 1, 4, 5, -5, 58, -80, 75, 6, 25, -39, 46, 2, -2, 4, 2, 59, 31, -22, -12, -61, 15, 72, 1, -2, -7, 8, 77, 76, -23, -7, 71, -15, -3], "withholdReward": false, "trial_id": "mdp_trial_21", "block": "test", "trialIndex": 26, "score": 58.8, "costs": -4.199999999999999, "simulationMode": [null, null, null, null, null], "rewards": [1, 4, 5, -5, 58], "path": ["0", "0", "1", "2", "3", "4", "5"], "rt": [7839, 371, 145, 724, 33], "actions": ["up", "up", "up", "right", "up"], "actionTimes": [10897, 11791, 12468, 13733, 14284], "queries": {"click": {"state": {"target": ["9", "5", "18"], "time": [4121, 6081, 7999]}, "edge": {"target": [], "time": []}}, "mouseover": {"state": {"target": ["1", "8", "9", "5", "4", "7", "4", "5", "4", "7", "18"], "time": [3298, 3365, 3687, 4605, 5360, 5462, 5647, 5716, 6705, 6755, 7236]}, "edge": {"target": [], "time": []}}, "mouseout": {"state": {"target": ["18", "12", "0", "1", "8", "9", "5", "4", "7", "4", "5", "5", "4", "7", "18"], "time": [2017, 2282, 3265, 3315, 3383, 4535, 5320, 5399, 5622, 5660, 6287, 6696, 6731, 6779, 15582]}, "edge": {"target": [], "time": []}}}, "displayed_time": "17.07", "trialTime": 17559, "trial_type": "mouselab-mdp", "trial_index": 41, "time_elapsed": 1278774, "internal_node_id": "0.0-6.0-1.0-20.0"}}, {"uniqueid": "w54160308:a59978130", "current_trial": 42, "dateTime": 1693390241194, "trialdata": {"revealed_states": [], "clicked_states": ["25", "29", "28", "27"], "num_clicks_accrued": [0, 0, 0, 0, 0, 0, 0, 0, 0, 0, 0, 0, 0], "stateRewards": ["", 1, 1, 1, 15, -76, 52, -32, 14, -57, 37, 49, 1, -4, -3, 6, 83, -76, 25, 9, 36, -1, -17, -1, 4, 4, -2, -22, -21, 58, -15, -57, 49, -24], "withholdReward": false, "trial_id": "mdp_trial_22", "block": "test", "trialIndex": 27, "score": 57.4, "costs": -5.6, "simulationMode": [null, null, null, null, null, null], "rewards": [-1, 4, 4, -2, 58], "path": ["0", "0", "23", "24", "25", "26", "29"], "rt": [7291, 446, 425, 165, 29, 620], "actions": ["left", "left", "left", "left", "up", "left"], "actionTimes": [10138, 10590, 11547, 12239, 12793, 13989], "queries": {"click": {"state": {"target": ["25", "29", "28", "27"], "time": [3871, 5487, 7266, 9084]}, "edge": {"target": [], "time": []}}, "mouseover": {"state": {"target": ["23", "24", "25", "29", "26", "28", "26", "27", "27"], "time": [3286, 3335, 3467, 4550, 5950, 6018, 7867, 7959, 7999]}, "edge": {"target": [], "time": []}}, "mouseout": {"state": {"target": ["19", "22", "0", "23", "24", "25", "29", "26", "28", "26", "27", "27", "4"], "time": [1299, 1323, 3267, 3317, 3400, 4452, 5934, 5983, 7804, 7887, 7981, 9290, 15085]}, "edge": {"target": [], "time": []}}}, "displayed_time": "16.85", "trialTime": 17462, "trial_type": "mouselab-mdp", "trial_index": 42, "time_elapsed": 1297006, "internal_node_id": "0.0-6.0-1.0-21.0"}}, {"uniqueid": "w54160308:a59978130", "current_trial": 43, "dateTime": 1693390258925, "trialdata": {"revealed_states": [], "clicked_states": ["21", "20", "22"], "num_clicks_accrued": [0, 0, 0, 0, 0, 0, 0, 0, 0, 0, 0, 0, 0], "stateRewards": ["", -1, 4, -5, 9, 29, -75, -42, -16, 24, -28, -41, 2, -3, 1, 10, 60, 47, 55, -1, -53, 22, -40, 2, -3, -6, 4, -26, 44, 54, 15, -76, 42, 14], "withholdReward": false, "trial_id": "mdp_trial_23", "block": "test", "trialIndex": 28, "score": 16.8, "costs": -4.199999999999999, "simulationMode": [null, null, null, null, null], "rewards": [2, -3, 1, -1, 22], "path": ["0", "0", "12", "13", "14", "19", "21"], "rt": [7388, 51, 49, 462, 147], "actions": ["right", "right", "right", "down", "down"], "actionTimes": [9694, 10269, 10866, 11924, 12592], "queries": {"click": {"state": {"target": ["21", "20", "22"], "time": [3362, 5308, 7681]}, "edge": {"target": [], "time": []}}, "mouseover": {"state": {"target": ["22", "21", "22", "19", "20", "19", "22"], "time": [2690, 3009, 3755, 4789, 4869, 5943, 6037]}, "edge": {"target": [], "time": []}}, "mouseout": {"state": {"target": ["14", "13", "12", "0", "22", "21", "22", "19", "20", "19"], "time": [1304, 1345, 1440, 2625, 2729, 3517, 4756, 4845, 5921, 5974]}, "edge": {"target": [], "time": []}}}, "displayed_time": "16.31", "trialTime": 16965, "trial_type": "mouselab-mdp", "trial_index": 43, "time_elapsed": 1314737, "internal_node_id": "0.0-6.0-1.0-22.0"}}, {"uniqueid": "w54160308:a59978130", "current_trial": 44, "dateTime": 1693390276472, "trialdata": {"revealed_states": [], "clicked_states": ["6", "11", "27"], "num_clicks_accrued": [0, 0, 0, 0, 0, 0, 0, 0, 0, 0, 0, 0, 0], "stateRewards": ["", -2, -4, -2, -13, -15, 87, -19, -6, -80, 30, 12, 1, 1, -8, 2, 55, 56, 15, 11, -68, -7, 55, -2, 3, -3, -3, 48, 62, 4, 1, -3, 69, -33], "withholdReward": false, "trial_id": "mdp_trial_24", "block": "test", "trialIndex": 29, "score": 61.8, "costs": -4.199999999999999, "simulationMode": [null, null, null, null, null], "rewards": [-2, -4, -2, -13, 87], "path": ["0", "0", "1", "2", "3", "4", "6"], "rt": [6645, 407, 452, 443, 92], "actions": ["up", "up", "up", "right", "right"], "actionTimes": [8630, 9550, 10561, 11553, 12191], "queries": {"click": {"state": {"target": ["6", "11", "27"], "time": [3161, 5052, 6646]}, "edge": {"target": [], "time": []}}, "mouseover": {"state": {"target": ["7", "4", "6", "8", "11", "27", "3", "4"], "time": [2461, 2515, 2744, 3614, 3694, 5642, 7536, 7607]}, "edge": {"target": [], "time": []}}, "mouseout": {"state": {"target": ["22", "23", "7", "4", "6", "8", "11", "27", "3"], "time": [833, 1109, 2489, 2544, 3543, 3650, 5494, 7426, 7588]}, "edge": {"target": [], "time": []}}}, "displayed_time": "15.99", "trialTime": 16838, "trial_type": "mouselab-mdp", "trial_index": 44, "time_elapsed": 1332285, "internal_node_id": "0.0-6.0-1.0-23.0"}}, {"uniqueid": "w54160308:a59978130", "current_trial": 45, "dateTime": 1693390293791, "trialdata": {"revealed_states": [], "clicked_states": ["9", "28", "18"], "num_clicks_accrued": [0, 0, 0, 0, 0, 0, 0, 0, 0, 0, 0, 0, 0], "stateRewards": ["", 2, 2, 3, -15, 23, -14, 73, -7, -32, -20, -6, 1, 1, -5, -12, 73, 6, -84, 11, -81, -57, 13, -2, -1, -4, -8, -52, -58, 49, 13, 5, -41, -41], "withholdReward": false, "trial_id": "mdp_trial_25", "block": "test", "trialIndex": 30, "score": -26.2, "costs": -4.199999999999999, "simulationMode": [null, null, null, null, null], "rewards": [2, 2, 3, -15, -14], "path": ["0", "0", "1", "2", "3", "4", "6"], "rt": [7104, 84, 115, 5, 100], "actions": ["up", "up", "up", "right", "right"], "actionTimes": [9269, 9880, 10533, 11054, 11695], "queries": {"click": {"state": {"target": ["9", "28", "18"], "time": [3123, 5023, 6765]}, "edge": {"target": [], "time": []}}, "mouseover": {"state": {"target": ["9", "28", "1", "18"], "time": [2687, 4049, 5538, 5625]}, "edge": {"target": [], "time": []}}, "mouseout": {"state": {"target": ["4", "7", "9", "28", "1", "18"], "time": [865, 910, 3564, 5498, 5569, 6959]}, "edge": {"target": [], "time": []}}}, "displayed_time": "16.17", "trialTime": 16714, "trial_type": "mouselab-mdp", "trial_index": 45, "time_elapsed": 1349603, "internal_node_id": "0.0-6.0-1.0-24.0"}}, {"uniqueid": "w54160308:a59978130", "current_trial": 46, "dateTime": 1693390311151, "trialdata": {"revealed_states": [], "clicked_states": ["31", "32", "21"], "num_clicks_accrued": [0, 0, 0, 0, 0, 0, 0, 0, 0, 0, 0, 0, 0], "stateRewards": ["", -1, -3, -3, 1, -38, 2, -53, -2, -1, -81, 70, -1, 1, -5, -9, 46, 15, 35, -1, -22, 38, 59, -2, 4, -8, 13, 1, -83, -43, 4, 76, 13, 48], "withholdReward": false, "trial_id": "mdp_trial_26", "block": "test", "trialIndex": 31, "score": 69.8, "costs": -4.199999999999999, "simulationMode": [null, null, null, null, null], "rewards": [-2, 4, -8, 4, 76], "path": ["0", "0", "23", "24", "25", "30", "31"], "rt": [7759, 52, 152, 44, 102], "actions": ["left", "left", "left", "down", "right"], "actionTimes": [9907, 10473, 11147, 11727, 12355], "queries": {"click": {"state": {"target": ["31", "32", "21"], "time": [3345, 5152, 7734]}, "edge": {"target": [], "time": []}}, "mouseover": {"state": {"target": ["23", "24", "30", "31", "31", "32", "21"], "time": [2652, 2708, 2790, 2908, 3021, 3867, 6087]}, "edge": {"target": [], "time": []}}, "mouseout": {"state": {"target": ["18", "12", "0", "23", "24", "30", "31", "31", "32", "21"], "time": [1067, 1102, 1305, 2679, 2738, 2857, 2936, 3811, 5567, 8561]}, "edge": {"target": [], "time": []}}}, "displayed_time": "16.16", "trialTime": 16665, "trial_type": "mouselab-mdp", "trial_index": 46, "time_elapsed": 1366963, "internal_node_id": "0.0-6.0-1.0-25.0"}}, {"uniqueid": "w54160308:a59978130", "current_trial": 47, "dateTime": 1693390333359, "trialdata": {"revealed_states": [], "clicked_states": ["29", "18", "17"], "num_clicks_accrued": [0, 0, 0, 0, 0, 0, 0, 0, 0, 0, 0, 0, 0], "stateRewards": ["", -2, -1, -3, -1, -78, -6, 2, -1, 22, -88, 32, 2, 2, -7, -8, -51, -17, 54, 2, -44, 54, 75, 2, -2, -8, -15, -29, 12, -67, 15, -1, -47, -47], "withholdReward": false, "trial_id": "mdp_trial_27", "block": "test", "trialIndex": 32, "score": 38.8, "costs": -4.199999999999999, "simulationMode": [null, null, null, null, null], "rewards": [2, 2, -7, -8, 54], "path": ["0", "0", "12", "13", "14", "15", "18"], "rt": [7888, 512, 190, 132, 521], "actions": ["right", "right", "right", "up", "left"], "actionTimes": [10119, 11175, 11895, 12546, 13609], "queries": {"click": {"state": {"target": ["29", "18", "17"], "time": [3306, 6059, 8247]}, "edge": {"target": [], "time": []}}, "mouseover": {"state": {"target": ["28", "26", "29", "26", "28", "1", "18", "18", "17", "17"], "time": [2709, 2776, 2958, 3660, 3683, 3878, 4401, 5764, 6596, 6993]}, "edge": {"target": [], "time": []}}, "mouseout": {"state": {"target": ["0", "28", "26", "29", "26", "28", "1", "18", "18", "17"], "time": [877, 2745, 2810, 3643, 3678, 3702, 4078, 5383, 6546, 6650]}, "edge": {"target": [], "time": []}}}, "displayed_time": "16.24", "trialTime": 21434, "trial_type": "mouselab-mdp", "trial_index": 47, "time_elapsed": 1389172, "internal_node_id": "0.0-6.0-1.0-26.0"}}, {"uniqueid": "w54160308:a59978130", "current_trial": 48, "dateTime": 1693390350322, "trialdata": {"revealed_states": [], "clicked_states": ["27", "11", "9"], "num_clicks_accrued": [0, 0, 0, 0, 0, 0, 0, 0, 0, 0, 0, 0, 0], "stateRewards": ["", -2, -3, 7, -13, 60, 9, 37, -6, 37, 20, 1, 2, -2, -8, 6, -80, -31, -10, -7, 70, -65, -44, -1, 1, 7, 6, -11, 73, -85, 16, -21, 47, 34], "withholdReward": false, "trial_id": "mdp_trial_28", "block": "test", "trialIndex": 33, "score": 11.8, "costs": -4.199999999999999, "simulationMode": [null, null, null, null, null], "rewards": [-2, -3, 7, -6, 20], "path": ["0", "0", "1", "2", "3", "8", "10"], "rt": [7820, 90, 86, 44, 533], "actions": ["up", "up", "up", "left", "down"], "actionTimes": [9538, 10152, 10806, 11372, 12440], "queries": {"click": {"state": {"target": ["27", "11", "9"], "time": [3657, 5221, 7213]}, "edge": {"target": [], "time": []}}, "mouseover": {"state": {"target": ["23", "25", "26", "27", "11", "9"], "time": [2226, 2529, 2673, 3379, 4013, 5769]}, "edge": {"target": [], "time": []}}, "mouseout": {"state": {"target": ["17", "15", "1", "23", "25", "26", "27", "11"], "time": [545, 575, 646, 2252, 2641, 3008, 3964, 5681]}, "edge": {"target": [], "time": []}}}, "displayed_time": "15.72", "trialTime": 16334, "trial_type": "mouselab-mdp", "trial_index": 48, "time_elapsed": 1406135, "internal_node_id": "0.0-6.0-1.0-27.0"}}, {"uniqueid": "w54160308:a59978130", "current_trial": 49, "dateTime": 1693390367210, "trialdata": {"revealed_states": [], "clicked_states": ["21", "5", "16"], "num_clicks_accrued": [0, 0, 0, 0, 0, 0, 0, 0, 0, 0, 0, 0, 0], "stateRewards": ["", 1, -2, -8, -3, 31, -84, -55, -14, 15, -58, 17, -2, -3, 7, 7, -12, 48, 67, 4, -44, -68, 46, 2, 3, -5, -7, 76, 27, 5, 11, 57, 52, 59], "withholdReward": false, "trial_id": "mdp_trial_29", "block": "test", "trialIndex": 34, "score": 14.8, "costs": -4.199999999999999, "simulationMode": [null, null, null, null, null], "rewards": [1, -2, -8, -3, 31], "path": ["0", "0", "1", "2", "3", "4", "5"], "rt": [7697, 71, 222, 338, 5], "actions": ["up", "up", "up", "right", "up"], "actionTimes": [9701, 10360, 11101, 11983, 12507], "queries": {"click": {"state": {"target": ["21", "5", "16"], "time": [2922, 5729, 7527]}, "edge": {"target": [], "time": []}}, "mouseover": {"state": {"target": ["21", "14", "15", "16", "16", "6", "5", "5", "6", "16"], "time": [2521, 3347, 3371, 3391, 3737, 4715, 4775, 5479, 6265, 6562]}, "edge": {"target": [], "time": []}}, "mouseout": {"state": {"target": ["9", "1", "21", "14", "15", "16", "16", "6", "5", "5", "6"], "time": [659, 771, 3339, 3366, 3387, 3410, 4689, 4744, 4809, 6223, 6300]}, "edge": {"target": [], "time": []}}}, "displayed_time": "16.01", "trialTime": 16132, "trial_type": "mouselab-mdp", "trial_index": 49, "time_elapsed": 1423021, "internal_node_id": "0.0-6.0-1.0-28.0"}}, {"uniqueid": "w54160308:a59978130", "current_trial": 50, "dateTime": 1693390385142, "trialdata": {"revealed_states": [], "clicked_states": ["28", "29", "27"], "num_clicks_accrued": [0, 0, 0, 0, 0, 0, 0, 0, 0, 0, 0, 0, 0], "stateRewards": ["", -1, -2, 4, 9, 10, -75, 39, 16, -43, 88, -19, -1, 1, 2, 4, -31, 10, 73, 12, 41, -64, -81, -2, 2, -6, 1, -81, -1, -26, 3, -59, -3, -20], "withholdReward": false, "trial_id": "mdp_trial_30", "block": "test", "trialIndex": 35, "score": -27.2, "costs": -4.199999999999999, "simulationMode": [null, null, null, null, null], "rewards": [-2, 2, -6, 3, -20], "path": ["0", "0", "23", "24", "25", "30", "33"], "rt": [7690, 111, 130, 436, 127], "actions": ["left", "left", "left", "down", "left"], "actionTimes": [9846, 10474, 11147, 12119, 12785], "queries": {"click": {"state": {"target": ["28", "29", "27"], "time": [3237, 4955, 7226]}, "edge": {"target": [], "time": []}}, "mouseover": {"state": {"target": ["28", "28", "26", "29", "27"], "time": [2713, 2911, 3796, 4073, 5579]}, "edge": {"target": [], "time": []}}, "mouseout": {"state": {"target": ["16", "22", "0", "28", "28", "26", "29"], "time": [645, 727, 1046, 2745, 3776, 3847, 5342]}, "edge": {"target": [], "time": []}}}, "displayed_time": "16.16", "trialTime": 17227, "trial_type": "mouselab-mdp", "trial_index": 50, "time_elapsed": 1440954, "internal_node_id": "0.0-6.0-1.0-29.0"}}, {"uniqueid": "w54160308:a59978130", "current_trial": 51, "dateTime": 1693390412027, "trialdata": {"revealed_states": [], "clicked_states": ["28", "6", "10"], "num_clicks_accrued": [0, 0, 0, 0, 0, 0, 0, 0, 0, 0, 0, 0, 0], "stateRewards": ["", 1, -1, 1, 13, 31, -56, 72, 2, 41, 5, 63, -2, -3, -2, 3, -71, -26, 52, 13, -31, 24, -67, 2, -2, 5, 4, 66, 43, 72, 9, 86, -26, 44], "withholdReward": false, "trial_id": "mdp_trial_31", "block": "test", "trialIndex": 36, "score": 47.8, "costs": -4.199999999999999, "simulationMode": [null, null, null, null, null], "rewards": [2, -2, 5, 4, 43], "path": ["0", "0", "23", "24", "25", "26", "28"], "rt": [8094, 51, 82, 475, 340], "actions": ["left", "left", "left", "up", "right"], "actionTimes": [19703, 20293, 20915, 21932, 22839], "queries": {"click": {"state": {"target": ["28", "6", "10"], "time": [12947, 14892, 17743]}, "edge": {"target": [], "time": []}}, "mouseover": {"state": {"target": ["23", "24", "25", "26", "28", "2", "6", "10"], "time": [12140, 12210, 12280, 12534, 12616, 13367, 13640, 15855]}, "edge": {"target": [], "time": []}}, "mouseout": {"state": {"target": ["27", "28", "23", "24", "25", "26", "28", "2", "6"], "time": [10171, 10240, 12177, 12245, 12508, 12575, 13342, 13411, 15500]}, "edge": {"target": [], "time": []}}}, "displayed_time": "25.62", "trialTime": 26175, "trial_type": "mouselab-mdp", "trial_index": 51, "time_elapsed": 1467839, "internal_node_id": "0.0-6.0-1.0-30.0"}}, {"uniqueid": "w54160308:a59978130", "current_trial": 52, "dateTime": 1693390429193, "trialdata": {"revealed_states": [], "clicked_states": ["28", "11", "5"], "num_clicks_accrued": [0, 0, 0, 0, 0, 0, 0, 0, 0, 0, 0, 0, 0], "stateRewards": ["", -1, 2, -2, 13, -56, -28, 10, 14, 53, -80, -29, 1, -3, -3, -14, 14, 9, -40, -9, 18, 18, 48, 1, 1, 1, -9, 64, -39, -9, 7, -52, -78, 7], "withholdReward": false, "trial_id": "mdp_trial_32", "block": "test", "trialIndex": 37, "score": -0.1999999999999993, "costs": -4.199999999999999, "simulationMode": [null, null, null, null, null], "rewards": [1, -3, -3, -9, 18], "path": ["0", "0", "12", "13", "14", "19", "20"], "rt": [7852, 9, 32, 8, 58], "actions": ["right", "right", "right", "down", "right"], "actionTimes": [9661, 10220, 10794, 11334, 11928], "queries": {"click": {"state": {"target": ["28", "11", "5"], "time": [3101, 5236, 6871]}, "edge": {"target": [], "time": []}}, "mouseover": {"state": {"target": ["23", "24", "25", "28", "11", "5"], "time": [2378, 2481, 2548, 2754, 3624, 6192]}, "edge": {"target": [], "time": []}}, "mouseout": {"state": {"target": ["10", "1", "0", "23", "24", "25", "28", "11"], "time": [586, 658, 891, 2444, 2509, 2710, 3299, 5828]}, "edge": {"target": [], "time": []}}}, "displayed_time": "15.82", "trialTime": 16467, "trial_type": "mouselab-mdp", "trial_index": 52, "time_elapsed": 1485006, "internal_node_id": "0.0-6.0-1.0-31.0"}}, {"uniqueid": "w54160308:a59978130", "current_trial": 53, "dateTime": 1693390446470, "trialdata": {"revealed_states": [], "clicked_states": ["6", "16", "18"], "num_clicks_accrued": [0, 0, 0, 0, 0, 0, 0, 0, 0, 0, 0, 0, 0], "stateRewards": ["", 2, 3, -1, 16, -78, -11, 46, 2, -20, 79, -67, 2, 3, 2, 11, -83, -42, -58, -11, -67, -22, 55, 2, -1, -1, -16, -83, -82, 23, -11, -29, 13, 13], "withholdReward": false, "trial_id": "mdp_trial_33", "block": "test", "trialIndex": 38, "score": 2.8000000000000007, "costs": -4.199999999999999, "simulationMode": [null, null, null, null, null], "rewards": [2, -1, -1, -16, 23], "path": ["0", "0", "23", "24", "25", "26", "29"], "rt": [7651, 100, 199, 9, 15], "actions": ["left", "left", "left", "up", "left"], "actionTimes": [9660, 10296, 11003, 11570, 12121], "queries": {"click": {"state": {"target": ["6", "16", "18"], "time": [2919, 5272, 6914]}, "edge": {"target": [], "time": []}}, "mouseover": {"state": {"target": ["6", "6", "16", "18", "23", "24"], "time": [2509, 2659, 3775, 6030, 9107, 9155]}, "edge": {"target": [], "time": []}}, "mouseout": {"state": {"target": ["5", "4", "1", "6", "6", "16", "16", "18", "23"], "time": [599, 737, 889, 2538, 3361, 5503, 5721, 9045, 9134]}, "edge": {"target": [], "time": []}}}, "displayed_time": "16.02", "trialTime": 16559, "trial_type": "mouselab-mdp", "trial_index": 53, "time_elapsed": 1502282, "internal_node_id": "0.0-6.0-1.0-32.0"}}, {"uniqueid": "w54160308:a59978130", "current_trial": 54, "dateTime": 1693390464842, "trialdata": {"revealed_states": [], "clicked_states": ["31", "22", "6"], "num_clicks_accrued": [0, 0, 0, 0, 0, 0, 0, 0, 0, 0, 0, 0, 0], "stateRewards": ["", 2, 3, 6, -5, -74, -53, 17, -12, 46, 44, 18, -2, 4, 1, -8, 22, -23, -49, 9, -45, 55, 81, 1, -1, -7, -16, -83, -71, -45, 2, 51, 82, 61], "withholdReward": false, "trial_id": "mdp_trial_34", "block": "test", "trialIndex": 39, "score": 88.8, "costs": -4.199999999999999, "simulationMode": [null, null, null, null, null], "rewards": [-2, 4, 1, 9, 81], "path": ["0", "0", "12", "13", "14", "19", "22"], "rt": [6811, 267, 84, 327, 174], "actions": ["right", "right", "right", "down", "left"], "actionTimes": [9133, 9947, 10552, 11399, 12099], "queries": {"click": {"state": {"target": ["31", "22", "6"], "time": [3531, 5369, 7203]}, "edge": {"target": [], "time": []}}, "mouseover": {"state": {"target": ["0", "23", "24", "31", "22", "19", "22", "18", "6"], "time": [2470, 2964, 3062, 3149, 4093, 4142, 4413, 5963, 6086]}, "edge": {"target": [], "time": []}}, "mouseout": {"state": {"target": ["24", "23", "0", "23", "24", "31", "22", "19", "22", "18"], "time": [1410, 1456, 2496, 2996, 3119, 4027, 4110, 4375, 5936, 5994]}, "edge": {"target": [], "time": []}}}, "displayed_time": "16.33", "trialTime": 17421, "trial_type": "mouselab-mdp", "trial_index": 54, "time_elapsed": 1520655, "internal_node_id": "0.0-6.0-1.0-33.0"}}, {"uniqueid": "w54160308:a59978130", "current_trial": 55, "dateTime": 1693390482370, "trialdata": {"revealed_states": [], "clicked_states": ["11", "6", "22"], "num_clicks_accrued": [0, 0, 0, 0, 0, 0, 0, 0, 0, 0, 0, 0, 0], "stateRewards": ["", -1, 2, -6, 6, -82, -19, -39, -16, -83, 11, -33, -2, -2, 4, -6, -82, -1, -19, -6, -10, -67, -41, -2, 1, -7, 16, -23, -78, -52, 14, 31, -71, 74], "withholdReward": false, "trial_id": "mdp_trial_35", "block": "test", "trialIndex": 40, "score": 32.8, "costs": -4.199999999999999, "simulationMode": [null, null, null, null, null], "rewards": [-2, 1, -7, 14, 31], "path": ["0", "0", "23", "24", "25", "30", "31"], "rt": [7607, 198, 196, 70, 81], "actions": ["left", "left", "left", "down", "right"], "actionTimes": [9666, 10396, 11135, 11758, 12358], "queries": {"click": {"state": {"target": ["11", "6", "22"], "time": [3105, 4976, 6535]}, "edge": {"target": [], "time": []}}, "mouseover": {"state": {"target": ["11", "8", "4", "6", "18", "13", "13", "22"], "time": [2775, 3574, 3619, 3654, 5550, 5642, 5792, 5851]}, "edge": {"target": [], "time": []}}, "mouseout": {"state": {"target": ["6", "0", "11", "8", "4", "6", "6", "18", "13", "13", "22", "22"], "time": [992, 2448, 3566, 3610, 3646, 5157, 5475, 5590, 5679, 5821, 6737, 8466]}, "edge": {"target": [], "time": []}}}, "displayed_time": "16.07", "trialTime": 16762, "trial_type": "mouselab-mdp", "trial_index": 55, "time_elapsed": 1538182, "internal_node_id": "0.0-6.0-1.0-34.0"}}, {"uniqueid": "w54160308:a59978130", "current_trial": 56, "dateTime": 1693390499620, "trialdata": {"revealed_states": [], "clicked_states": ["31", "5", "28"], "num_clicks_accrued": [0, 0, 0, 0, 0, 0, 0, 0, 0, 0, 0, 0, 0], "stateRewards": ["", -2, -3, 4, 1, 33, -53, 15, 9, -12, 61, -6, -2, 4, 6, -11, 47, -43, -7, -11, 46, 23, -28, -1, -1, 3, -10, 11, 76, -76, 10, 18, -38, 87], "withholdReward": false, "trial_id": "mdp_trial_36", "block": "test", "trialIndex": 41, "score": 62.8, "costs": -4.199999999999999, "simulationMode": [null, null, null, null, null], "rewards": [-1, -1, 3, -10, 76], "path": ["0", "0", "23", "24", "25", "26", "28"], "rt": [8171, 505, 134, 84, 472], "actions": ["left", "left", "left", "up", "right"], "actionTimes": [10098, 11147, 11793, 12391, 13396], "queries": {"click": {"state": {"target": ["31", "5", "28"], "time": [2974, 5191, 8105]}, "edge": {"target": [], "time": []}}, "mouseover": {"state": {"target": ["0", "24", "31", "24", "28", "10", "3", "5", "3", "10", "28"], "time": [2279, 2487, 2655, 3344, 3490, 4529, 4608, 4777, 5606, 5691, 6006]}, "edge": {"target": [], "time": []}}, "mouseout": {"state": {"target": ["21", "21", "0", "0", "24", "31", "24", "28", "10", "3", "5", "3", "10", "28", "12", "13", "19"], "time": [657, 722, 806, 2341, 2605, 3308, 3393, 4490, 4554, 4637, 5590, 5640, 5756, 8301, 14957, 14994, 15071]}, "edge": {"target": [], "time": []}}}, "displayed_time": "15.93", "trialTime": 16548, "trial_type": "mouselab-mdp", "trial_index": 56, "time_elapsed": 1555432, "internal_node_id": "0.0-6.0-1.0-35.0"}}, {"uniqueid": "w54160308:a59978130", "current_trial": 57, "dateTime": 1693390517701, "trialdata": {"revealed_states": [], "clicked_states": ["6", "31", "18"], "num_clicks_accrued": [0, 0, 0, 0, 0, 0, 0, 0, 0, 0, 0, 0, 0], "stateRewards": ["", 1, -1, 8, 4, 76, -33, -17, -3, -1, -54, -74, -2, 2, -5, 13, -51, 63, 83, 1, 84, 29, -36, 2, -1, 7, -12, -10, -44, -43, -14, 8, -69, 19], "withholdReward": false, "trial_id": "mdp_trial_37", "block": "test", "trialIndex": 42, "score": 86.8, "costs": -4.199999999999999, "simulationMode": [null, null, null, null, null], "rewards": [-2, 2, -5, 13, 83], "path": ["0", "0", "12", "13", "14", "15", "18"], "rt": [8238, 430, 87, 42, 532], "actions": ["right", "right", "right", "up", "left"], "actionTimes": [10319, 11280, 11901, 12487, 13535], "queries": {"click": {"state": {"target": ["6", "31", "18"], "time": [3282, 5421, 8295]}, "edge": {"target": [], "time": []}}, "mouseover": {"state": {"target": ["6", "9", "8", "24", "31", "0", "12", "13", "15", "18"], "time": [3020, 3931, 4678, 4937, 5098, 5864, 5888, 5926, 6165, 6258]}, "edge": {"target": [], "time": []}}, "mouseout": {"state": {"target": ["12", "0", "6", "9", "8", "24", "31", "0", "12", "13", "15"], "time": [998, 1112, 3451, 4646, 4728, 4976, 5833, 5882, 5908, 5944, 6202]}, "edge": {"target": [], "time": []}}}, "displayed_time": "16.09", "trialTime": 17190, "trial_type": "mouselab-mdp", "trial_index": 57, "time_elapsed": 1573514, "internal_node_id": "0.0-6.0-1.0-36.0"}}, {"uniqueid": "w54160308:a59978130", "current_trial": 58, "dateTime": 1693390534698, "trialdata": {"revealed_states": [], "clicked_states": ["16", "11", "28"], "num_clicks_accrued": [0, 0, 0, 0, 0, 0, 0, 0, 0, 0, 0, 0, 0], "stateRewards": ["", -2, 3, -1, 2, -72, 63, 20, -1, 62, -66, 39, -2, 3, -6, 14, 22, 47, 1, 8, -49, -1, -41, 2, 2, -6, -16, -64, -60, -34, 16, 54, 22, -7], "withholdReward": false, "trial_id": "mdp_trial_38", "block": "test", "trialIndex": 43, "score": -71.2, "costs": -4.199999999999999, "simulationMode": [null, null, null, null, null], "rewards": [-2, 3, -1, -1, -66], "path": ["0", "0", "1", "2", "3", "8", "10"], "rt": [7672, 341, 61, 25, 28], "actions": ["up", "up", "up", "left", "down"], "actionTimes": [9178, 10042, 10631, 11187, 11790], "queries": {"click": {"state": {"target": ["16", "11", "28"], "time": [2548, 4397, 6286]}, "edge": {"target": [], "time": []}}, "mouseover": {"state": {"target": ["16", "28", "11", "28"], "time": [2134, 3041, 4057, 4996]}, "edge": {"target": [], "time": []}}, "mouseout": {"state": {"target": ["18", "1", "16", "16", "28", "11", "28"], "time": [368, 495, 2749, 2942, 3786, 4833, 6491]}, "edge": {"target": [], "time": []}}}, "displayed_time": "15.52", "trialTime": 16071, "trial_type": "mouselab-mdp", "trial_index": 58, "time_elapsed": 1590511, "internal_node_id": "0.0-6.0-1.0-37.0"}}, {"uniqueid": "w54160308:a59978130", "current_trial": 59, "dateTime": 1693390552547, "trialdata": {"revealed_states": [], "clicked_states": ["32", "21", "16"], "num_clicks_accrued": [0, 0, 0, 0, 0, 0, 0, 0, 0, 0, 0, 0, 0], "stateRewards": ["", 2, 4, -5, 7, 81, 35, 6, 11, 14, -72, 42, -1, 2, 3, -7, -77, -44, -40, -15, -85, 51, -32, -2, -1, -5, 7, -74, 47, 52, 16, -49, 48, -46], "withholdReward": false, "trial_id": "mdp_trial_39", "block": "test", "trialIndex": 44, "score": 35.8, "costs": -4.199999999999999, "simulationMode": [null, null, null, null, null], "rewards": [-1, 2, 3, -15, 51], "path": ["0", "0", "12", "13", "14", "19", "21"], "rt": [8668, 377, 51, 27, 81], "actions": ["right", "right", "right", "down", "down"], "actionTimes": [11062, 11964, 12539, 13096, 13699], "queries": {"click": {"state": {"target": ["32", "21", "16"], "time": [4062, 6208, 8440]}, "edge": {"target": [], "time": []}}, "mouseover": {"state": {"target": ["31", "32", "31", "32", "21", "21", "14", "15", "16", "16"], "time": [2951, 3070, 3269, 3699, 4700, 5122, 6754, 6780, 7035, 7452]}, "edge": {"target": [], "time": []}}, "mouseout": {"state": {"target": ["28", "0", "31", "32", "31", "32", "21", "21", "14", "15", "16", "16"], "time": [1314, 2929, 3003, 3153, 3670, 4417, 4811, 6705, 6775, 6934, 7085, 8645]}, "edge": {"target": [], "time": []}}}, "displayed_time": "16.40", "trialTime": 16796, "trial_type": "mouselab-mdp", "trial_index": 59, "time_elapsed": 1608360, "internal_node_id": "0.0-6.0-1.0-38.0"}}, {"uniqueid": "w54160308:a59978130", "current_trial": 60, "dateTime": 1693390569578, "trialdata": {"revealed_states": [], "clicked_states": ["10", "6", "7"], "num_clicks_accrued": [0, 0, 0, 0, 0, 0, 0, 0, 0, 0, 0, 0, 0], "stateRewards": ["", -2, -1, -1, 5, -54, -87, 35, 2, -8, 20, -22, 1, 3, 6, 13, -75, -32, -55, -3, 56, 62, -22, -1, -4, -1, -7, -51, 84, 70, 7, -15, 5, 55], "withholdReward": false, "trial_id": "mdp_trial_40", "block": "test", "trialIndex": 45, "score": 31.8, "costs": -4.199999999999999, "simulationMode": [null, null, null, null, null], "rewards": [-2, -1, -1, 5, 35], "path": ["0", "0", "1", "2", "3", "4", "7"], "rt": [8407, 349, 156, 472, 257], "actions": ["up", "up", "up", "right", "down"], "actionTimes": [10139, 11049, 11722, 12724, 13554], "queries": {"click": {"state": {"target": ["10", "6", "7"], "time": [4367, 6055, 7736]}, "edge": {"target": [], "time": []}}, "mouseover": {"state": {"target": ["0", "10", "10", "6", "4", "7"], "time": [2168, 3100, 3827, 5675, 6874, 6993]}, "edge": {"target": [], "time": []}}, "mouseout": {"state": {"target": ["16", "0", "10", "10", "6", "4"], "time": [681, 2233, 3667, 4856, 6649, 6937]}, "edge": {"target": [], "time": []}}}, "displayed_time": "15.73", "trialTime": 16259, "trial_type": "mouselab-mdp", "trial_index": 60, "time_elapsed": 1625391, "internal_node_id": "0.0-6.0-1.0-39.0"}}, {"uniqueid": "w54160308:a59978130", "current_trial": 61, "dateTime": 1693390609548, "trialdata": {"rt": 39953, "response": {"Q0": "$-2 to $2", "Q1": "$-4 to $4", "Q2": "$-32 to $32", "Q3": "The cost for clicking on nodes varied between nodes.", "Q4": "Slightly motivated"}, "question_order": [0, 1, 2, 3, 4], "trial_id": "final_quiz_control", "trial_type": "survey-multi-choice", "trial_index": 61, "time_elapsed": 1665361, "internal_node_id": "0.0-6.0-2.0"}}, {"uniqueid": "w54160308:a59978130", "current_trial": 62, "dateTime": 1693390837260, "trialdata": {"rt": 227681, "response": {"Q0": "I clicked on three of the end nodes to see which ones would be the highest value and went to that one. If there were only negative values then I would make a decision to choose a different path to a node I didn't know the value of instead of a node I know will definitely give me a negative value.", "Q1": "At first i though it was good to see what the values of the nodes closest to the starting point were, but I figured that it would be better to use the end node point values to get higher scores", "Q2": "Not that difficult. The time to pick nodes was a bit short but I think that's okay."}, "trial_id": "self_report_control", "trial_type": "survey-text", "trial_index": 62, "time_elapsed": 1893072, "internal_node_id": "0.0-6.0-3.0"}}, {"uniqueid": "w54160308:a59978130", "current_trial": 63, "dateTime": 1693390854295, "trialdata": {"rt": 17022, "response": {"gender": "female", "age": "27", "colorblind": "0", "effort": "0"}, "trial_type": "survey-html-form", "trial_index": 63, "time_elapsed": 1910108, "internal_node_id": "0.0-6.0-4.0"}}, {"uniqueid": "w54160308:a59978130", "current_trial": 64, "dateTime": 1693390913820, "trialdata": {"rt": 59505, "response": {"Q0": "No. Good job on this! I hope things go well for you in the future. :)", "Q1": "No, this is the first time I've done this.", "Q2": "No"}, "trial_type": "survey-text", "trial_index": 64, "time_elapsed": 1969634, "internal_node_id": "0.0-6.0-5.0"}}, {"uniqueid": "w54160308:a59978130", "current_trial": 65, "dateTime": 1693390926936, "trialdata": {"rt": 13106, "stimulus": "<h1>Completion Code Instructions (1/2)</h1>\n<br><br><br><br>\nYou have reached the end of the experiment! The completion code consists of two parts: (1) a code with 2 characters (2) a code with 6 characters. On this page, you will receive the second part of the code. The first part of the completion code will be on the next page.\n<br><br>\nThe second part of your completion code is: <b>EWEK22</b>\n<br><br>\nPlease note this down. Then, press 'Finish HIT' in order to find the first part of your completion code. Once the data has been saved, you will receive this code either in this window or in the original browser window where you started the experiment.\n", "response": 0, "trial_type": "html-button-response", "trial_index": 65, "time_elapsed": 1982750, "internal_node_id": "0.0-6.0-6.0"}}, {"uniqueid": "w54160308:a59978130", "current_trial": 66, "dateTime": 1693390927945, "trialdata": {"success": true, "trial_type": "fullscreen", "trial_index": 66, "time_elapsed": 1983759, "internal_node_id": "0.0-7.0"}}], "questiondata": {"params": {"CODE": "C6DMOQA6", "MIN_TIME": 14, "inspectCost": 1, "startTime": "Wed Aug 30 2023 11:48:53 GMT+0200 (South Africa Standard Time)", "bonusRate": 0.002, "variance": "1_2_4_8_44", "branching": "31123"}, "final_score": 798.8}, "eventdata": [{"eventtype": "initialized", "value": null, "timestamp": 1693388932186, "interval": 0}, {"eventtype": "window_resize", "value": [1024, 654], "timestamp": 1693388932187, "interval": 1}, {"eventtype": "window_resize", "value": [1024, 654], "timestamp": 1693388933146, "interval": 959}, {"eventtype": "window_resize", "value": [1366, 768], "timestamp": 1693388949828, "interval": 16682}, {"eventtype": "focus", "value": "off", "timestamp": 1693389313895, "interval": 364067}, {"eventtype": "focus", "value": "on", "timestamp": 1693389313895, "interval": 0}, {"eventtype": "window_resize", "value": [1024, 654], "timestamp": 1693389314154, "interval": 259}, {"eventtype": "window_resize", "value": [1366, 768], "timestamp": 1693389315765, "interval": 1611}, {"eventtype": "focus", "value": "off", "timestamp": 1693389602826, "interval": 287061}, {"eventtype": "focus", "value": "on", "timestamp": 1693389602827, "interval": 1}, {"eventtype": "window_resize", "value": [1024, 654], "timestamp": 1693389603076, "interval": 249}, {"eventtype": "window_resize", "value": [1366, 768], "timestamp": 1693389604486, "interval": 1410}, {"eventtype": "window_resize", "value": [1024, 654], "timestamp": 1693390927235, "interval": 1322749}], "useragent": "Mozilla/5.0 (Windows NT 10.0; Win64; x64) AppleWebKit/537.36 (KHTML, like Gecko) Chrome/116.0.0.0 Safari/537.36", "mode": "live", "id": "w54160308:a59978130", "status": "user data saved", "Beginhit": "2023-08-30 09:48:45.39292", "Beginexp": "2023-08-30 09:49:13.17756", "Endhit": "2023-08-30 10:22:13.047765", "psiturkStatus": 3, "browser": "<redacted>", "platform": "windows", "language": "en-GB"}