{"condition": 0, "counterbalance": 0, "assignmentId": "a28761137", "workerId": "w33107301", "hitId": "h63175330", "currenttrial": 55, "bonus": 0, "data": [{"uniqueid": "w33107301:a28761137", "current_trial": 0, "dateTime": 1693567449413, "trialdata": {"success": true, "trial_type": "fullscreen", "trial_index": 0, "time_elapsed": 11468, "internal_node_id": "0.0-0.0"}}, {"uniqueid": "w33107301:a28761137", "current_trial": 1, "dateTime": 1693567507982, "trialdata": {"view_history": [{"page_index": 0, "viewing_time": 58535}], "rt": 58539, "trial_id": "exp_instructions_control", "trial_type": "instructions", "trial_index": 1, "time_elapsed": 70038, "internal_node_id": "0.0-1.0"}}, {"uniqueid": "w33107301:a28761137", "current_trial": 2, "dateTime": 1693568624889, "trialdata": {"view_history": [{"page_index": 0, "viewing_time": 748953}, {"page_index": 1, "viewing_time": 143104}, {"page_index": 2, "viewing_time": 108434}, {"page_index": 3, "viewing_time": 116404}], "rt": 1116896, "trial_id": "mouselab_instructions_1_control", "trial_type": "instructions", "trial_index": 2, "time_elapsed": 1186944, "internal_node_id": "0.0-2.0-1.0"}}, {"uniqueid": "w33107301:a28761137", "current_trial": 3, "dateTime": 1693568663112, "trialdata": {"revealed_states": [], "clicked_states": [], "num_clicks_accrued": [0, 0, 0, 0, 0, 0, 0, 0, 0, 0, 0, 0, 0], "stateRewards": ["", -10, 10, -10, -10, -10, -10, 10, -10, 10, 10, -10, -10, 10, -10, -10, -10, -10, 10, -10, -10, 10, 10, 10, 10, 10, -10, 10, -10, 10, -10, -10, -10, 10], "withholdReward": false, "trial_id": "practice_1", "block": "test", "trialIndex": 0, "score": 13.5, "costs": 0, "simulationMode": [null, null, null, null, null], "rewards": [10, 10, 10, -10, -10], "path": ["0", "0", "23", "24", "25", "30", "32"], "rt": [2547, 648, 67, 322, 518], "actions": ["left", "left", "left", "down", "down"], "actionTimes": [19133, 20301, 20902, 21755, 22863], "queries": {"click": {"state": {"target": [], "time": []}, "edge": {"target": [], "time": []}}, "mouseover": {"state": {"target": [], "time": []}, "edge": {"target": [], "time": []}}, "mouseout": {"state": {"target": ["0", "18"], "time": [28063, 28106]}, "edge": {"target": [], "time": []}}}, "displayed_time": "23.42", "trialTime": 34915, "trial_type": "mouselab-mdp", "trial_index": 3, "time_elapsed": 1225164, "internal_node_id": "0.0-2.0-2.0-0.0"}}, {"uniqueid": "w33107301:a28761137", "current_trial": 4, "dateTime": 1693568720389, "trialdata": {"revealed_states": [], "clicked_states": ["27", "9", "5", "33", "21", "31"], "num_clicks_accrued": [0, 0, 0, 0, 0, 0, 0, 0, 0, 0, 0, 0, 0], "stateRewards": ["", -10, -10, 10, -10, 10, 10, -10, -10, 10, 10, -10, 10, 10, -10, 10, 10, -10, 10, -10, -10, -10, 10, 10, -10, 10, -10, 10, -10, -10, -10, 10, -10, 10], "withholdReward": false, "trial_id": "practice_2", "block": "test", "trialIndex": 1, "score": -9.5, "costs": -3, "simulationMode": [null, null, null, null, null], "rewards": [-10, -10, 10, -10, 10], "path": ["0", "0", "1", "2", "3", "4", "6"], "rt": [14981, 363, 431, 1209, 45], "actions": ["up", "up", "up", "right", "right"], "actionTimes": [22075, 22978, 23940, 25675, 26238], "queries": {"click": {"state": {"target": ["27", "9", "5", "33", "21", "31"], "time": [9110, 10190, 11379, 13183, 15528, 17314]}, "edge": {"target": [], "time": []}}, "mouseover": {"state": {"target": ["28", "27", "27", "8", "9", "5", "25", "33", "30", "19", "21", "0", "31", "30"], "time": [8187, 8243, 8628, 9370, 9819, 10906, 11799, 12731, 13628, 14197, 14673, 16274, 16630, 18389]}, "edge": {"target": [], "time": []}}, "mouseout": {"state": {"target": ["17", "15", "28", "27", "27", "8", "9", "5", "25", "33", "30", "19", "21", "0", "31", "30"], "time": [2847, 2871, 8221, 8382, 9297, 9411, 10581, 11698, 12324, 13612, 13677, 14247, 16180, 16314, 18248, 18468]}, "edge": {"target": [], "time": []}}}, "displayed_time": "26.77", "trialTime": 55423, "trial_type": "mouselab-mdp", "trial_index": 4, "time_elapsed": 1282444, "internal_node_id": "0.0-2.0-2.0-1.0"}}, {"uniqueid": "w33107301:a28761137", "current_trial": 5, "dateTime": 1693568874732, "trialdata": {"view_history": [{"page_index": 0, "viewing_time": 127271}, {"page_index": 1, "viewing_time": 27053}], "rt": 154326, "trial_id": "mouselab_instructions_2_control", "trial_type": "instructions", "trial_index": 5, "time_elapsed": 1436787, "internal_node_id": "0.0-2.0-3.0"}}, {"uniqueid": "w33107301:a28761137", "current_trial": 6, "dateTime": 1693569004174, "trialdata": {"rt": 129412, "response": {"Q0": "The cost for clicking on nodes may vary between nodes.", "Q1": "The better I perform the higher my bonus will be.", "Q2": "No, the amount of cash at each node of the web may be different each time.", "Q3": "To get the highest total score.", "Q4": "Only before moving the spider.", "Q5": "3 seconds"}, "question_order": [0, 1, 2, 3, 4, 5], "correct": {"Q0": "The cost for clicking on nodes may vary between nodes.", "Q1": "The better I perform the higher my bonus will be.", "Q2": "No, the amount of cash at each node of the web may be different each time.", "Q3": "To get the highest total score.", "Q4": "Only before moving the spider.", "Q5": "3 seconds"}, "trial_id": "mouselab_quiz_control", "trial_type": "survey-multi-choice", "trial_index": 6, "time_elapsed": 1566230, "internal_node_id": "0.0-2.0-4.0"}}, {"uniqueid": "w33107301:a28761137", "current_trial": 7, "dateTime": 1693569018270, "trialdata": {"rt": 14031, "response": {"Q0": "No"}, "question_order": [0], "trial_id": "repeat_check", "trial_type": "survey-multi-choice", "trial_index": 7, "time_elapsed": 1580325, "internal_node_id": "0.0-4.0-0.0"}}, {"uniqueid": "w33107301:a28761137", "current_trial": 8, "dateTime": 1693569052026, "trialdata": {"rt": 33698, "stimulus": "\n<h1> Get ready to start the game! </h1>\n\nThank you for reading the instructions. Get ready start with the 40 rounds of this game.\n<br><br>\nIf you need to take a break, feel free to take one after the end of a round, before continuing to the next one.\n<br><br>\nRemember, the more money the spider gets, the bigger your bonus will be!\n<br><br>\n<div style='text-align: center;'>Press <code>space</code> to begin.</div>\n\n<br><br>\n(If, at any point, the <code>space</code> key does not take you to the next page, click once on the text and try again.)", "response": " ", "trial_id": "mdp_ready", "trial_type": "html-keyboard-response", "trial_index": 8, "time_elapsed": 1614082, "internal_node_id": "0.0-6.0-0.0"}}, {"uniqueid": "w33107301:a28761137", "current_trial": 9, "dateTime": 1693569104186, "trialdata": {"revealed_states": [], "clicked_states": [], "num_clicks_accrued": [0, 0, 0, 0, 0, 0, 0, 0, 0, 0, 0, 0, 0], "stateRewards": ["", 2, -1, -1, 7, 11, -40, -22, -2, 69, 37, 8, -2, 4, -8, -12, -2, -72, -3, -12, 17, 63, 12, 1, 3, -7, 6, 25, 61, 61, -9, 28, -17, 27], "withholdReward": false, "trial_id": "mdp_trial_1", "block": "test", "trialIndex": 2, "score": 28, "costs": 0, "simulationMode": [null, null, null, null, null], "rewards": [1, 3, -7, 6, 25], "path": ["0", "0", "23", "24", "25", "26", "27"], "rt": [979, 21, 22, 1458, 20], "actions": ["left", "left", "left", "up", "up"], "actionTimes": [8558, 9129, 9693, 11696, 12243], "queries": {"click": {"state": {"target": [], "time": []}, "edge": {"target": [], "time": []}}, "mouseover": {"state": {"target": [], "time": []}, "edge": {"target": [], "time": []}}, "mouseout": {"state": {"target": ["32", "31", "12"], "time": [2053, 2164, 2944]}, "edge": {"target": [], "time": []}}}, "displayed_time": "21.58", "trialTime": 50497, "trial_type": "mouselab-mdp", "trial_index": 9, "time_elapsed": 1666239, "internal_node_id": "0.0-6.0-1.0-0.0"}}, {"uniqueid": "w33107301:a28761137", "current_trial": 10, "dateTime": 1693569126226, "trialdata": {"revealed_states": [], "clicked_states": [], "num_clicks_accrued": [0, 0, 0, 0, 0, 0, 0, 0, 0, 0, 0, 0, 0], "stateRewards": ["", 1, 1, -5, 8, -6, 45, 16, -6, -7, -22, -38, -1, -4, 8, -11, -16, 21, -45, -15, -59, -32, 42, -1, 3, 6, 11, -7, 34, -27, -8, 85, 43, -9], "withholdReward": false, "trial_id": "mdp_trial_2", "block": "test", "trialIndex": 3, "score": -24, "costs": 0, "simulationMode": [null, null, null, null, null], "rewards": [-1, -4, 8, -11, -16], "path": ["0", "0", "12", "13", "14", "15", "16"], "rt": [914, 20, 408, 1116, 804], "actions": ["right", "right", "right", "up", "up"], "actionTimes": [5228, 5794, 6740, 8425, 9802], "queries": {"click": {"state": {"target": [], "time": []}, "edge": {"target": [], "time": []}}, "mouseover": {"state": {"target": [], "time": []}, "edge": {"target": [], "time": []}}, "mouseout": {"state": {"target": [], "time": []}, "edge": {"target": [], "time": []}}}, "displayed_time": "18.32", "trialTime": 20290, "trial_type": "mouselab-mdp", "trial_index": 10, "time_elapsed": 1688281, "internal_node_id": "0.0-6.0-1.0-1.0"}}, {"uniqueid": "w33107301:a28761137", "current_trial": 11, "dateTime": 1693569148913, "trialdata": {"revealed_states": [], "clicked_states": [], "num_clicks_accrued": [0, 0, 0, 0, 0, 0, 0, 0, 0, 0, 0, 0, 0], "stateRewards": ["", 2, 4, -3, 16, -58, 30, -35, 11, -60, 47, 27, -2, -1, -7, -16, 23, -70, 68, -10, -65, -43, -34, -2, 1, 7, 9, -63, 34, -31, -8, -12, -86, 59], "withholdReward": false, "trial_id": "mdp_trial_3", "block": "test", "trialIndex": 4, "score": 49, "costs": 0, "simulationMode": [null, null, null, null, null], "rewards": [2, 4, -3, 16, 30], "path": ["0", "0", "1", "2", "3", "4", "6"], "rt": [3274, 19, 20, 453, 51], "actions": ["up", "up", "up", "right", "right"], "actionTimes": [7158, 7717, 8286, 9319, 9944], "queries": {"click": {"state": {"target": [], "time": []}, "edge": {"target": [], "time": []}}, "mouseover": {"state": {"target": [], "time": []}, "edge": {"target": [], "time": []}}, "mouseout": {"state": {"target": ["0"], "time": [1603]}, "edge": {"target": [], "time": []}}}, "displayed_time": "17.90", "trialTime": 20757, "trial_type": "mouselab-mdp", "trial_index": 11, "time_elapsed": 1710967, "internal_node_id": "0.0-6.0-1.0-2.0"}}, {"uniqueid": "w33107301:a28761137", "current_trial": 12, "dateTime": 1693569171138, "trialdata": {"revealed_states": [], "clicked_states": [], "num_clicks_accrued": [0, 0, 0, 0, 0, 0, 0, 0, 0, 0, 0, 0, 0], "stateRewards": ["", -2, 3, -5, -7, 66, 43, -60, -4, -70, -75, 4, -1, 2, 2, -13, 54, 11, -40, -1, 77, 32, 15, -2, 3, -8, -9, -35, 83, -27, 6, -74, -34, 44], "withholdReward": false, "trial_id": "mdp_trial_4", "block": "test", "trialIndex": 5, "score": 34, "costs": 0, "simulationMode": [null, null, null, null, null], "rewards": [-1, 2, 2, -1, 32], "path": ["0", "0", "12", "13", "14", "19", "21"], "rt": [1740, 311, 320, 774, 414], "actions": ["right", "right", "right", "down", "down"], "actionTimes": [4421, 5277, 6151, 7477, 8422], "queries": {"click": {"state": {"target": [], "time": []}, "edge": {"target": [], "time": []}}, "mouseover": {"state": {"target": [], "time": []}, "edge": {"target": [], "time": []}}, "mouseout": {"state": {"target": [], "time": []}, "edge": {"target": [], "time": []}}}, "displayed_time": "16.70", "trialTime": 20378, "trial_type": "mouselab-mdp", "trial_index": 12, "time_elapsed": 1733187, "internal_node_id": "0.0-6.0-1.0-3.0"}}, {"uniqueid": "w33107301:a28761137", "current_trial": 13, "dateTime": 1693569191674, "trialdata": {"revealed_states": [], "clicked_states": [], "num_clicks_accrued": [0, 0, 0, 0, 0, 0, 0, 0, 0, 0, 0, 0, 0], "stateRewards": ["", 1, -2, 4, 7, -43, -83, -60, -5, -86, -80, 83, -1, -2, 6, 11, -15, 21, 13, 9, 29, -49, 11, -1, 4, -6, -11, 87, 40, 63, -8, -39, -11, 62], "withholdReward": false, "trial_id": "mdp_trial_5", "block": "test", "trialIndex": 6, "score": -22, "costs": 0, "simulationMode": [null, null, null, null, null], "rewards": [-1, 4, -6, -8, -11], "path": ["0", "0", "23", "24", "25", "30", "32"], "rt": [4326, 350, 318, 1087, 766], "actions": ["left", "left", "left", "down", "down"], "actionTimes": [7499, 8395, 9242, 10903, 12234], "queries": {"click": {"state": {"target": [], "time": []}, "edge": {"target": [], "time": []}}, "mouseover": {"state": {"target": [], "time": []}, "edge": {"target": [], "time": []}}, "mouseout": {"state": {"target": [], "time": []}, "edge": {"target": [], "time": []}}}, "displayed_time": "17.19", "trialTime": 18719, "trial_type": "mouselab-mdp", "trial_index": 13, "time_elapsed": 1753729, "internal_node_id": "0.0-6.0-1.0-4.0"}}, {"uniqueid": "w33107301:a28761137", "current_trial": 14, "dateTime": 1693569218583, "trialdata": {"revealed_states": [], "clicked_states": [], "num_clicks_accrued": [0, 0, 0, 0, 0, 0, 0, 0, 0, 0, 0, 0, 0], "stateRewards": ["", 2, -4, -4, 13, -80, 62, 13, -11, 57, -13, -44, 1, 4, 3, -4, -29, -88, 15, 16, -58, 68, -45, -1, -3, -1, -9, -44, -86, -19, -7, -36, 59, 66], "withholdReward": false, "trial_id": "mdp_trial_6", "block": "test", "trialIndex": 7, "score": 40, "costs": 0, "simulationMode": [null, null, null, null, null], "rewards": [2, -4, -4, -11, 57], "path": ["0", "0", "1", "2", "3", "8", "9"], "rt": [654, 44, 357, 435, 474], "actions": ["up", "up", "up", "left", "up"], "actionTimes": [3331, 3964, 4860, 5822, 6853], "queries": {"click": {"state": {"target": [], "time": []}, "edge": {"target": [], "time": []}}, "mouseover": {"state": {"target": [], "time": []}, "edge": {"target": [], "time": []}}, "mouseout": {"state": {"target": [], "time": []}, "edge": {"target": [], "time": []}}}, "displayed_time": "16.69", "trialTime": 24982, "trial_type": "mouselab-mdp", "trial_index": 14, "time_elapsed": 1780634, "internal_node_id": "0.0-6.0-1.0-5.0"}}, {"uniqueid": "w33107301:a28761137", "current_trial": 15, "dateTime": 1693569239005, "trialdata": {"revealed_states": [], "clicked_states": [], "num_clicks_accrued": [0, 0, 0, 0, 0, 0, 0, 0, 0, 0, 0, 0, 0], "stateRewards": ["", 1, 2, 2, -15, -84, 28, -26, 13, 31, 86, 30, -2, 1, -1, -8, 66, -40, -1, -10, -32, 57, -17, 1, 2, -2, 9, -23, 77, 85, 12, -32, -62, -35], "withholdReward": false, "trial_id": "mdp_trial_7", "block": "test", "trialIndex": 8, "score": -29, "costs": 0, "simulationMode": [null, null, null, null, null], "rewards": [-2, 1, -1, -10, -17], "path": ["0", "0", "12", "13", "14", "19", "22"], "rt": [1489, 531, 431, 661, 1088], "actions": ["right", "right", "right", "down", "left"], "actionTimes": [4027, 5108, 6072, 7265, 8888], "queries": {"click": {"state": {"target": [], "time": []}, "edge": {"target": [], "time": []}}, "mouseover": {"state": {"target": [], "time": []}, "edge": {"target": [], "time": []}}, "mouseout": {"state": {"target": [], "time": []}, "edge": {"target": [], "time": []}}}, "displayed_time": "16.55", "trialTime": 18506, "trial_type": "mouselab-mdp", "trial_index": 15, "time_elapsed": 1801053, "internal_node_id": "0.0-6.0-1.0-6.0"}}, {"uniqueid": "w33107301:a28761137", "current_trial": 16, "dateTime": 1693569259790, "trialdata": {"revealed_states": [], "clicked_states": [], "num_clicks_accrued": [0, 0, 0, 0, 0, 0, 0, 0, 0, 0, 0, 0, 0], "stateRewards": ["", 1, -2, -2, 10, -31, -77, 35, 9, -47, 8, 48, -2, 1, -4, -3, -26, -50, 43, -11, 76, -38, 17, 1, -1, 6, 10, 15, -9, 12, -8, 85, 11, -55], "withholdReward": false, "trial_id": "mdp_trial_8", "block": "test", "trialIndex": 9, "score": -50, "costs": 0, "simulationMode": [null, null, null, null, null, null, null, null, null, null, null, null, null, null, null], "rewards": [-2, -2, 1, 1, -4, -4, -3, -11, -26], "path": ["0", "0", "12", "12", "13", "13", "14", "14", "15", "19", "16"], "rt": [1613, 1541, 841, 346, 944, 474, 952, 465, 827, 343, 411, 1158, 738, 956, 2439], "actions": ["right", "right", "right", "right", "right", "right", "right", "right", "right", "right", "right", "up", "up", "down", "up"], "actionTimes": [1514, 1553, 2416, 2448, 3406, 3422, 4388, 4411, 5256, 5286, 5715, 6958, 6987, 7966, 9935], "queries": {"click": {"state": {"target": [], "time": []}, "edge": {"target": [], "time": []}}, "mouseover": {"state": {"target": [], "time": []}, "edge": {"target": [], "time": []}}, "mouseout": {"state": {"target": [], "time": []}, "edge": {"target": [], "time": []}}}, "displayed_time": "13.92", "trialTime": 17290, "trial_type": "mouselab-mdp", "trial_index": 16, "time_elapsed": 1821840, "internal_node_id": "0.0-6.0-1.0-7.0"}}, {"uniqueid": "w33107301:a28761137", "current_trial": 17, "dateTime": 1693569287954, "trialdata": {"revealed_states": [], "clicked_states": [], "num_clicks_accrued": [0, 0, 0, 0, 0, 0, 0, 0, 0, 0, 0, 0, 0], "stateRewards": ["", -2, 2, 8, -6, -25, 3, 87, 2, -62, -2, 74, -2, -1, 2, -1, 79, 49, -37, -14, 5, 67, -9, -1, 2, -2, 5, 15, 38, 32, -14, -38, -38, 30], "withholdReward": false, "trial_id": "mdp_trial_9", "block": "test", "trialIndex": 10, "score": 36, "costs": 0, "simulationMode": [null, null, null, null, null], "rewards": [-1, 2, -2, 5, 32], "path": ["0", "0", "23", "24", "25", "26", "29"], "rt": [2933, 375, 9, 744, 344], "actions": ["left", "left", "left", "up", "left"], "actionTimes": [5709, 6640, 7188, 8487, 9368], "queries": {"click": {"state": {"target": [], "time": []}, "edge": {"target": [], "time": []}}, "mouseover": {"state": {"target": [], "time": []}, "edge": {"target": [], "time": []}}, "mouseout": {"state": {"target": [], "time": []}, "edge": {"target": [], "time": []}}}, "displayed_time": "16.79", "trialTime": 25912, "trial_type": "mouselab-mdp", "trial_index": 17, "time_elapsed": 1850004, "internal_node_id": "0.0-6.0-1.0-8.0"}}, {"uniqueid": "w33107301:a28761137", "current_trial": 18, "dateTime": 1693569308894, "trialdata": {"revealed_states": [], "clicked_states": [], "num_clicks_accrued": [0, 0, 0, 0, 0, 0, 0, 0, 0, 0, 0, 0, 0], "stateRewards": ["", -1, 1, 3, -8, -23, -15, -14, -11, -23, 58, 68, 1, 3, 5, 12, -17, -41, -7, -10, -4, 82, 10, 1, 4, -4, 11, 73, 55, -55, -1, -86, -86, 54], "withholdReward": false, "trial_id": "mdp_trial_10", "block": "test", "trialIndex": 11, "score": -86, "costs": 0, "simulationMode": [null, null, null, null, null], "rewards": [1, 4, -4, -1, -86], "path": ["0", "0", "23", "24", "25", "30", "32"], "rt": [1241, 183, 3472, 512, 960], "actions": ["left", "left", "left", "down", "down"], "actionTimes": [4191, 4928, 8936, 9995, 11500], "queries": {"click": {"state": {"target": [], "time": []}, "edge": {"target": [], "time": []}}, "mouseover": {"state": {"target": [], "time": []}, "edge": {"target": [], "time": []}}, "mouseout": {"state": {"target": [], "time": []}, "edge": {"target": [], "time": []}}}, "displayed_time": "16.97", "trialTime": 18797, "trial_type": "mouselab-mdp", "trial_index": 18, "time_elapsed": 1870946, "internal_node_id": "0.0-6.0-1.0-9.0"}}, {"uniqueid": "w33107301:a28761137", "current_trial": 19, "dateTime": 1693569328558, "trialdata": {"revealed_states": [], "clicked_states": [], "num_clicks_accrued": [0, 0, 0, 0, 0, 0, 0, 0, 0, 0, 0, 0, 0], "stateRewards": ["", 2, 3, -2, -8, -8, -41, 74, 15, -23, -80, 1, 1, 3, 3, -15, -63, -78, 67, 13, 75, -41, 86, 2, -2, 6, -3, -8, -49, 50, -6, 83, 74, 80], "withholdReward": false, "trial_id": "mdp_trial_11", "block": "test", "trialIndex": 12, "score": 22, "costs": 0, "simulationMode": [null, null, null, null, null, null, null, null, null, null, null, null, null, null, null], "rewards": [2, 2, 3, 3, -2, 15, -2, 1], "path": ["0", "0", "1", "1", "2", "2", "3", "8", "3", "11"], "rt": [1618, 1485, 823, 363, 840, 391, 963, 512, 589, 166, 370, 3001, 1569, 789, 338], "actions": ["up", "up", "up", "up", "up", "up", "up", "up", "up", "up", "left", "up", "up", "left", "left"], "actionTimes": [1475, 1511, 2359, 2389, 3247, 3280, 4267, 4303, 4919, 4958, 5946, 7993, 8035, 8840, 8857], "queries": {"click": {"state": {"target": [], "time": []}, "edge": {"target": [], "time": []}}, "mouseover": {"state": {"target": [], "time": []}, "edge": {"target": [], "time": []}}, "mouseout": {"state": {"target": ["0"], "time": [12914]}, "edge": {"target": [], "time": []}}}, "displayed_time": "13.87", "trialTime": 16022, "trial_type": "mouselab-mdp", "trial_index": 19, "time_elapsed": 1890609, "internal_node_id": "0.0-6.0-1.0-10.0"}}, {"uniqueid": "w33107301:a28761137", "current_trial": 20, "dateTime": 1693569350427, "trialdata": {"revealed_states": [], "clicked_states": [], "num_clicks_accrued": [0, 0, 0, 0, 0, 0, 0, 0, 0, 0, 0, 0, 0], "stateRewards": ["", 2, 4, -6, -13, -75, -81, 30, 7, 5, 59, -65, -1, -1, 7, 14, -38, 36, -41, 1, -54, -5, 64, 2, -1, 5, 6, -19, 79, 11, 16, -33, -50, 58], "withholdReward": false, "trial_id": "mdp_trial_12", "block": "test", "trialIndex": 13, "score": 17, "costs": 0, "simulationMode": [null, null, null, null, null], "rewards": [2, 4, -6, -13, 30], "path": ["0", "0", "1", "2", "3", "4", "7"], "rt": [1107, 325, 748, 83, 406], "actions": ["up", "up", "up", "right", "down"], "actionTimes": [3847, 4719, 6010, 6636, 7577], "queries": {"click": {"state": {"target": [], "time": []}, "edge": {"target": [], "time": []}}, "mouseover": {"state": {"target": [], "time": []}, "edge": {"target": [], "time": []}}, "mouseout": {"state": {"target": [], "time": []}, "edge": {"target": [], "time": []}}}, "displayed_time": "16.75", "trialTime": 19678, "trial_type": "mouselab-mdp", "trial_index": 20, "time_elapsed": 1912478, "internal_node_id": "0.0-6.0-1.0-11.0"}}, {"uniqueid": "w33107301:a28761137", "current_trial": 21, "dateTime": 1693569372004, "trialdata": {"revealed_states": [], "clicked_states": [], "num_clicks_accrued": [0, 0, 0, 0, 0, 0, 0, 0, 0, 0, 0, 0, 0], "stateRewards": ["", 2, -1, -1, -9, -81, -30, 55, -6, 78, 25, 62, 2, 4, -1, 9, -85, 1, -19, 1, -60, 12, -34, 1, 4, -1, -13, -24, -16, -83, -8, 16, 43, 9], "withholdReward": false, "trial_id": "mdp_trial_13", "block": "test", "trialIndex": 14, "score": -39, "costs": 0, "simulationMode": [null, null, null, null, null], "rewards": [2, -1, -1, -9, -30], "path": ["0", "0", "1", "2", "3", "4", "6"], "rt": [1124, 29, 550, 1554, 777], "actions": ["up", "up", "up", "right", "right"], "actionTimes": [5041, 5614, 6700, 8827, 10136], "queries": {"click": {"state": {"target": [], "time": []}, "edge": {"target": [], "time": []}}, "mouseover": {"state": {"target": [], "time": []}, "edge": {"target": [], "time": []}}, "mouseout": {"state": {"target": [], "time": []}, "edge": {"target": [], "time": []}}}, "displayed_time": "17.94", "trialTime": 19351, "trial_type": "mouselab-mdp", "trial_index": 21, "time_elapsed": 1934058, "internal_node_id": "0.0-6.0-1.0-12.0"}}, {"uniqueid": "w33107301:a28761137", "current_trial": 22, "dateTime": 1693569393011, "trialdata": {"revealed_states": [], "clicked_states": [], "num_clicks_accrued": [0, 0, 0, 0, 0, 0, 0, 0, 0, 0, 0, 0, 0], "stateRewards": ["", 1, -2, -8, -3, 31, -84, -55, -14, 15, -58, 17, -2, -3, 7, 7, -12, 48, 67, 4, -44, -68, 46, 2, 3, -5, -7, 76, 27, 5, 11, 57, 52, 59], "withholdReward": false, "trial_id": "mdp_trial_14", "block": "test", "trialIndex": 15, "score": 69, "costs": 0, "simulationMode": [null, null, null, null, null], "rewards": [2, 3, -5, -7, 76], "path": ["0", "0", "23", "24", "25", "26", "27"], "rt": [613, 4550, 1689, 2937, 372], "actions": ["left", "left", "left", "up", "up"], "actionTimes": [3405, 8497, 10712, 14177, 15089], "queries": {"click": {"state": {"target": [], "time": []}, "edge": {"target": [], "time": []}}, "mouseover": {"state": {"target": [], "time": []}, "edge": {"target": [], "time": []}}, "mouseout": {"state": {"target": [], "time": []}, "edge": {"target": [], "time": []}}}, "displayed_time": "16.80", "trialTime": 18656, "trial_type": "mouselab-mdp", "trial_index": 22, "time_elapsed": 1955063, "internal_node_id": "0.0-6.0-1.0-13.0"}}, {"uniqueid": "w33107301:a28761137", "current_trial": 23, "dateTime": 1693569415107, "trialdata": {"revealed_states": [], "clicked_states": [], "num_clicks_accrued": [0, 0, 0, 0, 0, 0, 0, 0, 0, 0, 0, 0, 0], "stateRewards": ["", 1, 4, -8, -5, -15, -7, 21, 13, -30, 40, -65, 1, 1, 5, -14, 35, 27, -38, -11, 36, -58, -47, -2, 4, -3, 13, -16, -49, 22, 15, -56, -44, -10], "withholdReward": false, "trial_id": "mdp_trial_15", "block": "test", "trialIndex": 16, "score": -45, "costs": 0, "simulationMode": [null, null, null, null, null], "rewards": [1, 1, 5, -14, -38], "path": ["0", "0", "12", "13", "14", "15", "18"], "rt": [874, 442, 280, 1150, 666], "actions": ["right", "right", "right", "up", "left"], "actionTimes": [4420, 5400, 6244, 7921, 9110], "queries": {"click": {"state": {"target": [], "time": []}, "edge": {"target": [], "time": []}}, "mouseover": {"state": {"target": [], "time": []}, "edge": {"target": [], "time": []}}, "mouseout": {"state": {"target": [], "time": []}, "edge": {"target": [], "time": []}}}, "displayed_time": "17.57", "trialTime": 19707, "trial_type": "mouselab-mdp", "trial_index": 23, "time_elapsed": 1977158, "internal_node_id": "0.0-6.0-1.0-14.0"}}, {"uniqueid": "w33107301:a28761137", "current_trial": 24, "dateTime": 1693569439837, "trialdata": {"revealed_states": [], "clicked_states": [], "num_clicks_accrued": [0, 0, 0, 0, 0, 0, 0, 0, 0, 0, 0, 0, 0], "stateRewards": ["", -1, -3, 4, -10, -5, 79, -87, -2, 53, 29, -20, -2, -1, -5, 10, 27, 86, 46, -16, -29, 40, 3, 2, 4, -1, -6, 37, 79, -29, 7, 86, -62, 29], "withholdReward": false, "trial_id": "mdp_trial_16", "block": "test", "trialIndex": 17, "score": 98, "costs": 0, "simulationMode": [null, null, null, null, null], "rewards": [2, 4, -1, 7, 86], "path": ["0", "0", "23", "24", "25", "30", "31"], "rt": [1925, 229, 343, 452, 517], "actions": ["left", "left", "left", "down", "right"], "actionTimes": [4634, 5384, 6269, 7255, 8312], "queries": {"click": {"state": {"target": [], "time": []}, "edge": {"target": [], "time": []}}, "mouseover": {"state": {"target": [], "time": []}, "edge": {"target": [], "time": []}}, "mouseout": {"state": {"target": [], "time": []}, "edge": {"target": [], "time": []}}}, "displayed_time": "16.73", "trialTime": 22147, "trial_type": "mouselab-mdp", "trial_index": 24, "time_elapsed": 2001891, "internal_node_id": "0.0-6.0-1.0-15.0"}}, {"uniqueid": "w33107301:a28761137", "current_trial": 25, "dateTime": 1693569463773, "trialdata": {"revealed_states": [], "clicked_states": [], "num_clicks_accrued": [0, 0, 0, 0, 0, 0, 0, 0, 0, 0, 0, 0, 0], "stateRewards": ["", -2, -4, 6, 14, -34, 49, 36, -8, -3, 32, -4, 1, -2, 1, -8, -20, -71, -57, -7, -86, -62, -16, -2, -3, -5, 11, 23, -21, 53, 5, -5, 85, 73], "withholdReward": false, "trial_id": "mdp_trial_17", "block": "test", "trialIndex": 18, "score": -11, "costs": 0, "simulationMode": [null, null, null, null, null], "rewards": [-2, -4, 6, -8, -3], "path": ["0", "0", "1", "2", "3", "8", "9"], "rt": [2429, 330, 369, 468, 1884], "actions": ["up", "up", "up", "left", "up"], "actionTimes": [5874, 6768, 7681, 8700, 11114], "queries": {"click": {"state": {"target": [], "time": []}, "edge": {"target": [], "time": []}}, "mouseover": {"state": {"target": [], "time": []}, "edge": {"target": [], "time": []}}, "mouseout": {"state": {"target": [], "time": []}, "edge": {"target": [], "time": []}}}, "displayed_time": "17.45", "trialTime": 21103, "trial_type": "mouselab-mdp", "trial_index": 25, "time_elapsed": 2025824, "internal_node_id": "0.0-6.0-1.0-16.0"}}, {"uniqueid": "w33107301:a28761137", "current_trial": 26, "dateTime": 1693569485647, "trialdata": {"revealed_states": [], "clicked_states": [], "num_clicks_accrued": [0, 0, 0, 0, 0, 0, 0, 0, 0, 0, 0, 0, 0], "stateRewards": ["", -2, 1, 6, -2, -10, -78, -69, 14, -15, 7, -1, 1, -1, -2, 13, 77, 32, 87, 5, -74, 30, -26, 1, 3, 4, 12, 39, 54, -43, 2, 10, 23, 13], "withholdReward": false, "trial_id": "mdp_trial_18", "block": "test", "trialIndex": 19, "score": -23, "costs": 0, "simulationMode": [null, null, null, null, null], "rewards": [1, -1, -2, 5, -26], "path": ["0", "0", "12", "13", "14", "19", "22"], "rt": [1338, 385, 24, 484, 2529], "actions": ["right", "right", "right", "down", "left"], "actionTimes": [4325, 5274, 5830, 6891, 9977], "queries": {"click": {"state": {"target": [], "time": []}, "edge": {"target": [], "time": []}}, "mouseover": {"state": {"target": [], "time": []}, "edge": {"target": [], "time": []}}, "mouseout": {"state": {"target": [], "time": []}, "edge": {"target": [], "time": []}}}, "displayed_time": "17.01", "trialTime": 19164, "trial_type": "mouselab-mdp", "trial_index": 26, "time_elapsed": 2047697, "internal_node_id": "0.0-6.0-1.0-17.0"}}, {"uniqueid": "w33107301:a28761137", "current_trial": 27, "dateTime": 1693569509482, "trialdata": {"revealed_states": [], "clicked_states": [], "num_clicks_accrued": [0, 0, 0, 0, 0, 0, 0, 0, 0, 0, 0, 0, 0], "stateRewards": ["", 1, 1, 6, -14, -40, 37, 16, -13, 33, -68, 49, 2, 4, 3, 6, 55, 27, 32, 10, -65, 20, -87, 2, 1, -6, -5, -42, 12, 29, -8, 16, 76, -33], "withholdReward": false, "trial_id": "mdp_trial_19", "block": "test", "trialIndex": 20, "score": 65, "costs": 0, "simulationMode": [null, null, null, null, null], "rewards": [2, 1, -6, -8, 76], "path": ["0", "0", "23", "24", "25", "30", "32"], "rt": [1037, 2363, 282, 750, 959], "actions": ["left", "left", "left", "down", "down"], "actionTimes": [3999, 6924, 7762, 9044, 10542], "queries": {"click": {"state": {"target": [], "time": []}, "edge": {"target": [], "time": []}}, "mouseover": {"state": {"target": [], "time": []}, "edge": {"target": [], "time": []}}, "mouseout": {"state": {"target": [], "time": []}, "edge": {"target": [], "time": []}}}, "displayed_time": "16.98", "trialTime": 21390, "trial_type": "mouselab-mdp", "trial_index": 27, "time_elapsed": 2071532, "internal_node_id": "0.0-6.0-1.0-18.0"}}, {"uniqueid": "w33107301:a28761137", "current_trial": 28, "dateTime": 1693569548324, "trialdata": {"revealed_states": [], "clicked_states": ["25", "31", "2", "4", "19", "20"], "num_clicks_accrued": [0, 0, 0, 0, 0, 0, 0, 0, 0, 0, 0, 0, 0], "stateRewards": ["", 1, -1, 4, -2, -75, -75, 84, -9, -60, -79, 59, 2, -4, 8, 9, -17, -82, 80, 14, -4, 49, 49, -1, 3, 6, -11, -33, 34, 55, 9, -57, 5, 59], "withholdReward": false, "trial_id": "mdp_trial_20", "block": "test", "trialIndex": 21, "score": 60.6, "costs": -8.4, "simulationMode": [null, null, null, null, null], "rewards": [2, -4, 8, 14, 49], "path": ["0", "0", "12", "13", "14", "19", "21"], "rt": [21851, 11, 659, 1510, 448], "actions": ["right", "right", "right", "down", "down"], "actionTimes": [25044, 25600, 26834, 28902, 29890], "queries": {"click": {"state": {"target": ["25", "31", "2", "4", "19", "20"], "time": [4931, 7703, 10200, 13258, 15300, 17936]}, "edge": {"target": [], "time": []}}, "mouseover": {"state": {"target": ["23", "24", "25", "31", "24", "10", "2", "3", "4", "19", "20", "15", "17"], "time": [3830, 3881, 4133, 6356, 8687, 9158, 9518, 10779, 11065, 14662, 15981, 18444, 20913]}, "edge": {"target": [], "time": []}}, "mouseout": {"state": {"target": ["0", "23", "24", "25", "31", "24", "10", "2", "3", "4", "19", "20", "15"], "time": [3772, 3867, 3918, 6173, 8599, 8737, 9448, 10660, 10908, 14064, 15853, 18184, 20865]}, "edge": {"target": [], "time": []}}}, "displayed_time": "30.48", "trialTime": 36187, "trial_type": "mouselab-mdp", "trial_index": 28, "time_elapsed": 2110375, "internal_node_id": "0.0-6.0-1.0-19.0"}}, {"uniqueid": "w33107301:a28761137", "current_trial": 29, "dateTime": 1693569575996, "trialdata": {"revealed_states": [], "clicked_states": ["16", "17"], "num_clicks_accrued": [0, 0, 0, 0, 0, 0, 0, 0, 0, 0, 0, 0, 0], "stateRewards": ["", -1, 2, 6, 11, 21, -21, -21, -6, 48, -71, 88, -1, -3, 3, 7, 64, 2, 9, -4, 37, -67, 72, 2, 2, -8, -8, -10, 71, -40, -3, 73, 80, 47], "withholdReward": false, "trial_id": "mdp_trial_21", "block": "test", "trialIndex": 22, "score": 67.2, "costs": -2.8, "simulationMode": [null, null, null, null, null], "rewards": [-1, -3, 3, 7, 64], "path": ["0", "0", "12", "13", "14", "15", "16"], "rt": [9637, 25, 545, 765, 576], "actions": ["right", "right", "right", "up", "up"], "actionTimes": [15908, 16496, 18020, 19318, 20432], "queries": {"click": {"state": {"target": ["16", "17"], "time": [8124, 11646]}, "edge": {"target": [], "time": []}}, "mouseover": {"state": {"target": ["18", "15", "16", "17", "12"], "time": [7135, 7183, 7434, 9685, 14317]}, "edge": {"target": [], "time": []}}, "mouseout": {"state": {"target": ["17", "15", "12", "0", "23", "23", "0", "18", "15", "16", "17"], "time": [1669, 1712, 1770, 1850, 1914, 2130, 7073, 7168, 7224, 8915, 14034]}, "edge": {"target": [], "time": []}}}, "displayed_time": "20.95", "trialTime": 25218, "trial_type": "mouselab-mdp", "trial_index": 29, "time_elapsed": 2138046, "internal_node_id": "0.0-6.0-1.0-20.0"}}, {"uniqueid": "w33107301:a28761137", "current_trial": 30, "dateTime": 1693569600855, "trialdata": {"revealed_states": [], "clicked_states": [], "num_clicks_accrued": [0, 0, 0, 0, 0, 0, 0, 0, 0, 0, 0, 0, 0], "stateRewards": ["", 2, -3, -2, 14, -4, 85, 46, 15, -28, 41, 31, -1, -1, -1, 5, 62, 79, 57, 12, -73, -64, 86, -1, 1, -3, -5, 68, 11, -32, 8, -80, -21, -56], "withholdReward": false, "trial_id": "mdp_trial_22", "block": "test", "trialIndex": 23, "score": 96, "costs": 0, "simulationMode": [null, null, null, null, null], "rewards": [2, -3, -2, 14, 85], "path": ["0", "0", "1", "2", "3", "4", "6"], "rt": [2130, 539, 99, 3360, 801], "actions": ["up", "up", "up", "right", "right"], "actionTimes": [5747, 6847, 7473, 11366, 12712], "queries": {"click": {"state": {"target": [], "time": []}, "edge": {"target": [], "time": []}}, "mouseover": {"state": {"target": [], "time": []}, "edge": {"target": [], "time": []}}, "mouseout": {"state": {"target": ["12", "0", "6", "6"], "time": [1584, 9195, 9269, 15628]}, "edge": {"target": [], "time": []}}}, "displayed_time": "17.63", "trialTime": 22290, "trial_type": "mouselab-mdp", "trial_index": 30, "time_elapsed": 2162909, "internal_node_id": "0.0-6.0-1.0-21.0"}}, {"uniqueid": "w33107301:a28761137", "current_trial": 31, "dateTime": 1693569627677, "trialdata": {"revealed_states": [], "clicked_states": ["32", "29"], "num_clicks_accrued": [0, 0, 0, 0, 0, 0, 0, 0, 0, 0, 0, 0, 0], "stateRewards": ["", -1, -2, 8, -6, -79, -6, 87, 9, -5, -66, -38, 2, 2, 5, -6, -82, 74, 85, -8, 67, -30, -15, 1, -2, -2, -2, 87, 64, 49, 7, 2, -38, -9], "withholdReward": false, "trial_id": "mdp_trial_23", "block": "test", "trialIndex": 24, "score": 41.2, "costs": -2.8, "simulationMode": [null, null, null, null, null], "rewards": [1, -2, -2, -2, 49], "path": ["0", "0", "23", "24", "25", "26", "29"], "rt": [9692, 796, 589, 999, 307], "actions": ["left", "left", "left", "up", "left"], "actionTimes": [13698, 15064, 16203, 17743, 18579], "queries": {"click": {"state": {"target": ["32", "29"], "time": [6853, 10797]}, "edge": {"target": [], "time": []}}, "mouseover": {"state": {"target": ["32", "32", "25", "29"], "time": [5614, 6063, 9325, 10190]}, "edge": {"target": [], "time": []}}, "mouseout": {"state": {"target": ["16", "1", "0", "0", "32", "32", "25"], "time": [1293, 1371, 1654, 5560, 5644, 7841, 9903]}, "edge": {"target": [], "time": []}}}, "displayed_time": "19.15", "trialTime": 24163, "trial_type": "mouselab-mdp", "trial_index": 31, "time_elapsed": 2189727, "internal_node_id": "0.0-6.0-1.0-22.0"}}, {"uniqueid": "w33107301:a28761137", "current_trial": 32, "dateTime": 1693569660511, "trialdata": {"revealed_states": [], "clicked_states": [], "num_clicks_accrued": [0, 0, 0, 0, 0, 0, 0, 0, 0, 0, 0, 0, 0], "stateRewards": ["", 2, 3, -1, 16, -78, -11, 46, 2, -20, 79, -67, 2, 3, 2, 11, -83, -42, -58, -11, -67, -22, 55, 2, -1, -1, -16, -83, -82, 23, -11, -29, 13, 13], "withholdReward": false, "trial_id": "mdp_trial_24", "block": "test", "trialIndex": 25, "score": 85, "costs": 0, "simulationMode": [null, null, null, null, null], "rewards": [2, 3, -1, 2, 79], "path": ["0", "0", "1", "2", "3", "8", "10"], "rt": [1742, 339, 425, 2123, 1330], "actions": ["up", "up", "up", "left", "down"], "actionTimes": [6102, 6993, 7937, 10605, 12463], "queries": {"click": {"state": {"target": [], "time": []}, "edge": {"target": [], "time": []}}, "mouseover": {"state": {"target": [], "time": []}, "edge": {"target": [], "time": []}}, "mouseout": {"state": {"target": ["29", "0"], "time": [1926, 2391]}, "edge": {"target": [], "time": []}}}, "displayed_time": "18.37", "trialTime": 30048, "trial_type": "mouselab-mdp", "trial_index": 32, "time_elapsed": 2222565, "internal_node_id": "0.0-6.0-1.0-23.0"}}, {"uniqueid": "w33107301:a28761137", "current_trial": 33, "dateTime": 1693569699620, "trialdata": {"revealed_states": [], "clicked_states": [], "num_clicks_accrued": [0, 0, 0, 0, 0, 0, 0, 0, 0, 0, 0, 0, 0], "stateRewards": ["", -1, -3, -3, 1, -38, 2, -53, -2, -1, -81, 70, -1, 1, -5, -9, 46, 15, 35, -1, -22, 38, 59, -2, 4, -8, 13, 1, -83, -43, 4, 76, 13, 48], "withholdReward": false, "trial_id": "mdp_trial_25", "block": "test", "trialIndex": 26, "score": 1, "costs": 0, "simulationMode": [null, null, null, null, null], "rewards": [-1, 1, -5, -9, 15], "path": ["0", "0", "12", "13", "14", "15", "17"], "rt": [6903, 20, 427, 749, 347], "actions": ["right", "right", "right", "up", "right"], "actionTimes": [14255, 14800, 15761, 17053, 17919], "queries": {"click": {"state": {"target": [], "time": []}, "edge": {"target": [], "time": []}}, "mouseover": {"state": {"target": ["12", "13", "14", "14", "15", "13", "12", "12", "0", "12"], "time": [9178, 9239, 9438, 10749, 11071, 12104, 12226, 12447, 12720, 12881]}, "edge": {"target": [], "time": []}}, "mouseout": {"state": {"target": ["0", "16", "1", "13", "22", "0", "12", "13", "14", "14", "15", "13", "12", "12", "0", "12"], "time": [1818, 4584, 4793, 4901, 4960, 9123, 9228, 9305, 9521, 10838, 11930, 12174, 12276, 12582, 12821, 24953]}, "edge": {"target": [], "time": []}}}, "displayed_time": "21.36", "trialTime": 35812, "trial_type": "mouselab-mdp", "trial_index": 33, "time_elapsed": 2261671, "internal_node_id": "0.0-6.0-1.0-24.0"}}, {"uniqueid": "w33107301:a28761137", "current_trial": 34, "dateTime": 1693569724889, "trialdata": {"revealed_states": [], "clicked_states": [], "num_clicks_accrued": [0, 0, 0, 0, 0, 0, 0, 0, 0, 0, 0, 0, 0], "stateRewards": ["", -2, -3, -5, 8, 27, 11, 43, -6, -24, -87, 69, -2, 1, 1, 9, 19, 48, -37, 9, -14, 45, 62, 1, 2, 1, 16, -81, -41, 22, 4, -6, -63, 47], "withholdReward": false, "trial_id": "mdp_trial_26", "block": "test", "trialIndex": 27, "score": 2, "costs": 0, "simulationMode": [null, null, null, null, null], "rewards": [1, 2, 1, 4, -6], "path": ["0", "0", "23", "24", "25", "30", "31"], "rt": [4530, 446, 388, 553, 391], "actions": ["left", "left", "left", "down", "right"], "actionTimes": [8570, 9570, 10481, 11578, 12574], "queries": {"click": {"state": {"target": [], "time": []}, "edge": {"target": [], "time": []}}, "mouseover": {"state": {"target": [], "time": []}, "edge": {"target": [], "time": []}}, "mouseout": {"state": {"target": ["16"], "time": [1267]}, "edge": {"target": [], "time": []}}}, "displayed_time": "18.05", "trialTime": 22667, "trial_type": "mouselab-mdp", "trial_index": 34, "time_elapsed": 2286940, "internal_node_id": "0.0-6.0-1.0-25.0"}}, {"uniqueid": "w33107301:a28761137", "current_trial": 35, "dateTime": 1693569760855, "trialdata": {"revealed_states": [], "clicked_states": ["29", "33", "7"], "num_clicks_accrued": [0, 0, 0, 0, 0, 0, 0, 0, 0, 0, 0, 0, 0], "stateRewards": ["", 1, -1, 8, 4, 76, -33, -17, -3, -1, -54, -74, -2, 2, -5, 13, -51, 63, 83, 1, 84, 29, -36, 2, -1, 7, -12, -10, -44, -43, -14, 8, -69, 19], "withholdReward": false, "trial_id": "mdp_trial_27", "block": "test", "trialIndex": 28, "score": -51.2, "costs": -4.199999999999999, "simulationMode": [null, null, null, null, null], "rewards": [2, -1, 7, -12, -43], "path": ["0", "0", "23", "24", "25", "26", "29"], "rt": [17406, 717, 504, 759, 161], "actions": ["left", "left", "left", "up", "left"], "actionTimes": [20700, 21957, 23007, 24299, 24991], "queries": {"click": {"state": {"target": ["29", "33", "7"], "time": [5095, 9539, 14033]}, "edge": {"target": [], "time": []}}, "mouseover": {"state": {"target": ["23", "26", "29", "26", "28", "24", "30", "33", "30", "0", "7", "14"], "time": [4043, 4124, 4499, 7410, 7507, 8088, 8519, 8822, 12424, 12552, 12650, 18333]}, "edge": {"target": [], "time": []}}, "mouseout": {"state": {"target": ["0", "23", "26", "29", "26", "28", "24", "30", "33", "30", "0", "7", "7"], "time": [1572, 4082, 4258, 7371, 7458, 8013, 8436, 8769, 12385, 12474, 12592, 14130, 17956]}, "edge": {"target": [], "time": []}}}, "displayed_time": "25.53", "trialTime": 33407, "trial_type": "mouselab-mdp", "trial_index": 35, "time_elapsed": 2322910, "internal_node_id": "0.0-6.0-1.0-26.0"}}, {"uniqueid": "w33107301:a28761137", "current_trial": 36, "dateTime": 1693569783410, "trialdata": {"revealed_states": [], "clicked_states": [], "num_clicks_accrued": [0, 0, 0, 0, 0, 0, 0, 0, 0, 0, 0, 0, 0], "stateRewards": ["", 1, -2, -3, 14, -42, -87, -37, -11, -50, 33, -44, -2, 4, -7, 13, 48, -75, -66, 12, 23, -2, 82, 1, -4, 3, 12, 51, -15, -26, -11, -52, -29, 82], "withholdReward": false, "trial_id": "mdp_trial_28", "block": "test", "trialIndex": 29, "score": -59, "costs": 0, "simulationMode": [null, null, null, null, null], "rewards": [1, -2, -3, -11, -44], "path": ["0", "0", "1", "2", "3", "8", "11"], "rt": [2437, 750, 425, 1581, 302], "actions": ["up", "up", "up", "left", "left"], "actionTimes": [6532, 7819, 8775, 10909, 11742], "queries": {"click": {"state": {"target": [], "time": []}, "edge": {"target": [], "time": []}}, "mouseover": {"state": {"target": [], "time": []}, "edge": {"target": [], "time": []}}, "mouseout": {"state": {"target": ["14", "13", "31", "23"], "time": [1366, 1435, 1638, 1749]}, "edge": {"target": [], "time": []}}}, "displayed_time": "18.11", "trialTime": 19801, "trial_type": "mouselab-mdp", "trial_index": 36, "time_elapsed": 2345461, "internal_node_id": "0.0-6.0-1.0-27.0"}}, {"uniqueid": "w33107301:a28761137", "current_trial": 37, "dateTime": 1693569803984, "trialdata": {"revealed_states": [], "clicked_states": [], "num_clicks_accrued": [0, 0, 0, 0, 0, 0, 0, 0, 0, 0, 0, 0, 0], "stateRewards": ["", -1, -4, 8, 8, -68, 47, 24, -7, -61, 49, -69, -1, -1, 8, -7, 42, 1, -45, -11, 10, -63, -6, 1, 4, 6, -16, 79, -37, -58, -12, 81, 18, -53], "withholdReward": false, "trial_id": "mdp_trial_29", "block": "test", "trialIndex": 30, "score": 5, "costs": 0, "simulationMode": [null, null, null, null, null], "rewards": [-1, -1, 8, -11, 10], "path": ["0", "0", "12", "13", "14", "19", "20"], "rt": [1341, 665, 420, 699, 712], "actions": ["right", "right", "right", "down", "right"], "actionTimes": [4312, 5515, 6482, 7715, 8955], "queries": {"click": {"state": {"target": [], "time": []}, "edge": {"target": [], "time": []}}, "mouseover": {"state": {"target": [], "time": []}, "edge": {"target": [], "time": []}}, "mouseout": {"state": {"target": [], "time": []}, "edge": {"target": [], "time": []}}}, "displayed_time": "16.99", "trialTime": 17904, "trial_type": "mouselab-mdp", "trial_index": 37, "time_elapsed": 2366038, "internal_node_id": "0.0-6.0-1.0-28.0"}}, {"uniqueid": "w33107301:a28761137", "current_trial": 38, "dateTime": 1693569846852, "trialdata": {"revealed_states": [], "clicked_states": [], "num_clicks_accrued": [0, 0, 0, 0, 0, 0, 0, 0, 0, 0, 0, 0, 0], "stateRewards": ["", -1, 3, -4, -14, 78, 67, 2, 13, -32, 28, 39, -2, 1, -4, -4, -4, -42, -86, 11, 64, -29, -32, -1, -4, 2, -7, 5, 68, -61, 2, -21, 85, 50], "withholdReward": false, "trial_id": "mdp_trial_30", "block": "test", "trialIndex": 31, "score": -14, "costs": 0, "simulationMode": [null, null, null, null, null], "rewards": [-1, 3, -4, -14, 2], "path": ["0", "0", "1", "2", "3", "4", "7"], "rt": [2272, 33, 54, 1875, 1489], "actions": ["up", "up", "up", "right", "down"], "actionTimes": [5454, 6062, 6704, 10067, 12082], "queries": {"click": {"state": {"target": [], "time": []}, "edge": {"target": [], "time": []}}, "mouseover": {"state": {"target": [], "time": []}, "edge": {"target": [], "time": []}}, "mouseout": {"state": {"target": [], "time": []}, "edge": {"target": [], "time": []}}}, "displayed_time": "17.19", "trialTime": 40150, "trial_type": "mouselab-mdp", "trial_index": 38, "time_elapsed": 2408906, "internal_node_id": "0.0-6.0-1.0-29.0"}}, {"uniqueid": "w33107301:a28761137", "current_trial": 39, "dateTime": 1693569876246, "trialdata": {"revealed_states": [], "clicked_states": [], "num_clicks_accrued": [0, 0, 0, 0, 0, 0, 0, 0, 0, 0, 0, 0, 0], "stateRewards": ["", 1, 1, 4, 11, 83, -66, 18, -16, -23, 5, 25, 1, -3, 1, -12, 18, 24, -86, -11, -64, 36, 40, 2, 1, -6, 13, 55, 29, 72, -2, 81, -72, -41], "withholdReward": false, "trial_id": "mdp_trial_31", "block": "test", "trialIndex": 32, "score": -33, "costs": 0, "simulationMode": [null, null, null, null, null], "rewards": [1, 1, 4, -16, -23], "path": ["0", "0", "1", "2", "3", "8", "9"], "rt": [2663, 81, 544, 220, 557], "actions": ["up", "up", "up", "left", "up"], "actionTimes": [6167, 6787, 7868, 8623, 9717], "queries": {"click": {"state": {"target": [], "time": []}, "edge": {"target": [], "time": []}}, "mouseover": {"state": {"target": [], "time": []}, "edge": {"target": [], "time": []}}, "mouseout": {"state": {"target": [], "time": []}, "edge": {"target": [], "time": []}}}, "displayed_time": "17.52", "trialTime": 25267, "trial_type": "mouselab-mdp", "trial_index": 39, "time_elapsed": 2438297, "internal_node_id": "0.0-6.0-1.0-30.0"}}, {"uniqueid": "w33107301:a28761137", "current_trial": 40, "dateTime": 1693569904346, "trialdata": {"revealed_states": [], "clicked_states": ["17", "21"], "num_clicks_accrued": [0, 0, 0, 0, 0, 0, 0, 0, 0, 0, 0, 0, 0], "stateRewards": ["", 2, -4, 4, 9, 69, 9, -75, 12, -86, 66, 25, -1, 3, 2, -13, -88, -3, 1, 4, -69, 49, -84, 2, -1, 4, 2, -18, -81, -52, -15, -69, -54, 25], "withholdReward": false, "trial_id": "mdp_trial_32", "block": "test", "trialIndex": 33, "score": 54.2, "costs": -2.8, "simulationMode": [null, null, null, null, null], "rewards": [-1, 3, 2, 4, 49], "path": ["0", "0", "12", "13", "14", "19", "21"], "rt": [8376, 726, 371, 899, 690], "actions": ["right", "right", "right", "down", "down"], "actionTimes": [11456, 12760, 13657, 15110, 16353], "queries": {"click": {"state": {"target": ["17", "21"], "time": [4874, 8543]}, "edge": {"target": [], "time": []}}, "mouseover": {"state": {"target": ["15", "17", "19", "21"], "time": [3943, 4288, 7214, 7728]}, "edge": {"target": [], "time": []}}, "mouseout": {"state": {"target": ["0", "15", "17", "19", "21", "21"], "time": [3885, 3992, 5647, 7283, 8585, 10285]}, "edge": {"target": [], "time": []}}}, "displayed_time": "17.10", "trialTime": 25295, "trial_type": "mouselab-mdp", "trial_index": 40, "time_elapsed": 2466401, "internal_node_id": "0.0-6.0-1.0-31.0"}}, {"uniqueid": "w33107301:a28761137", "current_trial": 41, "dateTime": 1693569927611, "trialdata": {"revealed_states": [], "clicked_states": ["29", "32"], "num_clicks_accrued": [0, 0, 0, 0, 0, 0, 0, 0, 0, 0, 0, 0, 0], "stateRewards": ["", -2, 3, 8, -9, 59, 41, -50, -1, 82, 66, 33, 2, -2, 7, 8, 1, -38, 12, -16, 24, -37, 67, 1, 4, -2, 5, 35, -83, 28, 8, -27, 69, -64], "withholdReward": false, "trial_id": "mdp_trial_33", "block": "test", "trialIndex": 34, "score": 77.2, "costs": -2.8, "simulationMode": [null, null, null, null, null], "rewards": [1, 4, -2, 8, 69], "path": ["0", "0", "23", "24", "25", "30", "32"], "rt": [8388, 715, 423, 596, 682], "actions": ["left", "left", "left", "down", "down"], "actionTimes": [11622, 12884, 13876, 15025, 16258], "queries": {"click": {"state": {"target": ["29", "32"], "time": [4984, 7425]}, "edge": {"target": [], "time": []}}, "mouseover": {"state": {"target": ["29", "30", "32", "30", "25"], "time": [4502, 5775, 6058, 9994, 10136]}, "edge": {"target": [], "time": []}}, "mouseout": {"state": {"target": ["22", "12", "0", "29", "30", "32", "30", "25"], "time": [999, 1062, 3960, 5649, 5827, 7525, 10035, 10885]}, "edge": {"target": [], "time": []}}}, "displayed_time": "17.24", "trialTime": 20516, "trial_type": "mouselab-mdp", "trial_index": 41, "time_elapsed": 2489661, "internal_node_id": "0.0-6.0-1.0-32.0"}}, {"uniqueid": "w33107301:a28761137", "current_trial": 42, "dateTime": 1693569952060, "trialdata": {"revealed_states": [], "clicked_states": [], "num_clicks_accrued": [0, 0, 0, 0, 0, 0, 0, 0, 0, 0, 0, 0, 0], "stateRewards": ["", 2, -3, -4, -1, 25, -16, 16, 10, -71, -20, -55, 1, 3, -4, -9, 1, 32, 11, -6, 32, -50, -41, -1, 4, 4, -8, 7, -81, 70, 2, -52, 45, -10], "withholdReward": false, "trial_id": "mdp_trial_34", "block": "test", "trialIndex": 35, "score": 6, "costs": 0, "simulationMode": [null, null, null, null, null], "rewards": [-1, 4, 4, -8, 7], "path": ["0", "0", "23", "24", "25", "26", "27"], "rt": [3798, 806, 754, 725, 589], "actions": ["left", "left", "left", "up", "up"], "actionTimes": [8100, 9460, 10785, 12082, 13202], "queries": {"click": {"state": {"target": [], "time": []}, "edge": {"target": [], "time": []}}, "mouseover": {"state": {"target": [], "time": []}, "edge": {"target": [], "time": []}}, "mouseout": {"state": {"target": ["13", "12", "0"], "time": [1742, 2057, 2168]}, "edge": {"target": [], "time": []}}}, "displayed_time": "18.31", "trialTime": 21579, "trial_type": "mouselab-mdp", "trial_index": 42, "time_elapsed": 2514112, "internal_node_id": "0.0-6.0-1.0-33.0"}}, {"uniqueid": "w33107301:a28761137", "current_trial": 43, "dateTime": 1693569983518, "trialdata": {"revealed_states": [], "clicked_states": ["20", "21", "16", "18"], "num_clicks_accrued": [0, 0, 0, 0, 0, 0, 0, 0, 0, 0, 0, 0, 0], "stateRewards": ["", 2, -3, 5, -14, -63, -9, -24, -11, -54, -43, 68, 2, -2, -4, 7, -64, 30, 47, 12, -74, 11, 86, 1, -3, 3, 10, -71, -42, -52, -1, -29, -16, 69], "withholdReward": false, "trial_id": "mdp_trial_35", "block": "test", "trialIndex": 36, "score": 44.4, "costs": -5.6, "simulationMode": [null, null, null, null, null], "rewards": [2, -2, -4, 7, 47], "path": ["0", "0", "12", "13", "14", "15", "18"], "rt": [15478, 454, 61, 829, 702], "actions": ["right", "right", "right", "up", "left"], "actionTimes": [18441, 19462, 20064, 21471, 22715], "queries": {"click": {"state": {"target": ["20", "21", "16", "18"], "time": [4972, 8342, 11836, 15000]}, "edge": {"target": [], "time": []}}, "mouseover": {"state": {"target": ["12", "20", "21", "16", "18"], "time": [3794, 4373, 7541, 11009, 14377]}, "edge": {"target": [], "time": []}}, "mouseout": {"state": {"target": ["0", "12", "20", "21", "16"], "time": [1332, 3843, 7358, 10838, 14303]}, "edge": {"target": [], "time": []}}}, "displayed_time": "23.29", "trialTime": 28072, "trial_type": "mouselab-mdp", "trial_index": 43, "time_elapsed": 2545569, "internal_node_id": "0.0-6.0-1.0-34.0"}}, {"uniqueid": "w33107301:a28761137", "current_trial": 44, "dateTime": 1693570008002, "trialdata": {"revealed_states": [], "clicked_states": [], "num_clicks_accrued": [0, 0, 0, 0, 0, 0, 0, 0, 0, 0, 0, 0, 0], "stateRewards": ["", -1, 2, -2, 5, 80, -61, -27, 12, 44, -26, -75, -2, -4, 1, -16, 42, -49, -50, 4, -44, 2, 80, -2, -2, 5, -2, 59, 10, 24, 7, -48, -86, -44], "withholdReward": false, "trial_id": "mdp_trial_36", "block": "test", "trialIndex": 37, "score": -57, "costs": 0, "simulationMode": [null, null, null, null, null], "rewards": [-1, 2, -2, 5, -61], "path": ["0", "0", "1", "2", "3", "4", "6"], "rt": [2216, 566, 440, 403, 705], "actions": ["up", "up", "up", "right", "right"], "actionTimes": [6179, 7292, 8276, 9226, 10466], "queries": {"click": {"state": {"target": [], "time": []}, "edge": {"target": [], "time": []}}, "mouseover": {"state": {"target": [], "time": []}, "edge": {"target": [], "time": []}}, "mouseout": {"state": {"target": ["18", "23", "23"], "time": [1231, 1345, 1604]}, "edge": {"target": [], "time": []}}}, "displayed_time": "17.98", "trialTime": 21555, "trial_type": "mouselab-mdp", "trial_index": 44, "time_elapsed": 2570056, "internal_node_id": "0.0-6.0-1.0-35.0"}}, {"uniqueid": "w33107301:a28761137", "current_trial": 45, "dateTime": 1693570035110, "trialdata": {"revealed_states": [], "clicked_states": ["11"], "num_clicks_accrued": [0, 0, 0, 0, 0, 0, 0, 0, 0, 0, 0, 0, 0], "stateRewards": ["", -1, 1, 8, -8, -49, 62, -78, 16, 28, -81, 78, -2, -3, -1, -4, 67, 49, -2, -13, -16, -39, 83, 1, -4, 4, -5, -20, 7, 84, 7, -32, -59, 19], "withholdReward": false, "trial_id": "mdp_trial_37", "block": "test", "trialIndex": 38, "score": 100.6, "costs": -1.4, "simulationMode": [null, null, null, null, null], "rewards": [-1, 1, 8, 16, 78], "path": ["0", "0", "1", "2", "3", "8", "11"], "rt": [5117, 498, 79, 923, 732], "actions": ["up", "up", "up", "left", "left"], "actionTimes": [7853, 8901, 9556, 11045, 12355], "queries": {"click": {"state": {"target": ["11"], "time": [4117]}, "edge": {"target": [], "time": []}}, "mouseover": {"state": {"target": ["11", "9", "5", "4", "7"], "time": [3538, 5084, 5627, 6540, 6618]}, "edge": {"target": [], "time": []}}, "mouseout": {"state": {"target": ["0", "11", "9", "5", "4", "7"], "time": [1204, 5005, 5143, 6428, 6605, 6660]}, "edge": {"target": [], "time": []}}}, "displayed_time": "16.75", "trialTime": 24032, "trial_type": "mouselab-mdp", "trial_index": 45, "time_elapsed": 2597162, "internal_node_id": "0.0-6.0-1.0-36.0"}}, {"uniqueid": "w33107301:a28761137", "current_trial": 46, "dateTime": 1693570064297, "trialdata": {"revealed_states": [], "clicked_states": ["28", "6", "2"], "num_clicks_accrued": [0, 0, 0, 0, 0, 0, 0, 0, 0, 0, 0, 0, 0], "stateRewards": ["", -1, 3, 8, 10, -86, 61, -36, 10, 17, -60, 24, -1, -3, 3, 11, 50, 60, 33, -3, -20, 58, -6, 1, -4, -4, 13, -70, -71, 43, 14, 52, 82, -11], "withholdReward": false, "trial_id": "mdp_trial_38", "block": "test", "trialIndex": 39, "score": 76.8, "costs": -4.199999999999999, "simulationMode": [null, null, null, null, null], "rewards": [-1, 3, 8, 10, 61], "path": ["0", "0", "1", "2", "3", "4", "6"], "rt": [10694, 604, 155, 833, 829], "actions": ["up", "up", "up", "right", "right"], "actionTimes": [13636, 14823, 15531, 16909, 18284], "queries": {"click": {"state": {"target": ["28", "6", "2"], "time": [4744, 6924, 9624]}, "edge": {"target": [], "time": []}}, "mouseover": {"state": {"target": ["28", "6", "7", "2", "7", "0"], "time": [4167, 5645, 8224, 8939, 12446, 12608]}, "edge": {"target": [], "time": []}}, "mouseout": {"state": {"target": ["0", "28", "6", "7", "2", "7", "0"], "time": [3886, 5117, 7609, 8504, 12383, 12519, 23087]}, "edge": {"target": [], "time": []}}}, "displayed_time": "18.83", "trialTime": 26176, "trial_type": "mouselab-mdp", "trial_index": 46, "time_elapsed": 2626352, "internal_node_id": "0.0-6.0-1.0-37.0"}}, {"uniqueid": "w33107301:a28761137", "current_trial": 47, "dateTime": 1693570087948, "trialdata": {"revealed_states": [], "clicked_states": ["27", "32"], "num_clicks_accrued": [0, 0, 0, 0, 0, 0, 0, 0, 0, 0, 0, 0, 0], "stateRewards": ["", 1, -4, -6, -1, -21, 17, -72, 10, 77, 67, -46, -1, 4, -2, 14, -66, -49, -45, -15, -52, 23, -67, 2, -2, -2, 15, -3, 45, -64, 5, -44, 83, 61], "withholdReward": false, "trial_id": "mdp_trial_39", "block": "test", "trialIndex": 40, "score": 83.2, "costs": -2.8, "simulationMode": [null, null, null, null, null], "rewards": [2, -2, -2, 5, 83], "path": ["0", "0", "23", "24", "25", "30", "32"], "rt": [9761, 707, 530, 649, 736], "actions": ["left", "left", "left", "down", "down"], "actionTimes": [12971, 14248, 15339, 16528, 17829], "queries": {"click": {"state": {"target": ["27", "32"], "time": [5037, 8757]}, "edge": {"target": [], "time": []}}, "mouseover": {"state": {"target": ["26", "27", "25", "30", "32", "1", "13", "14", "20"], "time": [3967, 4421, 5515, 5582, 5684, 10135, 10395, 10773, 11316]}, "edge": {"target": [], "time": []}}, "mouseout": {"state": {"target": ["0", "26", "27", "25", "30", "32", "1", "13", "14"], "time": [971, 4023, 5417, 5568, 5639, 9298, 10193, 10675, 11151]}, "edge": {"target": [], "time": []}}}, "displayed_time": "18.39", "trialTime": 20515, "trial_type": "mouselab-mdp", "trial_index": 47, "time_elapsed": 2650001, "internal_node_id": "0.0-6.0-1.0-38.0"}}, {"uniqueid": "w33107301:a28761137", "current_trial": 48, "dateTime": 1693570138064, "trialdata": {"revealed_states": [], "clicked_states": ["21", "17", "6", "11", "5", "9", "32", "31", "27", "29"], "num_clicks_accrued": [0, 0, 0, 0, 0, 0, 0, 0, 0, 0, 0, 0, 0], "stateRewards": ["", 2, 4, 7, -6, -76, -81, 2, 5, -66, -3, 36, -2, -4, 6, -2, -69, 4, -49, -6, 67, 38, -67, 2, 1, 1, 6, -68, -21, 52, -16, -16, 6, -70], "withholdReward": false, "trial_id": "mdp_trial_40", "block": "test", "trialIndex": 41, "score": 48, "costs": -14.000000000000002, "simulationMode": [null, null, null, null, null], "rewards": [2, 1, 1, 6, 52], "path": ["0", "0", "23", "24", "25", "26", "29"], "rt": [32853, 841, 478, 1132, 347], "actions": ["left", "left", "left", "up", "left"], "actionTimes": [36669, 38084, 39118, 40797, 41717], "queries": {"click": {"state": {"target": ["21", "17", "6", "11", "5", "9", "32", "31", "27", "29"], "time": [5648, 8354, 11740, 14559, 17852, 20876, 24154, 26413, 28676, 32284]}, "edge": {"target": [], "time": []}}, "mouseover": {"state": {"target": ["12", "21", "21", "19", "14", "17", "18", "16", "18", "6", "4", "8", "11", "2", "2", "5", "9", "9", "8", "10", "32", "31", "29", "26", "27", "29", "23", "20"], "time": [4656, 4715, 5009, 6323, 6833, 7140, 9033, 9220, 9933, 11194, 12333, 12405, 13885, 15656, 16072, 17026, 20294, 20494, 22487, 22578, 23637, 25111, 27022, 27173, 27715, 31692, 33503, 34127]}, "edge": {"target": [], "time": []}}, "mouseout": {"state": {"target": ["20", "22", "12", "21", "21", "19", "14", "17", "18", "16", "18", "6", "4", "8", "11", "2", "2", "5", "9", "9", "8", "10", "32", "31", "29", "26", "27", "29", "23", "20"], "time": [1252, 1308, 4701, 4765, 6269, 6420, 6887, 8980, 9125, 9804, 10411, 12319, 12387, 13834, 15549, 15706, 16897, 20021, 20335, 22417, 22537, 22989, 25010, 26876, 27077, 27225, 31328, 33446, 33560, 43321]}, "edge": {"target": [], "time": []}}}, "displayed_time": "42.27", "trialTime": 47095, "trial_type": "mouselab-mdp", "trial_index": 48, "time_elapsed": 2700112, "internal_node_id": "0.0-6.0-1.0-39.0"}}, {"uniqueid": "w33107301:a28761137", "current_trial": 49, "dateTime": 1693570247750, "trialdata": {"rt": 109527, "response": {"Q0": "$-2 to $2", "Q1": "$-32 to $32", "Q2": "$-88 to $88", "Q3": "The cost for clicking on nodes varied between nodes.", "Q4": "Slightly motivated"}, "question_order": [0, 1, 2, 3, 4], "trial_id": "final_quiz_control", "trial_type": "survey-multi-choice", "trial_index": 49, "time_elapsed": 2809802, "internal_node_id": "0.0-6.0-2.0"}}, {"uniqueid": "w33107301:a28761137", "current_trial": 50, "dateTime": 1693570374482, "trialdata": {"rt": 125024, "response": {"Q0": "I didn't have any strategy", "Q1": "I was using my luck to win the game ", "Q2": "not difficult at all"}, "trial_id": "self_report_control", "trial_type": "survey-text", "trial_index": 50, "time_elapsed": 2936537, "internal_node_id": "0.0-6.0-3.0"}}, {"uniqueid": "w33107301:a28761137", "current_trial": 51, "dateTime": 1693570411232, "trialdata": {"rt": 36207, "response": {"gender": "female", "age": "25", "colorblind": "0", "effort": "0"}, "trial_type": "survey-html-form", "trial_index": 51, "time_elapsed": 2973287, "internal_node_id": "0.0-6.0-4.0"}}, {"uniqueid": "w33107301:a28761137", "current_trial": 52, "dateTime": 1693570497669, "trialdata": {"rt": 86153, "response": {"Q0": "No i believe everything was clear", "Q1": "No, i have not.", "Q2": "No comment."}, "trial_type": "survey-text", "trial_index": 52, "time_elapsed": 3059725, "internal_node_id": "0.0-6.0-5.0"}}, {"uniqueid": "w33107301:a28761137", "current_trial": 53, "dateTime": 1693570506059, "trialdata": {"rt": 8298, "stimulus": "<h1>Completion Code Instructions (1/2)</h1>\n<br><br><br><br>\nYou have reached the end of the experiment! The completion code consists of two parts: (1) a code with 2 characters (2) a code with 6 characters. On this page, you will receive the second part of the code. The first part of the completion code will be on the next page.\n<br><br>\nThe second part of your completion code is: <b>EWEK22</b>\n<br><br>\nPlease note this down. Then, press 'Finish HIT' in order to find the first part of your completion code. Once the data has been saved, you will receive this code either in this window or in the original browser window where you started the experiment.\n", "response": 0, "trial_type": "html-button-response", "trial_index": 53, "time_elapsed": 3068114, "internal_node_id": "0.0-6.0-6.0"}}, {"uniqueid": "w33107301:a28761137", "current_trial": 54, "dateTime": 1693570507094, "trialdata": {"success": true, "trial_type": "fullscreen", "trial_index": 54, "time_elapsed": 3069149, "internal_node_id": "0.0-7.0"}}], "questiondata": {"params": {"CODE": "C6DMOQA6", "MIN_TIME": 14, "inspectCost": 1, "startTime": "Fri Sep 01 2023 13:23:53 GMT+0200 (South Africa Standard Time)", "bonusRate": 0.002, "variance": "1_2_4_8_44", "branching": "31123"}, "final_score": 763.2}, "eventdata": [{"eventtype": "initialized", "value": null, "timestamp": 1693567429991, "interval": 0}, {"eventtype": "window_resize", "value": [1024, 654], "timestamp": 1693567429991, "interval": 0}, {"eventtype": "window_resize", "value": [1024, 654], "timestamp": 1693567432945, "interval": 2954}, {"eventtype": "window_resize", "value": [1366, 768], "timestamp": 1693567448755, "interval": 15810}, {"eventtype": "window_resize", "value": [1024, 654], "timestamp": 1693567795332, "interval": 346577}, {"eventtype": "window_resize", "value": [1366, 768], "timestamp": 1693567814500, "interval": 19168}, {"eventtype": "focus", "value": "off", "timestamp": 1693567815272, "interval": 772}, {"eventtype": "window_resize", "value": [1366, 767], "timestamp": 1693567815519, "interval": 247}, {"eventtype": "focus", "value": "on", "timestamp": 1693567815902, "interval": 383}, {"eventtype": "window_resize", "value": [1366, 768], "timestamp": 1693567816128, "interval": 226}, {"eventtype": "focus", "value": "off", "timestamp": 1693567883994, "interval": 67866}, {"eventtype": "focus", "value": "on", "timestamp": 1693567888999, "interval": 5005}, {"eventtype": "focus", "value": "off", "timestamp": 1693567908876, "interval": 19877}, {"eventtype": "focus", "value": "on", "timestamp": 1693567936728, "interval": 27852}, {"eventtype": "focus", "value": "off", "timestamp": 1693567985444, "interval": 48716}, {"eventtype": "focus", "value": "on", "timestamp": 1693567992995, "interval": 7551}, {"eventtype": "focus", "value": "off", "timestamp": 1693568001830, "interval": 8835}, {"eventtype": "focus", "value": "on", "timestamp": 1693568002760, "interval": 930}, {"eventtype": "window_resize", "value": [1024, 654], "timestamp": 1693568009358, "interval": 6598}, {"eventtype": "window_resize", "value": [1366, 768], "timestamp": 1693568010471, "interval": 1113}, {"eventtype": "focus", "value": "off", "timestamp": 1693568019929, "interval": 9458}, {"eventtype": "focus", "value": "on", "timestamp": 1693568022866, "interval": 2937}, {"eventtype": "focus", "value": "off", "timestamp": 1693568175086, "interval": 152220}, {"eventtype": "focus", "value": "on", "timestamp": 1693568249776, "interval": 74690}], "useragent": "Mozilla/5.0 (Windows NT 10.0; Win64; x64) AppleWebKit/537.36 (KHTML, like Gecko) Chrome/116.0.0.0 Safari/537.36", "mode": "live", "id": "w33107301:a28761137", "status": "user data saved", "Beginhit": "2023-09-01 11:23:23.831317", "Beginexp": "2023-09-01 11:24:08.795756", "Endhit": "2023-09-01 12:15:08.650628", "psiturkStatus": 3, "browser": "<redacted>", "platform": "windows", "language": "en-US"}