{"condition": 1, "counterbalance": 0, "assignmentId": "a36018864", "workerId": "w85534180", "hitId": "h62552158", "currenttrial": 102, "bonus": 0, "data": [{"current_trial": 0, "dateTime": 1691485204249, "trialdata": {"internal_node_id": "0.0-0.0", "success": true, "time_elapsed": 14951, "trial_index": 0, "trial_type": "fullscreen"}, "uniqueid": "w85534180:a36018864"}, {"current_trial": 1, "dateTime": 1691485277920, "trialdata": {"internal_node_id": "0.0-1.0", "rt": 73647, "time_elapsed": 88620, "trial_id": "exp_instructions_misaligned", "trial_index": 1, "trial_type": "instructions", "view_history": [{"page_index": 0, "viewing_time": 73646}]}, "uniqueid": "w85534180:a36018864"}, {"current_trial": 2, "dateTime": 1691485284299, "trialdata": {"internal_node_id": "0.0-2.0-0.0", "success": true, "time_elapsed": 95001, "trial_index": 2, "trial_type": "fullscreen"}, "uniqueid": "w85534180:a36018864"}, {"current_trial": 3, "dateTime": 1691485565112, "trialdata": {"internal_node_id": "0.0-2.0-1.0", "rt": 280777, "time_elapsed": 375814, "trial_id": "mouselab_instructions_1_misaligned", "trial_index": 3, "trial_type": "instructions", "view_history": [{"page_index": 0, "viewing_time": 109344}, {"page_index": 1, "viewing_time": 79785}, {"page_index": 2, "viewing_time": 37368}, {"page_index": 3, "viewing_time": 54279}]}, "uniqueid": "w85534180:a36018864"}, {"current_trial": 4, "dateTime": 1691485624646, "trialdata": {"actionTimes": [15172, 25762, 28211, 33503, 34573], "actions": ["left", "left", "left", "up", "up"], "block": "test", "clicked_states": ["23"], "costs": -0.5, "displayed_time": "35.17", "internal_node_id": "0.0-2.0-2.0-0.0", "num_clicks_accrued": [0, 0, 0, 0, 0, 0, 0, 0, 0, 0, 0, 0, 0], "path": ["0", "0", "23", "24", "25", "26", "27"], "queries": {"click": {"edge": {"target": [], "time": []}, "state": {"target": ["23"], "time": [7420]}}, "mouseout": {"edge": {"target": [], "time": []}, "state": {"target": ["0", "23", "12", "23", "0", "12", "0", "23", "24", "31", "31", "27", "28", "24", "31", "30", "25", "26", "28", "0", "23", "25", "26", "25", "23"], "time": [6545, 8570, 9836, 11190, 11363, 12621, 12824, 17862, 21704, 21757, 22366, 22444, 22812, 23835, 40679, 41280, 41946, 44144, 44279, 46139, 46226, 46629, 47537, 50974, 51791]}}, "mouseover": {"edge": {"target": [], "time": []}, "state": {"target": ["23", "12", "0", "12", "0"], "time": [6684, 8753, 11241, 11503, 12731]}}}, "revealed_states": [], "rewards": [10, 10, -10, 10, 10], "rt": [10988, 10001, 1847, 4698, 468], "score": 33, "simulationMode": [null, null, null, null, null], "stateRewards": ["", 10, 10, 10, 10, 10, 10, 10, 10, 10, 10, 10, 10, 10, -10, 10, -10, 10, -10, -10, -10, 10, 10, 10, 10, -10, 10, 10, 10, -10, -10, -10, 10, -10], "time_elapsed": 435346, "trialIndex": 0, "trialTime": 57693, "trial_id": "practice_1", "trial_index": 4, "trial_type": "mouselab-mdp", "withholdReward": false}, "uniqueid": "w85534180:a36018864"}, {"current_trial": 5, "dateTime": 1691485647313, "trialdata": {"actionTimes": [10533, 11531, 12373, 14854, 15724], "actions": ["up", "up", "up", "right", "right"], "block": "test", "clicked_states": [], "costs": 0, "displayed_time": "16.31", "internal_node_id": "0.0-2.0-2.0-1.0", "num_clicks_accrued": [0, 0, 0, 0, 0, 0, 0, 0, 0, 0, 0, 0, 0], "path": ["0", "0", "1", "2", "3", "4", "6"], "queries": {"click": {"edge": {"target": [], "time": []}, "state": {"target": [], "time": []}}, "mouseout": {"edge": {"target": [], "time": []}, "state": {"target": ["0", "1", "2", "3", "4", "6", "18", "12"], "time": [7218, 7922, 8096, 8673, 9018, 9200, 18374, 18604]}}, "mouseover": {"edge": {"target": [], "time": []}, "state": {"target": ["1", "2", "3", "4", "6"], "time": [7634, 7980, 8115, 8796, 9098]}}}, "revealed_states": [], "rewards": [10, 10, -10, 10, 10], "rt": [6984, 383, 282, 1898, 271], "score": 33.5, "simulationMode": [null, null, null, null, null], "stateRewards": ["", 10, 10, -10, 10, -10, 10, -10, -10, -10, -10, -10, 10, -10, -10, -10, 10, -10, 10, -10, -10, -10, 10, 10, -10, -10, 10, -10, -10, -10, -10, 10, 10, 10], "time_elapsed": 458015, "trialIndex": 1, "trialTime": 21537, "trial_id": "practice_2", "trial_index": 5, "trial_type": "mouselab-mdp", "withholdReward": false}, "uniqueid": "w85534180:a36018864"}, {"current_trial": 6, "dateTime": 1691485736016, "trialdata": {"internal_node_id": "0.0-2.0-3.0", "rt": 88677, "time_elapsed": 546719, "trial_id": "mouselab_instructions_2_misaligned", "trial_index": 6, "trial_type": "instructions", "view_history": [{"page_index": 0, "viewing_time": 9288}, {"page_index": 1, "viewing_time": 11222}, {"page_index": 0, "viewing_time": 12231}, {"page_index": 1, "viewing_time": 3024}, {"page_index": 0, "viewing_time": 7278}, {"page_index": 1, "viewing_time": 1091}, {"page_index": 0, "viewing_time": 42570}, {"page_index": 1, "viewing_time": 1973}]}, "uniqueid": "w85534180:a36018864"}, {"current_trial": 7, "dateTime": 1691485796925, "trialdata": {"correct": {"Q0": "The cost for clicking on nodes may vary between nodes.", "Q1": "The better I perform the higher my bonus will be.", "Q2": "No, the amount of cash at each node of the web may be different each time.", "Q3": "To get the highest total score.", "Q4": "Only before moving the spider.", "Q5": "3 seconds"}, "internal_node_id": "0.0-2.0-4.0", "question_order": [0, 1, 2, 3, 4, 5], "response": {"Q0": "There is no cost for clicking on nodes.", "Q1": "The better I perform the higher my bonus will be.", "Q2": "No, the structure of the web will be different each time.", "Q3": "To get the highest total score.", "Q4": "Only before moving the spider.", "Q5": "3 seconds"}, "rt": 60860, "time_elapsed": 607627, "trial_id": "mouselab_quiz_misaligned", "trial_index": 7, "trial_type": "survey-multi-choice"}, "uniqueid": "w85534180:a36018864"}, {"current_trial": 8, "dateTime": 1691485813744, "trialdata": {"internal_node_id": "0.0-2.1-0.1", "success": true, "time_elapsed": 624446, "trial_index": 8, "trial_type": "fullscreen"}, "uniqueid": "w85534180:a36018864"}, {"current_trial": 9, "dateTime": 1691485832032, "trialdata": {"internal_node_id": "0.0-2.1-1.1", "rt": 18279, "time_elapsed": 642735, "trial_id": "mouselab_instructions_1_misaligned", "trial_index": 9, "trial_type": "instructions", "view_history": [{"page_index": 0, "viewing_time": 9570}, {"page_index": 1, "viewing_time": 4818}, {"page_index": 2, "viewing_time": 2110}, {"page_index": 3, "viewing_time": 1780}]}, "uniqueid": "w85534180:a36018864"}, {"current_trial": 10, "dateTime": 1691485851305, "trialdata": {"actionTimes": [6349, 7085, 7919, 9130, 12757], "actions": ["up", "up", "up", "right", "right"], "block": "test", "clicked_states": [], "costs": 0, "displayed_time": "13.37", "internal_node_id": "0.0-2.1-2.1-0.1", "num_clicks_accrued": [0, 0, 0, 0, 0, 0, 0, 0, 0, 0, 0, 0, 0], "path": ["0", "0", "1", "2", "3", "4", "6"], "queries": {"click": {"edge": {"target": [], "time": []}, "state": {"target": [], "time": []}}, "mouseout": {"edge": {"target": [], "time": []}, "state": {"target": ["0", "1", "29", "1"], "time": [4746, 14297, 14636, 14841]}}, "mouseover": {"edge": {"target": [], "time": []}, "state": {"target": ["1"], "time": [4863]}}}, "revealed_states": [], "rewards": [10, 10, 10, 10, 10], "rt": [2482, 164, 216, 626, 3011], "score": 53.5, "simulationMode": [null, null, null, null, null], "stateRewards": ["", 10, 10, 10, 10, 10, 10, 10, 10, 10, 10, 10, 10, 10, -10, 10, -10, 10, -10, -10, -10, 10, 10, 10, 10, -10, 10, 10, 10, -10, -10, -10, 10, -10], "time_elapsed": 662007, "trialIndex": 2, "trialTime": 18108, "trial_id": "practice_1", "trial_index": 10, "trial_type": "mouselab-mdp", "withholdReward": false}, "uniqueid": "w85534180:a36018864"}, {"current_trial": 11, "dateTime": 1691485868828, "trialdata": {"actionTimes": [7379, 8120, 8891, 9711, 10508], "actions": ["left", "left", "left", "up", "up"], "block": "test", "clicked_states": [], "costs": 0, "displayed_time": "11.21", "internal_node_id": "0.0-2.1-2.1-1.1", "num_clicks_accrued": [0, 0, 0, 0, 0, 0, 0, 0, 0, 0, 0, 0, 0], "path": ["0", "0", "23", "24", "25", "26", "27"], "queries": {"click": {"edge": {"target": [], "time": []}, "state": {"target": [], "time": []}}, "mouseout": {"edge": {"target": [], "time": []}, "state": {"target": ["24", "11", "3", "0", "0", "0", "0"], "time": [899, 971, 1726, 2016, 3650, 12931, 13451]}}, "mouseover": {"edge": {"target": [], "time": []}, "state": {"target": [], "time": []}}}, "revealed_states": [], "rewards": [10, -10, -10, 10, -10], "rt": [4145, 161, 185, 231, 132], "score": -6.5, "simulationMode": [null, null, null, null, null], "stateRewards": ["", 10, 10, -10, 10, -10, 10, -10, -10, -10, -10, -10, 10, -10, -10, -10, 10, -10, 10, -10, -10, -10, 10, 10, -10, -10, 10, -10, -10, -10, -10, 10, 10, 10], "time_elapsed": 679531, "trialIndex": 3, "trialTime": 16397, "trial_id": "practice_2", "trial_index": 11, "trial_type": "mouselab-mdp", "withholdReward": false}, "uniqueid": "w85534180:a36018864"}, {"current_trial": 12, "dateTime": 1691485900410, "trialdata": {"internal_node_id": "0.0-2.1-3.1", "rt": 31571, "time_elapsed": 711112, "trial_id": "mouselab_instructions_2_misaligned", "trial_index": 12, "trial_type": "instructions", "view_history": [{"page_index": 0, "viewing_time": 29577}, {"page_index": 1, "viewing_time": 1993}]}, "uniqueid": "w85534180:a36018864"}, {"current_trial": 13, "dateTime": 1691485963241, "trialdata": {"correct": {"Q0": "The cost for clicking on nodes may vary between nodes.", "Q1": "The better I perform the higher my bonus will be.", "Q2": "No, the amount of cash at each node of the web may be different each time.", "Q3": "To get the highest total score.", "Q4": "Only before moving the spider.", "Q5": "3 seconds"}, "internal_node_id": "0.0-2.1-4.1", "question_order": [0, 1, 2, 3, 4, 5], "response": {"Q0": "There is no cost for clicking on nodes.", "Q1": "The better I perform the higher my bonus will be.", "Q2": "No, the amount of cash at each node of the web may be different each time.", "Q3": "To get the highest total score.", "Q4": "Only before moving the spider.", "Q5": "3 seconds"}, "rt": 62807, "time_elapsed": 773943, "trial_id": "mouselab_quiz_misaligned", "trial_index": 13, "trial_type": "survey-multi-choice"}, "uniqueid": "w85534180:a36018864"}, {"current_trial": 14, "dateTime": 1691485976477, "trialdata": {"internal_node_id": "0.0-2.2-0.2", "success": true, "time_elapsed": 787180, "trial_index": 14, "trial_type": "fullscreen"}, "uniqueid": "w85534180:a36018864"}, {"current_trial": 15, "dateTime": 1691486097116, "trialdata": {"internal_node_id": "0.0-2.2-1.2", "rt": 120621, "time_elapsed": 907818, "trial_id": "mouselab_instructions_1_misaligned", "trial_index": 15, "trial_type": "instructions", "view_history": [{"page_index": 0, "viewing_time": 32717}, {"page_index": 1, "viewing_time": 84135}, {"page_index": 2, "viewing_time": 1609}, {"page_index": 3, "viewing_time": 2159}]}, "uniqueid": "w85534180:a36018864"}, {"current_trial": 16, "dateTime": 1691486111319, "trialdata": {"actionTimes": [4105, 4968, 5900, 6894, 9085], "actions": ["up", "up", "up", "right", "right"], "block": "test", "clicked_states": [], "costs": 0, "displayed_time": "9.71", "internal_node_id": "0.0-2.2-2.2-0.2", "num_clicks_accrued": [0, 0, 0, 0, 0, 0, 0, 0, 0, 0, 0, 0, 0], "path": ["0", "0", "1", "2", "3", "4", "6"], "queries": {"click": {"edge": {"target": [], "time": []}, "state": {"target": [], "time": []}}, "mouseout": {"edge": {"target": [], "time": []}, "state": {"target": ["0", "0"], "time": [2464, 11351]}}, "mouseover": {"edge": {"target": [], "time": []}, "state": {"target": [], "time": []}}}, "revealed_states": [], "rewards": [10, 10, 10, 10, 10], "rt": [1696, 262, 328, 418, 1604], "score": 53.5, "simulationMode": [null, null, null, null, null], "stateRewards": ["", 10, 10, 10, 10, 10, 10, 10, 10, 10, 10, 10, 10, 10, -10, 10, -10, 10, -10, -10, -10, 10, 10, 10, 10, -10, 10, 10, 10, -10, -10, -10, 10, -10], "time_elapsed": 922021, "trialIndex": 4, "trialTime": 12897, "trial_id": "practice_1", "trial_index": 16, "trial_type": "mouselab-mdp", "withholdReward": false}, "uniqueid": "w85534180:a36018864"}, {"current_trial": 17, "dateTime": 1691486125873, "trialdata": {"actionTimes": [4899, 6438, 7660, 8864, 9830], "actions": ["left", "left", "left", "down", "down"], "block": "test", "clicked_states": [], "costs": 0, "displayed_time": "10.38", "internal_node_id": "0.0-2.2-2.2-1.2", "num_clicks_accrued": [0, 0, 0, 0, 0, 0, 0, 0, 0, 0, 0, 0, 0], "path": ["0", "0", "23", "24", "25", "30", "32"], "queries": {"click": {"edge": {"target": [], "time": []}, "state": {"target": [], "time": []}}, "mouseout": {"edge": {"target": [], "time": []}, "state": {"target": ["31"], "time": [658]}}, "mouseover": {"edge": {"target": [], "time": []}, "state": {"target": [], "time": []}}}, "revealed_states": [], "rewards": [10, -10, -10, -10, 10], "rt": [2110, 860, 665, 634, 331], "score": -6.5, "simulationMode": [null, null, null, null, null], "stateRewards": ["", 10, 10, -10, 10, -10, 10, -10, -10, -10, -10, -10, 10, -10, -10, -10, 10, -10, 10, -10, -10, -10, 10, 10, -10, -10, 10, -10, -10, -10, -10, 10, 10, 10], "time_elapsed": 936575, "trialIndex": 5, "trialTime": 13347, "trial_id": "practice_2", "trial_index": 17, "trial_type": "mouselab-mdp", "withholdReward": false}, "uniqueid": "w85534180:a36018864"}, {"current_trial": 18, "dateTime": 1691486138673, "trialdata": {"internal_node_id": "0.0-2.2-3.2", "rt": 12794, "time_elapsed": 949376, "trial_id": "mouselab_instructions_2_misaligned", "trial_index": 18, "trial_type": "instructions", "view_history": [{"page_index": 0, "viewing_time": 10430}, {"page_index": 1, "viewing_time": 2362}]}, "uniqueid": "w85534180:a36018864"}, {"current_trial": 19, "dateTime": 1691486201366, "trialdata": {"correct": {"Q0": "The cost for clicking on nodes may vary between nodes.", "Q1": "The better I perform the higher my bonus will be.", "Q2": "No, the amount of cash at each node of the web may be different each time.", "Q3": "To get the highest total score.", "Q4": "Only before moving the spider.", "Q5": "3 seconds"}, "internal_node_id": "0.0-2.2-4.2", "question_order": [0, 1, 2, 3, 4, 5], "response": {"Q0": "The cost for clicking on nodes may vary between nodes.", "Q1": "The better I perform the higher my bonus will be.", "Q2": "No, the amount of cash at each node of the web may be different each time.", "Q3": "To get the highest total score.", "Q4": "Only before moving the spider.", "Q5": "3 seconds"}, "rt": 62665, "time_elapsed": 1012066, "trial_id": "mouselab_quiz_misaligned", "trial_index": 19, "trial_type": "survey-multi-choice"}, "uniqueid": "w85534180:a36018864"}, {"current_trial": 20, "dateTime": 1691486218826, "trialdata": {"internal_node_id": "0.0-4.0-0.0", "response": " ", "rt": 17410, "stimulus": "\n<h1> Get ready to start the game! </h1>\n\nThank you for reading the instructions. Get ready start with the 40 rounds of this game.\n<br><br>\nIf you need to take a break, feel free to take one after the end of a round, before continuing to the next one.\n<br><br>\nRemember, the more money the spider gets, the bigger your bonus will be!\n<br><br>\n<div style='text-align: center;'>Press <code>space</code> to begin.</div>\n\n<br><br>\n(If, at any point, the <code>space</code> key does not take you to the next page, click once on the text and try again.)", "time_elapsed": 1029529, "trial_id": "mdp_ready", "trial_index": 20, "trial_type": "html-keyboard-response"}, "uniqueid": "w85534180:a36018864"}, {"current_trial": 21, "dateTime": 1691486268989, "trialdata": {"actionTimes": [32921, 34204, 35351, 36939, 37891], "actions": ["right", "right", "right", "down", "down"], "block": "test", "clicked_states": ["1"], "costs": 0.25, "displayed_time": "42.85", "internal_node_id": "0.0-4.0-1.0-0.0", "num_clicks_accrued": [0, 0, 0, 0, 0, 0, 0, 0, 0, 0, 0, 0, 0], "path": ["0", "0", "12", "13", "14", "19", "21"], "queries": {"click": {"edge": {"target": [], "time": []}, "state": {"target": ["1"], "time": [29866]}}, "mouseout": {"edge": {"target": [], "time": []}, "state": {"target": ["26", "23", "16", "16", "18", "23", "23", "0", "0", "1", "12", "0"], "time": [2912, 4006, 26288, 26424, 26499, 26574, 26753, 26987, 29104, 30312, 41188, 41645]}}, "mouseover": {"edge": {"target": [], "time": []}, "state": {"target": ["0", "1", "12"], "time": [28973, 29306, 31448]}}}, "revealed_states": [], "rewards": [-1, 1, 3, -10, -69], "rt": [4556, 740, 520, 965, 360], "score": -75.75, "simulationMode": [null, null, null, null, null], "stateRewards": ["", 1, 2, -5, 14, 54, -14, -25, 16, -5, -87, 78, -1, 1, 3, -3, 52, 53, 53, -10, 73, -69, -48, 2, 3, 1, 8, -62, -7, 85, 7, 82, 52, -28], "time_elapsed": 1079690, "trialIndex": 6, "trialTime": 48957, "trial_id": "mdp_trial_1", "trial_index": 21, "trial_type": "mouselab-mdp", "withholdReward": false}, "uniqueid": "w85534180:a36018864"}, {"current_trial": 22, "dateTime": 1691486293353, "trialdata": {"actionTimes": [7633, 8840, 9948, 11105, 12039], "actions": ["left", "left", "left", "up", "up"], "block": "test", "clicked_states": ["23"], "costs": 0.25, "displayed_time": "18.76", "internal_node_id": "0.0-4.0-1.0-1.0", "num_clicks_accrued": [0, 0, 0, 0, 0, 0, 0, 0, 0, 0, 0, 0, 0], "path": ["0", "0", "23", "24", "25", "26", "27"], "queries": {"click": {"edge": {"target": [], "time": []}, "state": {"target": ["23"], "time": [5592]}}, "mouseout": {"edge": {"target": [], "time": []}, "state": {"target": ["0", "0", "23", "24", "26", "27", "0", "12"], "time": [2235, 2720, 16503, 18909, 19031, 19288, 20191, 20318]}}, "mouseover": {"edge": {"target": [], "time": []}, "state": {"target": ["23"], "time": [5280]}}}, "revealed_states": [], "rewards": [1, 3, 2, 8, -51], "rt": [3587, 571, 422, 576, 298], "score": -36.75, "simulationMode": [null, null, null, null, null], "stateRewards": ["", -2, 4, -7, -3, -76, 39, -28, 10, 14, 12, 60, 2, -3, 6, -10, 88, -34, -41, -3, 72, -13, -56, 1, 3, 2, 8, -51, 23, -57, 1, 14, -46, -16], "time_elapsed": 1104054, "trialIndex": 7, "trialTime": 22853, "trial_id": "mdp_trial_2", "trial_index": 22, "trial_type": "mouselab-mdp", "withholdReward": false}, "uniqueid": "w85534180:a36018864"}, {"current_trial": 23, "dateTime": 1691486318002, "trialdata": {"actionTimes": [7615, 8355, 9189, 10488, 11477], "actions": ["up", "up", "up", "left", "left"], "block": "test", "clicked_states": [], "costs": 0, "displayed_time": "19.48", "internal_node_id": "0.0-4.0-1.0-2.0", "num_clicks_accrued": [0, 0, 0, 0, 0, 0, 0, 0, 0, 0, 0, 0, 0], "path": ["0", "0", "1", "2", "3", "8", "11"], "queries": {"click": {"edge": {"target": [], "time": []}, "state": {"target": [], "time": []}}, "mouseout": {"edge": {"target": [], "time": []}, "state": {"target": ["0", "11", "11", "10", "2", "1", "0", "0"], "time": [17341, 17521, 18632, 19018, 19344, 19539, 20387, 21112]}}, "mouseover": {"edge": {"target": [], "time": []}, "state": {"target": [], "time": []}}}, "revealed_states": [], "rewards": [-1, 1, 3, -11, 68], "rt": [2984, 144, 209, 658, 386], "score": 60, "simulationMode": [null, null, null, null, null], "stateRewards": ["", -1, 1, 3, -8, -23, -15, -14, -11, -23, 58, 68, 1, 3, 5, 12, -17, -41, -7, -10, -4, 82, 10, 1, 4, -4, 11, 73, 55, -55, -1, -86, -86, 54], "time_elapsed": 1128701, "trialIndex": 8, "trialTime": 23408, "trial_id": "mdp_trial_3", "trial_index": 23, "trial_type": "mouselab-mdp", "withholdReward": false}, "uniqueid": "w85534180:a36018864"}, {"current_trial": 24, "dateTime": 1691486341146, "trialdata": {"actionTimes": [7019, 7913, 9041, 10050, 10905], "actions": ["up", "up", "up", "right", "right"], "block": "test", "clicked_states": [], "costs": 0, "displayed_time": "19.11", "internal_node_id": "0.0-4.0-1.0-3.0", "num_clicks_accrued": [0, 0, 0, 0, 0, 0, 0, 0, 0, 0, 0, 0, 0], "path": ["0", "0", "1", "2", "3", "4", "6"], "queries": {"click": {"edge": {"target": [], "time": []}, "state": {"target": [], "time": []}}, "mouseout": {"edge": {"target": [], "time": []}, "state": {"target": ["0", "0", "0", "7", "6", "6", "7"], "time": [2483, 2735, 15719, 16267, 16654, 18793, 19046]}}, "mouseover": {"edge": {"target": [], "time": []}, "state": {"target": [], "time": []}}}, "revealed_states": [], "rewards": [-1, 4, -6, -5, -38], "rt": [2478, 314, 556, 340, 258], "score": -46, "simulationMode": [null, null, null, null, null], "stateRewards": ["", -1, 4, -6, -5, -22, -38, -38, -2, -56, 88, 14, -1, -1, -7, -6, 61, -60, 21, 11, 57, 31, -30, -2, -2, 6, -9, -44, -70, -44, -15, 34, 16, -78], "time_elapsed": 1151848, "trialIndex": 9, "trialTime": 21661, "trial_id": "mdp_trial_4", "trial_index": 24, "trial_type": "mouselab-mdp", "withholdReward": false}, "uniqueid": "w85534180:a36018864"}, {"current_trial": 25, "dateTime": 1691486365725, "trialdata": {"actionTimes": [7043, 7876, 8942, 10035, 11081], "actions": ["left", "left", "left", "down", "down"], "block": "test", "clicked_states": [], "costs": 0, "displayed_time": "20.66", "internal_node_id": "0.0-4.0-1.0-4.0", "num_clicks_accrued": [0, 0, 0, 0, 0, 0, 0, 0, 0, 0, 0, 0, 0], "path": ["0", "0", "23", "24", "25", "30", "32"], "queries": {"click": {"edge": {"target": [], "time": []}, "state": {"target": [], "time": []}}, "mouseout": {"edge": {"target": [], "time": []}, "state": {"target": ["0"], "time": [18970]}}, "mouseover": {"edge": {"target": [], "time": []}, "state": {"target": [], "time": []}}}, "revealed_states": [], "rewards": [-2, 1, 3, -13, 88], "rt": [2131, 272, 408, 535, 276], "score": 77, "simulationMode": [null, null, null, null, null], "stateRewards": ["", 2, -2, -8, 9, -20, 55, -58, 14, 42, 2, 36, 1, -3, -5, 5, -58, 57, 60, 16, 57, 30, -70, -2, 1, 3, 10, 59, 23, 77, -13, -26, 88, -72], "time_elapsed": 1176421, "trialIndex": 10, "trialTime": 22978, "trial_id": "mdp_trial_5", "trial_index": 25, "trial_type": "mouselab-mdp", "withholdReward": false}, "uniqueid": "w85534180:a36018864"}, {"current_trial": 26, "dateTime": 1691486388807, "trialdata": {"actionTimes": [7043, 7834, 8797, 9750, 10630], "actions": ["right", "right", "right", "down", "down"], "block": "test", "clicked_states": [], "costs": 0, "displayed_time": "19.60", "internal_node_id": "0.0-4.0-1.0-5.0", "num_clicks_accrued": [0, 0, 0, 0, 0, 0, 0, 0, 0, 0, 0, 0, 0], "path": ["0", "0", "12", "13", "14", "19", "21"], "queries": {"click": {"edge": {"target": [], "time": []}, "state": {"target": [], "time": []}}, "mouseout": {"edge": {"target": [], "time": []}, "state": {"target": ["32", "31", "0", "0"], "time": [2591, 2806, 3123, 13843]}}, "mouseover": {"edge": {"target": [], "time": []}, "state": {"target": [], "time": []}}}, "revealed_states": [], "rewards": [1, 1, -2, -9, 66], "rt": [2124, 125, 290, 247, 276], "score": 57, "simulationMode": [null, null, null, null, null], "stateRewards": ["", -2, 2, 3, -7, 76, 63, 21, 15, 35, -8, -44, 1, 1, -2, -12, 23, 24, 76, -9, 46, 66, -49, -2, -1, 7, 12, 40, -71, -45, -6, 38, -49, 46], "time_elapsed": 1199509, "trialIndex": 11, "trialTime": 21763, "trial_id": "mdp_trial_6", "trial_index": 26, "trial_type": "mouselab-mdp", "withholdReward": false}, "uniqueid": "w85534180:a36018864"}, {"current_trial": 27, "dateTime": 1691486410715, "trialdata": {"actionTimes": [5466, 6445, 7394, 8761, 10022], "actions": ["right", "right", "right", "down", "left"], "block": "test", "clicked_states": [], "costs": 0, "displayed_time": "18.79", "internal_node_id": "0.0-4.0-1.0-6.0", "num_clicks_accrued": [0, 0, 0, 0, 0, 0, 0, 0, 0, 0, 0, 0, 0], "path": ["0", "0", "12", "13", "14", "19", "22"], "queries": {"click": {"edge": {"target": [], "time": []}, "state": {"target": [], "time": []}}, "mouseout": {"edge": {"target": [], "time": []}, "state": {"target": ["21", "22", "0", "0", "18", "13"], "time": [1622, 1666, 2011, 12137, 12375, 12466]}}, "mouseover": {"edge": {"target": [], "time": []}, "state": {"target": [], "time": []}}}, "revealed_states": [], "rewards": [-1, 3, -8, 7, 36], "rt": [1595, 376, 262, 824, 682], "score": 37, "simulationMode": [null, null, null, null, null], "stateRewards": ["", 1, 1, -6, -2, 7, 77, 3, 16, -16, 66, 31, -1, 3, -8, -6, 33, -50, -48, 7, -60, -66, 36, 2, -3, 3, -7, -12, -61, -79, -4, 8, 74, -70], "time_elapsed": 1221416, "trialIndex": 12, "trialTime": 20444, "trial_id": "mdp_trial_7", "trial_index": 27, "trial_type": "mouselab-mdp", "withholdReward": false}, "uniqueid": "w85534180:a36018864"}, {"current_trial": 28, "dateTime": 1691486434563, "trialdata": {"actionTimes": [5643, 6555, 7636, 9236, 10561], "actions": ["right", "right", "right", "down", "right"], "block": "test", "clicked_states": [], "costs": 0, "displayed_time": "20.23", "internal_node_id": "0.0-4.0-1.0-7.0", "num_clicks_accrued": [0, 0, 0, 0, 0, 0, 0, 0, 0, 0, 0, 0, 0], "path": ["0", "0", "12", "13", "14", "19", "20"], "queries": {"click": {"edge": {"target": [], "time": []}, "state": {"target": [], "time": []}}, "mouseout": {"edge": {"target": [], "time": []}, "state": {"target": ["22", "0", "0", "19"], "time": [1390, 1814, 12963, 13274]}}, "mouseover": {"edge": {"target": [], "time": []}, "state": {"target": [], "time": []}}}, "revealed_states": [], "rewards": [2, 2, 5, -8, 67], "rt": [1064, 216, 519, 1048, 754], "score": 68, "simulationMode": [null, null, null, null, null], "stateRewards": ["", -1, -2, 8, -6, -79, -6, 87, 9, -5, -66, -38, 2, 2, 5, -6, -82, 74, 85, -8, 67, -30, -15, 1, -2, -2, -2, 87, 64, 49, 7, 2, -38, -9], "time_elapsed": 1245246, "trialIndex": 13, "trialTime": 22053, "trial_id": "mdp_trial_8", "trial_index": 28, "trial_type": "mouselab-mdp", "withholdReward": false}, "uniqueid": "w85534180:a36018864"}, {"current_trial": 29, "dateTime": 1691486457181, "trialdata": {"actionTimes": [5721, 6695, 7822, 8946, 9925], "actions": ["right", "right", "right", "up", "right"], "block": "test", "clicked_states": [], "costs": 0, "displayed_time": "19.05", "internal_node_id": "0.0-4.0-1.0-8.0", "num_clicks_accrued": [0, 0, 0, 0, 0, 0, 0, 0, 0, 0, 0, 0, 0], "path": ["0", "0", "12", "13", "14", "15", "17"], "queries": {"click": {"edge": {"target": [], "time": []}, "state": {"target": [], "time": []}}, "mouseout": {"edge": {"target": [], "time": []}, "state": {"target": ["20", "13", "12", "0", "18", "15", "17"], "time": [1257, 1357, 1870, 11498, 11666, 11872, 12305]}}, "mouseover": {"edge": {"target": [], "time": []}, "state": {"target": [], "time": []}}}, "revealed_states": [], "rewards": [-2, 4, -8, -12, -72], "rt": [1776, 371, 513, 416, 411], "score": -90, "simulationMode": [null, null, null, null, null], "stateRewards": ["", 2, -1, -1, 7, 11, -40, -22, -2, 69, 37, 8, -2, 4, -8, -12, -2, -72, -3, -12, 17, 63, 12, 1, 3, -7, 6, 25, 61, 61, -9, 28, -17, 27], "time_elapsed": 1267883, "trialIndex": 14, "trialTime": 21046, "trial_id": "mdp_trial_9", "trial_index": 29, "trial_type": "mouselab-mdp", "withholdReward": false}, "uniqueid": "w85534180:a36018864"}, {"current_trial": 30, "dateTime": 1691486479057, "trialdata": {"actionTimes": [7045, 7764, 8726, 9879, 11468], "actions": ["right", "right", "right", "up", "left"], "block": "test", "clicked_states": [], "costs": 0, "displayed_time": "18.89", "internal_node_id": "0.0-4.0-1.0-9.0", "num_clicks_accrued": [0, 0, 0, 0, 0, 0, 0, 0, 0, 0, 0, 0, 0], "path": ["0", "0", "12", "13", "14", "15", "18"], "queries": {"click": {"edge": {"target": [], "time": []}, "state": {"target": [], "time": []}}, "mouseout": {"edge": {"target": [], "time": []}, "state": {"target": ["17", "15", "1", "23", "0", "1"], "time": [1302, 1366, 1433, 1871, 12823, 12885]}}, "mouseover": {"edge": {"target": [], "time": []}, "state": {"target": [], "time": []}}}, "revealed_states": [], "rewards": [-1, 2, -7, 3, 47], "rt": [2972, 90, 265, 570, 1032], "score": 44, "simulationMode": [null, null, null, null, null], "stateRewards": ["", -2, -4, -2, 10, -8, -15, -47, 7, -84, 53, 5, -1, 2, -7, 3, 83, 31, 47, -1, 30, -8, 69, 2, -4, -1, 8, -7, 12, -8, -8, -13, 30, -84], "time_elapsed": 1289759, "trialIndex": 15, "trialTime": 20499, "trial_id": "mdp_trial_10", "trial_index": 30, "trial_type": "mouselab-mdp", "withholdReward": false}, "uniqueid": "w85534180:a36018864"}, {"current_trial": 31, "dateTime": 1691486500920, "trialdata": {"actionTimes": [4822, 5632, 6567, 7363, 8187], "actions": ["right", "right", "right", "up", "up"], "block": "test", "clicked_states": [], "costs": 0, "displayed_time": "18.17", "internal_node_id": "0.0-4.0-1.0-10.0", "num_clicks_accrued": [0, 0, 0, 0, 0, 0, 0, 0, 0, 0, 0, 0, 0], "path": ["0", "0", "12", "13", "14", "15", "16"], "queries": {"click": {"edge": {"target": [], "time": []}, "state": {"target": [], "time": []}}, "mouseout": {"edge": {"target": [], "time": []}, "state": {"target": ["18", "0", "0"], "time": [870, 1217, 9352]}}, "mouseover": {"edge": {"target": [], "time": []}, "state": {"target": [], "time": []}}}, "revealed_states": [], "rewards": [-2, -2, -2, -14, -46], "rt": [1632, 250, 346, 160, 181], "score": -66, "simulationMode": [null, null, null, null, null], "stateRewards": ["", 1, 2, -6, -13, -51, 22, -4, -12, -44, -12, 6, -2, -2, -2, -14, -46, -4, -77, -2, 36, -79, 41, 2, -4, 2, -6, -55, 59, 70, -5, 39, -19, 24], "time_elapsed": 1311620, "trialIndex": 16, "trialTime": 19851, "trial_id": "mdp_trial_11", "trial_index": 31, "trial_type": "mouselab-mdp", "withholdReward": false}, "uniqueid": "w85534180:a36018864"}, {"current_trial": 32, "dateTime": 1691486521889, "trialdata": {"actionTimes": [4722, 5949, 7652, 9472, 11077], "actions": ["up", "up", "up", "right", "down"], "block": "test", "clicked_states": [], "costs": 0, "displayed_time": "17.43", "internal_node_id": "0.0-4.0-1.0-11.0", "num_clicks_accrued": [0, 0, 0, 0, 0, 0, 0, 0, 0, 0, 0, 0, 0], "path": ["0", "0", "1", "2", "3", "4", "7"], "queries": {"click": {"edge": {"target": [], "time": []}, "state": {"target": [], "time": []}}, "mouseout": {"edge": {"target": [], "time": []}, "state": {"target": ["16", "18", "12", "1", "7"], "time": [765, 831, 1075, 12747, 13169]}}, "mouseover": {"edge": {"target": [], "time": []}, "state": {"target": ["1"], "time": [3753]}}}, "revealed_states": [], "rewards": [1, 2, -8, 9, -11], "rt": [2221, 667, 1163, 1261, 1023], "score": -7, "simulationMode": [null, null, null, null, null], "stateRewards": ["", 1, 2, -8, 9, 18, -83, -11, 6, -64, -48, 17, -2, -2, -5, -3, -24, -3, -86, -2, 48, -41, -22, -2, 4, 7, 8, 81, 13, -48, 10, 61, 19, 57], "time_elapsed": 1332585, "trialIndex": 17, "trialTime": 19269, "trial_id": "mdp_trial_12", "trial_index": 32, "trial_type": "mouselab-mdp", "withholdReward": false}, "uniqueid": "w85534180:a36018864"}, {"current_trial": 33, "dateTime": 1691486547012, "trialdata": {"actionTimes": [5144, 6179, 7085, 8501, 9880], "actions": ["up", "up", "up", "right", "up"], "block": "test", "clicked_states": [], "costs": 0, "displayed_time": "18.95", "internal_node_id": "0.0-4.0-1.0-12.0", "num_clicks_accrued": [0, 0, 0, 0, 0, 0, 0, 0, 0, 0, 0, 0, 0], "path": ["0", "0", "1", "2", "3", "4", "5"], "queries": {"click": {"edge": {"target": [], "time": []}, "state": {"target": [], "time": []}}, "mouseout": {"edge": {"target": [], "time": []}, "state": {"target": ["7", "1", "0", "4"], "time": [1557, 1681, 11005, 11362]}}, "mouseover": {"edge": {"target": [], "time": []}, "state": {"target": [], "time": []}}}, "revealed_states": [], "rewards": [2, -3, 5, 11, -79], "rt": [1227, 490, 266, 836, 705], "score": -64, "simulationMode": [null, null, null, null, null], "stateRewards": ["", 2, -3, 5, 11, -79, 54, 11, -9, -78, 33, 22, -2, -1, 2, 14, 43, 34, 1, 10, 49, -65, 39, -1, 1, -1, 3, -16, -2, 11, 2, 12, 48, -65], "time_elapsed": 1357713, "trialIndex": 18, "trialTime": 20576, "trial_id": "mdp_trial_13", "trial_index": 33, "trial_type": "mouselab-mdp", "withholdReward": false}, "uniqueid": "w85534180:a36018864"}, {"current_trial": 34, "dateTime": 1691486567833, "trialdata": {"actionTimes": [3804, 4643, 5654, 7077, 8059], "actions": ["up", "up", "up", "right", "right"], "block": "test", "clicked_states": [], "costs": 0, "displayed_time": "17.84", "internal_node_id": "0.0-4.0-1.0-13.0", "num_clicks_accrued": [0, 0, 0, 0, 0, 0, 0, 0, 0, 0, 0, 0, 0], "path": ["0", "0", "1", "2", "3", "4", "6"], "queries": {"click": {"edge": {"target": [], "time": []}, "state": {"target": [], "time": []}}, "mouseout": {"edge": {"target": [], "time": []}, "state": {"target": ["5", "0", "7"], "time": [905, 9240, 9380]}}, "mouseover": {"edge": {"target": [], "time": []}, "state": {"target": [], "time": []}}}, "revealed_states": [], "rewards": [-1, 1, 6, -6, 66], "rt": [991, 159, 417, 771, 362], "score": 66, "simulationMode": [null, null, null, null, null], "stateRewards": ["", -1, 1, 6, -6, 70, 66, 67, -16, -75, -35, 37, -1, 4, 4, -6, 47, -9, 63, 15, 21, -63, 13, 1, 3, -6, 10, 79, -29, 18, -15, 9, -67, -19], "time_elapsed": 1378532, "trialIndex": 19, "trialTime": 19253, "trial_id": "mdp_trial_14", "trial_index": 34, "trial_type": "mouselab-mdp", "withholdReward": false}, "uniqueid": "w85534180:a36018864"}, {"current_trial": 35, "dateTime": 1691486588386, "trialdata": {"actionTimes": [4932, 5646, 6587, 7726, 9671], "actions": ["up", "up", "up", "left", "down"], "block": "test", "clicked_states": [], "costs": 0, "displayed_time": "17.98", "internal_node_id": "0.0-4.0-1.0-14.0", "num_clicks_accrued": [0, 0, 0, 0, 0, 0, 0, 0, 0, 0, 0, 0, 0], "path": ["0", "0", "1", "2", "3", "8", "10"], "queries": {"click": {"edge": {"target": [], "time": []}, "state": {"target": [], "time": []}}, "mouseout": {"edge": {"target": [], "time": []}, "state": {"target": ["6", "0", "0", "10"], "time": [1434, 1837, 10887, 11144]}}, "mouseover": {"edge": {"target": [], "time": []}, "state": {"target": [], "time": []}}}, "revealed_states": [], "rewards": [-2, -3, -6, 5, 20], "rt": [1791, 102, 327, 464, 1281], "score": 14, "simulationMode": [null, null, null, null, null], "stateRewards": ["", -2, -3, -6, -7, 9, 16, 65, 5, -41, 20, -25, -1, -4, 1, -11, -49, -4, 71, 1, 39, -62, 52, -2, -3, 7, -9, -28, -70, 84, 8, 24, -58, 82], "time_elapsed": 1399085, "trialIndex": 20, "trialTime": 19405, "trial_id": "mdp_trial_15", "trial_index": 35, "trial_type": "mouselab-mdp", "withholdReward": false}, "uniqueid": "w85534180:a36018864"}, {"current_trial": 36, "dateTime": 1691486611966, "trialdata": {"actionTimes": [6319, 7119, 7986, 9147, 11434], "actions": ["up", "up", "up", "left", "up"], "block": "test", "clicked_states": [], "costs": 0, "displayed_time": "19.33", "internal_node_id": "0.0-4.0-1.0-15.0", "num_clicks_accrued": [0, 0, 0, 0, 0, 0, 0, 0, 0, 0, 0, 0, 0], "path": ["0", "0", "1", "2", "3", "8", "9"], "queries": {"click": {"edge": {"target": [], "time": []}, "state": {"target": [], "time": []}}, "mouseout": {"edge": {"target": [], "time": []}, "state": {"target": ["10", "0", "0", "10"], "time": [1223, 5586, 12700, 12968]}}, "mouseover": {"edge": {"target": [], "time": []}, "state": {"target": [], "time": []}}}, "revealed_states": [], "rewards": [1, 2, 7, 3, 60], "rt": [1737, 201, 169, 556, 1542], "score": 73, "simulationMode": [null, null, null, null, null], "stateRewards": ["", 1, 2, 7, 13, 88, -71, 27, 3, 60, 5, -53, -2, 2, -6, -1, -30, 79, 47, -4, -14, 46, 68, 1, 1, 8, 10, -14, 86, 48, -11, -67, -44, 5], "time_elapsed": 1422664, "trialIndex": 21, "trialTime": 21452, "trial_id": "mdp_trial_16", "trial_index": 36, "trial_type": "mouselab-mdp", "withholdReward": false}, "uniqueid": "w85534180:a36018864"}, {"current_trial": 37, "dateTime": 1691486633281, "trialdata": {"actionTimes": [6544, 7487, 8642, 9629, 10704], "actions": ["up", "up", "up", "left", "left"], "block": "test", "clicked_states": [], "costs": 0, "displayed_time": "18.54", "internal_node_id": "0.0-4.0-1.0-16.0", "num_clicks_accrued": [0, 0, 0, 0, 0, 0, 0, 0, 0, 0, 0, 0, 0], "path": ["0", "0", "1", "2", "3", "8", "11"], "queries": {"click": {"edge": {"target": [], "time": []}, "state": {"target": [], "time": []}}, "mouseout": {"edge": {"target": [], "time": []}, "state": {"target": ["9", "10", "0", "23", "27", "11", "11"], "time": [1064, 1187, 11801, 11880, 12098, 12375, 12688]}}, "mouseover": {"edge": {"target": [], "time": []}, "state": {"target": [], "time": []}}}, "revealed_states": [], "rewards": [2, 4, 7, 5, 36], "rt": [2663, 371, 595, 343, 518], "score": 54, "simulationMode": [null, null, null, null, null], "stateRewards": ["", 2, 4, 7, -6, -76, -81, 2, 5, -66, -3, 36, -2, -4, 6, -2, -69, 4, -49, -6, 67, 38, -67, 2, 1, 1, 6, -68, -21, 52, -16, -16, 6, -70], "time_elapsed": 1443984, "trialIndex": 22, "trialTime": 20108, "trial_id": "mdp_trial_17", "trial_index": 37, "trial_type": "mouselab-mdp", "withholdReward": false}, "uniqueid": "w85534180:a36018864"}, {"current_trial": 38, "dateTime": 1691486660371, "trialdata": {"actionTimes": [11888, 12876, 14174, 16284, 17790], "actions": ["left", "left", "left", "up", "left"], "block": "test", "clicked_states": [], "costs": 0, "displayed_time": "24.59", "internal_node_id": "0.0-4.0-1.0-17.0", "num_clicks_accrued": [0, 0, 0, 0, 0, 0, 0, 0, 0, 0, 0, 0, 0], "path": ["0", "0", "23", "24", "25", "26", "29"], "queries": {"click": {"edge": {"target": [], "time": []}, "state": {"target": [], "time": []}}, "mouseout": {"edge": {"target": [], "time": []}, "state": {"target": ["11", "0", "10", "27", "29"], "time": [6855, 19754, 19988, 20145, 20560]}}, "mouseover": {"edge": {"target": [], "time": []}, "state": {"target": [], "time": []}}}, "revealed_states": [], "rewards": [-2, 3, 7, -5, -62], "rt": [2878, 382, 700, 1508, 879], "score": -59, "simulationMode": [null, null, null, null, null], "stateRewards": ["", 2, -1, 5, 8, 75, -35, -77, 1, -9, -81, -58, 1, 2, -7, 5, 77, -16, 19, 16, -10, -18, 40, -2, 3, 7, -5, 64, 1, -62, 10, 27, 10, 65], "time_elapsed": 1471073, "trialIndex": 23, "trialTime": 25933, "trial_id": "mdp_trial_18", "trial_index": 38, "trial_type": "mouselab-mdp", "withholdReward": false}, "uniqueid": "w85534180:a36018864"}, {"current_trial": 39, "dateTime": 1691486681490, "trialdata": {"actionTimes": [5650, 6521, 7410, 8537, 9717], "actions": ["left", "left", "left", "up", "right"], "block": "test", "clicked_states": [], "costs": 0, "displayed_time": "18.46", "internal_node_id": "0.0-4.0-1.0-18.0", "num_clicks_accrued": [0, 0, 0, 0, 0, 0, 0, 0, 0, 0, 0, 0, 0], "path": ["0", "0", "23", "24", "25", "26", "28"], "queries": {"click": {"edge": {"target": [], "time": []}, "state": {"target": [], "time": []}}, "mouseout": {"edge": {"target": [], "time": []}, "state": {"target": ["29", "23", "0", "0", "28"], "time": [1038, 1608, 1924, 11010, 11947]}}, "mouseover": {"edge": {"target": [], "time": []}, "state": {"target": [], "time": []}}}, "revealed_states": [], "rewards": [2, -4, 7, 4, 63], "rt": [2017, 241, 322, 495, 591], "score": 72, "simulationMode": [null, null, null, null, null], "stateRewards": ["", 1, -1, 1, -14, -10, 67, -28, -11, 72, 40, -65, -1, 1, 1, -2, 8, -55, 34, -10, 61, 33, -15, 2, -4, 7, 4, -75, 63, -21, -16, 61, 19, 21], "time_elapsed": 1492168, "trialIndex": 24, "trialTime": 19918, "trial_id": "mdp_trial_19", "trial_index": 39, "trial_type": "mouselab-mdp", "withholdReward": false}, "uniqueid": "w85534180:a36018864"}, {"current_trial": 40, "dateTime": 1691486703054, "trialdata": {"actionTimes": [5935, 6887, 7809, 8940, 9803], "actions": ["left", "left", "left", "up", "up"], "block": "test", "clicked_states": [], "costs": 0, "displayed_time": "17.79", "internal_node_id": "0.0-4.0-1.0-19.0", "num_clicks_accrued": [0, 0, 0, 0, 0, 0, 0, 0, 0, 0, 0, 0, 0], "path": ["0", "0", "23", "24", "25", "26", "27"], "queries": {"click": {"edge": {"target": [], "time": []}, "state": {"target": [], "time": []}}, "mouseout": {"edge": {"target": [], "time": []}, "state": {"target": ["28", "23", "0", "23", "12", "3", "27"], "time": [937, 1116, 4544, 5055, 5494, 11257, 11862]}}, "mouseover": {"edge": {"target": [], "time": []}, "state": {"target": ["23", "12"], "time": [4670, 5202]}}}, "revealed_states": [], "rewards": [2, 4, 4, 8, -85], "rt": [2991, 285, 373, 559, 187], "score": -67, "simulationMode": [null, null, null, null, null], "stateRewards": ["", -2, 3, -1, -9, 44, 48, -37, -3, 71, -39, 87, -1, 3, -4, 4, -21, 59, -15, -8, -1, 28, -38, 2, 4, 4, 8, -85, -72, -63, 14, 58, 63, -46], "time_elapsed": 1513756, "trialIndex": 25, "trialTime": 19005, "trial_id": "mdp_trial_20", "trial_index": 40, "trial_type": "mouselab-mdp", "withholdReward": false}, "uniqueid": "w85534180:a36018864"}, {"current_trial": 41, "dateTime": 1691486726036, "trialdata": {"actionTimes": [4844, 6754, 8367, 9866, 11131], "actions": ["left", "left", "left", "down", "left"], "block": "test", "clicked_states": [], "costs": 0, "displayed_time": "20.02", "internal_node_id": "0.0-4.0-1.0-20.0", "num_clicks_accrued": [0, 0, 0, 0, 0, 0, 0, 0, 0, 0, 0, 0, 0], "path": ["0", "0", "23", "24", "25", "30", "33"], "queries": {"click": {"edge": {"target": [], "time": []}, "state": {"target": [], "time": []}}, "mouseout": {"edge": {"target": [], "time": []}, "state": {"target": ["27", "26", "0", "24"], "time": [865, 963, 12991, 13470]}}, "mouseover": {"edge": {"target": [], "time": []}, "state": {"target": [], "time": []}}}, "revealed_states": [], "rewards": [-2, -3, -6, -5, -11], "rt": [1005, 1207, 545, 716, 529], "score": -27, "simulationMode": [null, null, null, null, null], "stateRewards": ["", 1, 3, 3, -10, 52, 68, 59, 12, 7, 49, 21, -2, -3, -4, -2, -2, 63, 63, -4, 44, 43, -76, -2, -3, -6, 13, 48, 36, 12, -5, -36, -33, -11], "time_elapsed": 1536731, "trialIndex": 26, "trialTime": 21406, "trial_id": "mdp_trial_21", "trial_index": 41, "trial_type": "mouselab-mdp", "withholdReward": false}, "uniqueid": "w85534180:a36018864"}, {"current_trial": 42, "dateTime": 1691486748169, "trialdata": {"actionTimes": [4683, 5628, 6601, 7684, 9114], "actions": ["left", "left", "left", "down", "right"], "block": "test", "clicked_states": [], "costs": 0, "displayed_time": "17.77", "internal_node_id": "0.0-4.0-1.0-21.0", "num_clicks_accrued": [0, 0, 0, 0, 0, 0, 0, 0, 0, 0, 0, 0, 0], "path": ["0", "0", "23", "24", "25", "30", "31"], "queries": {"click": {"edge": {"target": [], "time": []}, "state": {"target": [], "time": []}}, "mouseout": {"edge": {"target": [], "time": []}, "state": {"target": ["33", "24", "0", "0", "31"], "time": [928, 1012, 1221, 10629, 11577]}}, "mouseover": {"edge": {"target": [], "time": []}, "state": {"target": [], "time": []}}}, "revealed_states": [], "rewards": [-2, 3, -8, 7, 67], "rt": [1748, 363, 408, 509, 841], "score": 67, "simulationMode": [null, null, null, null, null], "stateRewards": ["", 1, 1, -5, 10, -31, 73, 14, -8, -23, 63, -70, -1, 2, 8, 7, 25, -59, 27, -10, -40, -71, -15, -2, 3, -8, -5, -19, 77, -34, 7, 67, 63, 19], "time_elapsed": 1558867, "trialIndex": 27, "trialTime": 20096, "trial_id": "mdp_trial_22", "trial_index": 42, "trial_type": "mouselab-mdp", "withholdReward": false}, "uniqueid": "w85534180:a36018864"}, {"current_trial": 43, "dateTime": 1691486769227, "trialdata": {"actionTimes": [5560, 6399, 7496, 8567, 9590], "actions": ["left", "left", "left", "down", "down"], "block": "test", "clicked_states": [], "costs": 0, "displayed_time": "17.91", "internal_node_id": "0.0-4.0-1.0-22.0", "num_clicks_accrued": [0, 0, 0, 0, 0, 0, 0, 0, 0, 0, 0, 0, 0], "path": ["0", "0", "23", "24", "25", "30", "32"], "queries": {"click": {"edge": {"target": [], "time": []}, "state": {"target": [], "time": []}}, "mouseout": {"edge": {"target": [], "time": []}, "state": {"target": ["31", "23", "23", "24"], "time": [847, 954, 11794, 11895]}}, "mouseover": {"edge": {"target": [], "time": []}, "state": {"target": [], "time": []}}}, "revealed_states": [], "rewards": [-1, 3, 6, 9, 5], "rt": [2741, 245, 243, 448, 413], "score": 22, "simulationMode": [null, null, null, null, null], "stateRewards": ["", 1, -1, 4, -2, -75, -75, 84, -9, -60, -79, 59, 2, -4, 8, 9, -17, -82, 80, 14, -4, 49, 49, -1, 3, 6, -11, -33, 34, 55, 9, -57, 5, 59], "time_elapsed": 1579909, "trialIndex": 28, "trialTime": 19350, "trial_id": "mdp_trial_23", "trial_index": 43, "trial_type": "mouselab-mdp", "withholdReward": false}, "uniqueid": "w85534180:a36018864"}, {"current_trial": 44, "dateTime": 1691486794564, "trialdata": {"actionTimes": [6661, 7545, 8530, 9886, 11559], "actions": ["up", "up", "up", "left", "up"], "block": "test", "clicked_states": [], "costs": 0, "displayed_time": "19.98", "internal_node_id": "0.0-4.0-1.0-23.0", "num_clicks_accrued": [0, 0, 0, 0, 0, 0, 0, 0, 0, 0, 0, 0, 0], "path": ["0", "0", "1", "2", "3", "8", "9"], "queries": {"click": {"edge": {"target": [], "time": []}, "state": {"target": [], "time": []}}, "mouseout": {"edge": {"target": [], "time": []}, "state": {"target": ["32", "0", "10", "3", "9"], "time": [1728, 2428, 12765, 12981, 13253]}}, "mouseover": {"edge": {"target": [], "time": []}, "state": {"target": [], "time": []}}}, "revealed_states": [], "rewards": [2, -4, -4, -11, 57], "rt": [2384, 300, 365, 465, 1016], "score": 40, "simulationMode": [null, null, null, null, null], "stateRewards": ["", 2, -4, -4, 13, -80, 62, 13, -11, 57, -13, -44, 1, 4, 3, -4, -29, -88, 15, 16, -58, 68, -45, -1, -3, -1, -9, -44, -86, -19, -7, -36, 59, 66], "time_elapsed": 1605263, "trialIndex": 29, "trialTime": 21801, "trial_id": "mdp_trial_24", "trial_index": 44, "trial_type": "mouselab-mdp", "withholdReward": false}, "uniqueid": "w85534180:a36018864"}, {"current_trial": 45, "dateTime": 1691486822224, "trialdata": {"actionTimes": [10096, 10911, 12840, 13821, 14881], "actions": ["right", "right", "right", "down", "right"], "block": "test", "clicked_states": [], "costs": 0, "displayed_time": "21.78", "internal_node_id": "0.0-4.0-1.0-24.0", "num_clicks_accrued": [0, 0, 0, 0, 0, 0, 0, 0, 0, 0, 0, 0, 0], "path": ["0", "0", "12", "13", "14", "19", "20"], "queries": {"click": {"edge": {"target": [], "time": []}, "state": {"target": [], "time": []}}, "mouseout": {"edge": {"target": [], "time": []}, "state": {"target": ["9", "26", "0", "18", "20", "20", "20", "20", "20"], "time": [4422, 4708, 16187, 16264, 17116, 20650, 22878, 23761, 25311]}}, "mouseover": {"edge": {"target": [], "time": []}, "state": {"target": [], "time": []}}}, "revealed_states": [], "rewards": [-1, -1, 5, 5, -66], "rt": [2693, 188, 1368, 338, 440], "score": -58, "simulationMode": [null, null, null, null, null], "stateRewards": ["", -2, 2, 3, -7, -31, -33, 29, -8, -57, 50, -83, -1, -1, 5, 13, -23, -62, 25, 5, -66, -85, 14, 1, -2, -1, 16, 71, 33, -19, -14, 5, -43, 79], "time_elapsed": 1632902, "trialIndex": 30, "trialTime": 26091, "trial_id": "mdp_trial_25", "trial_index": 45, "trial_type": "mouselab-mdp", "withholdReward": false}, "uniqueid": "w85534180:a36018864"}, {"current_trial": 46, "dateTime": 1691486844808, "trialdata": {"actionTimes": [6754, 7531, 8390, 9384, 10643], "actions": ["right", "right", "right", "up", "left"], "block": "test", "clicked_states": [], "costs": 0, "displayed_time": "18.65", "internal_node_id": "0.0-4.0-1.0-25.0", "num_clicks_accrued": [0, 0, 0, 0, 0, 0, 0, 0, 0, 0, 0, 0, 0], "path": ["0", "0", "12", "13", "14", "15", "18"], "queries": {"click": {"edge": {"target": [], "time": []}, "state": {"target": [], "time": []}}, "mouseout": {"edge": {"target": [], "time": []}, "state": {"target": [], "time": []}}, "mouseover": {"edge": {"target": [], "time": []}, "state": {"target": [], "time": []}}}, "revealed_states": [], "rewards": [2, -4, 7, -7, -66], "rt": [2746, 149, 296, 383, 699], "score": -68, "simulationMode": [null, null, null, null, null], "stateRewards": ["", -2, -1, -5, 10, -36, -70, 68, -9, 86, 71, -10, 2, -4, 7, -7, 66, 44, -66, -13, -69, 43, 15, -2, 2, 6, -13, 62, 57, 50, -10, -69, 42, -72], "time_elapsed": 1655484, "trialIndex": 31, "trialTime": 20295, "trial_id": "mdp_trial_26", "trial_index": 46, "trial_type": "mouselab-mdp", "withholdReward": false}, "uniqueid": "w85534180:a36018864"}, {"current_trial": 47, "dateTime": 1691486865722, "trialdata": {"actionTimes": [4248, 5072, 6483, 7418, 8264], "actions": ["left", "left", "left", "up", "right"], "block": "test", "clicked_states": [], "costs": 0, "displayed_time": "18.09", "internal_node_id": "0.0-4.0-1.0-26.0", "num_clicks_accrued": [0, 0, 0, 0, 0, 0, 0, 0, 0, 0, 0, 0, 0], "path": ["0", "0", "23", "24", "25", "26", "28"], "queries": {"click": {"edge": {"target": [], "time": []}, "state": {"target": [], "time": []}}, "mouseout": {"edge": {"target": [], "time": []}, "state": {"target": [], "time": []}}, "mouseover": {"edge": {"target": [], "time": []}, "state": {"target": [], "time": []}}}, "revealed_states": [], "rewards": [-2, -1, -7, 15, 20], "rt": [1163, 232, 750, 297, 225], "score": 25, "simulationMode": [null, null, null, null, null], "stateRewards": ["", -2, 2, 5, -14, -56, 64, 84, -5, 52, 39, 85, -2, 1, 7, 8, 21, 29, -78, -9, -10, -69, 10, -2, -1, -7, 15, 72, 20, 41, -2, 52, 80, 22], "time_elapsed": 1676423, "trialIndex": 32, "trialTime": 19750, "trial_id": "mdp_trial_27", "trial_index": 47, "trial_type": "mouselab-mdp", "withholdReward": false}, "uniqueid": "w85534180:a36018864"}, {"current_trial": 48, "dateTime": 1691486905868, "trialdata": {"actionTimes": [5575, 6255, 7020, 8178, 8956], "actions": ["up", "up", "up", "left", "left"], "block": "test", "clicked_states": [], "costs": 0, "displayed_time": "17.07", "internal_node_id": "0.0-4.0-1.0-27.0", "num_clicks_accrued": [0, 0, 0, 0, 0, 0, 0, 0, 0, 0, 0, 0, 0], "path": ["0", "0", "1", "2", "3", "8", "11"], "queries": {"click": {"edge": {"target": [], "time": []}, "state": {"target": [], "time": []}}, "mouseout": {"edge": {"target": [], "time": []}, "state": {"target": ["0"], "time": [22307]}}, "mouseover": {"edge": {"target": [], "time": []}, "state": {"target": [], "time": []}}}, "revealed_states": [], "rewards": [2, 3, -3, -12, -15], "rt": [3064, 75, 147, 499, 204], "score": -25, "simulationMode": [null, null, null, null, null], "stateRewards": ["", 2, 3, -3, 4, 72, -28, 34, -12, 57, -64, -15, 2, 1, -4, -15, 2, 49, 31, -1, -42, -58, 31, -2, 1, -2, -13, -75, -19, -22, -6, 61, 10, -56], "time_elapsed": 1716541, "trialIndex": 33, "trialTime": 38881, "trial_id": "mdp_trial_28", "trial_index": 48, "trial_type": "mouselab-mdp", "withholdReward": false}, "uniqueid": "w85534180:a36018864"}, {"current_trial": 49, "dateTime": 1691486931679, "trialdata": {"actionTimes": [8048, 8979, 9818, 10840, 18341], "actions": ["up", "up", "up", "right", "right"], "block": "test", "clicked_states": [], "costs": 0, "displayed_time": "22.74", "internal_node_id": "0.0-4.0-1.0-28.0", "num_clicks_accrued": [0, 0, 0, 0, 0, 0, 0, 0, 0, 0, 0, 0, 0], "path": ["0", "0", "1", "2", "3", "4", "6"], "queries": {"click": {"edge": {"target": [], "time": []}, "state": {"target": [], "time": []}}, "mouseout": {"edge": {"target": [], "time": []}, "state": {"target": ["19", "23"], "time": [4280, 5082]}}, "mouseover": {"edge": {"target": [], "time": []}, "state": {"target": [], "time": []}}}, "revealed_states": [], "rewards": [-1, 1, -1, 2, 85], "rt": [837, 308, 243, 158, 6940], "score": 86, "simulationMode": [null, null, null, null, null], "stateRewards": ["", -1, 1, -1, 2, 19, 85, -18, 2, -3, -26, 36, 2, 4, 7, -9, -18, 70, 72, -5, 35, -20, -28, 1, -2, -4, -3, -59, -11, -63, -2, -72, 59, -69], "time_elapsed": 1742362, "trialIndex": 34, "trialTime": 24379, "trial_id": "mdp_trial_29", "trial_index": 49, "trial_type": "mouselab-mdp", "withholdReward": false}, "uniqueid": "w85534180:a36018864"}, {"current_trial": 50, "dateTime": 1691486951215, "trialdata": {"actionTimes": [4473, 5288, 6110, 7014, 9100], "actions": ["right", "right", "right", "up", "up"], "block": "test", "clicked_states": [], "costs": 0, "displayed_time": "16.97", "internal_node_id": "0.0-4.0-1.0-29.0", "num_clicks_accrued": [0, 0, 0, 0, 0, 0, 0, 0, 0, 0, 0, 0, 0], "path": ["0", "0", "12", "13", "14", "15", "16"], "queries": {"click": {"edge": {"target": [], "time": []}, "state": {"target": [], "time": []}}, "mouseout": {"edge": {"target": [], "time": []}, "state": {"target": [], "time": []}}, "mouseover": {"edge": {"target": [], "time": []}, "state": {"target": [], "time": []}}}, "revealed_states": [], "rewards": [1, 3, -5, 12, -35], "rt": [2077, 207, 232, 304, 1372], "score": -24, "simulationMode": [null, null, null, null, null], "stateRewards": ["", -2, -4, -8, 8, 63, -50, -19, -7, -17, -31, 31, 1, 3, -5, 12, -35, -63, -29, -4, -17, -75, -79, -2, -3, -2, 8, -3, -85, 10, -2, -82, -82, 56], "time_elapsed": 1761915, "trialIndex": 35, "trialTime": 18369, "trial_id": "mdp_trial_30", "trial_index": 50, "trial_type": "mouselab-mdp", "withholdReward": false}, "uniqueid": "w85534180:a36018864"}, {"current_trial": 51, "dateTime": 1691486973399, "trialdata": {"actionTimes": [3846, 5225, 6073, 7482, 8585], "actions": ["left", "left", "left", "down", "right"], "block": "test", "clicked_states": [], "costs": 0, "displayed_time": "19.59", "internal_node_id": "0.0-4.0-1.0-30.0", "num_clicks_accrued": [0, 0, 0, 0, 0, 0, 0, 0, 0, 0, 0, 0, 0], "path": ["0", "0", "23", "24", "25", "30", "31"], "queries": {"click": {"edge": {"target": [], "time": []}, "state": {"target": [], "time": []}}, "mouseout": {"edge": {"target": [], "time": []}, "state": {"target": [], "time": []}}, "mouseover": {"edge": {"target": [], "time": []}, "state": {"target": [], "time": []}}}, "revealed_states": [], "rewards": [-1, 1, -3, 8, -80], "rt": [1648, 755, 158, 466, 498], "score": -75, "simulationMode": [null, null, null, null, null], "stateRewards": ["", 2, -3, -2, 14, -4, 85, 46, 15, -28, 41, 31, -1, -1, -1, 5, 62, 79, 57, 12, -73, -64, 86, -1, 1, -3, -5, 68, 11, -32, 8, -80, -21, -56], "time_elapsed": 1784094, "trialIndex": 36, "trialTime": 21006, "trial_id": "mdp_trial_31", "trial_index": 51, "trial_type": "mouselab-mdp", "withholdReward": false}, "uniqueid": "w85534180:a36018864"}, {"current_trial": 52, "dateTime": 1691486994765, "trialdata": {"actionTimes": [3683, 4416, 6060, 7129, 8153], "actions": ["right", "right", "right", "up", "left"], "block": "test", "clicked_states": [], "costs": 0, "displayed_time": "18.01", "internal_node_id": "0.0-4.0-1.0-31.0", "num_clicks_accrued": [0, 0, 0, 0, 0, 0, 0, 0, 0, 0, 0, 0, 0], "path": ["0", "0", "12", "13", "14", "15", "18"], "queries": {"click": {"edge": {"target": [], "time": []}, "state": {"target": [], "time": []}}, "mouseout": {"edge": {"target": [], "time": []}, "state": {"target": ["0"], "time": [985]}}, "mouseover": {"edge": {"target": [], "time": []}, "state": {"target": [], "time": []}}}, "revealed_states": [], "rewards": [-1, -4, 7, 11, 88], "rt": [1250, 132, 1020, 434, 459], "score": 101, "simulationMode": [null, null, null, null, null], "stateRewards": ["", 1, 2, 8, -2, 23, -69, -18, -16, 54, -21, 71, -1, -4, 7, 11, 43, -6, 88, 6, -55, 72, 43, 1, -3, -2, -1, 68, -31, -54, 4, -8, 25, -2], "time_elapsed": 1805464, "trialIndex": 37, "trialTime": 20147, "trial_id": "mdp_trial_32", "trial_index": 52, "trial_type": "mouselab-mdp", "withholdReward": false}, "uniqueid": "w85534180:a36018864"}, {"current_trial": 53, "dateTime": 1691487016119, "trialdata": {"actionTimes": [3621, 4519, 5601, 6863, 7803], "actions": ["left", "left", "left", "down", "left"], "block": "test", "clicked_states": [], "costs": 0, "displayed_time": "16.81", "internal_node_id": "0.0-4.0-1.0-32.0", "num_clicks_accrued": [0, 0, 0, 0, 0, 0, 0, 0, 0, 0, 0, 0, 0], "path": ["0", "0", "23", "24", "25", "30", "33"], "queries": {"click": {"edge": {"target": [], "time": []}, "state": {"target": [], "time": []}}, "mouseout": {"edge": {"target": [], "time": []}, "state": {"target": [], "time": []}}, "mouseover": {"edge": {"target": [], "time": []}, "state": {"target": [], "time": []}}}, "revealed_states": [], "rewards": [-2, 2, -6, 2, 60], "rt": [1897, 346, 436, 705, 293], "score": 56, "simulationMode": [null, null, null, null, null], "stateRewards": ["", 2, 4, 4, -8, -36, -33, 38, 16, -51, 57, 57, 1, 3, 4, -6, 45, 68, 87, 1, 63, 24, -55, -2, 2, -6, -13, -63, -50, 8, 2, 80, 6, 60], "time_elapsed": 1826820, "trialIndex": 38, "trialTime": 18394, "trial_id": "mdp_trial_33", "trial_index": 53, "trial_type": "mouselab-mdp", "withholdReward": false}, "uniqueid": "w85534180:a36018864"}, {"current_trial": 54, "dateTime": 1691487138691, "trialdata": {"internal_node_id": "0.0-0.0", "success": true, "time_elapsed": 4386, "trial_index": 0, "trial_type": "fullscreen"}, "uniqueid": "w85534180:a36018864"}, {"current_trial": 55, "dateTime": 1691487140794, "trialdata": {"internal_node_id": "0.0-1.0", "rt": 2082, "time_elapsed": 6488, "trial_id": "exp_instructions_misaligned", "trial_index": 1, "trial_type": "instructions", "view_history": [{"page_index": 0, "viewing_time": 2082}]}, "uniqueid": "w85534180:a36018864"}, {"current_trial": 56, "dateTime": 1691487143926, "trialdata": {"internal_node_id": "0.0-2.0-0.0", "success": true, "time_elapsed": 9621, "trial_index": 2, "trial_type": "fullscreen"}, "uniqueid": "w85534180:a36018864"}, {"current_trial": 57, "dateTime": 1691487152514, "trialdata": {"internal_node_id": "0.0-2.0-1.0", "rt": 8576, "time_elapsed": 18209, "trial_id": "mouselab_instructions_1_misaligned", "trial_index": 3, "trial_type": "instructions", "view_history": [{"page_index": 0, "viewing_time": 3288}, {"page_index": 1, "viewing_time": 2106}, {"page_index": 2, "viewing_time": 1838}, {"page_index": 3, "viewing_time": 1343}]}, "uniqueid": "w85534180:a36018864"}, {"current_trial": 58, "dateTime": 1691487172654, "trialdata": {"actionTimes": [10769, 11504, 12244, 13254, 14169], "actions": ["up", "up", "up", "right", "right"], "block": "test", "clicked_states": [], "costs": 0, "displayed_time": "14.74", "internal_node_id": "0.0-2.0-2.0-0.0", "num_clicks_accrued": [0, 0, 0, 0, 0, 0, 0, 0, 0, 0, 0, 0, 0], "path": ["0", "0", "1", "2", "3", "4", "6"], "queries": {"click": {"edge": {"target": [], "time": []}, "state": {"target": [], "time": []}}, "mouseout": {"edge": {"target": [], "time": []}, "state": {"target": ["0"], "time": [3207]}}, "mouseover": {"edge": {"target": [], "time": []}, "state": {"target": [], "time": []}}}, "revealed_states": [], "rewards": [10, -10, -10, 10, 10], "rt": [1975, 135, 170, 436, 151], "score": 13.5, "simulationMode": [null, null, null, null, null], "stateRewards": ["", 10, -10, -10, 10, -10, 10, 10, -10, 10, 10, -10, -10, -10, 10, -10, -10, 10, -10, 10, -10, -10, -10, 10, 10, -10, -10, 10, -10, -10, -10, 10, -10, -10], "time_elapsed": 38347, "trialIndex": 0, "trialTime": 17323, "trial_id": "practice_1", "trial_index": 4, "trial_type": "mouselab-mdp", "withholdReward": false}, "uniqueid": "w85534180:a36018864"}, {"current_trial": 59, "dateTime": 1691487189640, "trialdata": {"actionTimes": [5975, 7068, 8565, 9754, 10986], "actions": ["up", "up", "up", "left", "left"], "block": "test", "clicked_states": [], "costs": 0, "displayed_time": "11.59", "internal_node_id": "0.0-2.0-2.0-1.0", "num_clicks_accrued": [0, 0, 0, 0, 0, 0, 0, 0, 0, 0, 0, 0, 0], "path": ["0", "0", "1", "2", "3", "8", "11"], "queries": {"click": {"edge": {"target": [], "time": []}, "state": {"target": [], "time": []}}, "mouseout": {"edge": {"target": [], "time": []}, "state": {"target": [], "time": []}}, "mouseover": {"edge": {"target": [], "time": []}, "state": {"target": [], "time": []}}}, "revealed_states": [], "rewards": [-10, 10, 10, 10, 10], "rt": [2545, 5, 689, 568, 378], "score": 33.5, "simulationMode": [null, null, null, null, null], "stateRewards": ["", -10, 10, 10, -10, -10, -10, -10, 10, 10, -10, 10, 10, -10, 10, 10, -10, 10, 10, 10, -10, 10, 10, 10, 10, -10, 10, -10, -10, 10, -10, -10, 10, -10], "time_elapsed": 55334, "trialIndex": 1, "trialTime": 14320, "trial_id": "practice_2", "trial_index": 5, "trial_type": "mouselab-mdp", "withholdReward": false}, "uniqueid": "w85534180:a36018864"}, {"current_trial": 60, "dateTime": 1691487196286, "trialdata": {"internal_node_id": "0.0-2.0-3.0", "rt": 6629, "time_elapsed": 61980, "trial_id": "mouselab_instructions_2_misaligned", "trial_index": 6, "trial_type": "instructions", "view_history": [{"page_index": 0, "viewing_time": 4834}, {"page_index": 1, "viewing_time": 1794}]}, "uniqueid": "w85534180:a36018864"}, {"current_trial": 61, "dateTime": 1691487234302, "trialdata": {"correct": {"Q0": "The cost for clicking on nodes may vary between nodes.", "Q1": "The better I perform the higher my bonus will be.", "Q2": "No, the amount of cash at each node of the web may be different each time.", "Q3": "To get the highest total score.", "Q4": "Only before moving the spider.", "Q5": "3 seconds"}, "internal_node_id": "0.0-2.0-4.0", "question_order": [0, 1, 2, 3, 4, 5], "response": {"Q0": "The cost for clicking on nodes may vary between nodes.", "Q1": "The better I perform the higher my bonus will be.", "Q2": "No, the amount of cash at each node of the web may be different each time.", "Q3": "To get the highest total score.", "Q4": "Only before moving the spider.", "Q5": "3 seconds"}, "rt": 37949, "time_elapsed": 99994, "trial_id": "mouselab_quiz_misaligned", "trial_index": 7, "trial_type": "survey-multi-choice"}, "uniqueid": "w85534180:a36018864"}, {"current_trial": 62, "dateTime": 1691487236649, "trialdata": {"internal_node_id": "0.0-4.0-0.0", "response": " ", "rt": 2279, "stimulus": "\n<h1> Get ready to start the game! </h1>\n\nThank you for reading the instructions. Get ready start with the 40 rounds of this game.\n<br><br>\nIf you need to take a break, feel free to take one after the end of a round, before continuing to the next one.\n<br><br>\nRemember, the more money the spider gets, the bigger your bonus will be!\n<br><br>\n<div style='text-align: center;'>Press <code>space</code> to begin.</div>\n\n<br><br>\n(If, at any point, the <code>space</code> key does not take you to the next page, click once on the text and try again.)", "time_elapsed": 102344, "trial_id": "mdp_ready", "trial_index": 8, "trial_type": "html-keyboard-response"}, "uniqueid": "w85534180:a36018864"}, {"current_trial": 63, "dateTime": 1691487264063, "trialdata": {"actionTimes": [6870, 7841, 8836, 9724, 10631], "actions": ["up", "up", "up", "right", "right"], "block": "test", "clicked_states": [], "costs": 0, "displayed_time": "20.31", "internal_node_id": "0.0-4.0-1.0-0.0", "num_clicks_accrued": [0, 0, 0, 0, 0, 0, 0, 0, 0, 0, 0, 0, 0], "path": ["0", "0", "1", "2", "3", "4", "6"], "queries": {"click": {"edge": {"target": [], "time": []}, "state": {"target": [], "time": []}}, "mouseout": {"edge": {"target": [], "time": []}, "state": {"target": ["12", "0"], "time": [3030, 15990]}}, "mouseover": {"edge": {"target": [], "time": []}, "state": {"target": [], "time": []}}}, "revealed_states": [], "rewards": [-2, 2, 3, -7, -33], "rt": [1225, 300, 327, 244, 246], "score": -37, "simulationMode": [null, null, null, null, null], "stateRewards": ["", -2, 2, 3, -7, -31, -33, 29, -8, -57, 50, -83, -1, -1, 5, 13, -23, -62, 25, 5, -66, -85, 14, 1, -2, -1, 16, 71, 33, -19, -14, 5, -43, 79], "time_elapsed": 129755, "trialIndex": 2, "trialTime": 26009, "trial_id": "mdp_trial_1", "trial_index": 9, "trial_type": "mouselab-mdp", "withholdReward": false}, "uniqueid": "w85534180:a36018864"}, {"current_trial": 64, "dateTime": 1691487292837, "trialdata": {"actionTimes": [10387, 11196, 11988, 12687, 13852], "actions": ["up", "up", "up", "right", "right"], "block": "test", "clicked_states": [], "costs": 0, "displayed_time": "22.71", "internal_node_id": "0.0-4.0-1.0-1.0", "num_clicks_accrued": [0, 0, 0, 0, 0, 0, 0, 0, 0, 0, 0, 0, 0], "path": ["0", "0", "1", "2", "3", "4", "6"], "queries": {"click": {"edge": {"target": [], "time": []}, "state": {"target": [], "time": []}}, "mouseout": {"edge": {"target": [], "time": []}, "state": {"target": ["28"], "time": [5516]}}, "mouseover": {"edge": {"target": [], "time": []}, "state": {"target": [], "time": []}}}, "revealed_states": [], "rewards": [2, 4, -3, 16, 30], "rt": [2419, 171, 139, 152, 582], "score": 49, "simulationMode": [null, null, null, null, null], "stateRewards": ["", 2, 4, -3, 16, -58, 30, -35, 11, -60, 47, 27, -2, -1, -7, -16, 23, -70, 68, -10, -65, -43, -34, -2, 1, 7, 9, -63, 34, -31, -8, -12, -86, 59], "time_elapsed": 158531, "trialIndex": 3, "trialTime": 27363, "trial_id": "mdp_trial_2", "trial_index": 10, "trial_type": "mouselab-mdp", "withholdReward": false}, "uniqueid": "w85534180:a36018864"}, {"current_trial": 65, "dateTime": 1691487316150, "trialdata": {"actionTimes": [7585, 8403, 9388, 10500, 11555], "actions": ["right", "right", "right", "down", "right"], "block": "test", "clicked_states": [], "costs": 0, "displayed_time": "20.43", "internal_node_id": "0.0-4.0-1.0-2.0", "num_clicks_accrued": [0, 0, 0, 0, 0, 0, 0, 0, 0, 0, 0, 0, 0], "path": ["0", "0", "12", "13", "14", "19", "20"], "queries": {"click": {"edge": {"target": [], "time": []}, "state": {"target": [], "time": []}}, "mouseout": {"edge": {"target": [], "time": []}, "state": {"target": ["0", "30", "31", "0"], "time": [2069, 3439, 3645, 3768]}}, "mouseover": {"edge": {"target": [], "time": []}, "state": {"target": [], "time": []}}}, "revealed_states": [], "rewards": [-1, 4, 5, -8, 3], "rt": [2244, 264, 414, 509, 481], "score": 3, "simulationMode": [null, null, null, null, null], "stateRewards": ["", -2, -3, 1, -7, 39, -67, 16, 5, -20, 73, 66, -1, 4, 5, -3, 23, -68, -87, -8, 3, -3, 17, 1, -4, -2, -13, -32, 34, 61, -5, -11, -18, 12], "time_elapsed": 181843, "trialIndex": 4, "trialTime": 21878, "trial_id": "mdp_trial_3", "trial_index": 11, "trial_type": "mouselab-mdp", "withholdReward": false}, "uniqueid": "w85534180:a36018864"}, {"current_trial": 66, "dateTime": 1691487344288, "trialdata": {"actionTimes": [15713, 16815, 17912, 19023, 20159], "actions": ["left", "left", "left", "down", "right"], "block": "test", "clicked_states": [], "costs": 0, "displayed_time": "23.93", "internal_node_id": "0.0-4.0-1.0-3.0", "num_clicks_accrued": [0, 0, 0, 0, 0, 0, 0, 0, 0, 0, 0, 0, 0], "path": ["0", "0", "23", "24", "25", "30", "31"], "queries": {"click": {"edge": {"target": [], "time": []}, "state": {"target": [], "time": []}}, "mouseout": {"edge": {"target": [], "time": []}, "state": {"target": ["0", "7", "11", "23"], "time": [5547, 5727, 11858, 23232]}}, "mouseover": {"edge": {"target": [], "time": []}, "state": {"target": ["11", "23"], "time": [11793, 12460]}}}, "revealed_states": [], "rewards": [-2, -4, 5, 5, 71], "rt": [6736, 402, 486, 538, 531], "score": 75, "simulationMode": [null, null, null, null, null], "stateRewards": ["", -2, 4, -5, -12, 85, -24, -18, -15, -78, -22, 26, -1, -1, 2, 14, -45, 52, -23, 7, -33, 24, -6, -2, -4, 5, -7, -16, 36, -39, 5, 71, -87, -23], "time_elapsed": 209982, "trialIndex": 5, "trialTime": 26140, "trial_id": "mdp_trial_4", "trial_index": 12, "trial_type": "mouselab-mdp", "withholdReward": false}, "uniqueid": "w85534180:a36018864"}, {"current_trial": 67, "dateTime": 1691487364968, "trialdata": {"actionTimes": [4970, 5764, 6642, 7621, 8708], "actions": ["left", "left", "left", "up", "right"], "block": "test", "clicked_states": [], "costs": 0, "displayed_time": "17.69", "internal_node_id": "0.0-4.0-1.0-4.0", "num_clicks_accrued": [0, 0, 0, 0, 0, 0, 0, 0, 0, 0, 0, 0, 0], "path": ["0", "0", "23", "24", "25", "26", "28"], "queries": {"click": {"edge": {"target": [], "time": []}, "state": {"target": [], "time": []}}, "mouseout": {"edge": {"target": [], "time": []}, "state": {"target": ["0", "0"], "time": [2128, 17529]}}, "mouseover": {"edge": {"target": [], "time": []}, "state": {"target": [], "time": []}}}, "revealed_states": [], "rewards": [-2, -1, -5, 7, 47], "rt": [1934, 122, 176, 354, 512], "score": 46, "simulationMode": [null, null, null, null, null], "stateRewards": ["", 2, 4, -5, 7, 81, 35, 6, 11, 14, -72, 42, -1, 2, 3, -7, -77, -44, -40, -15, -85, 51, -32, -2, -1, -5, 7, -74, 47, 52, 16, -49, 48, -46], "time_elapsed": 230662, "trialIndex": 6, "trialTime": 19306, "trial_id": "mdp_trial_5", "trial_index": 13, "trial_type": "mouselab-mdp", "withholdReward": false}, "uniqueid": "w85534180:a36018864"}, {"current_trial": 68, "dateTime": 1691487389028, "trialdata": {"actionTimes": [8422, 9213, 10179, 11382, 12601], "actions": ["left", "left", "left", "down", "left"], "block": "test", "clicked_states": [], "costs": 0, "displayed_time": "21.35", "internal_node_id": "0.0-4.0-1.0-5.0", "num_clicks_accrued": [0, 0, 0, 0, 0, 0, 0, 0, 0, 0, 0, 0, 0], "path": ["0", "0", "23", "24", "25", "30", "33"], "queries": {"click": {"edge": {"target": [], "time": []}, "state": {"target": [], "time": []}}, "mouseout": {"edge": {"target": [], "time": []}, "state": {"target": ["0"], "time": [4591]}}, "mouseover": {"edge": {"target": [], "time": []}, "state": {"target": [], "time": []}}}, "revealed_states": [], "rewards": [2, -2, -2, 5, 61], "rt": [1752, 140, 229, 646, 614], "score": 64, "simulationMode": [null, null, null, null, null], "stateRewards": ["", 1, -4, -6, -1, -21, 17, -72, 10, 77, 67, -46, -1, 4, -2, 14, -66, -49, -45, -15, -52, 23, -67, 2, -2, -2, 15, -3, 45, -64, 5, -44, 83, 61], "time_elapsed": 254722, "trialIndex": 7, "trialTime": 22882, "trial_id": "mdp_trial_6", "trial_index": 14, "trial_type": "mouselab-mdp", "withholdReward": false}, "uniqueid": "w85534180:a36018864"}, {"current_trial": 69, "dateTime": 1691487411376, "trialdata": {"actionTimes": [5502, 6332, 7358, 8507, 9492], "actions": ["up", "up", "up", "right", "right"], "block": "test", "clicked_states": [], "costs": 0, "displayed_time": "18.64", "internal_node_id": "0.0-4.0-1.0-6.0", "num_clicks_accrued": [0, 0, 0, 0, 0, 0, 0, 0, 0, 0, 0, 0, 0], "path": ["0", "0", "1", "2", "3", "4", "6"], "queries": {"click": {"edge": {"target": [], "time": []}, "state": {"target": [], "time": []}}, "mouseout": {"edge": {"target": [], "time": []}, "state": {"target": ["0", "1", "7", "4", "6"], "time": [14778, 14956, 15123, 15187, 15572]}}, "mouseover": {"edge": {"target": [], "time": []}, "state": {"target": [], "time": []}}}, "revealed_states": [], "rewards": [2, 3, 3, 10, -21], "rt": [1873, 255, 444, 478, 305], "score": -3, "simulationMode": [null, null, null, null, null], "stateRewards": ["", 2, 3, 3, 10, 19, -21, 6, 9, 54, 68, 16, 2, 2, -6, -8, 40, -2, -75, -2, -42, 55, 59, -1, 2, 4, -14, 11, -34, -30, -6, 61, -53, 13], "time_elapsed": 277063, "trialIndex": 8, "trialTime": 20853, "trial_id": "mdp_trial_7", "trial_index": 15, "trial_type": "mouselab-mdp", "withholdReward": false}, "uniqueid": "w85534180:a36018864"}, {"current_trial": 70, "dateTime": 1691487445244, "trialdata": {"actionTimes": [7548, 8401, 9426, 10555, 11438], "actions": ["right", "right", "right", "up", "left"], "block": "test", "clicked_states": [], "costs": 0, "displayed_time": "19.41", "internal_node_id": "0.0-4.0-1.0-7.0", "num_clicks_accrued": [0, 0, 0, 0, 0, 0, 0, 0, 0, 0, 0, 0, 0], "path": ["0", "0", "12", "13", "14", "15", "18"], "queries": {"click": {"edge": {"target": [], "time": []}, "state": {"target": [], "time": []}}, "mouseout": {"edge": {"target": [], "time": []}, "state": {"target": ["0"], "time": [2935]}}, "mouseover": {"edge": {"target": [], "time": []}, "state": {"target": [], "time": []}}}, "revealed_states": [], "rewards": [2, -2, 2, 13, -20], "rt": [2948, 303, 414, 441, 280], "score": -5, "simulationMode": [null, null, null, null, null], "stateRewards": ["", 2, -1, 8, -2, -16, 69, -39, -7, -13, -27, -86, 2, -2, 2, 13, -34, -16, -20, -5, 19, 81, 32, -2, -1, 2, -14, 20, 80, 58, 4, 70, 12, 73], "time_elapsed": 310936, "trialIndex": 9, "trialTime": 32150, "trial_id": "mdp_trial_8", "trial_index": 16, "trial_type": "mouselab-mdp", "withholdReward": false}, "uniqueid": "w85534180:a36018864"}, {"current_trial": 71, "dateTime": 1691487468234, "trialdata": {"actionTimes": [5785, 6572, 7487, 8489, 10906], "actions": ["left", "left", "left", "down", "left"], "block": "test", "clicked_states": [], "costs": 0, "displayed_time": "18.55", "internal_node_id": "0.0-4.0-1.0-8.0", "num_clicks_accrued": [0, 0, 0, 0, 0, 0, 0, 0, 0, 0, 0, 0, 0], "path": ["0", "0", "23", "24", "25", "30", "33"], "queries": {"click": {"edge": {"target": [], "time": []}, "state": {"target": [], "time": []}}, "mouseout": {"edge": {"target": [], "time": []}, "state": {"target": [], "time": []}}, "mouseover": {"edge": {"target": [], "time": []}, "state": {"target": [], "time": []}}}, "revealed_states": [], "rewards": [1, -2, 8, 6, -3], "rt": [2258, 223, 361, 424, 1808], "score": 10, "simulationMode": [null, null, null, null, null], "stateRewards": ["", 1, -2, -8, -13, 4, 34, -84, -4, -49, 88, -70, -1, 3, -4, 10, -77, 13, -34, 15, -21, -16, 27, 1, -2, 8, -8, -6, 38, -26, 6, -15, 66, -3], "time_elapsed": 333927, "trialIndex": 10, "trialTime": 21760, "trial_id": "mdp_trial_9", "trial_index": 17, "trial_type": "mouselab-mdp", "withholdReward": false}, "uniqueid": "w85534180:a36018864"}, {"current_trial": 72, "dateTime": 1691487498651, "trialdata": {"actionTimes": [9379, 10201, 11095, 12214, 13238], "actions": ["right", "right", "right", "down", "left"], "block": "test", "clicked_states": [], "costs": 0, "displayed_time": "22.19", "internal_node_id": "0.0-4.0-1.0-9.0", "num_clicks_accrued": [0, 0, 0, 0, 0, 0, 0, 0, 0, 0, 0, 0, 0], "path": ["0", "0", "12", "13", "14", "19", "22"], "queries": {"click": {"edge": {"target": [], "time": []}, "state": {"target": [], "time": []}}, "mouseout": {"edge": {"target": [], "time": []}, "state": {"target": [], "time": []}}, "mouseover": {"edge": {"target": [], "time": []}, "state": {"target": [], "time": []}}}, "revealed_states": [], "rewards": [-1, 4, 4, 15, 13], "rt": [2065, 178, 256, 525, 440], "score": 35, "simulationMode": [null, null, null, null, null], "stateRewards": ["", -1, 1, 6, -6, 70, 66, 67, -16, -75, -35, 37, -1, 4, 4, -6, 47, -9, 63, 15, 21, -63, 13, 1, 3, -6, 10, 79, -29, 18, -15, 9, -67, -19], "time_elapsed": 364342, "trialIndex": 11, "trialTime": 29095, "trial_id": "mdp_trial_10", "trial_index": 18, "trial_type": "mouselab-mdp", "withholdReward": false}, "uniqueid": "w85534180:a36018864"}, {"current_trial": 73, "dateTime": 1691487522278, "trialdata": {"actionTimes": [7742, 8431, 9240, 10304, 11057], "actions": ["up", "up", "up", "right", "down"], "block": "test", "clicked_states": [], "costs": 0, "displayed_time": "20.87", "internal_node_id": "0.0-4.0-1.0-10.0", "num_clicks_accrued": [0, 0, 0, 0, 0, 0, 0, 0, 0, 0, 0, 0, 0], "path": ["0", "0", "1", "2", "3", "4", "7"], "queries": {"click": {"edge": {"target": [], "time": []}, "state": {"target": [], "time": []}}, "mouseout": {"edge": {"target": [], "time": []}, "state": {"target": ["0"], "time": [1745]}}, "mouseover": {"edge": {"target": [], "time": []}, "state": {"target": [], "time": []}}}, "revealed_states": [], "rewards": [-1, 2, 5, -6, -47], "rt": [1521, 48, 175, 417, 144], "score": -47, "simulationMode": [null, null, null, null, null], "stateRewards": ["", -1, 2, 5, -6, 13, -64, -47, 8, -79, -80, -33, 1, 2, -2, -16, 56, -71, -10, 3, 29, 44, 85, -1, 4, 5, 4, -36, -56, 19, 8, 52, -13, -2], "time_elapsed": 387963, "trialIndex": 12, "trialTime": 21604, "trial_id": "mdp_trial_11", "trial_index": 19, "trial_type": "mouselab-mdp", "withholdReward": false}, "uniqueid": "w85534180:a36018864"}, {"current_trial": 74, "dateTime": 1691487550646, "trialdata": {"actionTimes": [7728, 8604, 12113, 13163, 14072], "actions": ["up", "up", "up", "left", "up"], "block": "test", "clicked_states": [], "costs": 0, "displayed_time": "20.80", "internal_node_id": "0.0-4.0-1.0-11.0", "num_clicks_accrued": [0, 0, 0, 0, 0, 0, 0, 0, 0, 0, 0, 0, 0], "path": ["0", "0", "1", "2", "3", "8", "9"], "queries": {"click": {"edge": {"target": [], "time": []}, "state": {"target": [], "time": []}}, "mouseout": {"edge": {"target": [], "time": []}, "state": {"target": [], "time": []}}, "mouseover": {"edge": {"target": [], "time": []}, "state": {"target": [], "time": []}}}, "revealed_states": [], "rewards": [1, 2, -3, -7, -80], "rt": [1950, 284, 2955, 468, 327], "score": -87, "simulationMode": [null, null, null, null, null], "stateRewards": ["", 1, 2, -3, -6, 50, -7, 7, -7, -80, 21, -1, 2, 2, 4, -1, 33, 84, 1, 14, -53, 81, 6, -2, -2, -3, -9, -87, -38, -59, -5, -74, -3, -71], "time_elapsed": 416339, "trialIndex": 13, "trialTime": 27252, "trial_id": "mdp_trial_12", "trial_index": 20, "trial_type": "mouselab-mdp", "withholdReward": false}, "uniqueid": "w85534180:a36018864"}, {"current_trial": 75, "dateTime": 1691487578167, "trialdata": {"actionTimes": [9791, 10769, 11575, 12626, 13513], "actions": ["up", "up", "up", "right", "down"], "block": "test", "clicked_states": [], "costs": 0, "displayed_time": "22.46", "internal_node_id": "0.0-4.0-1.0-12.0", "num_clicks_accrued": [0, 0, 0, 0, 0, 0, 0, 0, 0, 0, 0, 0, 0], "path": ["0", "0", "1", "2", "3", "4", "7"], "queries": {"click": {"edge": {"target": [], "time": []}, "state": {"target": [], "time": []}}, "mouseout": {"edge": {"target": [], "time": []}, "state": {"target": ["0"], "time": [6786]}}, "mouseover": {"edge": {"target": [], "time": []}, "state": {"target": [], "time": []}}}, "revealed_states": [], "rewards": [-2, -3, -6, -7, 65], "rt": [2210, 430, 60, 449, 294], "score": 47, "simulationMode": [null, null, null, null, null], "stateRewards": ["", -2, -3, -6, -7, 9, 16, 65, 5, -41, 20, -25, -1, -4, 1, -11, -49, -4, 71, 1, 39, -62, 52, -2, -3, 7, -9, -28, -70, 84, 8, 24, -58, 82], "time_elapsed": 443856, "trialIndex": 14, "trialTime": 26430, "trial_id": "mdp_trial_13", "trial_index": 21, "trial_type": "mouselab-mdp", "withholdReward": false}, "uniqueid": "w85534180:a36018864"}, {"current_trial": 76, "dateTime": 1691487597946, "trialdata": {"actionTimes": [3631, 4279, 5240, 6606, 7358], "actions": ["left", "left", "left", "up", "left"], "block": "test", "clicked_states": [], "costs": 0, "displayed_time": "17.43", "internal_node_id": "0.0-4.0-1.0-13.0", "num_clicks_accrued": [0, 0, 0, 0, 0, 0, 0, 0, 0, 0, 0, 0, 0], "path": ["0", "0", "23", "24", "25", "26", "29"], "queries": {"click": {"edge": {"target": [], "time": []}, "state": {"target": [], "time": []}}, "mouseout": {"edge": {"target": [], "time": []}, "state": {"target": ["0"], "time": [803]}}, "mouseover": {"edge": {"target": [], "time": []}, "state": {"target": [], "time": []}}}, "revealed_states": [], "rewards": [-1, 1, 7, 6, -85], "rt": [1582, 56, 7, 346, 126], "score": -72, "simulationMode": [null, null, null, null, null], "stateRewards": ["", -2, -3, 7, -13, 60, 9, 37, -6, 37, 20, 1, 2, -2, -8, 6, -80, -31, -10, -7, 70, -65, -44, -1, 1, 7, 6, -11, 73, -85, 16, -21, 47, 34], "time_elapsed": 463638, "trialIndex": 15, "trialTime": 18114, "trial_id": "mdp_trial_14", "trial_index": 22, "trial_type": "mouselab-mdp", "withholdReward": false}, "uniqueid": "w85534180:a36018864"}, {"current_trial": 77, "dateTime": 1691487624046, "trialdata": {"actionTimes": [5073, 5942, 6876, 8383, 9842], "actions": ["up", "up", "up", "left", "down"], "block": "test", "clicked_states": [], "costs": 0, "displayed_time": "17.42", "internal_node_id": "0.0-4.0-1.0-14.0", "num_clicks_accrued": [0, 0, 0, 0, 0, 0, 0, 0, 0, 0, 0, 0, 0], "path": ["0", "0", "1", "2", "3", "8", "10"], "queries": {"click": {"edge": {"target": [], "time": []}, "state": {"target": [], "time": []}}, "mouseout": {"edge": {"target": [], "time": []}, "state": {"target": [], "time": []}}, "mouseover": {"edge": {"target": [], "time": []}, "state": {"target": [], "time": []}}}, "revealed_states": [], "rewards": [-2, -2, -3, -12, -76], "rt": [2373, 294, 347, 817, 804], "score": -95, "simulationMode": [null, null, null, null, null], "stateRewards": ["", -2, -2, -3, -6, -15, -11, 41, -12, -63, -76, 2, -2, -3, 8, 9, -36, -2, -18, -16, -32, -85, -17, -2, 1, 5, -16, 82, 35, -88, -1, 80, -82, -20], "time_elapsed": 489740, "trialIndex": 16, "trialTime": 24968, "trial_id": "mdp_trial_15", "trial_index": 23, "trial_type": "mouselab-mdp", "withholdReward": false}, "uniqueid": "w85534180:a36018864"}, {"current_trial": 78, "dateTime": 1691487654550, "trialdata": {"actionTimes": [12388, 13304, 15342, 16642, 17415], "actions": ["left", "left", "left", "up", "right"], "block": "test", "clicked_states": [], "costs": 0, "displayed_time": "24.36", "internal_node_id": "0.0-4.0-1.0-15.0", "num_clicks_accrued": [0, 0, 0, 0, 0, 0, 0, 0, 0, 0, 0, 0, 0], "path": ["0", "0", "23", "24", "25", "26", "28"], "queries": {"click": {"edge": {"target": [], "time": []}, "state": {"target": [], "time": []}}, "mouseout": {"edge": {"target": [], "time": []}, "state": {"target": ["0"], "time": [9043]}}, "mouseover": {"edge": {"target": [], "time": []}, "state": {"target": [], "time": []}}}, "revealed_states": [], "rewards": [-1, -1, -5, 5, -71], "rt": [2456, 379, 1445, 682, 175], "score": -73, "simulationMode": [null, null, null, null, null], "stateRewards": ["", 1, 1, 5, 6, -29, -7, 3, -16, 9, -46, 65, -1, 4, -1, -16, -63, -77, -87, 8, 80, -50, 43, -1, -1, -5, 5, -38, -71, -62, 9, 81, -50, -52], "time_elapsed": 520245, "trialIndex": 17, "trialTime": 29420, "trial_id": "mdp_trial_16", "trial_index": 24, "trial_type": "mouselab-mdp", "withholdReward": false}, "uniqueid": "w85534180:a36018864"}, {"current_trial": 79, "dateTime": 1691487675769, "trialdata": {"actionTimes": [6948, 7812, 9020, 9986, 10870], "actions": ["up", "up", "up", "left", "down"], "block": "test", "clicked_states": [], "costs": 0, "displayed_time": "19.32", "internal_node_id": "0.0-4.0-1.0-16.0", "num_clicks_accrued": [0, 0, 0, 0, 0, 0, 0, 0, 0, 0, 0, 0, 0], "path": ["0", "0", "1", "2", "3", "8", "10"], "queries": {"click": {"edge": {"target": [], "time": []}, "state": {"target": [], "time": []}}, "mouseout": {"edge": {"target": [], "time": []}, "state": {"target": ["0"], "time": [3910]}}, "mouseover": {"edge": {"target": [], "time": []}, "state": {"target": [], "time": []}}}, "revealed_states": [], "rewards": [-1, 2, -6, -16, 11], "rt": [2176, 286, 512, 377, 242], "score": -10, "simulationMode": [null, null, null, null, null], "stateRewards": ["", -1, 2, -6, 6, -82, -19, -39, -16, -83, 11, -33, -2, -2, 4, -6, -82, -1, -19, -6, -10, -67, -41, -2, 1, -7, 16, -23, -78, -52, 14, 31, -71, 74], "time_elapsed": 541463, "trialIndex": 18, "trialTime": 20071, "trial_id": "mdp_trial_17", "trial_index": 25, "trial_type": "mouselab-mdp", "withholdReward": false}, "uniqueid": "w85534180:a36018864"}, {"current_trial": 80, "dateTime": 1691487696814, "trialdata": {"actionTimes": [6377, 7258, 8487, 10314, 11709], "actions": ["left", "left", "left", "down", "left"], "block": "test", "clicked_states": [], "costs": 0, "displayed_time": "18.55", "internal_node_id": "0.0-4.0-1.0-17.0", "num_clicks_accrued": [0, 0, 0, 0, 0, 0, 0, 0, 0, 0, 0, 0, 0], "path": ["0", "0", "23", "24", "25", "30", "33"], "queries": {"click": {"edge": {"target": [], "time": []}, "state": {"target": [], "time": []}}, "mouseout": {"edge": {"target": [], "time": []}, "state": {"target": ["0"], "time": [3317]}}, "mouseover": {"edge": {"target": [], "time": []}, "state": {"target": [], "time": []}}}, "revealed_states": [], "rewards": [2, 4, 4, 14, -46], "rt": [2282, 309, 645, 1221, 795], "score": -22, "simulationMode": [null, null, null, null, null], "stateRewards": ["", -2, 3, -1, -9, 44, 48, -37, -3, 71, -39, 87, -1, 3, -4, 4, -21, 59, -15, -8, -1, 28, -38, 2, 4, 4, 8, -85, -72, -63, 14, 58, 63, -46], "time_elapsed": 562505, "trialIndex": 19, "trialTime": 19248, "trial_id": "mdp_trial_18", "trial_index": 26, "trial_type": "mouselab-mdp", "withholdReward": false}, "uniqueid": "w85534180:a36018864"}, {"current_trial": 81, "dateTime": 1691487716404, "trialdata": {"actionTimes": [3450, 4513, 5455, 6695, 7678], "actions": ["up", "up", "up", "right", "down"], "block": "test", "clicked_states": [], "costs": 0, "displayed_time": "17.58", "internal_node_id": "0.0-4.0-1.0-18.0", "num_clicks_accrued": [0, 0, 0, 0, 0, 0, 0, 0, 0, 0, 0, 0, 0], "path": ["0", "0", "1", "2", "3", "4", "7"], "queries": {"click": {"edge": {"target": [], "time": []}, "state": {"target": [], "time": []}}, "mouseout": {"edge": {"target": [], "time": []}, "state": {"target": ["0"], "time": [1560]}}, "mouseover": {"edge": {"target": [], "time": []}, "state": {"target": [], "time": []}}}, "revealed_states": [], "rewards": [-2, 2, -5, 1, -58], "rt": [1071, 351, 378, 667, 341], "score": -62, "simulationMode": [null, null, null, null, null], "stateRewards": ["", -2, 2, -5, 1, 42, -63, -58, -6, 2, 16, 81, -2, 4, 7, -10, 33, 3, -33, -2, -52, -84, -27, 2, -3, -3, 15, -74, -14, -5, -5, -84, 79, -31], "time_elapsed": 582093, "trialIndex": 20, "trialTime": 18254, "trial_id": "mdp_trial_19", "trial_index": 27, "trial_type": "mouselab-mdp", "withholdReward": false}, "uniqueid": "w85534180:a36018864"}, {"current_trial": 82, "dateTime": 1691487743041, "trialdata": {"actionTimes": [9389, 10915, 11928, 13422, 14893], "actions": ["left", "left", "left", "down", "left"], "block": "test", "clicked_states": [], "costs": 0, "displayed_time": "22.53", "internal_node_id": "0.0-4.0-1.0-19.0", "num_clicks_accrued": [0, 0, 0, 0, 0, 0, 0, 0, 0, 0, 0, 0, 0], "path": ["0", "0", "23", "24", "25", "30", "33"], "queries": {"click": {"edge": {"target": [], "time": []}, "state": {"target": [], "time": []}}, "mouseout": {"edge": {"target": [], "time": []}, "state": {"target": ["0"], "time": [5644]}}, "mouseover": {"edge": {"target": [], "time": []}, "state": {"target": [], "time": []}}}, "revealed_states": [], "rewards": [1, -4, -5, 13, -13], "rt": [2461, 835, 427, 814, 762], "score": -8, "simulationMode": [null, null, null, null, null], "stateRewards": ["", 1, 4, -8, -13, -13, -87, -77, -10, -44, 54, 42, 2, -3, -4, 12, -9, -80, 52, 9, 84, -2, -65, 1, -4, -5, -6, 8, 80, 32, 13, -59, -5, -13], "time_elapsed": 608734, "trialIndex": 21, "trialTime": 24483, "trial_id": "mdp_trial_20", "trial_index": 28, "trial_type": "mouselab-mdp", "withholdReward": false}, "uniqueid": "w85534180:a36018864"}, {"current_trial": 83, "dateTime": 1691487768688, "trialdata": {"actionTimes": [8466, 9320, 10829, 12174, 13673], "actions": ["right", "right", "right", "down", "left"], "block": "test", "clicked_states": [], "costs": 0, "displayed_time": "17.57", "internal_node_id": "0.0-4.0-1.0-20.0", "num_clicks_accrued": [0, 0, 0, 0, 0, 0, 0, 0, 0, 0, 0, 0, 0], "path": ["0", "0", "12", "13", "14", "19", "22"], "queries": {"click": {"edge": {"target": [], "time": []}, "state": {"target": [], "time": []}}, "mouseout": {"edge": {"target": [], "time": []}, "state": {"target": ["0"], "time": [1904]}}, "mouseover": {"edge": {"target": [], "time": []}, "state": {"target": [], "time": []}}}, "revealed_states": [], "rewards": [-1, -3, -6, 5, 61], "rt": [5783, 254, 921, 757, 907], "score": 56, "simulationMode": [null, null, null, null, null], "stateRewards": ["", 1, -4, -4, 8, 1, -79, 68, -10, -79, 8, -74, -1, -3, -6, 14, 43, 23, 9, 5, -51, 63, 61, -2, 4, 6, -10, 69, -32, 57, 15, -80, -80, -77], "time_elapsed": 634378, "trialIndex": 22, "trialTime": 24351, "trial_id": "mdp_trial_21", "trial_index": 29, "trial_type": "mouselab-mdp", "withholdReward": false}, "uniqueid": "w85534180:a36018864"}, {"current_trial": 84, "dateTime": 1691487800555, "trialdata": {"actionTimes": [10803, 11815, 13159, 14386, 15327], "actions": ["up", "up", "up", "left", "up"], "block": "test", "clicked_states": [], "costs": 0, "displayed_time": "25.28", "internal_node_id": "0.0-4.0-1.0-21.0", "num_clicks_accrued": [0, 0, 0, 0, 0, 0, 0, 0, 0, 0, 0, 0, 0], "path": ["0", "0", "1", "2", "3", "8", "9"], "queries": {"click": {"edge": {"target": [], "time": []}, "state": {"target": [], "time": []}}, "mouseout": {"edge": {"target": [], "time": []}, "state": {"target": ["0"], "time": [6080]}}, "mouseover": {"edge": {"target": [], "time": []}, "state": {"target": [], "time": []}}}, "revealed_states": [], "rewards": [2, -3, 5, -9, -78], "rt": [2941, 20, 642, 525, 246], "score": -83, "simulationMode": [null, null, null, null, null], "stateRewards": ["", 2, -3, 5, 11, -79, 54, 11, -9, -78, 33, 22, -2, -1, 2, 14, 43, 34, 1, 10, 49, -65, 39, -1, 1, -1, 3, -16, -2, 11, 2, 12, 48, -65], "time_elapsed": 666240, "trialIndex": 23, "trialTime": 29124, "trial_id": "mdp_trial_22", "trial_index": 30, "trial_type": "mouselab-mdp", "withholdReward": false}, "uniqueid": "w85534180:a36018864"}, {"current_trial": 85, "dateTime": 1691487825199, "trialdata": {"actionTimes": [7115, 7846, 8899, 9843, 10775], "actions": ["right", "right", "right", "down", "left"], "block": "test", "clicked_states": [], "costs": 0, "displayed_time": "19.83", "internal_node_id": "0.0-4.0-1.0-22.0", "num_clicks_accrued": [0, 0, 0, 0, 0, 0, 0, 0, 0, 0, 0, 0, 0], "path": ["0", "0", "12", "13", "14", "19", "22"], "queries": {"click": {"edge": {"target": [], "time": []}, "state": {"target": [], "time": []}}, "mouseout": {"edge": {"target": [], "time": []}, "state": {"target": ["0"], "time": [3036]}}, "mouseover": {"edge": {"target": [], "time": []}, "state": {"target": [], "time": []}}}, "revealed_states": [], "rewards": [2, 1, -2, 16, -66], "rt": [2119, 118, 421, 260, 356], "score": -49, "simulationMode": [null, null, null, null, null], "stateRewards": ["", -2, -3, 8, 14, -73, 73, 84, -12, -2, -50, -17, 2, 1, -2, -9, -44, -27, -33, 16, -63, -47, -66, -2, 1, 4, -5, -33, -11, 50, 9, 38, -79, 31], "time_elapsed": 690890, "trialIndex": 24, "trialTime": 22061, "trial_id": "mdp_trial_23", "trial_index": 31, "trial_type": "mouselab-mdp", "withholdReward": false}, "uniqueid": "w85534180:a36018864"}, {"current_trial": 86, "dateTime": 1691487852098, "trialdata": {"actionTimes": [11068, 11798, 12737, 13796, 14531], "actions": ["up", "up", "up", "right", "right"], "block": "test", "clicked_states": [], "costs": 0, "displayed_time": "25.19", "internal_node_id": "0.0-4.0-1.0-23.0", "num_clicks_accrued": [0, 0, 0, 0, 0, 0, 0, 0, 0, 0, 0, 0, 0], "path": ["0", "0", "1", "2", "3", "4", "6"], "queries": {"click": {"edge": {"target": [], "time": []}, "state": {"target": [], "time": []}}, "mouseout": {"edge": {"target": [], "time": []}, "state": {"target": ["0"], "time": [8970]}}, "mouseover": {"edge": {"target": [], "time": []}, "state": {"target": [], "time": []}}}, "revealed_states": [], "rewards": [1, 2, 7, 13, -71], "rt": [643, 138, 311, 443, 191], "score": -48, "simulationMode": [null, null, null, null, null], "stateRewards": ["", 1, 2, 7, 13, 88, -71, 27, 3, 60, 5, -53, -2, 2, -6, -1, -30, 79, 47, -4, -14, 46, 68, 1, 1, 8, 10, -14, 86, 48, -11, -67, -44, 5], "time_elapsed": 717787, "trialIndex": 25, "trialTime": 25731, "trial_id": "mdp_trial_24", "trial_index": 32, "trial_type": "mouselab-mdp", "withholdReward": false}, "uniqueid": "w85534180:a36018864"}, {"current_trial": 87, "dateTime": 1691487872686, "trialdata": {"actionTimes": [5151, 6067, 7292, 8091, 9152], "actions": ["right", "right", "right", "down", "left"], "block": "test", "clicked_states": [], "costs": 0, "displayed_time": "18.20", "internal_node_id": "0.0-4.0-1.0-24.0", "num_clicks_accrued": [0, 0, 0, 0, 0, 0, 0, 0, 0, 0, 0, 0, 0], "path": ["0", "0", "12", "13", "14", "19", "22"], "queries": {"click": {"edge": {"target": [], "time": []}, "state": {"target": [], "time": []}}, "mouseout": {"edge": {"target": [], "time": []}, "state": {"target": [], "time": []}}, "mouseover": {"edge": {"target": [], "time": []}, "state": {"target": [], "time": []}}}, "revealed_states": [], "rewards": [-1, -2, -7, -4, 36], "rt": [1668, 294, 641, 186, 474], "score": 22, "simulationMode": [null, null, null, null, null], "stateRewards": ["", -1, 3, 8, 9, -53, 20, -84, 2, -28, -62, -31, -1, -2, -7, 2, 51, 58, 45, -4, -17, -41, 36, 2, -2, -7, -15, 29, -54, -37, -16, -43, 65, -17], "time_elapsed": 738379, "trialIndex": 26, "trialTime": 19199, "trial_id": "mdp_trial_25", "trial_index": 33, "trial_type": "mouselab-mdp", "withholdReward": false}, "uniqueid": "w85534180:a36018864"}, {"current_trial": 88, "dateTime": 1691487891980, "trialdata": {"actionTimes": [4959, 5820, 6696, 7678, 8704], "actions": ["left", "left", "left", "down", "right"], "block": "test", "clicked_states": [], "costs": 0, "displayed_time": "17.63", "internal_node_id": "0.0-4.0-1.0-25.0", "num_clicks_accrued": [0, 0, 0, 0, 0, 0, 0, 0, 0, 0, 0, 0, 0], "path": ["0", "0", "23", "24", "25", "30", "31"], "queries": {"click": {"edge": {"target": [], "time": []}, "state": {"target": [], "time": []}}, "mouseout": {"edge": {"target": [], "time": []}, "state": {"target": [], "time": []}}, "mouseover": {"edge": {"target": [], "time": []}, "state": {"target": [], "time": []}}}, "revealed_states": [], "rewards": [1, 3, 4, 2, 10], "rt": [2243, 315, 268, 428, 490], "score": 20, "simulationMode": [null, null, null, null, null], "stateRewards": ["", -2, 1, 6, -2, -10, -78, -69, 14, -15, 7, -1, 1, -1, -2, 13, 77, 32, 87, 5, -74, 30, -26, 1, 3, 4, 12, 39, 54, -43, 2, 10, 23, 13], "time_elapsed": 757672, "trialIndex": 27, "trialTime": 18108, "trial_id": "mdp_trial_26", "trial_index": 34, "trial_type": "mouselab-mdp", "withholdReward": false}, "uniqueid": "w85534180:a36018864"}, {"current_trial": 89, "dateTime": 1691487913292, "trialdata": {"actionTimes": [4099, 4882, 5648, 6870, 7853], "actions": ["up", "up", "up", "left", "down"], "block": "test", "clicked_states": [], "costs": 0, "displayed_time": "17.61", "internal_node_id": "0.0-4.0-1.0-26.0", "num_clicks_accrued": [0, 0, 0, 0, 0, 0, 0, 0, 0, 0, 0, 0, 0], "path": ["0", "0", "1", "2", "3", "8", "10"], "queries": {"click": {"edge": {"target": [], "time": []}, "state": {"target": [], "time": []}}, "mouseout": {"edge": {"target": [], "time": []}, "state": {"target": [], "time": []}}, "mouseover": {"edge": {"target": [], "time": []}, "state": {"target": [], "time": []}}}, "revealed_states": [], "rewards": [2, 3, 6, -12, 44], "rt": [1377, 142, 184, 576, 317], "score": 43, "simulationMode": [null, null, null, null, null], "stateRewards": ["", 2, 3, 6, -5, -74, -53, 17, -12, 46, 44, 18, -2, 4, 1, -8, 22, -23, -49, 9, -45, 55, 81, 1, -1, -7, -16, -83, -71, -45, 2, 51, 82, 61], "time_elapsed": 778987, "trialIndex": 28, "trialTime": 18203, "trial_id": "mdp_trial_27", "trial_index": 35, "trial_type": "mouselab-mdp", "withholdReward": false}, "uniqueid": "w85534180:a36018864"}, {"current_trial": 90, "dateTime": 1691487932351, "trialdata": {"actionTimes": [4020, 4707, 5808, 6646, 7337], "actions": ["left", "left", "left", "up", "right"], "block": "test", "clicked_states": [], "costs": 0, "displayed_time": "17.10", "internal_node_id": "0.0-4.0-1.0-27.0", "num_clicks_accrued": [0, 0, 0, 0, 0, 0, 0, 0, 0, 0, 0, 0, 0], "path": ["0", "0", "23", "24", "25", "26", "28"], "queries": {"click": {"edge": {"target": [], "time": []}, "state": {"target": [], "time": []}}, "mouseout": {"edge": {"target": [], "time": []}, "state": {"target": [], "time": []}}, "mouseover": {"edge": {"target": [], "time": []}, "state": {"target": [], "time": []}}}, "revealed_states": [], "rewards": [2, -1, 5, 16, 73], "rt": [1744, 72, 505, 248, 136], "score": 95, "simulationMode": [null, null, null, null, null], "stateRewards": ["", 1, 4, -4, 14, 35, 51, 19, -13, 54, 78, -74, -2, -1, -3, 13, -11, -42, -73, -15, -24, -3, -69, 2, -1, 5, 16, -27, 73, 58, 9, -60, 5, -60], "time_elapsed": 798045, "trialIndex": 29, "trialTime": 17474, "trial_id": "mdp_trial_28", "trial_index": 36, "trial_type": "mouselab-mdp", "withholdReward": false}, "uniqueid": "w85534180:a36018864"}, {"current_trial": 91, "dateTime": 1691487953046, "trialdata": {"actionTimes": [3437, 4208, 5410, 6336, 7068], "actions": ["right", "right", "right", "up", "right"], "block": "test", "clicked_states": [], "costs": 0, "displayed_time": "17.63", "internal_node_id": "0.0-4.0-1.0-28.0", "num_clicks_accrued": [0, 0, 0, 0, 0, 0, 0, 0, 0, 0, 0, 0, 0], "path": ["0", "0", "12", "13", "14", "15", "17"], "queries": {"click": {"edge": {"target": [], "time": []}, "state": {"target": [], "time": []}}, "mouseout": {"edge": {"target": [], "time": []}, "state": {"target": [], "time": []}}, "mouseover": {"edge": {"target": [], "time": []}, "state": {"target": [], "time": []}}}, "revealed_states": [], "rewards": [-1, 2, 3, 13, 61], "rt": [868, 142, 353, 351, 164], "score": 78, "simulationMode": [null, null, null, null, null], "stateRewards": ["", -1, -3, -5, -14, -13, -47, 79, 8, -60, -64, 41, -1, 2, 3, 13, -46, 61, -79, -11, -64, -65, 23, 1, -2, 6, -14, 46, 32, 21, 7, 75, -66, 15], "time_elapsed": 818729, "trialIndex": 30, "trialTime": 19525, "trial_id": "mdp_trial_29", "trial_index": 37, "trial_type": "mouselab-mdp", "withholdReward": false}, "uniqueid": "w85534180:a36018864"}, {"current_trial": 92, "dateTime": 1691487976201, "trialdata": {"actionTimes": [3604, 5059, 5989, 7572, 9369], "actions": ["right", "right", "right", "down", "down"], "block": "test", "clicked_states": [], "costs": 0, "displayed_time": "18.38", "internal_node_id": "0.0-4.0-1.0-29.0", "num_clicks_accrued": [0, 0, 0, 0, 0, 0, 0, 0, 0, 0, 0, 0, 0], "path": ["0", "0", "12", "13", "14", "19", "21"], "queries": {"click": {"edge": {"target": [], "time": []}, "state": {"target": [], "time": []}}, "mouseout": {"edge": {"target": [], "time": []}, "state": {"target": [], "time": []}}, "mouseover": {"edge": {"target": [], "time": []}, "state": {"target": [], "time": []}}}, "revealed_states": [], "rewards": [-2, 4, -8, -12, 63], "rt": [1735, 38, 72, 893, 1225], "score": 45, "simulationMode": [null, null, null, null, null], "stateRewards": ["", 2, -1, -1, 7, 11, -40, -22, -2, 69, 37, 8, -2, 4, -8, -12, -2, -72, -3, -12, 17, 63, 12, 1, 3, -7, 6, 25, 61, 61, -9, 28, -17, 27], "time_elapsed": 841894, "trialIndex": 31, "trialTime": 21551, "trial_id": "mdp_trial_30", "trial_index": 38, "trial_type": "mouselab-mdp", "withholdReward": false}, "uniqueid": "w85534180:a36018864"}, {"current_trial": 93, "dateTime": 1691488014064, "trialdata": {"actionTimes": [4198, 6100, 6942, 7786, 8639], "actions": ["up", "up", "up", "right", "up"], "block": "test", "clicked_states": [], "costs": 0, "displayed_time": "17.57", "internal_node_id": "0.0-4.0-1.0-30.0", "num_clicks_accrued": [0, 0, 0, 0, 0, 0, 0, 0, 0, 0, 0, 0, 0], "path": ["0", "0", "1", "2", "3", "4", "5"], "queries": {"click": {"edge": {"target": [], "time": []}, "state": {"target": [], "time": []}}, "mouseout": {"edge": {"target": [], "time": []}, "state": {"target": ["0", "23", "0"], "time": [450, 664, 2541]}}, "mouseover": {"edge": {"target": [], "time": []}, "state": {"target": [], "time": []}}}, "revealed_states": [], "rewards": [-1, -4, -3, 1, -45], "rt": [1710, 1244, 203, 218, 284], "score": -52, "simulationMode": [null, null, null, null, null], "stateRewards": ["", -1, -4, -3, 1, -45, -67, -24, 14, 32, 22, 22, -1, 1, -5, -7, 72, 84, -79, -5, 19, -40, -2, -1, -2, 8, -3, 84, -25, -28, 11, 64, -66, 77], "time_elapsed": 879757, "trialIndex": 32, "trialTime": 35932, "trial_id": "mdp_trial_31", "trial_index": 39, "trial_type": "mouselab-mdp", "withholdReward": false}, "uniqueid": "w85534180:a36018864"}, {"current_trial": 94, "dateTime": 1691488034026, "trialdata": {"actionTimes": [3598, 4557, 5560, 6459, 7421], "actions": ["right", "right", "right", "up", "left"], "block": "test", "clicked_states": [], "costs": 0, "displayed_time": "16.40", "internal_node_id": "0.0-4.0-1.0-31.0", "num_clicks_accrued": [0, 0, 0, 0, 0, 0, 0, 0, 0, 0, 0, 0, 0], "path": ["0", "0", "12", "13", "14", "15", "18"], "queries": {"click": {"edge": {"target": [], "time": []}, "state": {"target": [], "time": []}}, "mouseout": {"edge": {"target": [], "time": []}, "state": {"target": ["0"], "time": [1340]}}, "mouseover": {"edge": {"target": [], "time": []}, "state": {"target": [], "time": []}}}, "revealed_states": [], "rewards": [2, -2, 7, 8, 12], "rt": [1465, 381, 269, 299, 394], "score": 27, "simulationMode": [null, null, null, null, null], "stateRewards": ["", -2, 3, 8, -9, 59, 41, -50, -1, 82, 66, 33, 2, -2, 7, 8, 1, -38, 12, -16, 24, -37, 67, 1, 4, -2, 5, 35, -83, 28, 8, -27, 69, -64], "time_elapsed": 899719, "trialIndex": 33, "trialTime": 18415, "trial_id": "mdp_trial_32", "trial_index": 40, "trial_type": "mouselab-mdp", "withholdReward": false}, "uniqueid": "w85534180:a36018864"}, {"current_trial": 95, "dateTime": 1691488056157, "trialdata": {"actionTimes": [8227, 9031, 9885, 11203, 12005], "actions": ["left", "left", "left", "up", "right"], "block": "test", "clicked_states": [], "costs": 0, "displayed_time": "19.06", "internal_node_id": "0.0-4.0-1.0-32.0", "num_clicks_accrued": [0, 0, 0, 0, 0, 0, 0, 0, 0, 0, 0, 0, 0], "path": ["0", "0", "23", "24", "25", "26", "28"], "queries": {"click": {"edge": {"target": [], "time": []}, "state":