{"condition": 1, "counterbalance": 0, "assignmentId": "a82492752", "workerId": "w41586610", "hitId": "h27837816", "currenttrial": 68, "bonus": 0, "data": [{"uniqueid": "w41586610:a82492752", "current_trial": 0, "dateTime": 1691070777284, "trialdata": {"success": true, "trial_type": "fullscreen", "trial_index": 0, "time_elapsed": 10135, "internal_node_id": "0.0-0.0"}}, {"uniqueid": "w41586610:a82492752", "current_trial": 1, "dateTime": 1691070793755, "trialdata": {"view_history": [{"page_index": 0, "viewing_time": 16451}], "rt": 16452, "trial_id": "exp_instructions_misaligned", "trial_type": "instructions", "trial_index": 1, "time_elapsed": 26609, "internal_node_id": "0.0-1.0"}}, {"uniqueid": "w41586610:a82492752", "current_trial": 2, "dateTime": 1691070797964, "trialdata": {"success": true, "trial_type": "fullscreen", "trial_index": 2, "time_elapsed": 30818, "internal_node_id": "0.0-2.0-0.0"}}, {"uniqueid": "w41586610:a82492752", "current_trial": 3, "dateTime": 1691070966651, "trialdata": {"view_history": [{"page_index": 0, "viewing_time": 62866}, {"page_index": 1, "viewing_time": 38192}, {"page_index": 2, "viewing_time": 51584}, {"page_index": 3, "viewing_time": 16040}], "rt": 168682, "trial_id": "mouselab_instructions_1_misaligned", "trial_type": "instructions", "trial_index": 3, "time_elapsed": 199505, "internal_node_id": "0.0-2.0-1.0"}}, {"uniqueid": "w41586610:a82492752", "current_trial": 4, "dateTime": 1691071009779, "trialdata": {"revealed_states": [], "clicked_states": ["12", "23"], "num_clicks_accrued": [0, 0, 0, 0, 0, 0, 0, 0, 0, 0, 0, 0, 0], "stateRewards": ["", -10, 10, 10, -10, -10, -10, 10, -10, -10, 10, 10, -10, 10, 10, 10, -10, -10, 10, 10, 10, 10, -10, 10, 10, 10, -10, -10, -10, 10, -10, -10, -10, -10], "withholdReward": false, "trial_id": "practice_1", "block": "test", "trialIndex": 0, "score": -7.5, "costs": -1, "simulationMode": [null, null, null, null, null], "rewards": [-10, 10, 10, -10, -10], "path": ["0", "0", "1", "2", "3", "4", "6"], "rt": [10523, 9387, 482, 767, 185], "actions": ["up", "up", "up", "right", "right"], "actionTimes": [20923, 30825, 31801, 33073, 33753], "queries": {"click": {"state": {"target": ["12", "23"], "time": [15295, 19016]}, "edge": {"target": [], "time": []}}, "mouseover": {"state": {"target": ["0", "12", "13", "12", "0", "23", "24", "23", "23"], "time": [13992, 14153, 14472, 14901, 16733, 16982, 17038, 17770, 18670]}, "edge": {"target": [], "time": []}}, "mouseout": {"state": {"target": ["12", "0", "0", "12", "13", "12", "0", "23", "24", "23", "23"], "time": [8816, 9082, 14031, 14234, 14669, 16716, 16782, 17015, 17555, 18017, 38522]}, "edge": {"target": [], "time": []}}}, "displayed_time": "34.27", "trialTime": 42010, "trial_type": "mouselab-mdp", "trial_index": 4, "time_elapsed": 242630, "internal_node_id": "0.0-2.0-2.0-0.0"}}, {"uniqueid": "w41586610:a82492752", "current_trial": 5, "dateTime": 1691071028181, "trialdata": {"revealed_states": [], "clicked_states": [], "num_clicks_accrued": [0, 0, 0, 0, 0, 0, 0, 0, 0, 0, 0, 0, 0], "stateRewards": ["", 10, 10, 10, 10, 10, 10, 10, -10, 10, 10, -10, -10, 10, -10, -10, 10, 10, 10, 10, 10, 10, 10, -10, -10, 10, 10, -10, 10, 10, 10, 10, 10, -10], "withholdReward": false, "trial_id": "practice_2", "block": "test", "trialIndex": 1, "score": 13.5, "costs": 0, "simulationMode": [null, null, null, null, null], "rewards": [-10, 10, -10, 10, 10], "path": ["0", "0", "12", "13", "14", "19", "20"], "rt": [1566, 1150, 663, 310, 1340], "actions": ["right", "right", "right", "down", "right"], "actionTimes": [8077, 9749, 10908, 11741, 13588], "queries": {"click": {"state": {"target": [], "time": []}, "edge": {"target": [], "time": []}}, "mouseover": {"state": {"target": [], "time": []}, "edge": {"target": [], "time": []}}, "mouseout": {"state": {"target": ["0"], "time": [6047]}, "edge": {"target": [], "time": []}}}, "displayed_time": "14.08", "trialTime": 18061, "trial_type": "mouselab-mdp", "trial_index": 5, "time_elapsed": 261034, "internal_node_id": "0.0-2.0-2.0-1.0"}}, {"uniqueid": "w41586610:a82492752", "current_trial": 6, "dateTime": 1691071055490, "trialdata": {"view_history": [{"page_index": 0, "viewing_time": 17684}, {"page_index": 1, "viewing_time": 9616}], "rt": 27300, "trial_id": "mouselab_instructions_2_misaligned", "trial_type": "instructions", "trial_index": 6, "time_elapsed": 288344, "internal_node_id": "0.0-2.0-3.0"}}, {"uniqueid": "w41586610:a82492752", "current_trial": 7, "dateTime": 1691071106251, "trialdata": {"rt": 50756, "response": {"Q0": "There is no cost for clicking on nodes.", "Q1": "I will receive a $1 bonus if I perform well, otherwise I will receive no bonus.", "Q2": "No, the amount of cash at each node of the web may be different each time.", "Q3": "To get the highest total score.", "Q4": "Any time during the round.", "Q5": "3 seconds"}, "question_order": [0, 1, 2, 3, 4, 5], "correct": {"Q0": "The cost for clicking on nodes may vary between nodes.", "Q1": "The better I perform the higher my bonus will be.", "Q2": "No, the amount of cash at each node of the web may be different each time.", "Q3": "To get the highest total score.", "Q4": "Only before moving the spider.", "Q5": "3 seconds"}, "trial_id": "mouselab_quiz_misaligned", "trial_type": "survey-multi-choice", "trial_index": 7, "time_elapsed": 339105, "internal_node_id": "0.0-2.0-4.0"}}, {"uniqueid": "w41586610:a82492752", "current_trial": 8, "dateTime": 1691071113810, "trialdata": {"success": true, "trial_type": "fullscreen", "trial_index": 8, "time_elapsed": 346664, "internal_node_id": "0.0-2.1-0.1"}}, {"uniqueid": "w41586610:a82492752", "current_trial": 9, "dateTime": 1691071367753, "trialdata": {"view_history": [{"page_index": 0, "viewing_time": 72961}, {"page_index": 1, "viewing_time": 111128}, {"page_index": 0, "viewing_time": 23648}, {"page_index": 1, "viewing_time": 12864}, {"page_index": 2, "viewing_time": 14520}, {"page_index": 3, "viewing_time": 18816}], "rt": 253936, "trial_id": "mouselab_instructions_1_misaligned", "trial_type": "instructions", "trial_index": 9, "time_elapsed": 600607, "internal_node_id": "0.0-2.1-1.1"}}, {"uniqueid": "w41586610:a82492752", "current_trial": 10, "dateTime": 1691071404883, "trialdata": {"revealed_states": [], "clicked_states": [], "num_clicks_accrued": [0, 0, 0, 0, 0, 0, 0, 0, 0, 0, 0, 0, 0], "stateRewards": ["", -10, 10, 10, -10, -10, -10, 10, -10, -10, 10, 10, -10, 10, 10, 10, -10, -10, 10, 10, 10, 10, -10, 10, 10, 10, -10, -10, -10, 10, -10, -10, -10, -10], "withholdReward": false, "trial_id": "practice_1", "block": "test", "trialIndex": 2, "score": 13.5, "costs": 0, "simulationMode": [null, null, null, null, null], "rewards": [10, 10, 10, -10, -10], "path": ["0", "0", "23", "24", "25", "26", "27"], "rt": [1359, 695, 265, 480, 85], "actions": ["left", "left", "left", "up", "up"], "actionTimes": [9215, 10430, 11206, 12198, 12804], "queries": {"click": {"state": {"target": [], "time": []}, "edge": {"target": [], "time": []}}, "mouseover": {"state": {"target": [], "time": []}, "edge": {"target": [], "time": []}}, "mouseout": {"state": {"target": ["0", "23", "23", "0", "12", "13"], "time": [6687, 6767, 6916, 14624, 14645, 14716]}, "edge": {"target": [], "time": []}}}, "displayed_time": "13.30", "trialTime": 36838, "trial_type": "mouselab-mdp", "trial_index": 10, "time_elapsed": 637736, "internal_node_id": "0.0-2.1-2.1-0.1"}}, {"uniqueid": "w41586610:a82492752", "current_trial": 11, "dateTime": 1691071421604, "trialdata": {"revealed_states": [], "clicked_states": [], "num_clicks_accrued": [0, 0, 0, 0, 0, 0, 0, 0, 0, 0, 0, 0, 0], "stateRewards": ["", 10, 10, 10, 10, 10, 10, 10, -10, 10, 10, -10, -10, 10, -10, -10, 10, 10, 10, 10, 10, 10, 10, -10, -10, 10, 10, -10, 10, 10, 10, 10, 10, -10], "withholdReward": false, "trial_id": "practice_2", "block": "test", "trialIndex": 3, "score": -6.5, "costs": 0, "simulationMode": [null, null, null, null, null], "rewards": [-10, 10, -10, -10, 10], "path": ["0", "0", "12", "13", "14", "15", "16"], "rt": [1163, 665, 154, 247, 577], "actions": ["right", "right", "right", "up", "up"], "actionTimes": [5982, 7165, 7829, 8581, 9662], "queries": {"click": {"state": {"target": [], "time": []}, "edge": {"target": [], "time": []}}, "mouseover": {"state": {"target": [], "time": []}, "edge": {"target": [], "time": []}}, "mouseout": {"state": {"target": ["7", "0"], "time": [3917, 15239]}, "edge": {"target": [], "time": []}}}, "displayed_time": "10.17", "trialTime": 16374, "trial_type": "mouselab-mdp", "trial_index": 11, "time_elapsed": 654457, "internal_node_id": "0.0-2.1-2.1-1.1"}}, {"uniqueid": "w41586610:a82492752", "current_trial": 12, "dateTime": 1691071445032, "trialdata": {"view_history": [{"page_index": 0, "viewing_time": 20186}, {"page_index": 1, "viewing_time": 3232}], "rt": 23418, "trial_id": "mouselab_instructions_2_misaligned", "trial_type": "instructions", "trial_index": 12, "time_elapsed": 677886, "internal_node_id": "0.0-2.1-3.1"}}, {"uniqueid": "w41586610:a82492752", "current_trial": 13, "dateTime": 1691071713136, "trialdata": {"rt": 268101, "response": {"Q0": "The cost for clicking on nodes may vary between nodes.", "Q1": "The better I perform the higher my bonus will be.", "Q2": "No, the amount of cash at each node of the web may be different each time.", "Q3": "To get the highest total score.", "Q4": "Any time during the round.", "Q5": "3 seconds"}, "question_order": [0, 1, 2, 3, 4, 5], "correct": {"Q0": "The cost for clicking on nodes may vary between nodes.", "Q1": "The better I perform the higher my bonus will be.", "Q2": "No, the amount of cash at each node of the web may be different each time.", "Q3": "To get the highest total score.", "Q4": "Only before moving the spider.", "Q5": "3 seconds"}, "trial_id": "mouselab_quiz_misaligned", "trial_type": "survey-multi-choice", "trial_index": 13, "time_elapsed": 945989, "internal_node_id": "0.0-2.1-4.1"}}, {"uniqueid": "w41586610:a82492752", "current_trial": 14, "dateTime": 1691071736936, "trialdata": {"success": true, "trial_type": "fullscreen", "trial_index": 14, "time_elapsed": 969790, "internal_node_id": "0.0-2.2-0.2"}}, {"uniqueid": "w41586610:a82492752", "current_trial": 15, "dateTime": 1691071805407, "trialdata": {"view_history": [{"page_index": 0, "viewing_time": 12948}, {"page_index": 1, "viewing_time": 15120}, {"page_index": 2, "viewing_time": 12560}, {"page_index": 3, "viewing_time": 27840}], "rt": 68468, "trial_id": "mouselab_instructions_1_misaligned", "trial_type": "instructions", "trial_index": 15, "time_elapsed": 1038261, "internal_node_id": "0.0-2.2-1.2"}}, {"uniqueid": "w41586610:a82492752", "current_trial": 16, "dateTime": 1691071813809, "trialdata": {"revealed_states": [], "clicked_states": [], "num_clicks_accrued": [0, 0, 0, 0, 0, 0, 0, 0, 0, 0, 0, 0, 0], "stateRewards": ["", -10, 10, 10, -10, -10, -10, 10, -10, -10, 10, 10, -10, 10, 10, 10, -10, -10, 10, 10, 10, 10, -10, 10, 10, 10, -10, -10, -10, 10, -10, -10, -10, -10], "withholdReward": false, "trial_id": "practice_1", "block": "test", "trialIndex": 4, "score": 13.5, "costs": 0, "simulationMode": [null, null, null, null, null], "rewards": [10, 10, 10, -10, -10], "path": ["0", "0", "23", "24", "25", "26", "27"], "rt": [954, 24, 30, 158, 504], "actions": ["left", "left", "left", "up", "up"], "actionTimes": [3283, 3809, 4353, 5042, 6058], "queries": {"click": {"state": {"target": [], "time": []}, "edge": {"target": [], "time": []}}, "mouseover": {"state": {"target": [], "time": []}, "edge": {"target": [], "time": []}}, "mouseout": {"state": {"target": [], "time": []}, "edge": {"target": [], "time": []}}}, "displayed_time": "6.55", "trialTime": 8066, "trial_type": "mouselab-mdp", "trial_index": 16, "time_elapsed": 1046661, "internal_node_id": "0.0-2.2-2.2-0.2"}}, {"uniqueid": "w41586610:a82492752", "current_trial": 17, "dateTime": 1691071822665, "trialdata": {"revealed_states": [], "clicked_states": [], "num_clicks_accrued": [0, 0, 0, 0, 0, 0, 0, 0, 0, 0, 0, 0, 0], "stateRewards": ["", 10, 10, 10, 10, 10, 10, 10, -10, 10, 10, -10, -10, 10, -10, -10, 10, 10, 10, 10, 10, 10, 10, -10, -10, 10, 10, -10, 10, 10, 10, 10, 10, -10], "withholdReward": false, "trial_id": "practice_2", "block": "test", "trialIndex": 5, "score": 53.5, "costs": 0, "simulationMode": [null, null, null, null, null], "rewards": [10, 10, 10, 10, 10], "path": ["0", "0", "1", "2", "3", "4", "5"], "rt": [1021, 1, 485, 205, 129], "actions": ["up", "up", "up", "right", "up"], "actionTimes": [3921, 4429, 5433, 6137, 6776], "queries": {"click": {"state": {"target": [], "time": []}, "edge": {"target": [], "time": []}}, "mouseover": {"state": {"target": [], "time": []}, "edge": {"target": [], "time": []}}, "mouseout": {"state": {"target": ["0"], "time": [1513]}, "edge": {"target": [], "time": []}}}, "displayed_time": "7.28", "trialTime": 8481, "trial_type": "mouselab-mdp", "trial_index": 17, "time_elapsed": 1055517, "internal_node_id": "0.0-2.2-2.2-1.2"}}, {"uniqueid": "w41586610:a82492752", "current_trial": 18, "dateTime": 1691071872622, "trialdata": {"view_history": [{"page_index": 0, "viewing_time": 48341}, {"page_index": 1, "viewing_time": 1608}], "rt": 49949, "trial_id": "mouselab_instructions_2_misaligned", "trial_type": "instructions", "trial_index": 18, "time_elapsed": 1105476, "internal_node_id": "0.0-2.2-3.2"}}, {"uniqueid": "w41586610:a82492752", "current_trial": 19, "dateTime": 1691072032422, "trialdata": {"rt": 159797, "response": {"Q0": "The cost for clicking on nodes may vary between nodes.", "Q1": "The better I perform the higher my bonus will be.", "Q2": "No, the amount of cash at each node of the web may be different each time.", "Q3": "To get the highest total score.", "Q4": "Only before moving the spider.", "Q5": "3 seconds"}, "question_order": [0, 1, 2, 3, 4, 5], "correct": {"Q0": "The cost for clicking on nodes may vary between nodes.", "Q1": "The better I perform the higher my bonus will be.", "Q2": "No, the amount of cash at each node of the web may be different each time.", "Q3": "To get the highest total score.", "Q4": "Only before moving the spider.", "Q5": "3 seconds"}, "trial_id": "mouselab_quiz_misaligned", "trial_type": "survey-multi-choice", "trial_index": 19, "time_elapsed": 1265276, "internal_node_id": "0.0-2.2-4.2"}}, {"uniqueid": "w41586610:a82492752", "current_trial": 20, "dateTime": 1691072042047, "trialdata": {"rt": 9615, "stimulus": "\n<h1> Get ready to start the game! </h1>\n\nThank you for reading the instructions. Get ready start with the 40 rounds of this game.\n<br><br>\nIf you need to take a break, feel free to take one after the end of a round, before continuing to the next one.\n<br><br>\nRemember, the more money the spider gets, the bigger your bonus will be!\n<br><br>\n<div style='text-align: center;'>Press <code>space</code> to begin.</div>\n\n<br><br>\n(If, at any point, the <code>space</code> key does not take you to the next page, click once on the text and try again.)", "response": " ", "trial_id": "mdp_ready", "trial_type": "html-keyboard-response", "trial_index": 20, "time_elapsed": 1274901, "internal_node_id": "0.0-4.0-0.0"}}, {"uniqueid": "w41586610:a82492752", "current_trial": 21, "dateTime": 1691072061353, "trialdata": {"revealed_states": [], "clicked_states": [], "num_clicks_accrued": [0, 0, 0, 0, 0, 0, 0, 0, 0, 0, 0, 0, 0], "stateRewards": ["", 1, 2, -5, 14, 54, -14, -25, 16, -5, -87, 78, -1, 1, 3, -3, 52, 53, 53, -10, 73, -69, -48, 2, 3, 1, 8, -62, -7, 85, 7, 82, 52, -28], "withholdReward": false, "trial_id": "mdp_trial_1", "block": "test", "trialIndex": 6, "score": 9, "costs": 0, "simulationMode": [null, null, null, null, null], "rewards": [1, 2, -5, 16, -5], "path": ["0", "0", "1", "2", "3", "8", "9"], "rt": [1719, 116, 266, 147, 184], "actions": ["up", "up", "up", "left", "up"], "actionTimes": [4692, 5323, 6083, 6748, 7437], "queries": {"click": {"state": {"target": [], "time": []}, "edge": {"target": [], "time": []}}, "mouseover": {"state": {"target": [], "time": []}, "edge": {"target": [], "time": []}}, "mouseout": {"state": {"target": ["0", "0"], "time": [11800, 17788]}, "edge": {"target": [], "time": []}}}, "displayed_time": "16.98", "trialTime": 18908, "trial_type": "mouselab-mdp", "trial_index": 21, "time_elapsed": 1294206, "internal_node_id": "0.0-4.0-1.0-0.0"}}, {"uniqueid": "w41586610:a82492752", "current_trial": 22, "dateTime": 1691072079184, "trialdata": {"revealed_states": [], "clicked_states": [], "num_clicks_accrued": [0, 0, 0, 0, 0, 0, 0, 0, 0, 0, 0, 0, 0], "stateRewards": ["", -1, 2, -2, 5, 80, -61, -27, 12, 44, -26, -75, -2, -4, 1, -16, 42, -49, -50, 4, -44, 2, 80, -2, -2, 5, -2, 59, 10, 24, 7, -48, -86, -44], "withholdReward": false, "trial_id": "mdp_trial_2", "block": "test", "trialIndex": 7, "score": 58, "costs": 0, "simulationMode": [null, null, null, null, null], "rewards": [-2, -2, 5, -2, 59], "path": ["0", "0", "23", "24", "25", "26", "27"], "rt": [3526, 666, 651, 467, 620], "actions": ["left", "left", "left", "up", "up"], "actionTimes": [5214, 6396, 7548, 8516, 9651], "queries": {"click": {"state": {"target": [], "time": []}, "edge": {"target": [], "time": []}}, "mouseover": {"state": {"target": [], "time": []}, "edge": {"target": [], "time": []}}, "mouseout": {"state": {"target": ["0"], "time": [16715]}, "edge": {"target": [], "time": []}}}, "displayed_time": "15.69", "trialTime": 17420, "trial_type": "mouselab-mdp", "trial_index": 22, "time_elapsed": 1312037, "internal_node_id": "0.0-4.0-1.0-1.0"}}, {"uniqueid": "w41586610:a82492752", "current_trial": 23, "dateTime": 1691072098128, "trialdata": {"revealed_states": [], "clicked_states": [], "num_clicks_accrued": [0, 0, 0, 0, 0, 0, 0, 0, 0, 0, 0, 0, 0], "stateRewards": ["", -1, -2, 4, 9, 10, -75, 39, 16, -43, 88, -19, -1, 1, 2, 4, -31, 10, 73, 12, 41, -64, -81, -2, 2, -6, 1, -81, -1, -26, 3, -59, -3, -20], "withholdReward": false, "trial_id": "mdp_trial_3", "block": "test", "trialIndex": 8, "score": 20, "costs": 0, "simulationMode": [null, null, null, null, null], "rewards": [-1, -2, 4, 9, 10], "path": ["0", "0", "1", "2", "3", "4", "5"], "rt": [1825, 390, 395, 277, 334], "actions": ["up", "up", "up", "right", "up"], "actionTimes": [3907, 4810, 5716, 6514, 7354], "queries": {"click": {"state": {"target": [], "time": []}, "edge": {"target": [], "time": []}}, "mouseover": {"state": {"target": [], "time": []}, "edge": {"target": [], "time": []}}, "mouseout": {"state": {"target": ["0"], "time": [9622]}, "edge": {"target": [], "time": []}}}, "displayed_time": "16.09", "trialTime": 18555, "trial_type": "mouselab-mdp", "trial_index": 23, "time_elapsed": 1330981, "internal_node_id": "0.0-4.0-1.0-2.0"}}, {"uniqueid": "w41586610:a82492752", "current_trial": 24, "dateTime": 1691072117233, "trialdata": {"revealed_states": [], "clicked_states": [], "num_clicks_accrued": [0, 0, 0, 0, 0, 0, 0, 0, 0, 0, 0, 0, 0], "stateRewards": ["", -1, 1, -1, 2, 19, 85, -18, 2, -3, -26, 36, 2, 4, 7, -9, -18, 70, 72, -5, 35, -20, -28, 1, -2, -4, -3, -59, -11, -63, -2, -72, 59, -69], "withholdReward": false, "trial_id": "mdp_trial_4", "block": "test", "trialIndex": 9, "score": -14, "costs": 0, "simulationMode": [null, null, null, null, null], "rewards": [2, 4, 7, -9, -18], "path": ["0", "0", "12", "13", "14", "15", "16"], "rt": [1030, 395, 440, 863, 424], "actions": ["right", "right", "right", "up", "up"], "actionTimes": [2621, 3525, 4476, 5844, 6788], "queries": {"click": {"state": {"target": [], "time": []}, "edge": {"target": [], "time": []}}, "mouseover": {"state": {"target": [], "time": []}, "edge": {"target": [], "time": []}}, "mouseout": {"state": {"target": [], "time": []}, "edge": {"target": [], "time": []}}}, "displayed_time": "15.61", "trialTime": 18701, "trial_type": "mouselab-mdp", "trial_index": 24, "time_elapsed": 1350085, "internal_node_id": "0.0-4.0-1.0-3.0"}}, {"uniqueid": "w41586610:a82492752", "current_trial": 25, "dateTime": 1691072138721, "trialdata": {"revealed_states": [], "clicked_states": [], "num_clicks_accrued": [0, 0, 0, 0, 0, 0, 0, 0, 0, 0, 0, 0, 0], "stateRewards": ["", -2, 2, -2, -7, -50, -62, -45, 7, 36, -24, -72, -1, -1, 8, -1, -67, 20, -52, 2, 35, -50, 80, -1, 1, 6, -6, -70, 6, 88, 8, -47, 74, -19], "withholdReward": false, "trial_id": "mdp_trial_5", "block": "test", "trialIndex": 10, "score": -42, "costs": 0, "simulationMode": [null, null, null, null, null], "rewards": [-1, -1, 8, 2, -50], "path": ["0", "0", "12", "13", "14", "19", "21"], "rt": [993, 479, 548, 815, 805], "actions": ["right", "right", "right", "down", "down"], "actionTimes": [2776, 3751, 4807, 6121, 7431], "queries": {"click": {"state": {"target": [], "time": []}, "edge": {"target": [], "time": []}}, "mouseover": {"state": {"target": [], "time": []}, "edge": {"target": [], "time": []}}, "mouseout": {"state": {"target": [], "time": []}, "edge": {"target": [], "time": []}}}, "displayed_time": "15.79", "trialTime": 21048, "trial_type": "mouselab-mdp", "trial_index": 25, "time_elapsed": 1371574, "internal_node_id": "0.0-4.0-1.0-4.0"}}, {"uniqueid": "w41586610:a82492752", "current_trial": 26, "dateTime": 1691072157128, "trialdata": {"revealed_states": [], "clicked_states": [], "num_clicks_accrued": [0, 0, 0, 0, 0, 0, 0, 0, 0, 0, 0, 0, 0], "stateRewards": ["", 1, 2, -8, 9, 18, -83, -11, 6, -64, -48, 17, -2, -2, -5, -3, -24, -3, -86, -2, 48, -41, -22, -2, 4, 7, 8, 81, 13, -48, 10, 61, 19, 57], "withholdReward": false, "trial_id": "mdp_trial_6", "block": "test", "trialIndex": 11, "score": -63, "costs": 0, "simulationMode": [null, null, null, null, null], "rewards": [1, 2, -8, 6, -64], "path": ["0", "0", "1", "2", "3", "8", "9"], "rt": [897, 296, 366, 362, 289], "actions": ["up", "up", "up", "left", "up"], "actionTimes": [2903, 3696, 4568, 5448, 6256], "queries": {"click": {"state": {"target": [], "time": []}, "edge": {"target": [], "time": []}}, "mouseover": {"state": {"target": [], "time": []}, "edge": {"target": [], "time": []}}, "mouseout": {"state": {"target": ["0"], "time": [17220]}, "edge": {"target": [], "time": []}}}, "displayed_time": "16.01", "trialTime": 17984, "trial_type": "mouselab-mdp", "trial_index": 26, "time_elapsed": 1389980, "internal_node_id": "0.0-4.0-1.0-5.0"}}, {"uniqueid": "w41586610:a82492752", "current_trial": 27, "dateTime": 1691072179373, "trialdata": {"revealed_states": [], "clicked_states": [], "num_clicks_accrued": [0, 0, 0, 0, 0, 0, 0, 0, 0, 0, 0, 0, 0], "stateRewards": ["", -2, -3, -6, -7, 9, 16, 65, 5, -41, 20, -25, -1, -4, 1, -11, -49, -4, 71, 1, 39, -62, 52, -2, -3, 7, -9, -28, -70, 84, 8, 24, -58, 82], "withholdReward": false, "trial_id": "mdp_trial_7", "block": "test", "trialIndex": 12, "score": -48, "costs": 0, "simulationMode": [null, null, null, null, null], "rewards": [-2, -3, 7, 8, -58], "path": ["0", "0", "23", "24", "25", "30", "32"], "rt": [12918, 1032, 357, 392, 683], "actions": ["left", "left", "left", "down", "down"], "actionTimes": [14894, 16419, 17283, 18195, 19371], "queries": {"click": {"state": {"target": [], "time": []}, "edge": {"target": [], "time": []}}, "mouseover": {"state": {"target": ["17", "32", "31", "13", "15", "14", "12", "16", "15", "12", "0", "23", "0", "12"], "time": [3186, 3787, 3969, 4493, 4821, 6053, 9279, 9692, 11185, 11790, 12572, 12719, 13221, 13388]}, "edge": {"target": [], "time": []}}, "mouseout": {"state": {"target": ["0", "17", "32", "31", "13", "15", "14", "12", "16", "15", "12", "0", "23", "0"], "time": [3159, 3203, 3921, 4019, 4537, 6024, 6086, 9307, 11151, 11634, 12555, 12618, 13159, 13271]}, "edge": {"target": [], "time": []}}}, "displayed_time": "19.89", "trialTime": 21818, "trial_type": "mouselab-mdp", "trial_index": 27, "time_elapsed": 1412226, "internal_node_id": "0.0-4.0-1.0-6.0"}}, {"uniqueid": "w41586610:a82492752", "current_trial": 28, "dateTime": 1691072198599, "trialdata": {"revealed_states": [], "clicked_states": [], "num_clicks_accrued": [0, 0, 0, 0, 0, 0, 0, 0, 0, 0, 0, 0, 0], "stateRewards": ["", -2, -1, -5, 10, -36, -70, 68, -9, 86, 71, -10, 2, -4, 7, -7, 66, 44, -66, -13, -69, 43, 15, -2, 2, 6, -13, 62, 57, 50, -10, -69, 42, -72], "withholdReward": false, "trial_id": "mdp_trial_8", "block": "test", "trialIndex": 13, "score": -34, "costs": 0, "simulationMode": [null, null, null, null, null], "rewards": [-2, -1, -5, 10, -36], "path": ["0", "0", "1", "2", "3", "4", "5"], "rt": [1274, 402, 389, 313, 233], "actions": ["up", "up", "up", "right", "up"], "actionTimes": [4567, 5487, 6391, 7214, 7967], "queries": {"click": {"state": {"target": [], "time": []}, "edge": {"target": [], "time": []}}, "mouseover": {"state": {"target": [], "time": []}, "edge": {"target": [], "time": []}}, "mouseout": {"state": {"target": ["12", "0"], "time": [2620, 16820]}, "edge": {"target": [], "time": []}}}, "displayed_time": "17.29", "trialTime": 18806, "trial_type": "mouselab-mdp", "trial_index": 28, "time_elapsed": 1431452, "internal_node_id": "0.0-4.0-1.0-7.0"}}, {"uniqueid": "w41586610:a82492752", "current_trial": 29, "dateTime": 1691072216208, "trialdata": {"revealed_states": [], "clicked_states": [], "num_clicks_accrued": [0, 0, 0, 0, 0, 0, 0, 0, 0, 0, 0, 0, 0], "stateRewards": ["", 2, -4, 1, -12, -59, -53, -74, 16, -88, -66, 66, 1, -2, 8, -9, -14, 22, 25, -1, -39, 47, -14, -1, -1, -2, 1, -4, 52, -26, 15, -7, 46, 43], "withholdReward": false, "trial_id": "mdp_trial_9", "block": "test", "trialIndex": 14, "score": -7, "costs": 0, "simulationMode": [null, null, null, null, null], "rewards": [-1, -1, -2, 1, -4], "path": ["0", "0", "23", "24", "25", "26", "27"], "rt": [1080, 937, 223, 199, 348], "actions": ["left", "left", "left", "up", "up"], "actionTimes": [2495, 3950, 4670, 5381, 6245], "queries": {"click": {"state": {"target": [], "time": []}, "edge": {"target": [], "time": []}}, "mouseover": {"state": {"target": [], "time": []}, "edge": {"target": [], "time": []}}, "mouseout": {"state": {"target": ["0"], "time": [7524]}, "edge": {"target": [], "time": []}}}, "displayed_time": "15.42", "trialTime": 17143, "trial_type": "mouselab-mdp", "trial_index": 29, "time_elapsed": 1449060, "internal_node_id": "0.0-4.0-1.0-8.0"}}, {"uniqueid": "w41586610:a82492752", "current_trial": 30, "dateTime": 1691072235759, "trialdata": {"revealed_states": [], "clicked_states": [], "num_clicks_accrued": [0, 0, 0, 0, 0, 0, 0, 0, 0, 0, 0, 0, 0], "stateRewards": ["", -2, -4, 2, 10, -17, 18, 73, 11, -32, 23, -13, -2, -4, 7, 12, -25, 66, -23, 15, 40, -76, -9, 1, 2, -7, -5, -20, 24, 3, -5, 16, -73, 70], "withholdReward": false, "trial_id": "mdp_trial_10", "block": "test", "trialIndex": 15, "score": -12, "costs": 0, "simulationMode": [null, null, null, null, null], "rewards": [-2, -4, 7, 12, -25], "path": ["0", "0", "12", "13", "14", "15", "16"], "rt": [1235, 260, 381, 243, 358], "actions": ["right", "right", "right", "up", "up"], "actionTimes": [4995, 5770, 6675, 7435, 8283], "queries": {"click": {"state": {"target": [], "time": []}, "edge": {"target": [], "time": []}}, "mouseover": {"state": {"target": ["12"], "time": [3789]}, "edge": {"target": [], "time": []}}, "mouseout": {"state": {"target": ["15", "18", "0"], "time": [1928, 1947, 3786]}, "edge": {"target": [], "time": []}}}, "displayed_time": "17.76", "trialTime": 19090, "trial_type": "mouselab-mdp", "trial_index": 30, "time_elapsed": 1468612, "internal_node_id": "0.0-4.0-1.0-9.0"}}, {"uniqueid": "w41586610:a82492752", "current_trial": 31, "dateTime": 1691072255472, "trialdata": {"revealed_states": [], "clicked_states": [], "num_clicks_accrued": [0, 0, 0, 0, 0, 0, 0, 0, 0, 0, 0, 0, 0], "stateRewards": ["", -2, -1, -4, -15, -14, -67, 32, -3, -59, 63, 31, 2, -1, -7, -15, 71, -66, -27, -3, -54, -39, 72, 2, 1, 1, -13, 77, -40, 35, -9, 35, 75, 57], "withholdReward": false, "trial_id": "mdp_trial_11", "block": "test", "trialIndex": 16, "score": -69, "costs": 0, "simulationMode": [null, null, null, null, null], "rewards": [-2, -1, -4, -3, -59], "path": ["0", "0", "1", "2", "3", "8", "9"], "rt": [1332, 472, 470, 211, 78], "actions": ["up", "up", "up", "left", "up"], "actionTimes": [3166, 4158, 5142, 5846, 6429], "queries": {"click": {"state": {"target": [], "time": []}, "edge": {"target": [], "time": []}}, "mouseover": {"state": {"target": [], "time": []}, "edge": {"target": [], "time": []}}, "mouseout": {"state": {"target": ["12", "0", "1", "2", "1", "12"], "time": [1118, 12091, 12118, 12473, 13307, 13336]}, "edge": {"target": [], "time": []}}}, "displayed_time": "15.84", "trialTime": 19247, "trial_type": "mouselab-mdp", "trial_index": 31, "time_elapsed": 1488324, "internal_node_id": "0.0-4.0-1.0-10.0"}}, {"uniqueid": "w41586610:a82492752", "current_trial": 32, "dateTime": 1691072274472, "trialdata": {"revealed_states": [], "clicked_states": [], "num_clicks_accrued": [0, 0, 0, 0, 0, 0, 0, 0, 0, 0, 0, 0, 0], "stateRewards": ["", 1, 1, -3, 7, 49, 78, 26, -5, 26, 48, -43, -1, -3, 2, -5, 4, -1, -60, 10, -35, 51, 81, -2, 1, -7, -5, -39, -86, -54, 4, -3, 74, 77], "withholdReward": false, "trial_id": "mdp_trial_12", "block": "test", "trialIndex": 17, "score": -67, "costs": 0, "simulationMode": [null, null, null, null, null], "rewards": [-2, 1, -7, -5, -54], "path": ["0", "0", "23", "24", "25", "26", "29"], "rt": [1259, 315, 474, 268, 110], "actions": ["left", "left", "left", "up", "left"], "actionTimes": [2138, 2970, 3962, 4738, 5347], "queries": {"click": {"state": {"target": [], "time": []}, "edge": {"target": [], "time": []}}, "mouseover": {"state": {"target": [], "time": []}, "edge": {"target": [], "time": []}}, "mouseout": {"state": {"target": ["1", "0", "1"], "time": [289, 7408, 8423]}, "edge": {"target": [], "time": []}}}, "displayed_time": "14.88", "trialTime": 18515, "trial_type": "mouselab-mdp", "trial_index": 32, "time_elapsed": 1507324, "internal_node_id": "0.0-4.0-1.0-11.0"}}, {"uniqueid": "w41586610:a82492752", "current_trial": 33, "dateTime": 1691072292584, "trialdata": {"revealed_states": [], "clicked_states": [], "num_clicks_accrued": [0, 0, 0, 0, 0, 0, 0, 0, 0, 0, 0, 0, 0], "stateRewards": ["", 1, 2, 2, -15, -84, 28, -26, 13, 31, 86, 30, -2, 1, -1, -8, 66, -40, -1, -10, -32, 57, -17, 1, 2, -2, 9, -23, 77, 85, 12, -32, -62, -35], "withholdReward": false, "trial_id": "mdp_trial_13", "block": "test", "trialIndex": 18, "score": 104, "costs": 0, "simulationMode": [null, null, null, null, null], "rewards": [1, 2, 2, 13, 86], "path": ["0", "0", "1", "2", "3", "8", "10"], "rt": [1413, 371, 233, 106, 138], "actions": ["up", "up", "up", "left", "down"], "actionTimes": [2955, 3834, 4580, 5202, 5850], "queries": {"click": {"state": {"target": [], "time": []}, "edge": {"target": [], "time": []}}, "mouseover": {"state": {"target": [], "time": []}, "edge": {"target": [], "time": []}}, "mouseout": {"state": {"target": ["12"], "time": [744]}, "edge": {"target": [], "time": []}}}, "displayed_time": "15.54", "trialTime": 17620, "trial_type": "mouselab-mdp", "trial_index": 33, "time_elapsed": 1525436, "internal_node_id": "0.0-4.0-1.0-12.0"}}, {"uniqueid": "w41586610:a82492752", "current_trial": 34, "dateTime": 1691072311184, "trialdata": {"revealed_states": [], "clicked_states": [], "num_clicks_accrued": [0, 0, 0, 0, 0, 0, 0, 0, 0, 0, 0, 0, 0], "stateRewards": ["", 2, -1, -4, -13, 74, 77, 3, 2, -43, -2, -11, 2, 3, 7, 11, -26, -29, -33, -3, -3, -13, -3, 1, 3, -7, 14, -59, 33, 9, -5, 34, 79, 68], "withholdReward": false, "trial_id": "mdp_trial_14", "block": "test", "trialIndex": 19, "score": 61, "costs": 0, "simulationMode": [null, null, null, null, null], "rewards": [2, -1, -4, -13, 77], "path": ["0", "0", "1", "2", "3", "4", "6"], "rt": [1108, 524, 318, 237, 280], "actions": ["up", "up", "up", "right", "right"], "actionTimes": [2948, 3996, 4820, 5556, 6348], "queries": {"click": {"state": {"target": [], "time": []}, "edge": {"target": [], "time": []}}, "mouseover": {"state": {"target": [], "time": []}, "edge": {"target": [], "time": []}}, "mouseout": {"state": {"target": ["0", "0", "1", "12"], "time": [1288, 8819, 9156, 11284]}, "edge": {"target": [], "time": []}}}, "displayed_time": "15.84", "trialTime": 18125, "trial_type": "mouselab-mdp", "trial_index": 34, "time_elapsed": 1544036, "internal_node_id": "0.0-4.0-1.0-13.0"}}, {"uniqueid": "w41586610:a82492752", "current_trial": 35, "dateTime": 1691072332256, "trialdata": {"revealed_states": [], "clicked_states": [], "num_clicks_accrued": [0, 0, 0, 0, 0, 0, 0, 0, 0, 0, 0, 0, 0], "stateRewards": ["", -2, 4, 3, 5, -61, 4, 30, 1, -47, 83, 10, 1, 4, 7, -14, 19, -74, -83, 6, -2, -2, -65, -1, -2, 4, -11, 12, -1, -68, 11, -38, -28, 66], "withholdReward": false, "trial_id": "mdp_trial_15", "block": "test", "trialIndex": 20, "score": -11, "costs": 0, "simulationMode": [null, null, null, null, null], "rewards": [-1, -2, 4, -11, -1], "path": ["0", "0", "23", "24", "25", "26", "28"], "rt": [1522, 273, 317, 169, 193], "actions": ["left", "left", "left", "up", "right"], "actionTimes": [2672, 3456, 4264, 4935, 5641], "queries": {"click": {"state": {"target": [], "time": []}, "edge": {"target": [], "time": []}}, "mouseover": {"state": {"target": [], "time": []}, "edge": {"target": [], "time": []}}, "mouseout": {"state": {"target": ["0", "0"], "time": [8335, 9190]}, "edge": {"target": [], "time": []}}}, "displayed_time": "15.15", "trialTime": 20593, "trial_type": "mouselab-mdp", "trial_index": 35, "time_elapsed": 1565108, "internal_node_id": "0.0-4.0-1.0-14.0"}}, {"uniqueid": "w41586610:a82492752", "current_trial": 36, "dateTime": 1691072350681, "trialdata": {"revealed_states": [], "clicked_states": [], "num_clicks_accrued": [0, 0, 0, 0, 0, 0, 0, 0, 0, 0, 0, 0, 0], "stateRewards": ["", -2, 1, -5, 2, -68, 80, 33, 10, 67, -59, 20, -1, -3, 3, 14, 74, -2, 24, -16, 63, 80, 46, -1, 4, 6, 12, 83, -38, -43, -4, 43, 14, -79], "withholdReward": false, "trial_id": "mdp_trial_16", "block": "test", "trialIndex": 21, "score": 48, "costs": 0, "simulationMode": [null, null, null, null, null], "rewards": [-1, 4, 6, -4, 43], "path": ["0", "0", "23", "24", "25", "30", "31"], "rt": [1832, 639, 138, 168, 92], "actions": ["left", "left", "left", "down", "right"], "actionTimes": [3851, 5003, 5651, 6331, 6938], "queries": {"click": {"state": {"target": [], "time": []}, "edge": {"target": [], "time": []}}, "mouseover": {"state": {"target": [], "time": []}, "edge": {"target": [], "time": []}}, "mouseout": {"state": {"target": ["0"], "time": [1414]}, "edge": {"target": [], "time": []}}}, "displayed_time": "16.02", "trialTime": 17915, "trial_type": "mouselab-mdp", "trial_index": 36, "time_elapsed": 1583533, "internal_node_id": "0.0-4.0-1.0-15.0"}}, {"uniqueid": "w41586610:a82492752", "current_trial": 37, "dateTime": 1691072369488, "trialdata": {"revealed_states": [], "clicked_states": [], "num_clicks_accrued": [0, 0, 0, 0, 0, 0, 0, 0, 0, 0, 0, 0, 0], "stateRewards": ["", 2, 4, -5, 7, 81, 35, 6, 11, 14, -72, 42, -1, 2, 3, -7, -77, -44, -40, -15, -85, 51, -32, -2, -1, -5, 7, -74, 47, 52, 16, -49, 48, -46], "withholdReward": false, "trial_id": "mdp_trial_17", "block": "test", "trialIndex": 22, "score": 14, "costs": 0, "simulationMode": [null, null, null, null, null], "rewards": [2, 4, -5, 7, 6], "path": ["0", "0", "1", "2", "3", "4", "7"], "rt": [1671, 440, 204, 152, 84], "actions": ["up", "up", "up", "right", "down"], "actionTimes": [3594, 4529, 5241, 5889, 6489], "queries": {"click": {"state": {"target": [], "time": []}, "edge": {"target": [], "time": []}}, "mouseover": {"state": {"target": [], "time": []}, "edge": {"target": [], "time": []}}, "mouseout": {"state": {"target": ["23"], "time": [1223]}, "edge": {"target": [], "time": []}}}, "displayed_time": "15.93", "trialTime": 18298, "trial_type": "mouselab-mdp", "trial_index": 37, "time_elapsed": 1602340, "internal_node_id": "0.0-4.0-1.0-16.0"}}, {"uniqueid": "w41586610:a82492752", "current_trial": 38, "dateTime": 1691072386047, "trialdata": {"revealed_states": [], "clicked_states": [], "num_clicks_accrued": [0, 0, 0, 0, 0, 0, 0, 0, 0, 0, 0, 0, 0], "stateRewards": ["", -2, -4, -8, 8, 63, -50, -19, -7, -17, -31, 31, 1, 3, -5, 12, -35, -63, -29, -4, -17, -75, -79, -2, -3, -2, 8, -3, -85, 10, -2, -82, -82, 56], "withholdReward": false, "trial_id": "mdp_trial_18", "block": "test", "trialIndex": 23, "score": -18, "costs": 0, "simulationMode": [null, null, null, null, null], "rewards": [1, 3, -5, 12, -29], "path": ["0", "0", "12", "13", "14", "15", "18"], "rt": [1313, 437, 465, 234, 797], "actions": ["right", "right", "right", "up", "left"], "actionTimes": [2423, 3383, 4343, 5079, 6375], "queries": {"click": {"state": {"target": [], "time": []}, "edge": {"target": [], "time": []}}, "mouseover": {"state": {"target": [], "time": []}, "edge": {"target": [], "time": []}}, "mouseout": {"state": {"target": ["0"], "time": [12650]}, "edge": {"target": [], "time": []}}}, "displayed_time": "15.11", "trialTime": 16031, "trial_type": "mouselab-mdp", "trial_index": 38, "time_elapsed": 1618899, "internal_node_id": "0.0-4.0-1.0-17.0"}}, {"uniqueid": "w41586610:a82492752", "current_trial": 39, "dateTime": 1691072406055, "trialdata": {"revealed_states": [], "clicked_states": [], "num_clicks_accrued": [0, 0, 0, 0, 0, 0, 0, 0, 0, 0, 0, 0, 0], "stateRewards": ["", 2, -3, -2, 14, -4, 85, 46, 15, -28, 41, 31, -1, -1, -1, 5, 62, 79, 57, 12, -73, -64, 86, -1, 1, -3, -5, 68, 11, -32, 8, -80, -21, -56], "withholdReward": false, "trial_id": "mdp_trial_19", "block": "test", "trialIndex": 24, "score": -40, "costs": 0, "simulationMode": [null, null, null, null, null], "rewards": [-1, 1, -3, -5, -32], "path": ["0", "0", "23", "24", "25", "26", "29"], "rt": [1172, 871, 140, 91, 690], "actions": ["left", "left", "left", "up", "left"], "actionTimes": [4679, 6072, 6711, 7310, 8511], "queries": {"click": {"state": {"target": [], "time": []}, "edge": {"target": [], "time": []}}, "mouseover": {"state": {"target": ["0"], "time": [3687]}, "edge": {"target": [], "time": []}}, "mouseout": {"state": {"target": ["0", "14", "13", "0", "0", "13", "18"], "time": [1502, 2286, 2619, 3052, 13334, 13353, 14972]}, "edge": {"target": [], "time": []}}}, "displayed_time": "17.51", "trialTime": 19495, "trial_type": "mouselab-mdp", "trial_index": 39, "time_elapsed": 1638908, "internal_node_id": "0.0-4.0-1.0-18.0"}}, {"uniqueid": "w41586610:a82492752", "current_trial": 40, "dateTime": 1691072425297, "trialdata": {"revealed_states": [], "clicked_states": [], "num_clicks_accrued": [0, 0, 0, 0, 0, 0, 0, 0, 0, 0, 0, 0, 0], "stateRewards": ["", -1, 1, -6, -1, 80, 23, 2, -11, 73, -81, 59, 1, 3, 5, -1, -26, 28, -3, 16, -59, -13, -50, -2, -2, 2, 15, -50, 86, 17, -4, 37, 35, 44], "withholdReward": false, "trial_id": "mdp_trial_20", "block": "test", "trialIndex": 25, "score": 56, "costs": 0, "simulationMode": [null, null, null, null, null], "rewards": [-1, 1, -6, -11, 73], "path": ["0", "0", "1", "2", "3", "8", "9"], "rt": [792, 428, 242, 266, 442], "actions": ["up", "up", "up", "left", "up"], "actionTimes": [4522, 5489, 6224, 7001, 7937], "queries": {"click": {"state": {"target": [], "time": []}, "edge": {"target": [], "time": []}}, "mouseover": {"state": {"target": [], "time": []}, "edge": {"target": [], "time": []}}, "mouseout": {"state": {"target": ["1"], "time": [1772]}, "edge": {"target": [], "time": []}}}, "displayed_time": "17.73", "trialTime": 18713, "trial_type": "mouselab-mdp", "trial_index": 40, "time_elapsed": 1658149, "internal_node_id": "0.0-4.0-1.0-19.0"}}, {"uniqueid": "w41586610:a82492752", "current_trial": 41, "dateTime": 1691072443688, "trialdata": {"revealed_states": [], "clicked_states": [], "num_clicks_accrued": [0, 0, 0, 0, 0, 0, 0, 0, 0, 0, 0, 0, 0], "stateRewards": ["", 2, -1, 5, 8, 75, -35, -77, 1, -9, -81, -58, 1, 2, -7, 5, 77, -16, 19, 16, -10, -18, 40, -2, 3, 7, -5, 64, 1, -62, 10, 27, 10, 65], "withholdReward": false, "trial_id": "mdp_trial_21", "block": "test", "trialIndex": 26, "score": 83, "costs": 0, "simulationMode": [null, null, null, null, null], "rewards": [-2, 3, 7, 10, 65], "path": ["0", "0", "23", "24", "25", "30", "33"], "rt": [1593, 472, 217, 148, 178], "actions": ["left", "left", "left", "down", "left"], "actionTimes": [3182, 4165, 4878, 5541, 6221], "queries": {"click": {"state": {"target": [], "time": []}, "edge": {"target": [], "time": []}}, "mouseover": {"state": {"target": [], "time": []}, "edge": {"target": [], "time": []}}, "mouseout": {"state": {"target": ["0"], "time": [1312]}, "edge": {"target": [], "time": []}}}, "displayed_time": "15.59", "trialTime": 17871, "trial_type": "mouselab-mdp", "trial_index": 41, "time_elapsed": 1676541, "internal_node_id": "0.0-4.0-1.0-20.0"}}, {"uniqueid": "w41586610:a82492752", "current_trial": 42, "dateTime": 1691072461135, "trialdata": {"revealed_states": [], "clicked_states": [], "num_clicks_accrued": [0, 0, 0, 0, 0, 0, 0, 0, 0, 0, 0, 0, 0], "stateRewards": ["", 2, -4, -4, 13, -80, 62, 13, -11, 57, -13, -44, 1, 4, 3, -4, -29, -88, 15, 16, -58, 68, -45, -1, -3, -1, -9, -44, -86, -19, -7, -36, 59, 66], "withholdReward": false, "trial_id": "mdp_trial_22", "block": "test", "trialIndex": 27, "score": -48, "costs": 0, "simulationMode": [null, null, null, null, null], "rewards": [-1, -3, -1, -7, -36], "path": ["0", "0", "23", "24", "25", "30", "31"], "rt": [1576, 845, 311, 85, 184], "actions": ["left", "left", "left", "down", "right"], "actionTimes": [3448, 4816, 5632, 6222, 6903], "queries": {"click": {"state": {"target": [], "time": []}, "edge": {"target": [], "time": []}}, "mouseover": {"state": {"target": [], "time": []}, "edge": {"target": [], "time": []}}, "mouseout": {"state": {"target": ["0"], "time": [1546]}, "edge": {"target": [], "time": []}}}, "displayed_time": "15.88", "trialTime": 16912, "trial_type": "mouselab-mdp", "trial_index": 42, "time_elapsed": 1693987, "internal_node_id": "0.0-4.0-1.0-21.0"}}, {"uniqueid": "w41586610:a82492752", "current_trial": 43, "dateTime": 1691072478543, "trialdata": {"revealed_states": [], "clicked_states": [], "num_clicks_accrued": [0, 0, 0, 0, 0, 0, 0, 0, 0, 0, 0, 0, 0], "stateRewards": ["", -2, 1, -7, 9, 8, 25, 61, -7, -17, 69, -81, 1, 4, -4, -11, 16, 67, 44, 3, 6, -45, -54, -2, 3, 6, -11, -15, 32, -47, 3, -39, -6, -88], "withholdReward": false, "trial_id": "mdp_trial_23", "block": "test", "trialIndex": 28, "score": 10, "costs": 0, "simulationMode": [null, null, null, null, null], "rewards": [1, 4, -4, 3, 6], "path": ["0", "0", "12", "13", "14", "19", "20"], "rt": [1188, 376, 1866, 204, 631], "actions": ["right", "right", "right", "down", "right"], "actionTimes": [2797, 3669, 6038, 6742, 7886], "queries": {"click": {"state": {"target": [], "time": []}, "edge": {"target": [], "time": []}}, "mouseover": {"state": {"target": [], "time": []}, "edge": {"target": [], "time": []}}, "mouseout": {"state": {"target": ["0"], "time": [1296]}, "edge": {"target": [], "time": []}}}, "displayed_time": "15.61", "trialTime": 16855, "trial_type": "mouselab-mdp", "trial_index": 43, "time_elapsed": 1711396, "internal_node_id": "0.0-4.0-1.0-22.0"}}, {"uniqueid": "w41586610:a82492752", "current_trial": 44, "dateTime": 1691072496867, "trialdata": {"revealed_states": [], "clicked_states": [], "num_clicks_accrued": [0, 0, 0, 0, 0, 0, 0, 0, 0, 0, 0, 0, 0], "stateRewards": ["", 1, 1, -5, 10, -31, 73, 14, -8, -23, 63, -70, -1, 2, 8, 7, 25, -59, 27, -10, -40, -71, -15, -2, 3, -8, -5, -19, 77, -34, 7, 67, 63, 19], "withholdReward": false, "trial_id": "mdp_trial_24", "block": "test", "trialIndex": 29, "score": 43, "costs": 0, "simulationMode": [null, null, null, null, null], "rewards": [-1, 2, 8, 7, 27], "path": ["0", "0", "12", "13", "14", "15", "18"], "rt": [992, 469, 174, 348, 733], "actions": ["right", "right", "right", "up", "left"], "actionTimes": [2960, 3928, 4600, 5440, 6680], "queries": {"click": {"state": {"target": [], "time": []}, "edge": {"target": [], "time": []}}, "mouseover": {"state": {"target": [], "time": []}, "edge": {"target": [], "time": []}}, "mouseout": {"state": {"target": ["0"], "time": [1636]}, "edge": {"target": [], "time": []}}}, "displayed_time": "15.97", "trialTime": 17745, "trial_type": "mouselab-mdp", "trial_index": 44, "time_elapsed": 1729717, "internal_node_id": "0.0-4.0-1.0-23.0"}}, {"uniqueid": "w41586610:a82492752", "current_trial": 45, "dateTime": 1691072515297, "trialdata": {"revealed_states": [], "clicked_states": [], "num_clicks_accrued": [0, 0, 0, 0, 0, 0, 0, 0, 0, 0, 0, 0, 0], "stateRewards": ["", -1, 4, 3, 12, -27, 34, -33, 3, -63, 1, 6, 2, 2, -6, -11, -77, -85, 68, -6, 51, 81, -60, -2, -2, 1, 15, 20, 15, 68, -10, -14, 6, -4], "withholdReward": false, "trial_id": "mdp_trial_25", "block": "test", "trialIndex": 30, "score": -15, "costs": 0, "simulationMode": [null, null, null, null, null], "rewards": [-1, 4, 3, 12, -33], "path": ["0", "0", "1", "2", "3", "4", "7"], "rt": [1067, 273, 160, 22, 89], "actions": ["up", "up", "up", "right", "down"], "actionTimes": [3327, 4110, 4782, 5342, 5926], "queries": {"click": {"state": {"target": [], "time": []}, "edge": {"target": [], "time": []}}, "mouseover": {"state": {"target": [], "time": []}, "edge": {"target": [], "time": []}}, "mouseout": {"state": {"target": ["0"], "time": [1940]}, "edge": {"target": [], "time": []}}}, "displayed_time": "16.26", "trialTime": 17855, "trial_type": "mouselab-mdp", "trial_index": 45, "time_elapsed": 1748149, "internal_node_id": "0.0-4.0-1.0-24.0"}}, {"uniqueid": "w41586610:a82492752", "current_trial": 46, "dateTime": 1691072533751, "trialdata": {"revealed_states": [], "clicked_states": [], "num_clicks_accrued": [0, 0, 0, 0, 0, 0, 0, 0, 0, 0, 0, 0, 0], "stateRewards": ["", 2, -1, -1, 7, 11, -40, -22, -2, 69, 37, 8, -2, 4, -8, -12, -2, -72, -3, -12, 17, 63, 12, 1, 3, -7, 6, 25, 61, 61, -9, 28, -17, 27], "withholdReward": false, "trial_id": "mdp_trial_26", "block": "test", "trialIndex": 31, "score": 64, "costs": 0, "simulationMode": [null, null, null, null, null], "rewards": [1, 3, -7, 6, 61], "path": ["0", "0", "23", "24", "25", "26", "28"], "rt": [1247, 495, 437, 344, 118], "actions": ["left", "left", "left", "up", "right"], "actionTimes": [3754, 4754, 5690, 6546, 7170], "queries": {"click": {"state": {"target": [], "time": []}, "edge": {"target": [], "time": []}}, "mouseover": {"state": {"target": [], "time": []}, "edge": {"target": [], "time": []}}, "mouseout": {"state": {"target": ["0"], "time": [2196]}, "edge": {"target": [], "time": []}}}, "displayed_time": "16.51", "trialTime": 17826, "trial_type": "mouselab-mdp", "trial_index": 46, "time_elapsed": 1766603, "internal_node_id": "0.0-4.0-1.0-25.0"}}, {"uniqueid": "w41586610:a82492752", "current_trial": 47, "dateTime": 1691072551222, "trialdata": {"revealed_states": [], "clicked_states": [], "num_clicks_accrued": [0, 0, 0, 0, 0, 0, 0, 0, 0, 0, 0, 0, 0], "stateRewards": ["", 2, -1, 1, 10, -52, 86, -22, -2, -14, -63, 38, 1, 3, 7, -8, 11, -32, -27, 9, -71, 40, -87, -2, -1, 5, -7, 12, 31, -57, 13, 86, -58, 29], "withholdReward": false, "trial_id": "mdp_trial_27", "block": "test", "trialIndex": 32, "score": -43, "costs": 0, "simulationMode": [null, null, null, null, null], "rewards": [-2, -1, 5, 13, -58], "path": ["0", "0", "23", "24", "25", "30", "32"], "rt": [1283, 502, 263, 157, 374], "actions": ["left", "left", "left", "down", "down"], "actionTimes": [2885, 3900, 4660, 5324, 6188], "queries": {"click": {"state": {"target": [], "time": []}, "edge": {"target": [], "time": []}}, "mouseover": {"state": {"target": [], "time": []}, "edge": {"target": [], "time": []}}, "mouseout": {"state": {"target": ["0"], "time": [1277]}, "edge": {"target": [], "time": []}}}, "displayed_time": "15.61", "trialTime": 16876, "trial_type": "mouselab-mdp", "trial_index": 47, "time_elapsed": 1784075, "internal_node_id": "0.0-4.0-1.0-26.0"}}, {"uniqueid": "w41586610:a82492752", "current_trial": 48, "dateTime": 1691072568326, "trialdata": {"revealed_states": [], "clicked_states": [], "num_clicks_accrued": [0, 0, 0, 0, 0, 0, 0, 0, 0, 0, 0, 0, 0], "stateRewards": ["", -2, -3, -7, 7, -54, -69, -4, -14, -77, 22, 40, -2, -1, 5, 6, -35, 50, -60, 10, -28, 75, 57, 1, -4, -2, 2, 68, 34, -18, 12, 3, -21, -43], "withholdReward": false, "trial_id": "mdp_trial_28", "block": "test", "trialIndex": 33, "score": -16, "costs": 0, "simulationMode": [null, null, null, null, null], "rewards": [-2, -1, 5, 10, -28], "path": ["0", "0", "12", "13", "14", "19", "20"], "rt": [1238, 170, 223, 58, 611], "actions": ["right", "right", "right", "down", "right"], "actionTimes": [2524, 3203, 3924, 4492, 5629], "queries": {"click": {"state": {"target": [], "time": []}, "edge": {"target": [], "time": []}}, "mouseover": {"state": {"target": [], "time": []}, "edge": {"target": [], "time": []}}, "mouseout": {"state": {"target": ["0"], "time": [958]}, "edge": {"target": [], "time": []}}}, "displayed_time": "15.29", "trialTime": 16500, "trial_type": "mouselab-mdp", "trial_index": 48, "time_elapsed": 1801179, "internal_node_id": "0.0-4.0-1.0-27.0"}}, {"uniqueid": "w41586610:a82492752", "current_trial": 49, "dateTime": 1691072588152, "trialdata": {"revealed_states": [], "clicked_states": [], "num_clicks_accrued": [0, 0, 0, 0, 0, 0, 0, 0, 0, 0, 0, 0, 0], "stateRewards": ["", 2, -3, 5, -14, -63, -9, -24, -11, -54, -43, 68, 2, -2, -4, 7, -64, 30, 47, 12, -74, 11, 86, 1, -3, 3, 10, -71, -42, -52, -1, -29, -16, 69], "withholdReward": false, "trial_id": "mdp_trial_29", "block": "test", "trialIndex": 34, "score": 61, "costs": 0, "simulationMode": [null, null, null, null, null], "rewards": [2, -3, 5, -11, 68], "path": ["0", "0", "1", "2", "3", "8", "11"], "rt": [605, 263, 288, 160, 254], "actions": ["up", "up", "up", "left", "left"], "actionTimes": [2301, 3061, 3853, 4509, 5269], "queries": {"click": {"state": {"target": [], "time": []}, "edge": {"target": [], "time": []}}, "mouseover": {"state": {"target": [], "time": []}, "edge": {"target": [], "time": []}}, "mouseout": {"state": {"target": ["0"], "time": [1359]}, "edge": {"target": [], "time": []}}}, "displayed_time": "15.70", "trialTime": 19206, "trial_type": "mouselab-mdp", "trial_index": 49, "time_elapsed": 1821005, "internal_node_id": "0.0-4.0-1.0-28.0"}}, {"uniqueid": "w41586610:a82492752", "current_trial": 50, "dateTime": 1691072606335, "trialdata": {"revealed_states": [], "clicked_states": [], "num_clicks_accrued": [0, 0, 0, 0, 0, 0, 0, 0, 0, 0, 0, 0, 0], "stateRewards": ["", 1, -1, 1, -14, -10, 67, -28, -11, 72, 40, -65, -1, 1, 1, -2, 8, -55, 34, -10, 61, 33, -15, 2, -4, 7, 4, -75, 63, -21, -16, 61, 19, 21], "withholdReward": false, "trial_id": "mdp_trial_30", "block": "test", "trialIndex": 35, "score": -41, "costs": 0, "simulationMode": [null, null, null, null, null], "rewards": [1, -1, 1, -14, -28], "path": ["0", "0", "1", "2", "3", "4", "7"], "rt": [994, 523, 1082, 138, 233], "actions": ["up", "up", "up", "right", "down"], "actionTimes": [2993, 4016, 5608, 6248, 6993], "queries": {"click": {"state": {"target": [], "time": []}, "edge": {"target": [], "time": []}}, "mouseover": {"state": {"target": [], "time": []}, "edge": {"target": [], "time": []}}, "mouseout": {"state": {"target": ["0"], "time": [1666]}, "edge": {"target": [], "time": []}}}, "displayed_time": "16.00", "trialTime": 17585, "trial_type": "mouselab-mdp", "trial_index": 50, "time_elapsed": 1839188, "internal_node_id": "0.0-4.0-1.0-29.0"}}, {"uniqueid": "w41586610:a82492752", "current_trial": 51, "dateTime": 1691072623694, "trialdata": {"revealed_states": [], "clicked_states": [], "num_clicks_accrued": [0, 0, 0, 0, 0, 0, 0, 0, 0, 0, 0, 0, 0], "stateRewards": ["", 1, 3, -2, 15, 51, 15, -19, 11, 67, -45, -73, 2, 4, -2, -13, 36, 9, -28, 10, -30, 31, 16, 1, 2, -1, -16, 14, -22, 36, -1, 88, -5, 45], "withholdReward": false, "trial_id": "mdp_trial_31", "block": "test", "trialIndex": 36, "score": -36, "costs": 0, "simulationMode": [null, null, null, null, null], "rewards": [1, 2, -1, -16, -22], "path": ["0", "0", "23", "24", "25", "26", "28"], "rt": [1413, 499, 195, 118, 125], "actions": ["left", "left", "left", "up", "right"], "actionTimes": [2778, 3786, 4483, 5122, 5745], "queries": {"click": {"state": {"target": [], "time": []}, "edge": {"target": [], "time": []}}, "mouseover": {"state": {"target": [], "time": []}, "edge": {"target": [], "time": []}}, "mouseout": {"state": {"target": ["0"], "time": [1030]}, "edge": {"target": [], "time": []}}}, "displayed_time": "15.37", "trialTime": 16738, "trial_type": "mouselab-mdp", "trial_index": 51, "time_elapsed": 1856546, "internal_node_id": "0.0-4.0-1.0-30.0"}}, {"uniqueid": "w41586610:a82492752", "current_trial": 52, "dateTime": 1691072641183, "trialdata": {"revealed_states": [], "clicked_states": [], "num_clicks_accrued": [0, 0, 0, 0, 0, 0, 0, 0, 0, 0, 0, 0, 0], "stateRewards": ["", 2, 3, -1, 16, -78, -11, 46, 2, -20, 79, -67, 2, 3, 2, 11, -83, -42, -58, -11, -67, -22, 55, 2, -1, -1, -16, -83, -82, 23, -11, -29, 13, 13], "withholdReward": false, "trial_id": "mdp_trial_32", "block": "test", "trialIndex": 37, "score": 2, "costs": 0, "simulationMode": [null, null, null, null, null], "rewards": [2, -1, -1, -11, 13], "path": ["0", "0", "23", "24", "25", "30", "32"], "rt": [822, 498, 483, 307, 508], "actions": ["left", "left", "left", "down", "down"], "actionTimes": [2213, 3212, 4196, 5004, 6004], "queries": {"click": {"state": {"target": [], "time": []}, "edge": {"target": [], "time": []}}, "mouseover": {"state": {"target": [], "time": []}, "edge": {"target": [], "time": []}}, "mouseout": {"state": {"target": ["0"], "time": [1015]}, "edge": {"target": [], "time": []}}}, "displayed_time": "15.39", "trialTime": 16852, "trial_type": "mouselab-mdp", "trial_index": 52, "time_elapsed": 1874035, "internal_node_id": "0.0-4.0-1.0-31.0"}}, {"uniqueid": "w41586610:a82492752", "current_trial": 53, "dateTime": 1691072661671, "trialdata": {"revealed_states": [], "clicked_states": [], "num_clicks_accrued": [0, 0, 0, 0, 0, 0, 0, 0, 0, 0, 0, 0, 0], "stateRewards": ["", -2, -4, 4, -11, -63, -60, -7, 2, -14, 81, -43, -1, -1, -5, 7, 10, 69, 40, 8, -83, 52, 60, 1, 2, 5, -5, 16, 64, 14, -3, 29, 7, -51], "withholdReward": false, "trial_id": "mdp_trial_33", "block": "test", "trialIndex": 38, "score": -82, "costs": 0, "simulationMode": [null, null, null, null, null], "rewards": [-1, -1, -5, 8, -83], "path": ["0", "0", "12", "13", "14", "19", "20"], "rt": [3072, 349, 260, 864, 174], "actions": ["right", "right", "right", "down", "right"], "actionTimes": [4834, 5697, 6457, 7818, 8488], "queries": {"click": {"state": {"target": [], "time": []}, "edge": {"target": [], "time": []}}, "mouseover": {"state": {"target": [], "time": []}, "edge": {"target": [], "time": []}}, "mouseout": {"state": {"target": ["0"], "time": [1421]}, "edge": {"target": [], "time": []}}}, "displayed_time": "15.76", "trialTime": 19842, "trial_type": "mouselab-mdp", "trial_index": 53, "time_elapsed": 1894523, "internal_node_id": "0.0-4.0-1.0-32.0"}}, {"uniqueid": "w41586610:a82492752", "current_trial": 54, "dateTime": 1691072679069, "trialdata": {"revealed_states": [], "clicked_states": [], "num_clicks_accrued": [0, 0, 0, 0, 0, 0, 0, 0, 0, 0, 0, 0, 0], "stateRewards": ["", -2, 1, -7, -8, -37, -76, -87, 11, 30, -63, 80, -1, 4, 2, -1, 42, 17, 52, -3, -75, -80, -68, 2, -3, -5, -15, -48, 82, 24, -7, 5, -22, -71], "withholdReward": false, "trial_id": "mdp_trial_34", "block": "test", "trialIndex": 39, "score": -53, "costs": 0, "simulationMode": [null, null, null, null, null], "rewards": [-2, 1, -7, -8, -37], "path": ["0", "0", "1", "2", "3", "4", "5"], "rt": [931, 219, 358, 139, 82], "actions": ["up", "up", "up", "right", "up"], "actionTimes": [2232, 2951, 3807, 4439, 5031], "queries": {"click": {"state": {"target": [], "time": []}, "edge": {"target": [], "time": []}}, "mouseover": {"state": {"target": [], "time": []}, "edge": {"target": [], "time": []}}, "mouseout": {"state": {"target": ["0"], "time": [931]}, "edge": {"target": [], "time": []}}}, "displayed_time": "15.30", "trialTime": 16760, "trial_type": "mouselab-mdp", "trial_index": 54, "time_elapsed": 1911922, "internal_node_id": "0.0-4.0-1.0-33.0"}}, {"uniqueid": "w41586610:a82492752", "current_trial": 55, "dateTime": 1691072702758, "trialdata": {"revealed_states": [], "clicked_states": [], "num_clicks_accrued": [0, 0, 0, 0, 0, 0, 0, 0, 0, 0, 0, 0, 0], "stateRewards": ["", 2, 1, -3, 7, 46, 11, -36, 16, 71, 5, 1, 2, -2, -8, -3, -4, 6, 55, 7, 68, -54, 2, 1, 1, 6, -6, 42, -4, -84, -11, -65, 63, 25], "withholdReward": false, "trial_id": "mdp_trial_35", "block": "test", "trialIndex": 40, "score": 87, "costs": 0, "simulationMode": [null, null, null, null, null], "rewards": [2, 1, -3, 16, 71], "path": ["0", "0", "1", "2", "3", "8", "9"], "rt": [700, 469, 159, 92, 822], "actions": ["up", "up", "up", "left", "up"], "actionTimes": [2152, 3119, 3775, 4358, 5688], "queries": {"click": {"state": {"target": [], "time": []}, "edge": {"target": [], "time": []}}, "mouseover": {"state": {"target": [], "time": []}, "edge": {"target": [], "time": []}}, "mouseout": {"state": {"target": ["0"], "time": [1106]}, "edge": {"target": [], "time": []}}}, "displayed_time": "15.46", "trialTime": 23033, "trial_type": "mouselab-mdp", "trial_index": 55, "time_elapsed": 1935611, "internal_node_id": "0.0-4.0-1.0-34.0"}}, {"uniqueid": "w41586610:a82492752", "current_trial": 56, "dateTime": 1691072720455, "trialdata": {"revealed_states": [], "clicked_states": [], "num_clicks_accrued": [0, 0, 0, 0, 0, 0, 0, 0, 0, 0, 0, 0, 0], "stateRewards": ["", 1, 3, 3, -10, 52, 68, 59, 12, 7, 49, 21, -2, -3, -4, -2, -2, 63, 63, -4, 44, 43, -76, -2, -3, -6, 13, 48, 36, 12, -5, -36, -33, -11], "withholdReward": false, "trial_id": "mdp_trial_36", "block": "test", "trialIndex": 41, "score": 38, "costs": 0, "simulationMode": [null, null, null, null, null], "rewards": [-2, -3, -6, 13, 36], "path": ["0", "0", "23", "24", "25", "26", "28"], "rt": [1085, 270, 464, 153, 29], "actions": ["left", "left", "left", "up", "right"], "actionTimes": [2234, 3018, 3978, 4634, 5161], "queries": {"click": {"state": {"target": [], "time": []}, "edge": {"target": [], "time": []}}, "mouseover": {"state": {"target": [], "time": []}, "edge": {"target": [], "time": []}}, "mouseout": {"state": {"target": ["0"], "time": [779]}, "edge": {"target": [], "time": []}}}, "displayed_time": "15.15", "trialTime": 17043, "trial_type": "mouselab-mdp", "trial_index": 56, "time_elapsed": 1953307, "internal_node_id": "0.0-4.0-1.0-35.0"}}, {"uniqueid": "w41586610:a82492752", "current_trial": 57, "dateTime": 1691072741941, "trialdata": {"revealed_states": [], "clicked_states": [], "num_clicks_accrued": [0, 0, 0, 0, 0, 0, 0, 0, 0, 0, 0, 0, 0], "stateRewards": ["", -2, -2, -7, -13, -10, 49, -68, -1, 84, 70, 88, 1, 4, 4, 12, -57, 25, 30, 8, -1, -77, 57, 2, 3, 2, 3, -18, -80, 23, -15, -41, 70, 11], "withholdReward": false, "trial_id": "mdp_trial_37", "block": "test", "trialIndex": 42, "score": -92, "costs": 0, "simulationMode": [null, null, null, null, null], "rewards": [-2, -2, -7, -13, -68], "path": ["0", "0", "1", "2", "3", "4", "7"], "rt": [1388, 460, 230, 231, 331], "actions": ["up", "up", "up", "right", "down"], "actionTimes": [2342, 3315, 4036, 4771, 5620], "queries": {"click": {"state": {"target": [], "time": []}, "edge": {"target": [], "time": []}}, "mouseover": {"state": {"target": [], "time": []}, "edge": {"target": [], "time": []}}, "mouseout": {"state": {"target": ["0"], "time": [600]}, "edge": {"target": [], "time": []}}}, "displayed_time": "14.96", "trialTime": 20788, "trial_type": "mouselab-mdp", "trial_index": 57, "time_elapsed": 1974794, "internal_node_id": "0.0-4.0-1.0-36.0"}}, {"uniqueid": "w41586610:a82492752", "current_trial": 58, "dateTime": 1691072764049, "trialdata": {"revealed_states": [], "clicked_states": [], "num_clicks_accrued": [0, 0, 0, 0, 0, 0, 0, 0, 0, 0, 0, 0, 0], "stateRewards": ["", -2, 2, 8, -6, -25, 3, 87, 2, -62, -2, 74, -2, -1, 2, -1, 79, 49, -37, -14, 5, 67, -9, -1, 2, -2, 5, 15, 38, 32, -14, -38, -38, 30], "withholdReward": false, "trial_id": "mdp_trial_38", "block": "test", "trialIndex": 43, "score": -23, "costs": 0, "simulationMode": [null, null, null, null, null], "rewards": [-2, 2, 8, -6, -25], "path": ["0", "0", "1", "2", "3", "4", "5"], "rt": [663, 324, 83, 91, 331], "actions": ["up", "up", "up", "right", "up"], "actionTimes": [2088, 2904, 3479, 4087, 4928], "queries": {"click": {"state": {"target": [], "time": []}, "edge": {"target": [], "time": []}}, "mouseover": {"state": {"target": [], "time": []}, "edge": {"target": [], "time": []}}, "mouseout": {"state": {"target": ["0"], "time": [1044]}, "edge": {"target": [], "time": []}}}, "displayed_time": "15.43", "trialTime": 21422, "trial_type": "mouselab-mdp", "trial_index": 58, "time_elapsed": 1996902, "internal_node_id": "0.0-4.0-1.0-37.0"}}, {"uniqueid": "w41586610:a82492752", "current_trial": 59, "dateTime": 1691072782061, "trialdata": {"revealed_states": [], "clicked_states": [], "num_clicks_accrued": [0, 0, 0, 0, 0, 0, 0, 0, 0, 0, 0, 0, 0], "stateRewards": ["", -2, 2, -1, -6, 22, 6, 6, -5, 70, -42, 65, 1, 3, 5, -6, -67, -9, 3, 14, 7, -62, -13, -2, 4, 1, 16, 42, -21, -52, -8, 32, 53, 81], "withholdReward": false, "trial_id": "mdp_trial_39", "block": "test", "trialIndex": 44, "score": 59, "costs": 0, "simulationMode": [null, null, null, null, null], "rewards": [-2, 2, -1, -5, 65], "path": ["0", "0", "1", "2", "3", "8", "11"], "rt": [749, 342, 268, 254, 208], "actions": ["up", "up", "up", "left", "left"], "actionTimes": [1906, 2745, 3505, 4257, 4961], "queries": {"click": {"state": {"target": [], "time": []}, "edge": {"target": [], "time": []}}, "mouseover": {"state": {"target": [], "time": []}, "edge": {"target": [], "time": []}}, "mouseout": {"state": {"target": ["0"], "time": [778]}, "edge": {"target": [], "time": []}}}, "displayed_time": "15.16", "trialTime": 17289, "trial_type": "mouselab-mdp", "trial_index": 59, "time_elapsed": 2014914, "internal_node_id": "0.0-4.0-1.0-38.0"}}, {"uniqueid": "w41586610:a82492752", "current_trial": 60, "dateTime": 1691072802160, "trialdata": {"revealed_states": [], "clicked_states": [], "num_clicks_accrued": [0, 0, 0, 0, 0, 0, 0, 0, 0, 0, 0, 0, 0], "stateRewards": ["", -2, -3, 1, -14, 48, -49, 67, -1, -35, -48, 3, -2, 1, -4, -5, 86, -84, 39, 1, 48, 41, -42, -1, -4, 2, -7, 18, -86, 17, 7, -9, 57, -69], "withholdReward": false, "trial_id": "mdp_trial_40", "block": "test", "trialIndex": 45, "score": -53, "costs": 0, "simulationMode": [null, null, null, null, null], "rewards": [-2, -3, 1, -1, -48], "path": ["0", "0", "1", "2", "3", "8", "10"], "rt": [759, 366, 298, 232, 437], "actions": ["up", "up", "up", "left", "down"], "actionTimes": [2789, 3646, 4445, 5180, 6117], "queries": {"click": {"state": {"target": [], "time": []}, "edge": {"target": [], "time": []}}, "mouseover": {"state": {"target": [], "time": []}, "edge": {"target": [], "time": []}}, "mouseout": {"state": {"target": ["0"], "time": [1648]}, "edge": {"target": [], "time": []}}}, "displayed_time": "16.03", "trialTime": 19435, "trial_type": "mouselab-mdp", "trial_index": 60, "time_elapsed": 2035013, "internal_node_id": "0.0-4.0-1.0-39.0"}}, {"uniqueid": "w41586610:a82492752", "current_trial": 61, "dateTime": 1691072849155, "trialdata": {"rt": 46990, "response": {"Q0": "$-2 to $2", "Q1": "$-16 to $16", "Q2": "$-16 to $16", "Q3": "The cost for clicking on nodes varied between nodes.", "Q4": "Slightly motivated"}, "question_order": [0, 1, 2, 3, 4], "trial_id": "final_quiz_control", "trial_type": "survey-multi-choice", "trial_index": 61, "time_elapsed": 2082009, "internal_node_id": "0.0-4.0-2.0"}}, {"uniqueid": "w41586610:a82492752", "current_trial": 62, "dateTime": 1691072954282, "trialdata": {"rt": 105118, "response": {"Q0": "I USED DIFFRENT PATTERNS EVERYTIME.It didn't work like I planned it. I have to use other patterns next time", "Q1": "No , it did not improve", "Q2": "very difficult"}, "trial_id": "self_report_control", "trial_type": "survey-text", "trial_index": 62, "time_elapsed": 2187136, "internal_node_id": "0.0-4.0-3.0"}}, {"uniqueid": "w41586610:a82492752", "current_trial": 63, "dateTime": 1691073003194, "trialdata": {"rt": 48907, "response": {"Q0": "Neither disagree nor agree", "Q1": "Neither disagree nor agree", "Q2": "Neither disagree nor agree", "Q3": "Agree", "Q4": "Neither disagree nor agree", "Q5": "Disagree", "Q6": "Agree"}, "question_order": [0, 1, 2, 3, 4, 5, 6], "trial_id": "self_report_2", "trial_type": "survey-multi-choice", "trial_index": 63, "time_elapsed": 2236048, "internal_node_id": "0.0-4.0-4.0"}}, {"uniqueid": "w41586610:a82492752", "current_trial": 64, "dateTime": 1691073032018, "trialdata": {"rt": 28817, "response": {"gender": "female", "age": "29", "colorblind": "0", "effort": "0"}, "trial_type": "survey-html-form", "trial_index": 64, "time_elapsed": 2264872, "internal_node_id": "0.0-4.0-5.0"}}, {"uniqueid": "w41586610:a82492752", "current_trial": 65, "dateTime": 1691073060282, "trialdata": {"rt": 28253, "response": {"Q0": "none", "Q1": "no ", "Q2": "none"}, "trial_type": "survey-text", "trial_index": 65, "time_elapsed": 2293136, "internal_node_id": "0.0-4.0-6.0"}}, {"uniqueid": "w41586610:a82492752", "current_trial": 66, "dateTime": 1691073061986, "trialdata": {"rt": 1699, "stimulus": "Press 'Finish HIT' in order to reach the completion code. Once the data has been saved, you will receive the code either in this window or in the original browser window where you started the experiment.\n", "response": 0, "trial_type": "html-button-response", "trial_index": 66, "time_elapsed": 2294840, "internal_node_id": "0.0-5.0"}}, {"uniqueid": "w41586610:a82492752", "current_trial": 67, "dateTime": 1691073062990, "trialdata": {"success": true, "trial_type": "fullscreen", "trial_index": 67, "time_elapsed": 2295844, "internal_node_id": "0.0-6.0"}}], "questiondata": {"params": {"CODE": "C6DMOQA6", "MIN_TIME": 14, "inspectCost": 1, "startTime": "Thu Aug 03 2023 15:52:42 GMT+0200 (South Africa Standard Time)", "bonusRate": 0.002, "variance": "1_2_4_8_44", "branching": "31123"}, "final_score": -110}, "eventdata": [{"eventtype": "initialized", "value": null, "timestamp": 1691070762083, "interval": 0}, {"eventtype": "window_resize", "value": [1032, 608], "timestamp": 1691070762083, "interval": 0}, {"eventtype": "window_resize", "value": [1032, 608], "timestamp": 1691070762606, "interval": 523}, {"eventtype": "window_resize", "value": [1280, 720], "timestamp": 1691070776557, "interval": 13951}, {"eventtype": "focus", "value": "off", "timestamp": 1691071111132, "interval": 334575}, {"eventtype": "focus", "value": "on", "timestamp": 1691071111132, "interval": 0}, {"eventtype": "window_resize", "value": [1032, 608], "timestamp": 1691071111344, "interval": 212}, {"eventtype": "window_resize", "value": [1280, 720], "timestamp": 1691071113042, "interval": 1698}, {"eventtype": "window_resize", "value": [1032, 608], "timestamp": 1691071238425, "interval": 125383}, {"eventtype": "window_resize", "value": [1280, 622], "timestamp": 1691071246259, "interval": 7834}, {"eventtype": "focus", "value": "off", "timestamp": 1691071257093, "interval": 10834}, {"eventtype": "focus", "value": "on", "timestamp": 1691071264417, "interval": 7324}, {"eventtype": "focus", "value": "off", "timestamp": 1691071718861, "interval": 454444}, {"eventtype": "focus", "value": "on", "timestamp": 1691071718861, "interval": 0}, {"eventtype": "window_resize", "value": [1280, 720], "timestamp": 1691071736175, "interval": 17314}, {"eventtype": "window_resize", "value": [1280, 622], "timestamp": 1691073062241, "interval": 1326066}], "useragent": "Mozilla/5.0 (Windows NT 10.0; Win64; x64) AppleWebKit/537.36 (KHTML, like Gecko) Chrome/115.0.0.0 Safari/537.36", "mode": "live", "id": "w41586610:a82492752", "status": "user data saved", "Beginhit": "2023-08-03 13:52:38.74018", "Beginexp": "2023-08-03 13:52:56.912862", "Endhit": "2023-08-03 14:31:03.713222", "psiturkStatus": 3, "browser": "<redacted>", "platform": "windows", "language": "en-US"}