{"condition": 1, "counterbalance": 0, "assignmentId": "a67621467", "workerId": "w51455990", "hitId": "h85221723", "currenttrial": 56, "bonus": 0, "data": [{"uniqueid": "w51455990:a67621467", "current_trial": 0, "dateTime": 1693660351876, "trialdata": {"success": true, "trial_type": "fullscreen", "trial_index": 0, "time_elapsed": 3504, "internal_node_id": "0.0-0.0"}}, {"uniqueid": "w51455990:a67621467", "current_trial": 1, "dateTime": 1693660363519, "trialdata": {"view_history": [{"page_index": 0, "viewing_time": 11638}], "rt": 11638, "trial_id": "exp_instructions_misaligned", "trial_type": "instructions", "trial_index": 1, "time_elapsed": 15147, "internal_node_id": "0.0-1.0"}}, {"uniqueid": "w51455990:a67621467", "current_trial": 2, "dateTime": 1693660621195, "trialdata": {"view_history": [{"page_index": 0, "viewing_time": 61549}, {"page_index": 1, "viewing_time": 115144}, {"page_index": 2, "viewing_time": 40695}, {"page_index": 3, "viewing_time": 40278}], "rt": 257666, "trial_id": "mouselab_instructions_1_misaligned", "trial_type": "instructions", "trial_index": 2, "time_elapsed": 272823, "internal_node_id": "0.0-2.0-1.0"}}, {"uniqueid": "w51455990:a67621467", "current_trial": 3, "dateTime": 1693660663457, "trialdata": {"revealed_states": [], "clicked_states": ["1", "2", "24", "23", "19", "14"], "num_clicks_accrued": [0, 0, 0, 0, 0, 0, 0, 0, 0, 0, 0, 0, 0], "stateRewards": ["", 10, 10, 10, -10, 10, -10, 10, -10, 10, -10, 10, -10, 10, -10, -10, -10, 10, 10, 10, -10, 10, -10, -10, 10, -10, 10, -10, -10, 10, -10, -10, -10, 10], "withholdReward": false, "trial_id": "practice_1", "block": "test", "trialIndex": 0, "score": 30.5, "costs": -3, "simulationMode": [null, null, null, null, null], "rewards": [10, 10, 10, -10, 10], "path": ["0", "0", "1", "2", "3", "8", "9"], "rt": [27338, 568, 365, 390, 416], "actions": ["up", "up", "up", "left", "up"], "actionTimes": [30175, 31242, 32108, 32998, 33909], "queries": {"click": {"state": {"target": ["1", "2", "24", "23", "19", "14"], "time": [4585, 8848, 16107, 21263, 25252, 27336]}, "edge": {"target": [], "time": []}}, "mouseover": {"state": {"target": ["1", "2", "10", "10", "3", "2", "1", "23", "23", "23", "24", "23", "0", "12", "13", "12", "19", "19", "14", "13", "12"], "time": [4078, 6195, 11602, 11916, 12569, 13501, 13535, 13668, 14105, 14620, 15019, 17257, 22013, 22046, 22096, 22696, 24900, 25065, 26168, 28219, 28271]}, "edge": {"target": [], "time": []}}, "mouseout": {"state": {"target": ["12", "13", "1", "2", "10", "10", "3", "2", "1", "23", "23", "23", "24", "23", "0", "12", "13", "12", "19", "19", "14", "13", "12"], "time": [1137, 1171, 6094, 10786, 11649, 12535, 13486, 13519, 13571, 13718, 14337, 14920, 17173, 21997, 22030, 22078, 22415, 24537, 24966, 26100, 28203, 28252, 28520]}, "edge": {"target": [], "time": []}}}, "displayed_time": "34.41", "trialTime": 41357, "trial_type": "mouselab-mdp", "trial_index": 3, "time_elapsed": 315065, "internal_node_id": "0.0-2.0-2.0-0.0"}}, {"uniqueid": "w51455990:a67621467", "current_trial": 4, "dateTime": 1693660682554, "trialdata": {"revealed_states": [], "clicked_states": ["9", "5", "29"], "num_clicks_accrued": [0, 0, 0, 0, 0, 0, 0, 0, 0, 0, 0, 0, 0], "stateRewards": ["", -10, -10, 10, -10, 10, -10, 10, 10, 10, 10, -10, -10, 10, -10, 10, -10, 10, -10, -10, 10, 10, 10, -10, -10, -10, -10, 10, -10, 10, -10, -10, 10, -10], "withholdReward": false, "trial_id": "practice_2", "block": "test", "trialIndex": 1, "score": -48, "costs": -1.5, "simulationMode": [null, null, null, null, null], "rewards": [-10, -10, -10, -10, -10], "path": ["0", "0", "23", "24", "25", "30", "33"], "rt": [7839, 773, 628, 339, 575], "actions": ["left", "left", "left", "down", "left"], "actionTimes": [9998, 11268, 12394, 13238, 14306], "queries": {"click": {"state": {"target": ["9", "5", "29"], "time": [3338, 5306, 7425]}, "edge": {"target": [], "time": []}}, "mouseover": {"state": {"target": ["0", "10", "8", "9", "5", "3", "29", "29", "1"], "time": [2177, 2684, 2702, 3000, 4835, 6722, 6824, 7093, 8640]}, "edge": {"target": [], "time": []}}, "mouseout": {"state": {"target": ["0", "0", "10", "8", "9", "5", "3", "29", "29", "1"], "time": [1665, 2617, 2700, 2967, 4736, 6704, 6737, 6857, 8608, 8657]}, "edge": {"target": [], "time": []}}}, "displayed_time": "14.80", "trialTime": 18503, "trial_type": "mouselab-mdp", "trial_index": 4, "time_elapsed": 334181, "internal_node_id": "0.0-2.0-2.0-1.0"}}, {"uniqueid": "w51455990:a67621467", "current_trial": 5, "dateTime": 1693660725179, "trialdata": {"view_history": [{"page_index": 0, "viewing_time": 31676}, {"page_index": 1, "viewing_time": 10945}], "rt": 42621, "trial_id": "mouselab_instructions_2_misaligned", "trial_type": "instructions", "trial_index": 5, "time_elapsed": 376807, "internal_node_id": "0.0-2.0-3.0"}}, {"uniqueid": "w51455990:a67621467", "current_trial": 6, "dateTime": 1693660761939, "trialdata": {"rt": 36755, "response": {"Q0": "The cost for clicking on nodes may vary between nodes.", "Q1": "The better I perform the higher my bonus will be.", "Q2": "No, the amount of cash at each node of the web may be different each time.", "Q3": "To get the highest total score.", "Q4": "Only before moving the spider.", "Q5": "3 seconds"}, "question_order": [0, 1, 2, 3, 4, 5], "correct": {"Q0": "The cost for clicking on nodes may vary between nodes.", "Q1": "The better I perform the higher my bonus will be.", "Q2": "No, the amount of cash at each node of the web may be different each time.", "Q3": "To get the highest total score.", "Q4": "Only before moving the spider.", "Q5": "3 seconds"}, "trial_id": "mouselab_quiz_misaligned", "trial_type": "survey-multi-choice", "trial_index": 6, "time_elapsed": 413567, "internal_node_id": "0.0-2.0-4.0"}}, {"uniqueid": "w51455990:a67621467", "current_trial": 7, "dateTime": 1693660767812, "trialdata": {"rt": 5866, "response": {"Q0": "No"}, "question_order": [0], "trial_id": "repeat_check", "trial_type": "survey-multi-choice", "trial_index": 7, "time_elapsed": 419440, "internal_node_id": "0.0-4.0-0.0"}}, {"uniqueid": "w51455990:a67621467", "current_trial": 8, "dateTime": 1693660778054, "trialdata": {"rt": 10236, "stimulus": "\n<h1> Get ready to start the game! </h1>\n\nThank you for reading the instructions. Get ready start with the 40 rounds of this game.\n<br><br>\nIf you need to take a break, feel free to take one after the end of a round, before continuing to the next one.\n<br><br>\nRemember, the more money the spider gets, the bigger your bonus will be!\n<br><br>\n<div style='text-align: center;'>Press <code>space</code> to begin.</div>\n\n<br><br>\n(If, at any point, the <code>space</code> key does not take you to the next page, click once on the text and try again.)", "response": " ", "trial_id": "mdp_ready", "trial_type": "html-keyboard-response", "trial_index": 8, "time_elapsed": 429682, "internal_node_id": "0.0-6.0-0.0"}}, {"uniqueid": "w51455990:a67621467", "current_trial": 9, "dateTime": 1693660814196, "trialdata": {"revealed_states": [], "clicked_states": ["5", "16", "20", "33", "27"], "num_clicks_accrued": [0, 0, 0, 0, 0, 0, 0, 0, 0, 0, 0, 0, 0], "stateRewards": ["", -2, -3, -7, 7, -54, -69, -4, -14, -77, 22, 40, -2, -1, 5, 6, -35, 50, -60, 10, -28, 75, 57, 1, -4, -2, 2, 68, 34, -18, 12, 3, -21, -43], "withholdReward": false, "trial_id": "mdp_trial_1", "block": "test", "trialIndex": 2, "score": -113.75, "costs": -10.75, "simulationMode": [null, null, null, null, null, null], "rewards": [-2, -3, -7, -14, -77], "path": ["0", "0", "1", "2", "3", "8", "9"], "rt": [15590, 576, 844, 3634, 272, 325], "actions": ["up", "up", "up", "up", "left", "up"], "actionTimes": [17367, 17946, 19286, 23426, 24202, 25024], "queries": {"click": {"state": {"target": ["5", "16", "20", "33", "27"], "time": [2758, 5693, 8746, 11667, 15020]}, "edge": {"target": [], "time": []}}, "mouseover": {"state": {"target": ["6", "5", "6", "16", "15", "20", "20", "19", "32", "33", "33", "27"], "time": [2071, 2303, 3891, 4141, 6413, 6464, 7660, 9447, 9912, 10930, 11165, 13266]}, "edge": {"target": [], "time": []}}, "mouseout": {"state": {"target": ["28", "6", "5", "5", "6", "16", "15", "20", "20", "19", "32", "33", "33", "27", "16", "8", "11", "27"], "time": [852, 2085, 3255, 3854, 3908, 6410, 6441, 6485, 9445, 9482, 10898, 10996, 12682, 28816, 29266, 31452, 31652, 32353]}, "edge": {"target": [], "time": []}}}, "displayed_time": "25.53", "trialTime": 35510, "trial_type": "mouselab-mdp", "trial_index": 9, "time_elapsed": 465798, "internal_node_id": "0.0-6.0-1.0-0.0"}}, {"uniqueid": "w51455990:a67621467", "current_trial": 10, "dateTime": 1693660846643, "trialdata": {"revealed_states": [], "clicked_states": ["27", "33", "21", "17", "6", "9"], "num_clicks_accrued": [0, 0, 0, 0, 0, 0, 0, 0, 0, 0, 0, 0, 0], "stateRewards": ["", -1, 4, -8, 12, 14, 69, -8, 5, -72, -14, 56, -1, -1, -1, 9, 67, 19, 11, -9, -88, -58, 3, 2, -4, -8, 4, 62, 77, -74, 5, -31, 65, 88], "withholdReward": false, "trial_id": "mdp_trial_2", "block": "test", "trialIndex": 3, "score": 70.1, "costs": -12.9, "simulationMode": [null, null, null, null, null], "rewards": [2, -4, -8, 5, 88], "path": ["0", "0", "23", "24", "25", "30", "33"], "rt": [21419, 823, 208, 198, 575], "actions": ["left", "left", "left", "down", "left"], "actionTimes": [23836, 25174, 25894, 26603, 27672], "queries": {"click": {"state": {"target": ["27", "33", "21", "17", "6", "9"], "time": [3502, 6589, 9693, 12930, 16269, 19588]}, "edge": {"target": [], "time": []}}, "mouseover": {"state": {"target": ["28", "27", "25", "25", "25", "33", "30", "21", "20", "20", "17", "6", "6", "5", "9", "9"], "time": [2982, 3217, 4016, 4312, 4667, 5270, 7454, 8056, 10541, 10875, 11574, 15231, 15413, 17148, 17233, 17483]}, "edge": {"target": [], "time": []}}, "mouseout": {"state": {"target": ["12", "0", "28", "27", "25", "25", "25", "33", "30", "21", "20", "20", "17", "6", "6", "5", "9", "9"], "time": [1581, 1863, 3016, 3986, 4050, 4403, 4869, 7437, 7470, 10508, 10593, 11274, 15149, 15265, 16631, 17183, 17250, 22891]}, "edge": {"target": [], "time": []}}}, "displayed_time": "28.16", "trialTime": 31824, "trial_type": "mouselab-mdp", "trial_index": 10, "time_elapsed": 498257, "internal_node_id": "0.0-6.0-1.0-1.0"}}, {"uniqueid": "w51455990:a67621467", "current_trial": 11, "dateTime": 1693660890281, "trialdata": {"revealed_states": [], "clicked_states": ["29", "33", "31", "22", "16", "5", "17", "21", "20"], "num_clicks_accrued": [0, 0, 0, 0, 0, 0, 0, 0, 0, 0, 0, 0, 0], "stateRewards": ["", 1, 4, 5, -5, 58, -80, 75, 6, 25, -39, 46, 2, -2, 4, 2, 59, 31, -22, -12, -61, 15, 72, 1, -2, -7, 8, 77, 76, -23, -7, 71, -15, -3], "withholdReward": false, "trial_id": "mdp_trial_3", "block": "test", "trialIndex": 4, "score": 36.650000000000006, "costs": -19.349999999999998, "simulationMode": [null, null, null, null, null], "rewards": [1, -2, -7, -7, 71], "path": ["0", "0", "23", "24", "25", "30", "31"], "rt": [32430, 100, 580, 123, 195], "actions": ["left", "left", "left", "down", "right"], "actionTimes": [35012, 35607, 36687, 37317, 38004], "queries": {"click": {"state": {"target": ["29", "33", "31", "22", "16", "5", "17", "21", "20"], "time": [3921, 7042, 10146, 13716, 17170, 20574, 24062, 27298, 30569]}, "edge": {"target": [], "time": []}}, "mouseover": {"state": {"target": ["26", "29", "29", "33", "33", "32", "31", "31", "22", "14", "17", "16", "5", "17", "20", "21", "20", "20"], "time": [3050, 3083, 3350, 5322, 5522, 7956, 8509, 8575, 10959, 14730, 14769, 15349, 18668, 21747, 25293, 25744, 27648, 27936]}, "edge": {"target": [], "time": []}}, "mouseout": {"state": {"target": ["17", "15", "18", "12", "0", "26", "29", "29", "33", "33", "32", "31", "31", "22", "14", "17", "16", "5", "17", "20", "21", "20", "20"], "time": [882, 897, 932, 1217, 2984, 3067, 3118, 4836, 5423, 7655, 8424, 8540, 10860, 14712, 14767, 14786, 17887, 21189, 25258, 25311, 27596, 27666, 33157]}, "edge": {"target": [], "time": []}}}, "displayed_time": "38.51", "trialTime": 42988, "trial_type": "mouselab-mdp", "trial_index": 11, "time_elapsed": 541890, "internal_node_id": "0.0-6.0-1.0-2.0"}}, {"uniqueid": "w51455990:a67621467", "current_trial": 12, "dateTime": 1693660912461, "trialdata": {"revealed_states": [], "clicked_states": [], "num_clicks_accrued": [0, 0, 0, 0, 0, 0, 0, 0, 0, 0, 0, 0, 0], "stateRewards": ["", 1, 4, -4, 14, 35, 51, 19, -13, 54, 78, -74, -2, -1, -3, 13, -11, -42, -73, -15, -24, -3, -69, 2, -1, 5, 16, -27, 73, 58, 9, -60, 5, -60], "withholdReward": false, "trial_id": "mdp_trial_4", "block": "test", "trialIndex": 5, "score": 66, "costs": 0, "simulationMode": [null, null, null, null, null], "rewards": [1, 4, -4, 14, 51], "path": ["0", "0", "1", "2", "3", "4", "6"], "rt": [9053, 992, 322, 205, 201], "actions": ["up", "up", "up", "right", "right"], "actionTimes": [12791, 14276, 15109, 15806, 16504], "queries": {"click": {"state": {"target": [], "time": []}, "edge": {"target": [], "time": []}}, "mouseover": {"state": {"target": ["15", "7", "29", "29", "28"], "time": [3902, 6257, 6524, 6840, 9384]}, "edge": {"target": [], "time": []}}, "mouseout": {"state": {"target": ["19", "23", "15", "7", "29", "29", "28"], "time": [2768, 3035, 3920, 6456, 6538, 9382, 9409]}, "edge": {"target": [], "time": []}}}, "displayed_time": "17.74", "trialTime": 21522, "trial_type": "mouselab-mdp", "trial_index": 12, "time_elapsed": 564089, "internal_node_id": "0.0-6.0-1.0-3.0"}}, {"uniqueid": "w51455990:a67621467", "current_trial": 13, "dateTime": 1693660962089, "trialdata": {"revealed_states": [], "clicked_states": ["17", "22", "32", "11", "9", "10", "29", "27", "16"], "num_clicks_accrued": [0, 0, 0, 0, 0, 0, 0, 0, 0, 0, 0, 0, 0], "stateRewards": ["", -2, 4, -5, -12, 85, -24, -18, -15, -78, -22, 26, -1, -1, 2, 14, -45, 52, -23, 7, -33, 24, -6, -2, -4, 5, -7, -16, 36, -39, 5, 71, -87, -23], "withholdReward": false, "trial_id": "mdp_trial_5", "block": "test", "trialIndex": 6, "score": 50.650000000000006, "costs": -19.349999999999998, "simulationMode": [null, null, null, null, null], "rewards": [-2, 4, -5, -12, 85], "path": ["0", "0", "1", "2", "3", "4", "5"], "rt": [38643, 386, 134, 98, 150], "actions": ["up", "up", "up", "right", "up"], "actionTimes": [40920, 41818, 42448, 43044, 43697], "queries": {"click": {"state": {"target": ["17", "22", "32", "11", "9", "10", "29", "27", "16"], "time": [3189, 6373, 9644, 12947, 16201, 19971, 23125, 26512, 31152]}, "edge": {"target": [], "time": []}}, "mouseover": {"state": {"target": ["17", "17", "14", "22", "32", "32", "11", "11", "9", "8", "10", "29", "27", "27", "24", "28", "24", "23", "0", "12", "13", "14", "15", "16", "22", "22", "19", "22"], "time": [2651, 2983, 4318, 4403, 7457, 7764, 10675, 11026, 14029, 17300, 17367, 21070, 24259, 25570, 27028, 29396, 29615, 30096, 30130, 30163, 30232, 30446, 30780, 30931, 32077, 32400, 36522, 36670]}, "edge": {"target": [], "time": []}}, "mouseout": {"state": {"target": ["12", "0", "17", "17", "14", "22", "32", "32", "11", "11", "9", "8", "10", "29", "27", "27", "24", "27", "28", "24", "23", "0", "12", "13", "14", "15", "16", "22", "22", "19", "22"], "time": [1549, 1763, 2665, 4301, 4351, 7412, 7474, 10259, 10728, 13727, 17282, 17334, 20840, 24189, 24289, 26977, 27679, 29315, 29445, 30082, 30114, 30146, 30198, 30413, 30749, 30831, 32018, 32094, 36455, 36638, 38325]}, "edge": {"target": [], "time": []}}}, "displayed_time": "44.20", "trialTime": 48906, "trial_type": "mouselab-mdp", "trial_index": 13, "time_elapsed": 613684, "internal_node_id": "0.0-6.0-1.0-4.0"}}, {"uniqueid": "w51455990:a67621467", "current_trial": 14, "dateTime": 1693660982624, "trialdata": {"revealed_states": [], "clicked_states": ["32", "33", "20"], "num_clicks_accrued": [0, 0, 0, 0, 0, 0, 0, 0, 0, 0, 0, 0, 0], "stateRewards": ["", -1, 4, -6, -5, -22, -38, -38, -2, -56, 88, 14, -1, -1, -7, -6, 61, -60, 21, 11, 57, 31, -30, -2, -2, 6, -9, -44, -70, -44, -15, 34, 16, -78], "withholdReward": false, "trial_id": "mdp_trial_6", "block": "test", "trialIndex": 7, "score": 52.55, "costs": -6.449999999999999, "simulationMode": [null, null, null, null, null], "rewards": [-1, -1, -7, 11, 57], "path": ["0", "0", "12", "13", "14", "19", "20"], "rt": [12132, 149, 116, 119, 200], "actions": ["right", "right", "right", "down", "right"], "actionTimes": [14022, 14673, 15292, 15911, 16608], "queries": {"click": {"state": {"target": ["32", "33", "20"], "time": [3312, 6332, 9903]}, "edge": {"target": [], "time": []}}, "mouseover": {"state": {"target": ["23", "31", "32", "33", "30", "31", "20", "21", "20", "21"], "time": [2524, 2594, 2675, 5195, 7599, 7618, 7813, 8064, 8265, 12536]}, "edge": {"target": [], "time": []}}, "mouseout": {"state": {"target": ["24", "23", "0", "23", "31", "32", "33", "30", "31", "20", "21", "20"], "time": [1159, 1222, 1905, 2558, 2627, 5077, 6349, 7616, 7635, 7866, 8215, 11383]}, "edge": {"target": [], "time": []}}}, "displayed_time": "17.11", "trialTime": 19714, "trial_type": "mouselab-mdp", "trial_index": 14, "time_elapsed": 634173, "internal_node_id": "0.0-6.0-1.0-5.0"}}, {"uniqueid": "w51455990:a67621467", "current_trial": 15, "dateTime": 1693661006738, "trialdata": {"revealed_states": [], "clicked_states": ["11", "9"], "num_clicks_accrued": [0, 0, 0, 0, 0, 0, 0, 0, 0, 0, 0, 0, 0], "stateRewards": ["", 1, -1, 1, 13, 31, -56, 72, 2, 41, 5, 63, -2, -3, -2, 3, -71, -26, 52, 13, -31, 24, -67, 2, -2, 5, 4, 66, 43, 72, 9, 86, -26, 44], "withholdReward": false, "trial_id": "mdp_trial_7", "block": "test", "trialIndex": 8, "score": 61.7, "costs": -4.3, "simulationMode": [null, null, null, null, null], "rewards": [1, -1, 1, 2, 63], "path": ["0", "0", "1", "2", "3", "8", "11"], "rt": [11741, 1449, 701, 812, 870], "actions": ["up", "up", "up", "left", "left"], "actionTimes": [14963, 16909, 18113, 19429, 20802], "queries": {"click": {"state": {"target": ["11", "9"], "time": [4383, 9339]}, "edge": {"target": [], "time": []}}, "mouseover": {"state": {"target": ["10", "11", "11", "11", "9", "9"], "time": [3664, 3679, 3862, 4029, 4810, 5099]}, "edge": {"target": [], "time": []}}, "mouseout": {"state": {"target": ["21", "10", "11", "11", "11", "9", "9"], "time": [2327, 3677, 3715, 3913, 4776, 4842, 10405]}, "edge": {"target": [], "time": []}}}, "displayed_time": "21.30", "trialTime": 23378, "trial_type": "mouselab-mdp", "trial_index": 15, "time_elapsed": 658340, "internal_node_id": "0.0-6.0-1.0-6.0"}}, {"uniqueid": "w51455990:a67621467", "current_trial": 16, "dateTime": 1693661032641, "trialdata": {"revealed_states": [], "clicked_states": ["16", "17", "28", "33", "32"], "num_clicks_accrued": [0, 0, 0, 0, 0, 0, 0, 0, 0, 0, 0, 0, 0], "stateRewards": ["", 2, 1, -3, 7, 46, 11, -36, 16, 71, 5, 1, 2, -2, -8, -3, -4, 6, 55, 7, 68, -54, 2, 1, 1, 6, -6, 42, -4, -84, -11, -65, 63, 25], "withholdReward": false, "trial_id": "mdp_trial_8", "block": "test", "trialIndex": 9, "score": 49.25, "costs": -10.75, "simulationMode": [null, null, null, null, null], "rewards": [1, 1, 6, -11, 63], "path": ["0", "0", "23", "24", "25", "30", "32"], "rt": [18707, 125, 262, 112, 115], "actions": ["left", "left", "left", "down", "down"], "actionTimes": [20770, 21400, 22154, 22772, 23391], "queries": {"click": {"state": {"target": ["16", "17", "28", "33", "32"], "time": [3422, 6942, 10263, 13467, 16737]}, "edge": {"target": [], "time": []}}, "mouseover": {"state": {"target": ["18", "15", "16", "17", "24", "25", "24", "28", "25", "33", "32", "30", "29", "27"], "time": [2568, 2737, 3034, 4203, 7424, 7443, 8723, 8776, 10664, 10998, 14430, 17319, 17385, 17821]}, "edge": {"target": [], "time": []}}, "mouseout": {"state": {"target": ["18", "0", "0", "18", "15", "16", "17", "24", "25", "24", "28", "25", "33", "32", "30", "29"], "time": [1084, 1115, 1535, 2724, 2753, 4171, 7362, 7441, 8173, 8742, 10610, 10680, 14116, 17285, 17336, 17402]}, "edge": {"target": [], "time": []}}}, "displayed_time": "23.91", "trialTime": 25169, "trial_type": "mouselab-mdp", "trial_index": 16, "time_elapsed": 684252, "internal_node_id": "0.0-6.0-1.0-7.0"}}, {"uniqueid": "w51455990:a67621467", "current_trial": 17, "dateTime": 1693661052742, "trialdata": {"revealed_states": [], "clicked_states": ["9"], "num_clicks_accrued": [0, 0, 0, 0, 0, 0, 0, 0, 0, 0, 0, 0, 0], "stateRewards": ["", -1, 2, 6, 11, 21, -21, -21, -6, 48, -71, 88, -1, -3, 3, 7, 64, 2, 9, -4, 37, -67, 72, 2, 2, -8, -8, -10, 71, -40, -3, 73, 80, 47], "withholdReward": false, "trial_id": "mdp_trial_9", "block": "test", "trialIndex": 10, "score": 46.85, "costs": -2.15, "simulationMode": [null, null, null, null, null], "rewards": [-1, 2, 6, -6, 48], "path": ["0", "0", "1", "2", "3", "8", "9"], "rt": [10099, 1418, 265, 12, 129], "actions": ["up", "up", "up", "left", "up"], "actionTimes": [12194, 14106, 14871, 15384, 16019], "queries": {"click": {"state": {"target": ["9"], "time": [3643]}, "edge": {"target": [], "time": []}}, "mouseover": {"state": {"target": ["1", "8", "2", "9", "11", "11", "8"], "time": [2554, 3038, 3157, 3440, 4875, 9947, 11097]}, "edge": {"target": [], "time": []}}, "mouseout": {"state": {"target": ["27", "1", "12", "0", "1", "8", "2", "9", "11", "11", "8"], "time": [773, 852, 1020, 2114, 2571, 3075, 3226, 4807, 8096, 11080, 11113]}, "edge": {"target": [], "time": []}}}, "displayed_time": "16.52", "trialTime": 19383, "trial_type": "mouselab-mdp", "trial_index": 17, "time_elapsed": 704358, "internal_node_id": "0.0-6.0-1.0-8.0"}}, {"uniqueid": "w51455990:a67621467", "current_trial": 18, "dateTime": 1693661078201, "trialdata": {"revealed_states": [], "clicked_states": ["16", "17", "20", "33", "31"], "num_clicks_accrued": [0, 0, 0, 0, 0, 0, 0, 0, 0, 0, 0, 0, 0], "stateRewards": ["", 2, 3, -3, 4, 72, -28, 34, -12, 57, -64, -15, 2, 1, -4, -15, 2, 49, 31, -1, -42, -58, 31, -2, 1, -2, -13, -75, -19, -22, -6, 61, 10, -56], "withholdReward": false, "trial_id": "mdp_trial_10", "block": "test", "trialIndex": 11, "score": 41.25, "costs": -10.75, "simulationMode": [null, null, null, null, null], "rewards": [-2, 1, -2, -6, 61], "path": ["0", "0", "23", "24", "25", "30", "31"], "rt": [18364, 598, 134, 13, 130], "actions": ["left", "left", "left", "down", "right"], "actionTimes": [20334, 21425, 22066, 22577, 23225], "queries": {"click": {"state": {"target": ["16", "17", "20", "33", "31"], "time": [3492, 6611, 9716, 12920, 16140]}, "edge": {"target": [], "time": []}}, "mouseover": {"state": {"target": ["6", "5", "16", "17", "17", "20", "33", "30", "31", "32"], "time": [2405, 2589, 3254, 4942, 5292, 8410, 11048, 14625, 14768, 17965]}, "edge": {"target": [], "time": []}}, "mouseout": {"state": {"target": ["16", "6", "5", "16", "17", "17", "20", "33", "30", "31"], "time": [1070, 2537, 3006, 4891, 4980, 8295, 10647, 14599, 14702, 17918]}, "edge": {"target": [], "time": []}}}, "displayed_time": "23.73", "trialTime": 24710, "trial_type": "mouselab-mdp", "trial_index": 18, "time_elapsed": 729808, "internal_node_id": "0.0-6.0-1.0-9.0"}}, {"uniqueid": "w51455990:a67621467", "current_trial": 19, "dateTime": 1693661124450, "trialdata": {"revealed_states": [], "clicked_states": ["27", "11", "10", "7", "9", "33", "32", "17", "16", "22", "20"], "num_clicks_accrued": [0, 0, 0, 0, 0, 0, 0, 0, 0, 0, 0, 0, 0], "stateRewards": ["", -1, 4, 3, 12, -27, 34, -33, 3, -63, 1, 6, 2, 2, -6, -11, -77, -85, 68, -6, 51, 81, -60, -2, -2, 1, 15, 20, 15, 68, -10, -14, 6, -4], "withholdReward": false, "trial_id": "mdp_trial_11", "block": "test", "trialIndex": 12, "score": 19.350000000000005, "costs": -23.649999999999995, "simulationMode": [null, null, null, null, null], "rewards": [2, 2, -6, -6, 51], "path": ["0", "0", "12", "13", "14", "19", "20"], "rt": [38763, 449, 172, 123, 127], "actions": ["right", "right", "right", "down", "right"], "actionTimes": [40767, 41723, 42398, 43016, 43636], "queries": {"click": {"state": {"target": ["27", "11", "10", "7", "9", "33", "32", "17", "16", "22", "20"], "time": [3149, 6353, 9705, 12943, 16247, 20001, 23288, 26491, 29762, 33450, 36673]}, "edge": {"target": [], "time": []}}, "mouseover": {"state": {"target": ["27", "8", "11", "9", "8", "10", "2", "7", "9", "25", "33", "32", "17", "16", "15", "22", "19", "20", "21"], "time": [2879, 4614, 4866, 7386, 8018, 8083, 10156, 10208, 14158, 19547, 19797, 21167, 24304, 27446, 30528, 30928, 34197, 34234, 37337]}, "edge": {"target": [], "time": []}}, "mouseout": {"state": {"target": ["32", "32", "0", "27", "27", "27", "27", "8", "11", "9", "8", "10", "2", "7", "9", "25", "33", "32", "17", "16", "15", "22", "19", "20"], "time": [176, 1109, 1209, 3263, 3582, 4047, 4564, 4632, 7317, 7985, 8064, 10140, 10189, 13814, 19446, 19580, 21116, 23870, 27358, 30510, 30579, 34165, 34215, 37269]}, "edge": {"target": [], "time": []}}}, "displayed_time": "44.13", "trialTime": 45447, "trial_type": "mouselab-mdp", "trial_index": 19, "time_elapsed": 776017, "internal_node_id": "0.0-6.0-1.0-10.0"}}, {"uniqueid": "w51455990:a67621467", "current_trial": 20, "dateTime": 1693661150864, "trialdata": {"revealed_states": [], "clicked_states": ["31", "32", "33", "29", "11"], "num_clicks_accrued": [0, 0, 0, 0, 0, 0, 0, 0, 0, 0, 0, 0, 0], "stateRewards": ["", -2, -3, -5, 8, 27, 11, 43, -6, -24, -87, 69, -2, 1, 1, 9, 19, 48, -37, 9, -14, 45, 62, 1, 2, 1, 16, -81, -41, 22, 4, -6, -63, 47], "withholdReward": false, "trial_id": "mdp_trial_12", "block": "test", "trialIndex": 13, "score": 42.25, "costs": -10.75, "simulationMode": [null, null, null, null, null], "rewards": [-2, -3, -5, -6, 69], "path": ["0", "0", "1", "2", "3", "8", "11"], "rt": [19128, 13, 718, 93, 132], "actions": ["up", "up", "up", "left", "left"], "actionTimes": [20878, 21400, 22644, 23240, 23870], "queries": {"click": {"state": {"target": ["31", "32", "33", "29", "11"], "time": [2767, 6487, 9674, 13295, 16581]}, "edge": {"target": [], "time": []}}, "mouseover": {"state": {"target": ["0", "31", "32", "33", "33", "29", "29", "27", "11", "5"], "time": [1829, 2515, 6302, 7117, 7370, 10801, 11007, 14572, 14638, 18134]}, "edge": {"target": [], "time": []}}, "mouseout": {"state": {"target": ["20", "19", "0", "0", "31", "32", "32", "33", "33", "29", "29", "27", "11"], "time": [895, 928, 1771, 2230, 5601, 6554, 7052, 7168, 10738, 10818, 14526, 14593, 18041]}, "edge": {"target": [], "time": []}}}, "displayed_time": "24.37", "trialTime": 25636, "trial_type": "mouselab-mdp", "trial_index": 20, "time_elapsed": 802457, "internal_node_id": "0.0-6.0-1.0-11.0"}}, {"uniqueid": "w51455990:a67621467", "current_trial": 21, "dateTime": 1693661169203, "trialdata": {"revealed_states": [], "clicked_states": ["18"], "num_clicks_accrued": [0, 0, 0, 0, 0, 0, 0, 0, 0, 0, 0, 0, 0], "stateRewards": ["", -2, 2, -4, -4, -59, 88, 62, -3, 69, -15, -34, 1, -2, -5, 7, -54, -20, 78, -16, -74, -53, -21, 2, -4, 2, 13, -8, -44, 26, 9, 72, 4, 17], "withholdReward": false, "trial_id": "mdp_trial_13", "block": "test", "trialIndex": 14, "score": 76.85, "costs": -2.15, "simulationMode": [null, null, null, null, null], "rewards": [1, -2, -5, 7, 78], "path": ["0", "0", "12", "13", "14", "15", "18"], "rt": [4886, 244, 160, 171, 291], "actions": ["right", "right", "right", "up", "left"], "actionTimes": [7326, 8068, 8732, 9395, 10183], "queries": {"click": {"state": {"target": ["18"], "time": [3402]}, "edge": {"target": [], "time": []}}, "mouseover": {"state": {"target": ["15", "18", "13", "22", "22"], "time": [3049, 3230, 4736, 4770, 5067]}, "edge": {"target": [], "time": []}}, "mouseout": {"state": {"target": ["5", "4", "31", "31", "0", "15", "18", "13", "22"], "time": [1380, 1412, 1496, 1598, 2458, 3133, 4719, 4754, 4818]}, "edge": {"target": [], "time": []}}}, "displayed_time": "16.44", "trialTime": 17597, "trial_type": "mouselab-mdp", "trial_index": 21, "time_elapsed": 820830, "internal_node_id": "0.0-6.0-1.0-12.0"}}, {"uniqueid": "w51455990:a67621467", "current_trial": 22, "dateTime": 1693661187268, "trialdata": {"revealed_states": [], "clicked_states": ["21"], "num_clicks_accrued": [0, 0, 0, 0, 0, 0, 0, 0, 0, 0, 0, 0, 0], "stateRewards": ["", 2, -4, -4, 13, -80, 62, 13, -11, 57, -13, -44, 1, 4, 3, -4, -29, -88, 15, 16, -58, 68, -45, -1, -3, -1, -9, -44, -86, -19, -7, -36, 59, 66], "withholdReward": false, "trial_id": "mdp_trial_14", "block": "test", "trialIndex": 15, "score": 89.85, "costs": -2.15, "simulationMode": [null, null, null, null, null], "rewards": [1, 4, 3, 16, 68], "path": ["0", "0", "12", "13", "14", "19", "21"], "rt": [5073, 387, 140, 48, 119], "actions": ["right", "right", "right", "down", "down"], "actionTimes": [6978, 7866, 8518, 9064, 9700], "queries": {"click": {"state": {"target": ["21"], "time": [2977]}, "edge": {"target": [], "time": []}}, "mouseover": {"state": {"target": ["0", "22", "21", "22"], "time": [2188, 2542, 2791, 3559]}, "edge": {"target": [], "time": []}}, "mouseout": {"state": {"target": ["22", "12", "0", "0", "22", "21"], "time": [1002, 1069, 1924, 2240, 2557, 3457]}, "edge": {"target": [], "time": []}}}, "displayed_time": "15.91", "trialTime": 17182, "trial_type": "mouselab-mdp", "trial_index": 22, "time_elapsed": 838844, "internal_node_id": "0.0-6.0-1.0-13.0"}}, {"uniqueid": "w51455990:a67621467", "current_trial": 23, "dateTime": 1693661217304, "trialdata": {"revealed_states": [], "clicked_states": ["33", "29", "11", "1"], "num_clicks_accrued": [0, 0, 0, 0, 0, 0, 0, 0, 0, 0, 0, 0, 0], "stateRewards": ["", -1, -3, -6, 14, 41, 18, 63, -14, 80, 21, 17, -2, -4, -2, -5, 13, 70, 8, -4, -64, -10, -20, 2, -1, 4, -1, -17, -55, 42, -7, 47, 54, 15], "withholdReward": false, "trial_id": "mdp_trial_15", "block": "test", "trialIndex": 16, "score": 39.8, "costs": -6.199999999999999, "simulationMode": [null, null, null, null, null], "rewards": [2, -1, 4, -1, 42], "path": ["0", "0", "23", "24", "25", "26", "29"], "rt": [20955, 201, 195, 102, 75], "actions": ["left", "left", "left", "up", "left"], "actionTimes": [22945, 23652, 24361, 24969, 25542], "queries": {"click": {"state": {"target": ["33", "29", "11", "1"], "time": [4213, 7215, 11988, 15993]}, "edge": {"target": [], "time": []}}, "mouseover": {"state": {"target": ["1", "23", "24", "33", "29", "29", "27", "8", "11", "10", "1", "18", "23"], "time": [2389, 3390, 3459, 3974, 5211, 5496, 9199, 11383, 11650, 15471, 15574, 16691, 17723]}, "edge": {"target": [], "time": []}}, "mouseout": {"state": {"target": ["22", "23", "1", "23", "24", "33", "29", "29", "27", "8", "11", "10", "1", "18"], "time": [914, 1138, 3357, 3424, 3494, 4261, 5229, 9149, 11285, 11434, 15455, 15502, 16623, 17228]}, "edge": {"target": [], "time": []}}}, "displayed_time": "26.04", "trialTime": 29121, "trial_type": "mouselab-mdp", "trial_index": 23, "time_elapsed": 868918, "internal_node_id": "0.0-6.0-1.0-14.0"}}, {"uniqueid": "w51455990:a67621467", "current_trial": 24, "dateTime": 1693661243707, "trialdata": {"revealed_states": [], "clicked_states": ["1", "23", "12", "18", "13"], "num_clicks_accrued": [0, 0, 0, 0, 0, 0, 0, 0, 0, 0, 0, 0, 0], "stateRewards": ["", 1, -2, -8, -3, 31, -84, -55, -14, 15, -58, 17, -2, -3, 7, 7, -12, 48, 67, 4, -44, -68, 46, 2, 3, -5, -7, 76, 27, 5, 11, 57, 52, 59], "withholdReward": false, "trial_id": "mdp_trial_16", "block": "test", "trialIndex": 17, "score": 74.25, "costs": -1.75, "simulationMode": [null, null, null, null, null], "rewards": [-2, -3, 7, 7, 67], "path": ["0", "0", "12", "13", "14", "15", "18"], "rt": [14891, 121, 99, 95, 80], "actions": ["right", "right", "right", "up", "left"], "actionTimes": [18610, 19227, 19835, 20431, 21016], "queries": {"click": {"state": {"target": ["1", "23", "12", "18", "13"], "time": [4420, 7156, 9942, 12512, 15699]}, "edge": {"target": [], "time": []}}, "mouseover": {"state": {"target": ["1", "23", "0", "12", "13", "18", "13", "14"], "time": [4165, 5488, 7840, 8204, 11577, 11977, 13864, 16481]}, "edge": {"target": [], "time": []}}, "mouseout": {"state": {"target": ["23", "0", "12", "1", "23", "0", "12", "13", "18", "13", "14"], "time": [2880, 2932, 3048, 5202, 7821, 7874, 10541, 11591, 13846, 16464, 16500]}, "edge": {"target": [], "time": []}}}, "displayed_time": "21.52", "trialTime": 25483, "trial_type": "mouselab-mdp", "trial_index": 24, "time_elapsed": 895291, "internal_node_id": "0.0-6.0-1.0-15.0"}}, {"uniqueid": "w51455990:a67621467", "current_trial": 25, "dateTime": 1693661285556, "trialdata": {"revealed_states": [], "clicked_states": ["23", "25", "14", "19", "4", "5", "16", "17", "11", "27"], "num_clicks_accrued": [0, 0, 0, 0, 0, 0, 0, 0, 0, 0, 0, 0, 0], "stateRewards": ["", 1, -3, -6, -5, 47, 80, -29, 11, -71, 10, -29, -2, 3, -6, 12, 2, -78, -6, 8, 34, -16, -5, -1, 3, 3, -13, 84, -36, -62, -3, -27, 66, 15], "withholdReward": false, "trial_id": "mdp_trial_17", "block": "test", "trialIndex": 18, "score": 60.5, "costs": -15.500000000000002, "simulationMode": [null, null, null, null, null], "rewards": [-1, 3, 3, -13, 84], "path": ["0", "0", "23", "24", "25", "26", "27"], "rt": [31358, 12, 14, 65, 96], "actions": ["left", "left", "left", "up", "up"], "actionTimes": [36052, 36561, 37098, 37682, 38279], "queries": {"click": {"state": {"target": ["23", "25", "14", "19", "4", "5", "16", "17", "11", "27"], "time": [5881, 8450, 11169, 13706, 16126, 18579, 21549, 25104, 28690, 32195]}, "edge": {"target": [], "time": []}}, "mouseover": {"state": {"target": ["0", "23", "24", "25", "25", "24", "0", "13", "14", "14", "19", "13", "7", "4", "5", "16", "17", "8", "11", "27", "26", "29"], "time": [4862, 5582, 6839, 7362, 7615, 9748, 9784, 9817, 9851, 10150, 12011, 14475, 14511, 15104, 17061, 20697, 24833, 26840, 28471, 31377, 33662, 34412]}, "edge": {"target": [], "time": []}}, "mouseout": {"state": {"target": ["14", "13", "12", "0", "0", "23", "24", "25", "25", "24", "0", "13", "14", "14", "19", "19", "13", "7", "4", "5", "16", "17", "8", "11", "27", "27", "26"], "time": [3492, 3525, 3708, 4075, 5427, 6447, 6856, 7415, 9734, 9768, 9801, 9850, 9881, 11955, 14141, 14474, 14493, 14530, 16992, 19097, 22182, 26753, 26872, 31139, 32213, 33629, 34310]}, "edge": {"target": [], "time": []}}}, "displayed_time": "38.79", "trialTime": 40968, "trial_type": "mouselab-mdp", "trial_index": 25, "time_elapsed": 937146, "internal_node_id": "0.0-6.0-1.0-16.0"}}, {"uniqueid": "w51455990:a67621467", "current_trial": 26, "dateTime": 1693661316200, "trialdata": {"revealed_states": [], "clicked_states": ["29", "31", "17", "6", "7", "10"], "num_clicks_accrued": [0, 0, 0, 0, 0, 0, 0, 0, 0, 0, 0, 0, 0], "stateRewards": ["", 2, -4, 4, 9, 69, 9, -75, 12, -86, 66, 25, -1, 3, 2, -13, -88, -3, 1, 4, -69, 49, -84, 2, -1, 4, 2, -18, -81, -52, -15, -69, -54, 25], "withholdReward": false, "trial_id": "mdp_trial_18", "block": "test", "trialIndex": 19, "score": 67.1, "costs": -12.9, "simulationMode": [null, null, null, null, null], "rewards": [2, -4, 4, 12, 66], "path": ["0", "0", "1", "2", "3", "8", "10"], "rt": [22003, 187, 53, 535, 547], "actions": ["up", "up", "up", "left", "down"], "actionTimes": [24081, 24777, 25328, 26374, 27432], "queries": {"click": {"state": {"target": ["29", "31", "17", "6", "7", "10"], "time": [3199, 6469, 9655, 12876, 16113, 19401]}, "edge": {"target": [], "time": []}}, "mouseover": {"state": {"target": ["26", "29", "31", "19", "17", "17", "16", "6", "7", "2", "10", "8", "9"], "time": [2611, 2826, 4298, 7268, 8102, 8420, 11109, 11179, 14407, 16981, 17116, 20999, 21233]}, "edge": {"target": [], "time": []}}, "mouseout": {"state": {"target": ["29", "12", "19", "19", "22", "0", "26", "29", "31", "19", "17", "17", "16", "6", "7", "2", "10", "8"], "time": [978, 1042, 1077, 1176, 1275, 1509, 2693, 3965, 7167, 7286, 8136, 11089, 11176, 14140, 16950, 17033, 20949, 21033]}, "edge": {"target": [], "time": []}}}, "displayed_time": "27.93", "trialTime": 29806, "trial_type": "mouselab-mdp", "trial_index": 26, "time_elapsed": 967828, "internal_node_id": "0.0-6.0-1.0-17.0"}}, {"uniqueid": "w51455990:a67621467", "current_trial": 27, "dateTime": 1693661333950, "trialdata": {"revealed_states": [], "clicked_states": ["29", "27"], "num_clicks_accrued": [0, 0, 0, 0, 0, 0, 0, 0, 0, 0, 0, 0, 0], "stateRewards": ["", 2, -1, 5, 8, 75, -35, -77, 1, -9, -81, -58, 1, 2, -7, 5, 77, -16, 19, 16, -10, -18, 40, -2, 3, 7, -5, 64, 1, -62, 10, 27, 10, 65], "withholdReward": false, "trial_id": "mdp_trial_19", "block": "test", "trialIndex": 20, "score": 62.7, "costs": -4.3, "simulationMode": [null, null, null, null, null], "rewards": [-2, 3, 7, -5, 64], "path": ["0", "0", "23", "24", "25", "26", "27"], "rt": [8634, 11, 20, 16, 159], "actions": ["left", "left", "left", "up", "up"], "actionTimes": [10560, 11078, 11617, 12157, 12826], "queries": {"click": {"state": {"target": ["29", "27"], "time": [3140, 6343]}, "edge": {"target": [], "time": []}}, "mouseover": {"state": {"target": ["1", "1", "29", "27", "28"], "time": [1949, 2595, 2921, 4521, 6896]}, "edge": {"target": [], "time": []}}, "mouseout": {"state": {"target": ["9", "8", "10", "0", "1", "1", "29", "27"], "time": [967, 1000, 1032, 1947, 2235, 2634, 3194, 6878]}, "edge": {"target": [], "time": []}}}, "displayed_time": "15.94", "trialTime": 16906, "trial_type": "mouselab-mdp", "trial_index": 27, "time_elapsed": 985537, "internal_node_id": "0.0-6.0-1.0-18.0"}}, {"uniqueid": "w51455990:a67621467", "current_trial": 28, "dateTime": 1693661351507, "trialdata": {"revealed_states": [], "clicked_states": ["31", "32"], "num_clicks_accrued": [0, 0, 0, 0, 0, 0, 0, 0, 0, 0, 0, 0, 0], "stateRewards": ["", 2, -2, -8, 9, -20, 55, -58, 14, 42, 2, 36, 1, -3, -5, 5, -58, 57, 60, 16, 57, 30, -70, -2, 1, 3, 10, 59, 23, 77, -13, -26, 88, -72], "withholdReward": false, "trial_id": "mdp_trial_20", "block": "test", "trialIndex": 21, "score": 72.7, "costs": -4.3, "simulationMode": [null, null, null, null, null], "rewards": [-2, 1, 3, -13, 88], "path": ["0", "0", "23", "24", "25", "30", "32"], "rt": [8387, 13, 33, 56, 80], "actions": ["left", "left", "left", "down", "down"], "actionTimes": [9611, 10130, 10695, 11247, 11838], "queries": {"click": {"state": {"target": ["31", "32"], "time": [2133, 5352]}, "edge": {"target": [], "time": []}}, "mouseover": {"state": {"target": ["0", "31", "32", "33"], "time": [1352, 1962, 4301, 7536]}, "edge": {"target": [], "time": []}}, "mouseout": {"state": {"target": ["28", "1", "0", "31", "31", "32"], "time": [427, 511, 1397, 3304, 4100, 7387]}, "edge": {"target": [], "time": []}}}, "displayed_time": "15.23", "trialTime": 16709, "trial_type": "mouselab-mdp", "trial_index": 28, "time_elapsed": 1003100, "internal_node_id": "0.0-6.0-1.0-19.0"}}, {"uniqueid": "w51455990:a67621467", "current_trial": 29, "dateTime": 1693661381132, "trialdata": {"revealed_states": [], "clicked_states": ["16", "17", "20", "29", "6", "10"], "num_clicks_accrued": [0, 0, 0, 0, 0, 0, 0, 0, 0, 0, 0, 0, 0], "stateRewards": ["", 1, -2, -8, -13, 4, 34, -84, -4, -49, 88, -70, -1, 3, -4, 10, -77, 13, -34, 15, -21, -16, 27, 1, -2, 8, -8, -6, 38, -26, 6, -15, 66, -3], "withholdReward": false, "trial_id": "mdp_trial_21", "block": "test", "trialIndex": 22, "score": 62.1, "costs": -12.9, "simulationMode": [null, null, null, null, null], "rewards": [1, -2, -8, -4, 88], "path": ["0", "0", "1", "2", "3", "8", "10"], "rt": [22589, 22, 66, 14, 162], "actions": ["up", "up", "up", "left", "down"], "actionTimes": [24436, 24963, 25526, 26040, 26708], "queries": {"click": {"state": {"target": ["16", "17", "20", "29", "6", "10"], "time": [2586, 5839, 9159, 12430, 15733, 20340]}, "edge": {"target": [], "time": []}}, "mouseover": {"state": {"target": ["16", "17", "20", "19", "0", "23", "26", "29", "29", "27", "3", "6", "7", "1", "10", "10", "2", "7"], "time": [2148, 5220, 6672, 10044, 10080, 10102, 10122, 10145, 10560, 13264, 13326, 13964, 19450, 19586, 19985, 20251, 21138, 21243]}, "edge": {"target": [], "time": []}}, "mouseout": {"state": {"target": ["33", "30", "0", "16", "16", "17", "20", "19", "0", "23", "26", "29", "29", "27", "3", "6", "6", "7", "1", "10", "10", "2"], "time": [852, 915, 1332, 4152, 5201, 6604, 10026, 10062, 10098, 10119, 10141, 10186, 13246, 13283, 13351, 15816, 18849, 19485, 19619, 20102, 20358, 21188]}, "edge": {"target": [], "time": []}}}, "displayed_time": "27.21", "trialTime": 28710, "trial_type": "mouselab-mdp", "trial_index": 29, "time_elapsed": 1032702, "internal_node_id": "0.0-6.0-1.0-20.0"}}, {"uniqueid": "w51455990:a67621467", "current_trial": 30, "dateTime": 1693661413736, "trialdata": {"revealed_states": [], "clicked_states": ["31", "32", "20", "17", "21", "6", "27"], "num_clicks_accrued": [0, 0, 0, 0, 0, 0, 0, 0, 0, 0, 0, 0, 0], "stateRewards": ["", -1, 2, -2, 5, 80, -61, -27, 12, 44, -26, -75, -2, -4, 1, -16, 42, -49, -50, 4, -44, 2, 80, -2, -2, 5, -2, 59, 10, 24, 7, -48, -86, -44], "withholdReward": false, "trial_id": "mdp_trial_22", "block": "test", "trialIndex": 23, "score": 42.95, "costs": -15.05, "simulationMode": [null, null, null, null, null], "rewards": [-2, -2, 5, -2, 59], "path": ["0", "0", "23", "24", "25", "26", "27"], "rt": [25251, 257, 418, 435, 74], "actions": ["left", "left", "left", "up", "up"], "actionTimes": [26688, 27441, 28352, 29287, 29860], "queries": {"click": {"state": {"target": ["31", "32", "20", "17", "21", "6", "27"], "time": [2324, 5845, 9132, 12669, 15974, 19193, 22447]}, "edge": {"target": [], "time": []}}, "mouseover": {"state": {"target": ["23", "31", "32", "19", "20", "17", "21", "14", "16", "6", "4", "6", "3", "8", "11", "27", "28", "28"], "time": [1955, 2070, 3224, 8628, 8666, 12233, 15672, 16690, 16725, 16925, 16993, 17343, 20644, 20664, 20687, 21110, 23348, 23613]}, "edge": {"target": [], "time": []}}, "mouseout": {"state": {"target": ["7", "23", "31", "32", "19", "20", "17", "21", "14", "16", "6", "4", "6", "3", "8", "11", "27", "28"], "time": [652, 1991, 3172, 8530, 8664, 11933, 15572, 16654, 16708, 16744, 16959, 17151, 19686, 20662, 20684, 20710, 23329, 23384]}, "edge": {"target": [], "time": []}}}, "displayed_time": "30.36", "trialTime": 31717, "trial_type": "mouselab-mdp", "trial_index": 30, "time_elapsed": 1065319, "internal_node_id": "0.0-6.0-1.0-21.0"}}, {"uniqueid": "w51455990:a67621467", "current_trial": 31, "dateTime": 1693661434138, "trialdata": {"revealed_states": [], "clicked_states": ["29"], "num_clicks_accrued": [0, 0, 0, 0, 0, 0, 0, 0, 0, 0, 0, 0, 0], "stateRewards": ["", -1, 3, 1, -11, -22, -36, 19, -5, -70, -52, 50, -2, -4, 4, -2, -41, -83, 29, -2, 22, 10, -6, -2, 3, -2, 14, 54, 44, 77, -9, -65, -37, -40], "withholdReward": false, "trial_id": "mdp_trial_23", "block": "test", "trialIndex": 24, "score": 87.85, "costs": -2.15, "simulationMode": [null, null, null, null, null], "rewards": [-2, 3, -2, 14, 77], "path": ["0", "0", "23", "24", "25", "26", "29"], "rt": [4904, 535, 54, 61, 76], "actions": ["left", "left", "left", "up", "left"], "actionTimes": [7734, 8768, 9319, 9905, 10478], "queries": {"click": {"state": {"target": ["29"], "time": [3611]}, "edge": {"target": [], "time": []}}, "mouseover": {"state": {"target": ["23", "24", "29", "3", "6"], "time": [3090, 3139, 3440, 4695, 5047]}, "edge": {"target": [], "time": []}}, "mouseout": {"state": {"target": ["28", "10", "0", "23", "24", "29", "29", "3", "6"], "time": [442, 858, 2256, 3123, 3156, 4395, 4644, 4713, 16872]}, "edge": {"target": [], "time": []}}}, "displayed_time": "16.83", "trialTime": 19525, "trial_type": "mouselab-mdp", "trial_index": 31, "time_elapsed": 1085730, "internal_node_id": "0.0-6.0-1.0-22.0"}}, {"uniqueid": "w51455990:a67621467", "current_trial": 32, "dateTime": 1693661474409, "trialdata": {"revealed_states": [], "clicked_states": ["9", "32", "16", "21", "22", "17", "6", "7", "10"], "num_clicks_accrued": [0, 0, 0, 0, 0, 0, 0, 0, 0, 0, 0, 0, 0], "stateRewards": ["", 2, 3, 3, 10, 19, -21, 6, 9, 54, 68, 16, 2, 2, -6, -8, 40, -2, -75, -2, -42, 55, 59, -1, 2, 4, -14, 11, -34, -30, -6, 61, -53, 13], "withholdReward": false, "trial_id": "mdp_trial_24", "block": "test", "trialIndex": 25, "score": 65.65, "costs": -19.349999999999998, "simulationMode": [null, null, null, null, null], "rewards": [2, 3, 3, 9, 68], "path": ["0", "0", "1", "2", "3", "8", "10"], "rt": [33486, 445, 168, 77, 91], "actions": ["up", "up", "up", "left", "down"], "actionTimes": [34739, 35683, 36358, 36932, 37517], "queries": {"click": {"state": {"target": ["9", "32", "16", "21", "22", "17", "6", "7", "10"], "time": [2335, 6505, 10159, 13397, 16901, 20388, 23625, 26862, 30116]}, "edge": {"target": [], "time": []}}, "mouseover": {"state": {"target": ["1", "2", "3", "9", "26", "25", "30", "32", "19", "17", "16", "15", "14", "19", "21", "22", "15", "17", "16", "6", "7", "2", "10", "11"], "time": [1717, 1736, 1769, 2013, 3134, 3155, 3503, 3769, 8707, 8809, 9122, 11027, 11047, 11116, 11244, 14625, 17606, 17918, 21373, 21441, 24287, 27414, 27450, 31849]}, "edge": {"target": [], "time": []}}, "mouseout": {"state": {"target": ["7", "0", "1", "2", "3", "9", "26", "25", "30", "32", "19", "17", "16", "15", "14", "19", "21", "22", "15", "17", "16", "6", "7", "2", "10"], "time": [444, 1682, 1734, 1753, 1866, 3097, 3152, 3174, 3604, 8573, 8725, 9014, 11009, 11046, 11065, 11136, 13416, 17550, 17642, 21354, 21406, 24220, 27392, 27431, 30550]}, "edge": {"target": [], "time": []}}}, "displayed_time": "38.02", "trialTime": 39272, "trial_type": "mouselab-mdp", "trial_index": 32, "time_elapsed": 1125975, "internal_node_id": "0.0-6.0-1.0-23.0"}}, {"uniqueid": "w51455990:a67621467", "current_trial": 33, "dateTime": 1693661509323, "trialdata": {"revealed_states": [], "clicked_states": ["29", "31", "22", "33", "32", "6", "11"], "num_clicks_accrued": [0, 0, 0, 0, 0, 0, 0, 0, 0, 0, 0, 0, 0], "stateRewards": ["", 1, 1, -7, -9, -44, 24, -83, -15, 44, -24, 72, -2, -3, 4, -5, 57, 55, 29, -11, 22, 12, -25, -1, 2, 7, 12, 33, -8, 47, -4, 8, 50, -4], "withholdReward": false, "trial_id": "mdp_trial_25", "block": "test", "trialIndex": 26, "score": 36.95, "costs": -15.05, "simulationMode": [null, null, null, null, null], "rewards": [1, 1, -7, -15, 72], "path": ["0", "0", "1", "2", "3", "8", "11"], "rt": [26449, 470, 122, 392, 160], "actions": ["up", "up", "up", "left", "left"], "actionTimes": [28267, 29234, 29852, 30741, 31405], "queries": {"click": {"state": {"target": ["29", "31", "22", "33", "32", "6", "11"], "time": [2783, 6036, 9706, 13212, 17265, 21053, 24240]}, "edge": {"target": [], "time": []}}, "mouseover": {"state": {"target": ["23", "29", "31", "22", "30", "33", "32", "31", "7", "6", "6", "11", "9", "9"], "time": [2362, 2429, 4103, 8221, 11524, 11858, 14197, 19238, 19651, 19718, 20700, 23154, 24859, 25125]}, "edge": {"target": [], "time": []}}, "mouseout": {"state": {"target": ["11", "10", "0", "23", "29", "31", "22", "22", "31", "31", "30", "33", "32", "31", "7", "6", "6", "6", "11", "9"], "time": [862, 896, 2348, 2381, 3881, 7521, 9816, 10640, 10756, 11457, 11638, 14145, 19201, 19282, 19669, 19737, 22102, 22518, 24824, 24927]}, "edge": {"target": [], "time": []}}}, "displayed_time": "31.90", "trialTime": 33993, "trial_type": "mouselab-mdp", "trial_index": 33, "time_elapsed": 1160944, "internal_node_id": "0.0-6.0-1.0-24.0"}}, {"uniqueid": "w51455990:a67621467", "current_trial": 34, "dateTime": 1693661545705, "trialdata": {"revealed_states": [], "clicked_states": ["5", "16", "20", "21", "28", "31", "22", "18"], "num_clicks_accrued": [0, 0, 0, 0, 0, 0, 0, 0, 0, 0, 0, 0, 0], "stateRewards": ["", 2, 4, -3, 16, -58, 30, -35, 11, -60, 47, 27, -2, -1, -7, -16, 23, -70, 68, -10, -65, -43, -34, -2, 1, 7, 9, -63, 34, -31, -8, -12, -86, 59], "withholdReward": false, "trial_id": "mdp_trial_26", "block": "test", "trialIndex": 27, "score": 24.799999999999997, "costs": -17.2, "simulationMode": [null, null, null, null, null], "rewards": [-2, -1, -7, -16, 68], "path": ["0", "0", "12", "13", "14", "15", "18"], "rt": [29417, 64, 33, 28, 23], "actions": ["right", "right", "right", "up", "left"], "actionTimes": [31435, 32007, 32536, 33065, 33594], "queries": {"click": {"state": {"target": ["5", "16", "20", "21", "28", "31", "22", "18"], "time": [2688, 6341, 9729, 13115, 16352, 19740, 23227, 27065]}, "edge": {"target": [], "time": []}}, "mouseover": {"state": {"target": ["7", "4", "5", "16", "16", "15", "20", "21", "27", "28", "24", "31", "22", "13", "18", "18", "6", "6"], "time": [2036, 2069, 2467, 5688, 6088, 7047, 7485, 11297, 14035, 14317, 18231, 18507, 21324, 26160, 26227, 26830, 29484, 29851]}, "edge": {"target": [], "time": []}}, "mouseout": {"state": {"target": ["9", "8", "1", "7", "4", "5", "16", "16", "15", "20", "21", "27", "28", "28", "24", "31", "22", "13", "18", "18", "6"], "time": [1014, 1031, 1065, 2068, 2085, 4389, 5837, 7027, 7067, 11130, 13885, 14266, 16510, 18193, 18441, 19837, 26127, 26193, 26429, 29431, 29505]}, "edge": {"target": [], "time": []}}}, "displayed_time": "34.11", "trialTime": 35428, "trial_type": "mouselab-mdp", "trial_index": 34, "time_elapsed": 1197296, "internal_node_id": "0.0-6.0-1.0-25.0"}}, {"uniqueid": "w51455990:a67621467", "current_trial": 35, "dateTime": 1693661575451, "trialdata": {"revealed_states": [], "clicked_states": ["29", "33", "9", "5", "7", "10"], "num_clicks_accrued": [0, 0, 0, 0, 0, 0, 0, 0, 0, 0, 0, 0, 0], "stateRewards": ["", -1, -2, 4, 9, 10, -75, 39, 16, -43, 88, -19, -1, 1, 2, 4, -31, 10, 73, 12, 41, -64, -81, -2, 2, -6, 1, -81, -1, -26, 3, -59, -3, -20], "withholdReward": false, "trial_id": "mdp_trial_27", "block": "test", "trialIndex": 28, "score": 92.1, "costs": -12.9, "simulationMode": [null, null, null, null, null], "rewards": [-1, -2, 4, 16, 88], "path": ["0", "0", "1", "2", "3", "8", "10"], "rt": [21944, 471, 109, 68, 218], "actions": ["up", "up", "up", "left", "down"], "actionTimes": [23504, 24471, 25078, 25652, 26372], "queries": {"click": {"state": {"target": ["29", "33", "9", "5", "7", "10"], "time": [2260, 5630, 8802, 12038, 15709, 19129]}, "edge": {"target": [], "time": []}}, "mouseover": {"state": {"target": ["23", "26", "29", "33", "9", "5", "4", "7", "2", "10", "10", "28"], "time": [1595, 1906, 1956, 5310, 6981, 9885, 13383, 13453, 16914, 17375, 17898, 21349]}, "edge": {"target": [], "time": []}}, "mouseout": {"state": {"target": ["6", "7", "1", "23", "26", "29", "33", "9", "5", "5", "4", "7", "2", "10", "10", "28"], "time": [654, 688, 904, 1616, 1940, 2315, 6350, 9783, 12081, 13361, 13424, 16861, 17080, 17759, 21267, 22596]}, "edge": {"target": [], "time": []}}}, "displayed_time": "26.89", "trialTime": 28858, "trial_type": "mouselab-mdp", "trial_index": 35, "time_elapsed": 1227078, "internal_node_id": "0.0-6.0-1.0-26.0"}}, {"uniqueid": "w51455990:a67621467", "current_trial": 36, "dateTime": 1693661612668, "trialdata": {"revealed_states": [], "clicked_states": ["29", "33", "31", "9", "6", "10", "17", "18"], "num_clicks_accrued": [0, 0, 0, 0, 0, 0, 0, 0, 0, 0, 0, 0, 0], "stateRewards": ["", 1, 1, 7, -11, 80, -20, -53, -14, 3, 31, 27, 2, -1, -8, -10, 33, 41, 86, 9, 78, -37, -13, -1, -2, -6, -8, -80, 75, 4, -16, -49, -74, 24], "withholdReward": false, "trial_id": "mdp_trial_28", "block": "test", "trialIndex": 29, "score": 51.8, "costs": -17.2, "simulationMode": [null, null, null, null, null], "rewards": [2, -1, -8, -10, 86], "path": ["0", "0", "12", "13", "14", "15", "18"], "rt": [28742, 497, 116, 149, 26], "actions": ["right", "right", "right", "up", "left"], "actionTimes": [31524, 32525, 33144, 33797, 34325], "queries": {"click": {"state": {"target": ["29", "33", "31", "9", "6", "10", "17", "18"], "time": [3780, 7000, 10403, 13640, 17245, 20381, 23652, 27139]}, "edge": {"target": [], "time": []}}, "mouseover": {"state": {"target": ["0", "23", "26", "29", "32", "33", "31", "9", "5", "4", "6", "6", "2", "10", "2", "17", "15", "18", "18", "13", "22"], "time": [2802, 3296, 3331, 3364, 5773, 6169, 8184, 11972, 14046, 14369, 14592, 16942, 18046, 18250, 20934, 21367, 24323, 24578, 25921, 30122, 30341]}, "edge": {"target": [], "time": []}}, "mouseout": {"state": {"target": ["0", "0", "23", "26", "29", "32", "33", "31", "9", "5", "4", "6", "6", "2", "10", "2", "17", "15", "18", "18", "13"], "time": [2242, 3278, 3314, 3347, 5751, 6066, 7853, 11450, 14009, 14067, 14406, 16060, 17695, 18207, 20915, 20952, 24304, 24394, 25736, 30089, 30223]}, "edge": {"target": [], "time": []}}}, "displayed_time": "34.84", "trialTime": 36283, "trial_type": "mouselab-mdp", "trial_index": 36, "time_elapsed": 1264219, "internal_node_id": "0.0-6.0-1.0-27.0"}}, {"uniqueid": "w51455990:a67621467", "current_trial": 37, "dateTime": 1693661630603, "trialdata": {"revealed_states": [], "clicked_states": ["31", "32"], "num_clicks_accrued": [0, 0, 0, 0, 0, 0, 0, 0, 0, 0, 0, 0, 0], "stateRewards": ["", -2, 3, -1, -9, 44, 48, -37, -3, 71, -39, 87, -1, 3, -4, 4, -21, 59, -15, -8, -1, 28, -38, 2, 4, 4, 8, -85, -72, -63, 14, 58, 63, -46], "withholdReward": false, "trial_id": "mdp_trial_29", "block": "test", "trialIndex": 30, "score": 82.7, "costs": -4.3, "simulationMode": [null, null, null, null, null], "rewards": [2, 4, 4, 14, 63], "path": ["0", "0", "23", "24", "25", "30", "32"], "rt": [10551, 123, 126, 14, 122], "actions": ["left", "left", "left", "down", "down"], "actionTimes": [11889, 12517, 13136, 13658, 14284], "queries": {"click": {"state": {"target": ["31", "32"], "time": [2465, 6169]}, "edge": {"target": [], "time": []}}, "mouseover": {"state": {"target": ["0", "31", "31", "32"], "time": [1357, 2131, 2228, 4817]}, "edge": {"target": [], "time": []}}, "mouseout": {"state": {"target": ["22", "0", "0", "31", "31", "31", "32"], "time": [444, 845, 1748, 2147, 2532, 4761, 6493]}, "edge": {"target": [], "time": []}}}, "displayed_time": "15.35", "trialTime": 17040, "trial_type": "mouselab-mdp", "trial_index": 37, "time_elapsed": 1282198, "internal_node_id": "0.0-6.0-1.0-28.0"}}, {"uniqueid": "w51455990:a67621467", "current_trial": 38, "dateTime": 1693661661106, "trialdata": {"revealed_states": [], "clicked_states": ["17", "20", "5", "7", "18", "16"], "num_clicks_accrued": [0, 0, 0, 0, 0, 0, 0, 0, 0, 0, 0, 0, 0], "stateRewards": ["", 1, 1, 1, 15, -76, 52, -32, 14, -57, 37, 49, 1, -4, -3, 6, 83, -76, 25, 9, 36, -1, -17, -1, 4, 4, -2, -22, -21, 58, -15, -57, 49, -24], "withholdReward": false, "trial_id": "mdp_trial_30", "block": "test", "trialIndex": 31, "score": 70.1, "costs": -12.9, "simulationMode": [null, null, null, null, null], "rewards": [1, -4, -3, 6, 83], "path": ["0", "0", "12", "13", "14", "15", "16"], "rt": [23361, 17, 15, 20, 586], "actions": ["right", "right", "right", "up", "up"], "actionTimes": [25180, 25696, 26228, 26765, 27879], "queries": {"click": {"state": {"target": ["17", "20", "5", "7", "18", "16"], "time": [4106, 7326, 11047, 14651, 17805, 21125]}, "edge": {"target": [], "time": []}}, "mouseover": {"state": {"target": ["12", "17", "17", "20", "6", "5", "7", "18", "16", "7", "10", "27", "26", "28"], "time": [3621, 3670, 3919, 4892, 8748, 8800, 12318, 15117, 18846, 21826, 21856, 21921, 22141, 22248]}, "edge": {"target": [], "time": []}}, "mouseout": {"state": {"target": ["16", "0", "12", "17", "17", "20", "6", "5", "7", "7", "18", "16", "7", "10", "27", "26"], "time": [850, 1950, 3638, 3702, 4841, 8625, 8798, 11981, 14764, 15098, 18525, 21808, 21850, 21918, 22065, 22215]}, "edge": {"target": [], "time": []}}}, "displayed_time": "28.38", "trialTime": 29522, "trial_type": "mouselab-mdp", "trial_index": 38, "time_elapsed": 1312678, "internal_node_id": "0.0-6.0-1.0-29.0"}}, {"uniqueid": "w51455990:a67621467", "current_trial": 39, "dateTime": 1693661680492, "trialdata": {"revealed_states": [], "clicked_states": ["27", "33", "32"], "num_clicks_accrued": [0, 0, 0, 0, 0, 0, 0, 0, 0, 0, 0, 0, 0], "stateRewards": ["", -2, 2, 2, -6, 9, 37, 50, -13, -7, -18, -75, -2, -4, 4, 7, 23, -57, -66, -7, -81, -48, -76, 1, 1, -8, 1, 51, -2, 70, 14, 59, 71, -37], "withholdReward": false, "trial_id": "mdp_trial_31", "block": "test", "trialIndex": 32, "score": 72.55, "costs": -6.449999999999999, "simulationMode": [null, null, null, null, null], "rewards": [1, 1, -8, 14, 71], "path": ["0", "0", "23", "24", "25", "30", "32"], "rt": [12744, 34, 17, 483, 189], "actions": ["left", "left", "left", "down", "down"], "actionTimes": [13946, 14485, 15002, 16004, 16702], "queries": {"click": {"state": {"target": ["27", "33", "32"], "time": [3306, 6258, 9478]}, "edge": {"target": [], "time": []}}, "mouseover": {"state": {"target": ["27", "33", "32", "32", "31"], "time": [3067, 4689, 7893, 8310, 10350]}, "edge": {"target": [], "time": []}}, "mouseout": {"state": {"target": ["28", "0", "27", "27", "33", "33", "32", "32"], "time": [314, 633, 3352, 4174, 6357, 7642, 7960, 10280]}, "edge": {"target": [], "time": []}}}, "displayed_time": "17.20", "trialTime": 18479, "trial_type": "mouselab-mdp", "trial_index": 39, "time_elapsed": 1332120, "internal_node_id": "0.0-6.0-1.0-30.0"}}, {"uniqueid": "w51455990:a67621467", "current_trial": 40, "dateTime": 1693661701288, "trialdata": {"revealed_states": [], "clicked_states": ["29", "6", "5"], "num_clicks_accrued": [0, 0, 0, 0, 0, 0, 0, 0, 0, 0, 0, 0, 0], "stateRewards": ["", -1, 1, -2, 5, 73, 15, 61, 8, 7, 38, 76, 2, 2, -4, -6, -6, -26, 43, -5, -45, -85, -35, -2, 1, -4, 15, -10, 69, 72, -11, 84, -49, -38], "withholdReward": false, "trial_id": "mdp_trial_32", "block": "test", "trialIndex": 33, "score": 69.55, "costs": -6.449999999999999, "simulationMode": [null, null, null, null, null], "rewards": [-1, 1, -2, 5, 73], "path": ["0", "0", "1", "2", "3", "4", "5"], "rt": [12985, 492, 91, 12, 38], "actions": ["up", "up", "up", "right", "up"], "actionTimes": [15465, 16465, 17061, 17570, 18153], "queries": {"click": {"state": {"target": ["29", "6", "5"], "time": [4525, 7845, 11416]}, "edge": {"target": [], "time": []}}, "mouseover": {"state": {"target": ["0", "23", "24", "25", "29", "29", "10", "6", "5", "17"], "time": [2503, 3270, 3305, 3372, 4003, 4338, 5377, 5995, 11314, 12739]}, "edge": {"target": [], "time": []}}, "mouseout": {"state": {"target": ["31", "0", "0", "0", "23", "24", "25", "29", "29", "10", "6", "5", "5"], "time": [1512, 1752, 2497, 3245, 3303, 3338, 3971, 4039, 5026, 5398, 7864, 11435, 12667]}, "edge": {"target": [], "time": []}}}, "displayed_time": "18.66", "trialTime": 19795, "trial_type": "mouselab-mdp", "trial_index": 40, "time_elapsed": 1352856, "internal_node_id": "0.0-6.0-1.0-31.0"}}, {"uniqueid": "w51455990:a67621467", "current_trial": 41, "dateTime": 1693661736736, "trialdata": {"revealed_states": [], "clicked_states": ["11", "28", "33", "31", "32", "16", "17"], "num_clicks_accrued": [0, 0, 0, 0, 0, 0, 0, 0, 0, 0, 0, 0, 0], "stateRewards": ["", -1, -4, -6, -15, 21, -67, -63, 9, 51, 69, -14, -1, 3, 8, -8, 39, 72, 63, 15, 19, 47, 15, 1, 4, 5, 16, -18, 34, 35, -14, -80, 40, 1], "withholdReward": false, "trial_id": "mdp_trial_33", "block": "test", "trialIndex": 34, "score": 58.95, "costs": -15.05, "simulationMode": [null, null, null, null, null], "rewards": [-1, 3, 8, -8, 72], "path": ["0", "0", "12", "13", "14", "15", "17"], "rt": [26570, 360, 41, 1317, 361], "actions": ["right", "right", "right", "up", "right"], "actionTimes": [28899, 29764, 30304, 32138, 33004], "queries": {"click": {"state": {"target": ["11", "28", "33", "31", "32", "16", "17"], "time": [3427, 6613, 9917, 14622, 18343, 21664, 24950]}, "edge": {"target": [], "time": []}}, "mouseover": {"state": {"target": ["0", "11", "11", "28", "30", "33", "30", "31", "32", "16", "16", "17", "15", "22"], "time": [2346, 2907, 3139, 4638, 7332, 7480, 12657, 14384, 18073, 19346, 19745, 22351, 26743, 27175]}, "edge": {"target": [], "time": []}}, "mouseout": {"state": {"target": ["17", "15", "12", "0", "0", "11", "11", "28", "30", "33", "30", "31", "32", "16", "16", "17", "16", "15"], "time": [655, 1488, 1535, 1821, 2821, 2923, 4244, 7229, 7352, 10450, 13050, 17838, 19261, 19364, 22315, 25030, 26740, 26761]}, "edge": {"target": [], "time": []}}}, "displayed_time": "33.51", "trialTime": 34377, "trial_type": "mouselab-mdp", "trial_index": 41, "time_elapsed": 1388308, "internal_node_id": "0.0-6.0-1.0-32.0"}}, {"uniqueid": "w51455990:a67621467", "current_trial": 42, "dateTime": 1693661755805, "trialdata": {"revealed_states": [], "clicked_states": ["6", "16", "18"], "num_clicks_accrued": [0, 0, 0, 0, 0, 0, 0, 0, 0, 0, 0, 0, 0], "stateRewards": ["", 2, -1, 3, -12, -83, 6, -33, 9, 28, 24, -50, -2, -1, -2, -5, -87, 37, 82, 12, 80, -5, 10, -2, -3, -6, 9, 22, -1, 16, 9, 77, -62, 58], "withholdReward": false, "trial_id": "mdp_trial_34", "block": "test", "trialIndex": 35, "score": 65.55, "costs": -6.449999999999999, "simulationMode": [null, null, null, null, null], "rewards": [-2, -1, -2, -5, 82], "path": ["0", "0", "12", "13", "14", "15", "18"], "rt": [11811, 494, 94, 33, 39], "actions": ["right", "right", "right", "up", "left"], "actionTimes": [14043, 15032, 15617, 16157, 16697], "queries": {"click": {"state": {"target": ["6", "16", "18"], "time": [3160, 6364, 9634]}, "edge": {"target": [], "time": []}}, "mouseover": {"state": {"target": ["6", "16", "18", "13", "22", "22"], "time": [2791, 4178, 7518, 12310, 12567, 12833]}, "edge": {"target": [], "time": []}}, "mouseout": {"state": {"target": ["22", "0", "6", "6", "16", "16", "18", "18", "13", "22"], "time": [438, 1438, 3180, 3897, 6398, 7463, 9705, 12203, 12502, 12684]}, "edge": {"target": [], "time": []}}}, "displayed_time": "17.19", "trialTime": 18081, "trial_type": "mouselab-mdp", "trial_index": 42, "time_elapsed": 1407401, "internal_node_id": "0.0-6.0-1.0-33.0"}}, {"uniqueid": "w51455990:a67621467", "current_trial": 43, "dateTime": 1693661792686, "trialdata": {"revealed_states": [], "clicked_states": ["10", "7", "5", "9", "11", "6", "27", "31"], "num_clicks_accrued": [0, 0, 0, 0, 0, 0, 0, 0, 0, 0, 0, 0, 0], "stateRewards": ["", 2, 4, 7, 7, -79, -2, -21, -5, -53, 47, -21, 1, -3, -1, 7, 83, 7, 84, -7, 80, -37, 69, 2, -4, 5, 2, 4, -20, -30, 7, 71, 44, -81], "withholdReward": false, "trial_id": "mdp_trial_35", "block": "test", "trialIndex": 36, "score": 63.8, "costs": -17.2, "simulationMode": [null, null, null, null, null], "rewards": [2, -4, 5, 7, 71], "path": ["0", "0", "23", "24", "25", "30", "31"], "rt": [29648, 373, 181, 148, 217], "actions": ["left", "left", "left", "down", "right"], "actionTimes": [31557, 32422, 33097, 33750, 34470], "queries": {"click": {"state": {"target": ["10", "7", "5", "9", "11", "6", "27", "31"], "time": [3318, 6939, 10177, 13464, 17985, 21189, 24409, 27579]}, "edge": {"target": [], "time": []}}, "mouseover": {"state": {"target": ["1", "2", "10", "2", "7", "4", "5", "5", "9", "9", "11", "8", "5", "6", "6", "4", "28", "26", "29", "27", "31", "31", "30", "33"], "time": [2681, 2883, 3114, 6470, 6604, 9159, 9183, 9470, 10568, 10930, 14195, 18770, 18859, 19456, 19610, 21920, 21962, 22001, 22042, 22383, 25428, 25699, 28035, 28232]}, "edge": {"target": [], "time": []}}, "mouseout": {"state": {"target": ["22", "0", "1", "2", "10", "2", "7", "4", "5", "5", "5", "9", "9", "9", "11", "8", "5", "6", "6", "6", "4", "28", "26", "29", "27", "31", "31", "30"], "time": [844, 1013, 2731, 3081, 6403, 6572, 9123, 9180, 9202, 10196, 10549, 10613, 13561, 14050, 18735, 18791, 19145, 19526, 21209, 21903, 21941, 21981, 22023, 22195, 25393, 25448, 28015, 28088]}, "edge": {"target": [], "time": []}}}, "displayed_time": "34.99", "trialTime": 35921, "trial_type": "mouselab-mdp", "trial_index": 43, "time_elapsed": 1444272, "internal_node_id": "0.0-6.0-1.0-34.0"}}, {"uniqueid": "w51455990:a67621467", "current_trial": 44, "dateTime": 1693661810132, "trialdata": {"revealed_states": [], "clicked_states": ["32"], "num_clicks_accrued": [0, 0, 0, 0, 0, 0, 0, 0, 0, 0, 0, 0, 0], "stateRewards": ["", 1, 1, -5, 10, -31, 73, 14, -8, -23, 63, -70, -1, 2, 8, 7, 25, -59, 27, -10, -40, -71, -15, -2, 3, -8, -5, -19, 77, -34, 7, 67, 63, 19], "withholdReward": false, "trial_id": "mdp_trial_36", "block": "test", "trialIndex": 37, "score": 60.85, "costs": -2.15, "simulationMode": [null, null, null, null, null], "rewards": [-2, 3, -8, 7, 63], "path": ["0", "0", "23", "24", "25", "30", "32"], "rt": [6410, 15, 169, 99, 142], "actions": ["left", "left", "left", "down", "down"], "actionTimes": [7993, 8511, 9200, 9796, 10438], "queries": {"click": {"state": {"target": ["32"], "time": [2406]}, "edge": {"target": [], "time": []}}, "mouseover": {"state": {"target": ["32", "31"], "time": [2087, 3212]}, "edge": {"target": [], "time": []}}, "mouseout": {"state": {"target": ["32"], "time": [3174]}, "edge": {"target": [], "time": []}}}, "displayed_time": "15.59", "trialTime": 16502, "trial_type": "mouselab-mdp", "trial_index": 44, "time_elapsed": 1461723, "internal_node_id": "0.0-6.0-1.0-35.0"}}, {"uniqueid": "w51455990:a67621467", "current_trial": 45, "dateTime": 1693661875717, "trialdata": {"revealed_states": [], "clicked_states": ["18", "16", "28", "33", "32", "9", "11", "27", "29", "5", "7", "22", "20"], "num_clicks_accrued": [0, 0, 0, 0, 0, 0, 0, 0, 0, 0, 0, 0, 0], "stateRewards": ["", 1, -2, -2, 10, -31, -77, 35, 9, -47, 8, 48, -2, 1, -4, -3, -26, -50, 43, -11, 76, -38, 17, 1, -1, 6, 10, 15, -9, 12, -8, 85, 11, -55], "withholdReward": false, "trial_id": "mdp_trial_37", "block": "test", "trialIndex": 38, "score": -85.94999999999999, "costs": -27.949999999999992, "simulationMode": [null, null, null, null, null], "rewards": [-2, 1, -4, -3, -50], "path": ["0", "0", "12", "13", "14", "15", "17"], "rt": [46214, 151, 39, 15, 3889], "actions": ["right", "right", "right", "up", "right"], "actionTimes": [48658, 49309, 49866, 50392, 54800], "queries": {"click": {"state": {"target": ["18", "16", "28", "33", "32", "9", "11", "27", "29", "5", "7", "22", "20"], "time": [4358, 7762, 11098, 14352, 17655, 20910, 24163, 28017, 31272, 34459, 37646, 40983, 44270]}, "edge": {"target": [], "time": []}}, "mouseover": {"state": {"target": ["1", "18", "15", "18", "18", "16", "28", "30", "33", "33", "32", "28", "8", "9", "11", "27", "29", "8", "5", "7", "2", "10", "22", "22", "22", "19", "20", "21"], "time": [3104, 3256, 3275, 3569, 3871, 4867, 8732, 12002, 12201, 12401, 15746, 18460, 18500, 18540, 21700, 25153, 30113, 32096, 32857, 35194, 38083, 38188, 39267, 39354, 39497, 42794, 43055, 45623]}, "edge": {"target": [], "time": []}}, "mouseout": {"state": {"target": ["31", "12", "17", "13", "12", "0", "1", "18", "15", "18", "18", "16", "28", "28", "30", "33", "33", "32", "32", "28", "8", "9", "11", "27", "29", "27", "8", "5", "7", "7", "2", "10", "22", "22", "22", "22", "19", "20"], "time": [1099, 1150, 1386, 1468, 1516, 1702, 3202, 3273, 3538, 3620, 4794, 8144, 11197, 11948, 12162, 12240, 15089, 17705, 18406, 18481, 18519, 21512, 24949, 29941, 31940, 32031, 32359, 34942, 37665, 38064, 38136, 39029, 39288, 39438, 41848, 42775, 42867, 45404]}, "edge": {"target": [], "time": []}}}, "displayed_time": "55.30", "trialTime": 64477, "trial_type": "mouselab-mdp", "trial_index": 45, "time_elapsed": 1527285, "internal_node_id": "0.0-6.0-1.0-36.0"}}, {"uniqueid": "w51455990:a67621467", "current_trial": 46, "dateTime": 1693661907331, "trialdata": {"revealed_states": [], "clicked_states": ["29", "33", "32", "5", "16", "17"], "num_clicks_accrued": [0, 0, 0, 0, 0, 0, 0, 0, 0, 0, 0, 0, 0], "stateRewards": ["", 1, -1, 8, 4, 76, -33, -17, -3, -1, -54, -74, -2, 2, -5, 13, -51, 63, 83, 1, 84, 29, -36, 2, -1, 7, -12, -10, -44, -43, -14, 8, -69, 19], "withholdReward": false, "trial_id": "mdp_trial_38", "block": "test", "trialIndex": 39, "score": 58.1, "costs": -12.9, "simulationMode": [null, null, null, null, null], "rewards": [-2, 2, -5, 13, 63], "path": ["0", "0", "12", "13", "14", "15", "17"], "rt": [23006, 15, 533, 432, 129], "actions": ["right", "right", "right", "up", "right"], "actionTimes": [25197, 25719, 26770, 27705, 28335], "queries": {"click": {"state": {"target": ["29", "33", "32", "5", "16", "17"], "time": [3764, 7016, 10354, 13908, 17682, 20866]}, "edge": {"target": [], "time": []}}, "mouseover": {"state": {"target": ["23", "29", "33", "33", "32", "5", "5", "16", "17", "15", "13", "22", "21"], "time": [2894, 3378, 5891, 6115, 7759, 11248, 13722, 14814, 18363, 21462, 21849, 21961, 22303]}, "edge": {"target": [], "time": []}}, "mouseout": {"state": {"target": ["21", "19", "12", "23", "29", "33", "33", "33", "32", "5", "5", "16", "17", "15", "13", "22"], "time": [1039, 1072, 1124, 2911, 5850, 5955, 7036, 7703, 10819, 13287, 14240, 18300, 21460, 21481, 21906, 22123]}, "edge": {"target": [], "time": []}}}, "displayed_time": "28.84", "trialTime": 30574, "trial_type": "mouselab-mdp", "trial_index": 46, "time_elapsed": 1558933, "internal_node_id": "0.0-6.0-1.0-37.0"}}, {"uniqueid": "w51455990:a67621467", "current_trial": 47, "dateTime": 1693661983606, "trialdata": {"revealed_states": [], "clicked_states": ["31", "22", "20", "17", "29", "9", "5", "6", "7", "32", "33", "18", "11", "27", "28", "10", "16", "21"], "num_clicks_accrued": [0, 0, 0, 0, 0, 0, 0, 0, 0, 0, 0, 0, 0], "stateRewards": ["", -1, -3, -7, -7, -76, 30, -49, 11, -70, 56, 2, 1, 4, -3, -14, -59, -83, -25, -9, -21, -67, -73, -2, 4, 4, -9, -11, -32, 60, 9, -87, 22, -64], "withholdReward": false, "trial_id": "mdp_trial_39", "block": "test", "trialIndex": 40, "score": 18.30000000000001, "costs": -38.69999999999999, "simulationMode": [null, null, null, null, null], "rewards": [-2, 4, 4, -9, 60], "path": ["0", "0", "23", "24", "25", "26", "29"], "rt": [68806, 106, 66, 105, 104], "actions": ["left", "left", "left", "up", "left"], "actionTimes": [70499, 71106, 71669, 72276, 72895], "queries": {"click": {"state": {"target": ["31", "22", "20", "17", "29", "9", "5", "6", "7", "32", "33", "18", "11", "27", "28", "10", "16", "21"], "time": [3110, 6715, 10001, 13238, 16475, 20479, 24134, 27560, 30858, 34045, 37265, 40502, 44440, 47728, 50980, 54151, 57672, 63061]}, "edge": {"target": [], "time": []}}, "mouseover": {"state": {"target": ["31", "22", "19", "22", "19", "20", "20", "17", "17", "15", "1", "29", "27", "11", "9", "5", "6", "7", "1", "23", "30", "32", "33", "30", "20", "19", "13", "12", "13", "18", "10", "11", "11", "27", "28", "10", "8", "8", "7", "16", "18", "12", "18", "14", "19", "21", "13", "7"], "time": [2841, 6042, 6154, 6359, 7441, 7484, 7777, 10975, 11254, 13824, 13864, 14260, 17196, 17220, 17572, 23495, 25676, 29443, 31462, 31484, 31543, 31829, 35802, 37740, 37904, 38285, 38308, 38686, 38792, 39026, 43704, 44002, 44254, 44895, 48496, 52603, 55043, 55954, 56222, 56711, 59974, 62190, 62442, 62623, 62643, 62942, 66710, 66746]}, "edge": {"target": [], "time": []}}, "mouseout": {"state": {"target": ["21", "0", "31", "22", "19", "22", "19", "20", "20", "20", "17", "17", "15", "1", "29", "27", "11", "9", "5", "6", "7", "1", "23", "30", "32", "33", "30", "20", "19", "13", "12", "13", "18", "18", "10", "11", "11", "27", "28", "10", "8", "8", "7", "16", "18", "12", "18", "14", "19", "21", "21", "13", "7"], "time": [736, 1715, 3174, 6092, 6214, 7422, 7463, 7506, 10806, 10918, 10995, 13804, 13844, 13884, 16587, 17218, 17241, 23413, 25309, 28173, 31442, 31482, 31505, 31567, 35746, 37737, 37761, 38082, 38306, 38329, 38786, 39007, 40602, 43652, 43721, 44035, 44809, 48247, 52285, 54885, 55789, 56202, 56242, 59826, 61740, 62240, 62459, 62640, 62675, 63127, 66681, 66728, 66764]}, "edge": {"target": [], "time": []}}}, "displayed_time": "73.40", "trialTime": 75223, "trial_type": "mouselab-mdp", "trial_index": 47, "time_elapsed": 1635171, "internal_node_id": "0.0-6.0-1.0-38.0"}}, {"uniqueid": "w51455990:a67621467", "current_trial": 48, "dateTime": 1693662003324, "trialdata": {"revealed_states": [], "clicked_states": ["29"], "num_clicks_accrued": [0, 0, 0, 0, 0, 0, 0, 0, 0, 0, 0, 0, 0], "stateRewards": ["", 1, 2, 7, 13, 88, -71, 27, 3, 60, 5, -53, -2, 2, -6, -1, -30, 79, 47, -4, -14, 46, 68, 1, 1, 8, 10, -14, 86, 48, -11, -67, -44, 5], "withholdReward": false, "trial_id": "mdp_trial_40", "block": "test", "trialIndex": 41, "score": 65.85, "costs": -2.15, "simulationMode": [null, null, null, null, null], "rewards": [1, 1, 8, 10, 48], "path": ["0", "0", "23", "24", "25", "26", "29"], "rt": [6417, 80, 89, 81, 255], "actions": ["left", "left", "left", "up", "left"], "actionTimes": [8144, 8727, 9323, 9897, 10696], "queries": {"click": {"state": {"target": ["29"], "time": [3364]}, "edge": {"target": [], "time": []}}, "mouseover": {"state": {"target": ["1", "28", "26", "29", "26", "28", "17"], "time": [1942, 2640, 2660, 3234, 4171, 4193, 4555]}, "edge": {"target": [], "time": []}}, "mouseout": {"state": {"target": ["7", "13", "0", "1", "28", "26", "29", "26", "28"], "time": [587, 720, 1137, 2595, 2658, 2679, 4152, 4191, 4213]}, "edge": {"target": [], "time": []}}}, "displayed_time": "15.73", "trialTime": 18718, "trial_type": "mouselab-mdp", "trial_index": 48, "time_elapsed": 1654952, "internal_node_id": "0.0-6.0-1.0-39.0"}}, {"uniqueid": "w51455990:a67621467", "current_trial": 49, "dateTime": 1693662074209, "trialdata": {"rt": 70878, "response": {"Q0": "$-2 to $2", "Q1": "$-32 to $32", "Q2": "$-88 to $88", "Q3": "The cost was always $1.4.", "Q4": "Very motivated"}, "question_order": [0, 1, 2, 3, 4], "trial_id": "final_quiz_control", "trial_type": "survey-multi-choice", "trial_index": 49, "time_elapsed": 1725837, "internal_node_id": "0.0-6.0-2.0"}}, {"uniqueid": "w51455990:a67621467", "current_trial": 50, "dateTime": 1693662157770, "trialdata": {"rt": 83551, "response": {"Q0": "I tended to only click on the the last nodes, the more costly or rewarding ones. And tried to click on as least nodes as possible. As soon as i found a decent paying final node, i went for it and took a chance with the intermediate ones on the way there. ", "Q1": "My strategy stayed the same.\n", "Q2": "I found it hard to improve my performance. "}, "trial_id": "self_report_control", "trial_type": "survey-text", "trial_index": 50, "time_elapsed": 1809398, "internal_node_id": "0.0-6.0-3.0"}}, {"uniqueid": "w51455990:a67621467", "current_trial": 51, "dateTime": 1693662217038, "trialdata": {"rt": 59263, "response": {"Q0": "Strongly disagree", "Q1": "Strongly disagree", "Q2": "Neither disagree nor agree", "Q3": "Strongly agree", "Q4": "Strongly disagree", "Q5": "Strongly agree", "Q6": "Strongly disagree"}, "question_order": [0, 1, 2, 3, 4, 5, 6], "trial_id": "self_report_2", "trial_type": "survey-multi-choice", "trial_index": 51, "time_elapsed": 1868666, "internal_node_id": "0.0-6.0-4.0"}}, {"uniqueid": "w51455990:a67621467", "current_trial": 52, "dateTime": 1693662232138, "trialdata": {"rt": 15093, "response": {"gender": "male", "age": "47", "colorblind": "0", "effort": "0"}, "trial_type": "survey-html-form", "trial_index": 52, "time_elapsed": 1883766, "internal_node_id": "0.0-6.0-5.0"}}, {"uniqueid": "w51455990:a67621467", "current_trial": 53, "dateTime": 1693662250641, "trialdata": {"rt": 18498, "response": {"Q0": "No", "Q1": "No", "Q2": ""}, "trial_type": "survey-text", "trial_index": 53, "time_elapsed": 1902269, "internal_node_id": "0.0-6.0-6.0"}}, {"uniqueid": "w51455990:a67621467", "current_trial": 54, "dateTime": 1693662304688, "trialdata": {"rt": 54041, "stimulus": "<h1>Completion Code Instructions (1/2)</h1>\n<br><br><br><br>\nYou have reached the end of the experiment! The completion code consists of two parts: (1) a code with 2 characters (2) a code with 6 characters. On this page, you will receive the second part of the code. The first part of the completion code will be on the next page.\n<br><br>\nThe second part of your completion code is: <b>EWEK22</b>\n<br><br>\nPlease note this down. Then, press 'Next' in order to find the first part of your completion code. Once the data has been saved, you will receive this code either in this window or in the original browser window where you started the experiment.\n <br><br>\n<h2 style='color: red;'>Note: this is <strong>NOT</strong> the full completion code. Copy this down and click 'Next' to get the full completion code on the next page.</h2>", "response": 0, "trial_type": "html-button-response", "trial_index": 54, "time_elapsed": 1956316, "internal_node_id": "0.0-6.0-7.0"}}, {"uniqueid": "w51455990:a67621467", "current_trial": 55, "dateTime": 1693662305699, "trialdata": {"success": true, "trial_type": "fullscreen", "trial_index": 55, "time_elapsed": 1957327, "internal_node_id": "0.0-7.0"}}], "questiondata": {"params": {"CODE": "C6DMOQA6", "MIN_TIME": 14, "inspectCost": 1, "startTime": "Sat Sep 02 2023 14:12:27 GMT+0100 (British Summer Time)", "bonusRate": 0.002, "variance": "1_2_4_8_44", "branching": "31123"}, "final_score": 2031.15}, "eventdata": [{"eventtype": "initialized", "value": null, "timestamp": 1693660347418, "interval": 0}, {"eventtype": "window_resize", "value": [1024, 767], "timestamp": 1693660347418, "interval": 0}, {"eventtype": "window_resize", "value": [1024, 767], "timestamp": 1693660347722, "interval": 304}, {"eventtype": "window_resize", "value": [1920, 1080], "timestamp": 1693660351111, "interval": 3389}, {"eventtype": "window_resize", "value": [1024, 767], "timestamp": 1693662304997, "interval": 1953886}], "useragent": "Mozilla/5.0 (Macintosh; Intel Mac OS X 10_15_7) AppleWebKit/537.36 (KHTML, like Gecko) Chrome/116.0.0.0 Safari/537.36", "mode": "live", "id": "w51455990:a67621467", "status": "user data saved", "Beginhit": "2023-09-02 13:12:28.763436", "Beginexp": "2023-09-02 13:12:34.201039", "Endhit": "2023-09-02 13:45:08.182075", "psiturkStatus": 3, "browser": "<redacted>", "platform": "macos", "language": "en-GB"}