{"condition": 1, "counterbalance": 0, "assignmentId": "a79516696", "workerId": "w31760974", "hitId": "h70595998", "currenttrial": 67, "bonus": 0, "data": [{"uniqueid": "w31760974:a79516696", "current_trial": 0, "dateTime": 1693564974624, "trialdata": {"success": true, "trial_type": "fullscreen", "trial_index": 0, "time_elapsed": 3967, "internal_node_id": "0.0-0.0"}}, {"uniqueid": "w31760974:a79516696", "current_trial": 1, "dateTime": 1693564992753, "trialdata": {"view_history": [{"page_index": 0, "viewing_time": 18120}], "rt": 18120, "trial_id": "exp_instructions_misaligned", "trial_type": "instructions", "trial_index": 1, "time_elapsed": 22097, "internal_node_id": "0.0-1.0"}}, {"uniqueid": "w31760974:a79516696", "current_trial": 2, "dateTime": 1693565176446, "trialdata": {"view_history": [{"page_index": 0, "viewing_time": 87089}, {"page_index": 1, "viewing_time": 46388}, {"page_index": 2, "viewing_time": 12049}, {"page_index": 3, "viewing_time": 38163}], "rt": 183690, "trial_id": "mouselab_instructions_1_misaligned", "trial_type": "instructions", "trial_index": 2, "time_elapsed": 205790, "internal_node_id": "0.0-2.0-1.0"}}, {"uniqueid": "w31760974:a79516696", "current_trial": 3, "dateTime": 1693565261698, "trialdata": {"revealed_states": [], "clicked_states": ["13", "2", "25", "5", "19", "21", "1", "3", "15", "26", "27", "32", "33", "29", "28", "17", "20", "9", "8", "30", "24", "23", "12", "14", "18", "4", "6", "10", "11", "7", "31", "22", "16"], "num_clicks_accrued": [0, 0, 0, 0, 0, 0, 0, 0, 0, 0, 0, 0, 0], "stateRewards": ["", 10, -10, -10, -10, 10, -10, 10, -10, -10, 10, 10, 10, 10, 10, 10, -10, -10, -10, 10, -10, 10, -10, -10, 10, -10, -10, -10, 10, 10, -10, -10, 10, -10], "withholdReward": false, "trial_id": "practice_1", "block": "test", "trialIndex": 0, "score": 17, "costs": -16.5, "simulationMode": [null, null, null, null, null], "rewards": [10, 10, 10, 10, -10], "path": ["0", "0", "12", "13", "14", "15", "18"], "rt": [72721, 1000, 1705, 1, 586], "actions": ["right", "right", "right", "up", "left"], "actionTimes": [74268, 75773, 77993, 78505, 79606], "queries": {"click": {"state": {"target": ["13", "2", "25", "5", "19", "21", "1", "3", "15", "26", "27", "32", "33", "29", "28", "17", "20", "9", "8", "30", "24", "23", "12", "14", "18", "4", "6", "10", "11", "7", "31", "22", "16"], "time": [3591, 5067, 6340, 8288, 10072, 11378, 15389, 20335, 22090, 24187, 26426, 28392, 30549, 32448, 34299, 35804, 37362, 38712, 39791, 43081, 44224, 45310, 46395, 47446, 48737, 49987, 51228, 52584, 53662, 55020, 57889, 59068, 60233]}, "edge": {"target": [], "time": []}}, "mouseover": {"state": {"target": ["1", "2", "1", "12", "13", "18", "7", "2", "28", "25", "10", "8", "5", "6", "19", "21", "19", "21", "22", "1", "2", "7", "4", "2", "4", "5", "3", "7", "15", "7", "8", "11", "27", "26", "27", "25", "30", "32", "33", "29", "26", "28", "1", "17", "17", "17", "20", "15", "4", "9", "8", "2", "2", "10", "27", "26", "30", "24", "23", "12", "13", "14", "18", "4", "6", "10", "11", "2", "7", "1", "24", "31", "31", "22", "13", "16", "17", "15", "1", "0", "1", "3", "10", "28", "24", "23", "0", "12", "15"], "time": [2208, 2453, 2617, 2734, 3239, 4167, 4417, 4501, 5651, 5968, 7018, 7037, 7800, 8734, 9119, 9302, 9618, 10952, 13619, 15041, 16035, 16068, 16168, 16506, 18467, 18856, 19901, 21436, 21605, 22918, 23018, 23134, 23301, 23553, 25990, 27218, 27284, 27868, 29974, 31973, 33219, 33336, 34802, 34885, 35219, 35406, 36801, 37919, 38018, 38319, 39385, 40990, 41240, 41569, 41940, 42285, 42720, 43686, 45101, 45885, 46852, 46968, 48269, 49407, 50637, 52168, 53235, 54285, 54351, 55818, 55901, 56101, 57294, 58435, 59535, 59685, 62522, 63374, 64635, 65042, 66201, 66601, 66701, 66818, 67284, 67635, 68169, 68251, 69451]}, "edge": {"target": [], "time": []}}, "mouseout": {"state": {"target": ["0", "1", "2", "1", "12", "13", "18", "7", "2", "28", "25", "10", "8", "5", "6", "19", "21", "19", "21", "22", "1", "2", "7", "4", "2", "4", "5", "3", "7", "15", "7", "8", "11", "27", "26", "27", "26", "25", "30", "32", "33", "29", "26", "28", "1", "17", "17", "17", "17", "20", "15", "4", "9", "9", "8", "2", "2", "10", "27", "26", "30", "24", "23", "12", "13", "14", "18", "4", "6", "6", "4", "10", "11", "2", "7", "1", "24", "31", "31", "22", "13", "16", "17", "15", "1", "0", "1", "3", "10", "28", "24", "23", "0", "12", "15"], "time": [1005, 2318, 2600, 2684, 2805, 4067, 4184, 4467, 5590, 5669, 6934, 7034, 7051, 8718, 8752, 9153, 9568, 10901, 13609, 13636, 15597, 16051, 16101, 16402, 18405, 18535, 19856, 21385, 21452, 22872, 22935, 23068, 23252, 23439, 25307, 27101, 27168, 27251, 27707, 29626, 31774, 33186, 33269, 34769, 34818, 34902, 35286, 36014, 36685, 37868, 37936, 38035, 38926, 39335, 40751, 41068, 41557, 41651, 42257, 42302, 43298, 44868, 45805, 46836, 46919, 48169, 49218, 50485, 51440, 51868, 51919, 52792, 54168, 54301, 55785, 55835, 55952, 56223, 58319, 59519, 59552, 62321, 62601, 63387, 64702, 66145, 66234, 66635, 66718, 67218, 67351, 67784, 68218, 69301, 70368]}, "edge": {"target": [], "time": []}}}, "displayed_time": "80.12", "trialTime": 84448, "trial_type": "mouselab-mdp", "trial_index": 3, "time_elapsed": 291041, "internal_node_id": "0.0-2.0-2.0-0.0"}}, {"uniqueid": "w31760974:a79516696", "current_trial": 4, "dateTime": 1693565277373, "trialdata": {"revealed_states": [], "clicked_states": [], "num_clicks_accrued": [0, 0, 0, 0, 0, 0, 0, 0, 0, 0, 0, 0, 0], "stateRewards": ["", -10, 10, 10, -10, -10, 10, -10, -10, 10, 10, -10, -10, -10, 10, -10, -10, -10, 10, 10, -10, 10, -10, -10, 10, 10, 10, 10, 10, -10, -10, -10, -10, 10], "withholdReward": false, "trial_id": "practice_2", "block": "test", "trialIndex": 1, "score": -6.5, "costs": 0, "simulationMode": [null, null, null, null, null], "rewards": [-10, -10, 10, -10, 10], "path": ["0", "0", "12", "13", "14", "15", "18"], "rt": [1386, 484, 1255, 1382, 598], "actions": ["right", "right", "right", "up", "left"], "actionTimes": [5451, 6442, 8212, 10106, 11221], "queries": {"click": {"state": {"target": [], "time": []}, "edge": {"target": [], "time": []}}, "mouseover": {"state": {"target": [], "time": []}, "edge": {"target": [], "time": []}}, "mouseout": {"state": {"target": ["24"], "time": [3041]}, "edge": {"target": [], "time": []}}}, "displayed_time": "11.74", "trialTime": 15526, "trial_type": "mouselab-mdp", "trial_index": 4, "time_elapsed": 306716, "internal_node_id": "0.0-2.0-2.0-1.0"}}, {"uniqueid": "w31760974:a79516696", "current_trial": 5, "dateTime": 1693565303023, "trialdata": {"view_history": [{"page_index": 0, "viewing_time": 20890}, {"page_index": 1, "viewing_time": 4758}], "rt": 25648, "trial_id": "mouselab_instructions_2_misaligned", "trial_type": "instructions", "trial_index": 5, "time_elapsed": 332367, "internal_node_id": "0.0-2.0-3.0"}}, {"uniqueid": "w31760974:a79516696", "current_trial": 6, "dateTime": 1693565395230, "trialdata": {"rt": 92204, "response": {"Q0": "The cost for clicking on nodes may vary between nodes.", "Q1": "The better I perform the higher my bonus will be.", "Q2": "No, the amount of cash at each node of the web may be different each time.", "Q3": "To finish the game in the shortest amount of time.", "Q4": "Only before moving the spider.", "Q5": "3 seconds"}, "question_order": [0, 1, 2, 3, 4, 5], "correct": {"Q0": "The cost for clicking on nodes may vary between nodes.", "Q1": "The better I perform the higher my bonus will be.", "Q2": "No, the amount of cash at each node of the web may be different each time.", "Q3": "To get the highest total score.", "Q4": "Only before moving the spider.", "Q5": "3 seconds"}, "trial_id": "mouselab_quiz_misaligned", "trial_type": "survey-multi-choice", "trial_index": 6, "time_elapsed": 424574, "internal_node_id": "0.0-2.0-4.0"}}, {"uniqueid": "w31760974:a79516696", "current_trial": 7, "dateTime": 1693565403089, "trialdata": {"success": true, "trial_type": "fullscreen", "trial_index": 7, "time_elapsed": 432433, "internal_node_id": "0.0-2.1-0.1-0.1"}}, {"uniqueid": "w31760974:a79516696", "current_trial": 8, "dateTime": 1693565458223, "trialdata": {"view_history": [{"page_index": 0, "viewing_time": 35340}, {"page_index": 1, "viewing_time": 4682}, {"page_index": 2, "viewing_time": 2742}, {"page_index": 3, "viewing_time": 12366}], "rt": 55131, "trial_id": "mouselab_instructions_1_misaligned", "trial_type": "instructions", "trial_index": 8, "time_elapsed": 487567, "internal_node_id": "0.0-2.1-1.1"}}, {"uniqueid": "w31760974:a79516696", "current_trial": 9, "dateTime": 1693565469610, "trialdata": {"revealed_states": [], "clicked_states": [], "num_clicks_accrued": [0, 0, 0, 0, 0, 0, 0, 0, 0, 0, 0, 0, 0], "stateRewards": ["", 10, -10, -10, -10, 10, -10, 10, -10, -10, 10, 10, 10, 10, 10, 10, -10, -10, -10, 10, -10, 10, -10, -10, 10, -10, -10, -10, 10, 10, -10, -10, 10, -10], "withholdReward": false, "trial_id": "practice_1", "block": "test", "trialIndex": 2, "score": 33.5, "costs": 0, "simulationMode": [null, null, null, null, null], "rewards": [10, 10, 10, 10, -10], "path": ["0", "0", "12", "13", "14", "15", "16"], "rt": [1005, 90, 295, 310, 2740], "actions": ["right", "right", "right", "up", "up"], "actionTimes": [2888, 3484, 4291, 5121, 8369], "queries": {"click": {"state": {"target": [], "time": []}, "edge": {"target": [], "time": []}}, "mouseover": {"state": {"target": [], "time": []}, "edge": {"target": [], "time": []}}, "mouseout": {"state": {"target": ["0", "23", "31"], "time": [10293, 10342, 10446]}, "edge": {"target": [], "time": []}}}, "displayed_time": "8.88", "trialTime": 11218, "trial_type": "mouselab-mdp", "trial_index": 9, "time_elapsed": 498953, "internal_node_id": "0.0-2.1-2.1-0.1"}}, {"uniqueid": "w31760974:a79516696", "current_trial": 10, "dateTime": 1693565479883, "trialdata": {"revealed_states": [], "clicked_states": [], "num_clicks_accrued": [0, 0, 0, 0, 0, 0, 0, 0, 0, 0, 0, 0, 0], "stateRewards": ["", -10, 10, 10, -10, -10, 10, -10, -10, 10, 10, -10, -10, -10, 10, -10, -10, -10, 10, 10, -10, 10, -10, -10, 10, 10, 10, 10, 10, -10, -10, -10, -10, 10], "withholdReward": false, "trial_id": "practice_2", "block": "test", "trialIndex": 3, "score": 33.5, "costs": 0, "simulationMode": [null, null, null, null, null], "rewards": [-10, 10, 10, 10, 10], "path": ["0", "0", "23", "24", "25", "26", "27"], "rt": [1068, 195, 440, 106, 1036], "actions": ["left", "left", "left", "up", "up"], "actionTimes": [4190, 4880, 5841, 6459, 8004], "queries": {"click": {"state": {"target": [], "time": []}, "edge": {"target": [], "time": []}}, "mouseover": {"state": {"target": [], "time": []}, "edge": {"target": [], "time": []}}, "mouseout": {"state": {"target": [], "time": []}, "edge": {"target": [], "time": []}}}, "displayed_time": "8.52", "trialTime": 10113, "trial_type": "mouselab-mdp", "trial_index": 10, "time_elapsed": 509226, "internal_node_id": "0.0-2.1-2.1-1.1"}}, {"uniqueid": "w31760974:a79516696", "current_trial": 11, "dateTime": 1693565487041, "trialdata": {"view_history": [{"page_index": 0, "viewing_time": 5191}, {"page_index": 1, "viewing_time": 1963}], "rt": 7155, "trial_id": "mouselab_instructions_2_misaligned", "trial_type": "instructions", "trial_index": 11, "time_elapsed": 516385, "internal_node_id": "0.0-2.1-3.1"}}, {"uniqueid": "w31760974:a79516696", "current_trial": 12, "dateTime": 1693565589906, "trialdata": {"rt": 102861, "response": {"Q0": "The cost for clicking on nodes may vary between nodes.", "Q1": "The better I perform the higher my bonus will be.", "Q2": "No, the amount of cash at each node of the web may be different each time.", "Q3": "To get the highest total score.", "Q4": "Any time during the round.", "Q5": "3 seconds"}, "question_order": [0, 1, 2, 3, 4, 5], "correct": {"Q0": "The cost for clicking on nodes may vary between nodes.", "Q1": "The better I perform the higher my bonus will be.", "Q2": "No, the amount of cash at each node of the web may be different each time.", "Q3": "To get the highest total score.", "Q4": "Only before moving the spider.", "Q5": "3 seconds"}, "trial_id": "mouselab_quiz_misaligned", "trial_type": "survey-multi-choice", "trial_index": 12, "time_elapsed": 619250, "internal_node_id": "0.0-2.1-4.1"}}, {"uniqueid": "w31760974:a79516696", "current_trial": 13, "dateTime": 1693565599264, "trialdata": {"success": true, "trial_type": "fullscreen", "trial_index": 13, "time_elapsed": 628608, "internal_node_id": "0.0-2.2-0.2-0.2"}}, {"uniqueid": "w31760974:a79516696", "current_trial": 14, "dateTime": 1693565720988, "trialdata": {"view_history": [{"page_index": 0, "viewing_time": 67743}, {"page_index": 1, "viewing_time": 38553}, {"page_index": 2, "viewing_time": 7674}, {"page_index": 3, "viewing_time": 7754}], "rt": 121724, "trial_id": "mouselab_instructions_1_misaligned", "trial_type": "instructions", "trial_index": 14, "time_elapsed": 750332, "internal_node_id": "0.0-2.2-1.2"}}, {"uniqueid": "w31760974:a79516696", "current_trial": 15, "dateTime": 1693565730485, "trialdata": {"revealed_states": [], "clicked_states": [], "num_clicks_accrued": [0, 0, 0, 0, 0, 0, 0, 0, 0, 0, 0, 0, 0], "stateRewards": ["", 10, -10, -10, -10, 10, -10, 10, -10, -10, 10, 10, 10, 10, 10, 10, -10, -10, -10, 10, -10, 10, -10, -10, 10, -10, -10, -10, 10, 10, -10, -10, 10, -10], "withholdReward": false, "trial_id": "practice_1", "block": "test", "trialIndex": 4, "score": 33.5, "costs": 0, "simulationMode": [null, null, null, null, null], "rewards": [10, 10, 10, 10, -10], "path": ["0", "0", "12", "13", "14", "15", "16"], "rt": [779, 1874, 1367, 86, 78], "actions": ["right", "right", "right", "up", "up"], "actionTimes": [2124, 4512, 6391, 6993, 7569], "queries": {"click": {"state": {"target": [], "time": []}, "edge": {"target": [], "time": []}}, "mouseover": {"state": {"target": [], "time": []}, "edge": {"target": [], "time": []}}, "mouseout": {"state": {"target": ["0"], "time": [972]}, "edge": {"target": [], "time": []}}}, "displayed_time": "8.07", "trialTime": 9303, "trial_type": "mouselab-mdp", "trial_index": 15, "time_elapsed": 759828, "internal_node_id": "0.0-2.2-2.2-0.2"}}, {"uniqueid": "w31760974:a79516696", "current_trial": 16, "dateTime": 1693565739548, "trialdata": {"revealed_states": [], "clicked_states": [], "num_clicks_accrued": [0, 0, 0, 0, 0, 0, 0, 0, 0, 0, 0, 0, 0], "stateRewards": ["", -10, 10, 10, -10, -10, 10, -10, -10, 10, 10, -10, -10, -10, 10, -10, -10, -10, 10, 10, -10, 10, -10, -10, 10, 10, 10, 10, 10, -10, -10, -10, -10, 10], "withholdReward": false, "trial_id": "practice_2", "block": "test", "trialIndex": 5, "score": 33.5, "costs": 0, "simulationMode": [null, null, null, null, null], "rewards": [-10, 10, 10, 10, 10], "path": ["0", "0", "23", "24", "25", "26", "27"], "rt": [1091, 42, 46, 441, 144], "actions": ["left", "left", "left", "up", "up"], "actionTimes": [4564, 5113, 5667, 6626, 7289], "queries": {"click": {"state": {"target": [], "time": []}, "edge": {"target": [], "time": []}}, "mouseover": {"state": {"target": [], "time": []}, "edge": {"target": [], "time": []}}, "mouseout": {"state": {"target": ["0", "1", "2", "1"], "time": [2427, 2637, 2787, 2921]}, "edge": {"target": [], "time": []}}}, "displayed_time": "7.80", "trialTime": 8883, "trial_type": "mouselab-mdp", "trial_index": 16, "time_elapsed": 768892, "internal_node_id": "0.0-2.2-2.2-1.2"}}, {"uniqueid": "w31760974:a79516696", "current_trial": 17, "dateTime": 1693565747189, "trialdata": {"view_history": [{"page_index": 0, "viewing_time": 5760}, {"page_index": 1, "viewing_time": 1879}], "rt": 7639, "trial_id": "mouselab_instructions_2_misaligned", "trial_type": "instructions", "trial_index": 17, "time_elapsed": 776533, "internal_node_id": "0.0-2.2-3.2"}}, {"uniqueid": "w31760974:a79516696", "current_trial": 18, "dateTime": 1693565815595, "trialdata": {"rt": 68401, "response": {"Q0": "The cost for clicking on nodes may vary between nodes.", "Q1": "The better I perform the higher my bonus will be.", "Q2": "No, the amount of cash at each node of the web may be different each time.", "Q3": "To get the highest total score.", "Q4": "Only before moving the spider.", "Q5": "3 seconds"}, "question_order": [0, 1, 2, 3, 4, 5], "correct": {"Q0": "The cost for clicking on nodes may vary between nodes.", "Q1": "The better I perform the higher my bonus will be.", "Q2": "No, the amount of cash at each node of the web may be different each time.", "Q3": "To get the highest total score.", "Q4": "Only before moving the spider.", "Q5": "3 seconds"}, "trial_id": "mouselab_quiz_misaligned", "trial_type": "survey-multi-choice", "trial_index": 18, "time_elapsed": 844939, "internal_node_id": "0.0-2.2-4.2"}}, {"uniqueid": "w31760974:a79516696", "current_trial": 19, "dateTime": 1693565826461, "trialdata": {"rt": 10861, "response": {"Q0": "No"}, "question_order": [0], "trial_id": "repeat_check", "trial_type": "survey-multi-choice", "trial_index": 19, "time_elapsed": 855805, "internal_node_id": "0.0-4.0-0.0"}}, {"uniqueid": "w31760974:a79516696", "current_trial": 20, "dateTime": 1693565832681, "trialdata": {"rt": 6214, "stimulus": "\n<h1> Get ready to start the game! </h1>\n\nThank you for reading the instructions. Get ready start with the 40 rounds of this game.\n<br><br>\nIf you need to take a break, feel free to take one after the end of a round, before continuing to the next one.\n<br><br>\nRemember, the more money the spider gets, the bigger your bonus will be!\n<br><br>\n<div style='text-align: center;'>Press <code>space</code> to begin.</div>\n\n<br><br>\n(If, at any point, the <code>space</code> key does not take you to the next page, click once on the text and try again.)", "response": " ", "trial_id": "mdp_ready", "trial_type": "html-keyboard-response", "trial_index": 20, "time_elapsed": 862025, "internal_node_id": "0.0-6.0-0.0"}}, {"uniqueid": "w31760974:a79516696", "current_trial": 21, "dateTime": 1693565853617, "trialdata": {"revealed_states": [], "clicked_states": [], "num_clicks_accrued": [0, 0, 0, 0, 0, 0, 0, 0, 0, 0, 0, 0, 0], "stateRewards": ["", -1, -2, 8, -6, -79, -6, 87, 9, -5, -66, -38, 2, 2, 5, -6, -82, 74, 85, -8, 67, -30, -15, 1, -2, -2, -2, 87, 64, 49, 7, 2, -38, -9], "withholdReward": false, "trial_id": "mdp_trial_1", "block": "test", "trialIndex": 6, "score": -79, "costs": 0, "simulationMode": [null, null, null, null, null], "rewards": [2, 2, 5, -6, -82], "path": ["0", "0", "12", "13", "14", "15", "16"], "rt": [1036, 121, 34, 470, 15], "actions": ["right", "right", "right", "up", "up"], "actionTimes": [5569, 6211, 6738, 7751, 8287], "queries": {"click": {"state": {"target": [], "time": []}, "edge": {"target": [], "time": []}}, "mouseover": {"state": {"target": [], "time": []}, "edge": {"target": [], "time": []}}, "mouseout": {"state": {"target": [], "time": []}, "edge": {"target": [], "time": []}}}, "displayed_time": "18.54", "trialTime": 20749, "trial_type": "mouselab-mdp", "trial_index": 21, "time_elapsed": 882960, "internal_node_id": "0.0-6.0-1.0-0.0"}}, {"uniqueid": "w31760974:a79516696", "current_trial": 22, "dateTime": 1693565874664, "trialdata": {"revealed_states": [], "clicked_states": [], "num_clicks_accrued": [0, 0, 0, 0, 0, 0, 0, 0, 0, 0, 0, 0, 0], "stateRewards": ["", 1, 2, 8, -2, 23, -69, -18, -16, 54, -21, 71, -1, -4, 7, 11, 43, -6, 88, 6, -55, 72, 43, 1, -3, -2, -1, 68, -31, -54, 4, -8, 25, -2], "withholdReward": false, "trial_id": "mdp_trial_2", "block": "test", "trialIndex": 7, "score": 25, "costs": 0, "simulationMode": [null, null, null, null, null], "rewards": [1, -3, -2, 4, 25], "path": ["0", "0", "23", "24", "25", "30", "32"], "rt": [1300, 7, 531, 958, 33], "actions": ["left", "left", "left", "down", "down"], "actionTimes": [4815, 5333, 6373, 7848, 8391], "queries": {"click": {"state": {"target": [], "time": []}, "edge": {"target": [], "time": []}}, "mouseover": {"state": {"target": [], "time": []}, "edge": {"target": [], "time": []}}, "mouseout": {"state": {"target": [], "time": []}, "edge": {"target": [], "time": []}}}, "displayed_time": "17.52", "trialTime": 20799, "trial_type": "mouselab-mdp", "trial_index": 22, "time_elapsed": 904007, "internal_node_id": "0.0-6.0-1.0-1.0"}}, {"uniqueid": "w31760974:a79516696", "current_trial": 23, "dateTime": 1693565892869, "trialdata": {"revealed_states": [], "clicked_states": [], "num_clicks_accrued": [0, 0, 0, 0, 0, 0, 0, 0, 0, 0, 0, 0, 0], "stateRewards": ["", -2, 1, -5, 2, -68, 80, 33, 10, 67, -59, 20, -1, -3, 3, 14, 74, -2, 24, -16, 63, 80, 46, -1, 4, 6, 12, 83, -38, -43, -4, 43, 14, -79], "withholdReward": false, "trial_id": "mdp_trial_3", "block": "test", "trialIndex": 8, "score": -72, "costs": 0, "simulationMode": [null, null, null, null, null], "rewards": [-2, 1, -5, 2, -68], "path": ["0", "0", "1", "2", "3", "4", "5"], "rt": [4086, 233, 89, 1022, 945], "actions": ["up", "up", "up", "right", "up"], "actionTimes": [6313, 7062, 7652, 9168, 10624], "queries": {"click": {"state": {"target": [], "time": []}, "edge": {"target": [], "time": []}}, "mouseover": {"state": {"target": [], "time": []}, "edge": {"target": [], "time": []}}, "mouseout": {"state": {"target": ["0", "0"], "time": [1353, 1780]}, "edge": {"target": [], "time": []}}}, "displayed_time": "16.23", "trialTime": 18009, "trial_type": "mouselab-mdp", "trial_index": 23, "time_elapsed": 922212, "internal_node_id": "0.0-6.0-1.0-2.0"}}, {"uniqueid": "w31760974:a79516696", "current_trial": 24, "dateTime": 1693565910384, "trialdata": {"revealed_states": [], "clicked_states": [], "num_clicks_accrued": [0, 0, 0, 0, 0, 0, 0, 0, 0, 0, 0, 0, 0], "stateRewards": ["", 2, 4, -6, -13, -75, -81, 30, 7, 5, 59, -65, -1, -1, 7, 14, -38, 36, -41, 1, -54, -5, 64, 2, -1, 5, 6, -19, 79, 11, 16, -33, -50, 58], "withholdReward": false, "trial_id": "mdp_trial_4", "block": "test", "trialIndex": 9, "score": -7, "costs": 0, "simulationMode": [null, null, null, null, null], "rewards": [2, -1, 5, 6, -19], "path": ["0", "0", "23", "24", "25", "26", "27"], "rt": [1683, 163, 305, 63, 46], "actions": ["left", "left", "left", "up", "up"], "actionTimes": [3016, 3688, 4513, 5071, 5638], "queries": {"click": {"state": {"target": [], "time": []}, "edge": {"target": [], "time": []}}, "mouseover": {"state": {"target": [], "time": []}, "edge": {"target": [], "time": []}}, "mouseout": {"state": {"target": ["0"], "time": [1192]}, "edge": {"target": [], "time": []}}}, "displayed_time": "15.34", "trialTime": 17287, "trial_type": "mouselab-mdp", "trial_index": 24, "time_elapsed": 939727, "internal_node_id": "0.0-6.0-1.0-3.0"}}, {"uniqueid": "w31760974:a79516696", "current_trial": 25, "dateTime": 1693565927521, "trialdata": {"revealed_states": [], "clicked_states": [], "num_clicks_accrued": [0, 0, 0, 0, 0, 0, 0, 0, 0, 0, 0, 0, 0], "stateRewards": ["", 1, 2, -8, 9, 18, -83, -11, 6, -64, -48, 17, -2, -2, -5, -3, -24, -3, -86, -2, 48, -41, -22, -2, 4, 7, 8, 81, 13, -48, 10, 61, 19, 57], "withholdReward": false, "trial_id": "mdp_trial_5", "block": "test", "trialIndex": 10, "score": -15, "costs": 0, "simulationMode": [null, null, null, null, null], "rewards": [-2, -2, -5, -3, -3], "path": ["0", "0", "12", "13", "14", "15", "17"], "rt": [1178, 103, 120, 539, 183], "actions": ["right", "right", "right", "up", "right"], "actionTimes": [2432, 3025, 3643, 4703, 5404], "queries": {"click": {"state": {"target": [], "time": []}, "edge": {"target": [], "time": []}}, "mouseover": {"state": {"target": [], "time": []}, "edge": {"target": [], "time": []}}, "mouseout": {"state": {"target": ["0"], "time": [1113]}, "edge": {"target": [], "time": []}}}, "displayed_time": "15.26", "trialTime": 16903, "trial_type": "mouselab-mdp", "trial_index": 25, "time_elapsed": 956864, "internal_node_id": "0.0-6.0-1.0-4.0"}}, {"uniqueid": "w31760974:a79516696", "current_trial": 26, "dateTime": 1693565945311, "trialdata": {"revealed_states": [], "clicked_states": [], "num_clicks_accrued": [0, 0, 0, 0, 0, 0, 0, 0, 0, 0, 0, 0, 0], "stateRewards": ["", -2, -1, -1, 5, -54, -87, 35, 2, -8, 20, -22, 1, 3, 6, 13, -75, -32, -55, -3, 56, 62, -22, -1, -4, -1, -7, -51, 84, 70, 7, -15, 5, 55], "withholdReward": false, "trial_id": "mdp_trial_6", "block": "test", "trialIndex": 11, "score": 6, "costs": 0, "simulationMode": [null, null, null, null, null], "rewards": [-1, -4, -1, 7, 5], "path": ["0", "0", "23", "24", "25", "30", "32"], "rt": [877, 101, 322, 927, 140], "actions": ["left", "left", "left", "down", "down"], "actionTimes": [2809, 3418, 4239, 5677, 6327], "queries": {"click": {"state": {"target": [], "time": []}, "edge": {"target": [], "time": []}}, "mouseover": {"state": {"target": [], "time": []}, "edge": {"target": [], "time": []}}, "mouseout": {"state": {"target": ["0"], "time": [1805]}, "edge": {"target": [], "time": []}}}, "displayed_time": "15.93", "trialTime": 17572, "trial_type": "mouselab-mdp", "trial_index": 26, "time_elapsed": 974653, "internal_node_id": "0.0-6.0-1.0-5.0"}}, {"uniqueid": "w31760974:a79516696", "current_trial": 27, "dateTime": 1693565964188, "trialdata": {"revealed_states": [], "clicked_states": [], "num_clicks_accrued": [0, 0, 0, 0, 0, 0, 0, 0, 0, 0, 0, 0, 0], "stateRewards": ["", 2, -1, -1, -9, -81, -30, 55, -6, 78, 25, 62, 2, 4, -1, 9, -85, 1, -19, 1, -60, 12, -34, 1, 4, -1, -13, -24, -16, -83, -8, 16, 43, 9], "withholdReward": false, "trial_id": "mdp_trial_7", "block": "test", "trialIndex": 12, "score": -25, "costs": 0, "simulationMode": [null, null, null, null, null], "rewards": [1, 4, -1, -13, -16], "path": ["0", "0", "23", "24", "25", "26", "28"], "rt": [1213, 15, 792, 402, 476], "actions": ["left", "left", "left", "up", "right"], "actionTimes": [2608, 3127, 4437, 5348, 6322], "queries": {"click": {"state": {"target": [], "time": []}, "edge": {"target": [], "time": []}}, "mouseover": {"state": {"target": [], "time": []}, "edge": {"target": [], "time": []}}, "mouseout": {"state": {"target": ["0"], "time": [1255]}, "edge": {"target": [], "time": []}}}, "displayed_time": "15.40", "trialTime": 18664, "trial_type": "mouselab-mdp", "trial_index": 27, "time_elapsed": 993531, "internal_node_id": "0.0-6.0-1.0-6.0"}}, {"uniqueid": "w31760974:a79516696", "current_trial": 28, "dateTime": 1693565981763, "trialdata": {"revealed_states": [], "clicked_states": [], "num_clicks_accrued": [0, 0, 0, 0, 0, 0, 0, 0, 0, 0, 0, 0, 0], "stateRewards": ["", 1, 2, -3, -6, 50, -7, 7, -7, -80, 21, -1, 2, 2, 4, -1, 33, 84, 1, 14, -53, 81, 6, -2, -2, -3, -9, -87, -38, -59, -5, -74, -3, -71], "withholdReward": false, "trial_id": "mdp_trial_8", "block": "test", "trialIndex": 13, "score": 40, "costs": 0, "simulationMode": [null, null, null, null, null], "rewards": [2, 2, 4, -1, 33], "path": ["0", "0", "12", "13", "14", "15", "16"], "rt": [911, 65, 327, 373, 17], "actions": ["right", "right", "right", "up", "up"], "actionTimes": [2104, 2687, 3532, 4415, 4940], "queries": {"click": {"state": {"target": [], "time": []}, "edge": {"target": [], "time": []}}, "mouseover": {"state": {"target": [], "time": []}, "edge": {"target": [], "time": []}}, "mouseout": {"state": {"target": ["0"], "time": [1015]}, "edge": {"target": [], "time": []}}}, "displayed_time": "15.19", "trialTime": 17297, "trial_type": "mouselab-mdp", "trial_index": 28, "time_elapsed": 1011106, "internal_node_id": "0.0-6.0-1.0-7.0"}}, {"uniqueid": "w31760974:a79516696", "current_trial": 29, "dateTime": 1693566003597, "trialdata": {"revealed_states": [], "clicked_states": [], "num_clicks_accrued": [0, 0, 0, 0, 0, 0, 0, 0, 0, 0, 0, 0, 0], "stateRewards": ["", -1, 1, -5, -6, -78, 47, -13, 12, 48, -88, 20, 2, -3, -2, 13, -20, 37, -57, 14, -38, 30, 31, -2, -2, 8, 2, -23, 78, 28, 12, -74, -88, 8], "withholdReward": false, "trial_id": "mdp_trial_9", "block": "test", "trialIndex": 14, "score": -72, "costs": 0, "simulationMode": [null, null, null, null, null], "rewards": [-2, -2, 8, 12, -88], "path": ["0", "0", "23", "24", "25", "30", "32"], "rt": [1036, 133, 497, 627, 121], "actions": ["left", "left", "left", "down", "down"], "actionTimes": [5523, 6163, 7160, 8307, 8935], "queries": {"click": {"state": {"target": [], "time": []}, "edge": {"target": [], "time": []}}, "mouseover": {"state": {"target": [], "time": []}, "edge": {"target": [], "time": []}}, "mouseout": {"state": {"target": ["0"], "time": [4336]}, "edge": {"target": [], "time": []}}}, "displayed_time": "18.49", "trialTime": 21622, "trial_type": "mouselab-mdp", "trial_index": 29, "time_elapsed": 1032939, "internal_node_id": "0.0-6.0-1.0-8.0"}}, {"uniqueid": "w31760974:a79516696", "current_trial": 30, "dateTime": 1693566022492, "trialdata": {"revealed_states": [], "clicked_states": [], "num_clicks_accrued": [0, 0, 0, 0, 0, 0, 0, 0, 0, 0, 0, 0, 0], "stateRewards": ["", 2, -1, -3, 16, -3, -16, -62, -1, 13, -26, 43, -1, 4, 3, -9, -54, -37, -3, -12, -71, -68, -57, 1, -3, 2, -9, 2, -2, -9, -11, 84, -52, 55], "withholdReward": false, "trial_id": "mdp_trial_10", "block": "test", "trialIndex": 15, "score": -7, "costs": 0, "simulationMode": [null, null, null, null, null], "rewards": [1, -3, 2, -9, 2], "path": ["0", "0", "23", "24", "25", "26", "27"], "rt": [1206, 23, 872, 1156, 100], "actions": ["left", "left", "left", "up", "up"], "actionTimes": [2418, 2948, 4329, 5997, 6608], "queries": {"click": {"state": {"target": [], "time": []}, "edge": {"target": [], "time": []}}, "mouseover": {"state": {"target": [], "time": []}, "edge": {"target": [], "time": []}}, "mouseout": {"state": {"target": ["0"], "time": [1074]}, "edge": {"target": [], "time": []}}}, "displayed_time": "15.21", "trialTime": 18660, "trial_type": "mouselab-mdp", "trial_index": 30, "time_elapsed": 1051834, "internal_node_id": "0.0-6.0-1.0-9.0"}}, {"uniqueid": "w31760974:a79516696", "current_trial": 31, "dateTime": 1693566040120, "trialdata": {"revealed_states": [], "clicked_states": [], "num_clicks_accrued": [0, 0, 0, 0, 0, 0, 0, 0, 0, 0, 0, 0, 0], "stateRewards": ["", -2, 2, 3, -7, -31, -33, 29, -8, -57, 50, -83, -1, -1, 5, 13, -23, -62, 25, 5, -66, -85, 14, 1, -2, -1, 16, 71, 33, -19, -14, 5, -43, 79], "withholdReward": false, "trial_id": "mdp_trial_11", "block": "test", "trialIndex": 16, "score": -7, "costs": 0, "simulationMode": [null, null, null, null, null], "rewards": [-1, -1, 5, 13, -23], "path": ["0", "0", "12", "13", "14", "15", "16"], "rt": [1524, 20, 92, 527, 2], "actions": ["right", "right", "right", "up", "up"], "actionTimes": [3185, 3715, 4318, 5338, 5845], "queries": {"click": {"state": {"target": [], "time": []}, "edge": {"target": [], "time": []}}, "mouseover": {"state": {"target": [], "time": []}, "edge": {"target": [], "time": []}}, "mouseout": {"state": {"target": ["0"], "time": [1475]}, "edge": {"target": [], "time": []}}}, "displayed_time": "15.66", "trialTime": 17392, "trial_type": "mouselab-mdp", "trial_index": 31, "time_elapsed": 1069464, "internal_node_id": "0.0-6.0-1.0-10.0"}}, {"uniqueid": "w31760974:a79516696", "current_trial": 32, "dateTime": 1693566059350, "trialdata": {"revealed_states": [], "clicked_states": [], "num_clicks_accrued": [0, 0, 0, 0, 0, 0, 0, 0, 0, 0, 0, 0, 0], "stateRewards": ["", 1, -1, 8, 4, 76, -33, -17, -3, -1, -54, -74, -2, 2, -5, 13, -51, 63, 83, 1, 84, 29, -36, 2, -1, 7, -12, -10, -44, -43, -14, 8, -69, 19], "withholdReward": false, "trial_id": "mdp_trial_12", "block": "test", "trialIndex": 17, "score": 88, "costs": 0, "simulationMode": [null, null, null, null, null], "rewards": [1, -1, 8, 4, 76], "path": ["0", "0", "1", "2", "3", "4", "5"], "rt": [1503, 130, 39, 1029, 801], "actions": ["up", "up", "up", "right", "up"], "actionTimes": [3827, 4470, 5029, 6551, 7871], "queries": {"click": {"state": {"target": [], "time": []}, "edge": {"target": [], "time": []}}, "mouseover": {"state": {"target": [], "time": []}, "edge": {"target": [], "time": []}}, "mouseout": {"state": {"target": ["0"], "time": [2182]}, "edge": {"target": [], "time": []}}}, "displayed_time": "16.33", "trialTime": 18982, "trial_type": "mouselab-mdp", "trial_index": 32, "time_elapsed": 1088693, "internal_node_id": "0.0-6.0-1.0-11.0"}}, {"uniqueid": "w31760974:a79516696", "current_trial": 33, "dateTime": 1693566078671, "trialdata": {"revealed_states": [], "clicked_states": [], "num_clicks_accrued": [0, 0, 0, 0, 0, 0, 0, 0, 0, 0, 0, 0, 0], "stateRewards": ["", -1, 4, -8, 12, 14, 69, -8, 5, -72, -14, 56, -1, -1, -1, 9, 67, 19, 11, -9, -88, -58, 3, 2, -4, -8, 4, 62, 77, -74, 5, -31, 65, 88], "withholdReward": false, "trial_id": "mdp_trial_13", "block": "test", "trialIndex": 18, "score": 56, "costs": 0, "simulationMode": [null, null, null, null, null], "rewards": [2, -4, -8, 4, 62], "path": ["0", "0", "23", "24", "25", "26", "27"], "rt": [1201, 383, 1902, 37, 437], "actions": ["left", "left", "left", "up", "up"], "actionTimes": [3735, 4619, 7021, 7573, 8523], "queries": {"click": {"state": {"target": [], "time": []}, "edge": {"target": [], "time": []}}, "mouseover": {"state": {"target": [], "time": []}, "edge": {"target": [], "time": []}}, "mouseout": {"state": {"target": ["0"], "time": [1599]}, "edge": {"target": [], "time": []}}}, "displayed_time": "16.54", "trialTime": 19085, "trial_type": "mouselab-mdp", "trial_index": 33, "time_elapsed": 1108014, "internal_node_id": "0.0-6.0-1.0-12.0"}}, {"uniqueid": "w31760974:a79516696", "current_trial": 34, "dateTime": 1693566096256, "trialdata": {"revealed_states": [], "clicked_states": [], "num_clicks_accrued": [0, 0, 0, 0, 0, 0, 0, 0, 0, 0, 0, 0, 0], "stateRewards": ["", 1, 3, 1, -13, 52, -28, 67, -14, 3, 63, -70, -1, -4, 7, -11, -10, 47, -18, 6, 69, -9, -61, 2, 3, -6, 10, 63, -34, 40, -6, -79, -35, -32], "withholdReward": false, "trial_id": "mdp_trial_14", "block": "test", "trialIndex": 19, "score": 44, "costs": 0, "simulationMode": [null, null, null, null, null], "rewards": [1, 3, 1, -13, 52], "path": ["0", "0", "1", "2", "3", "4", "5"], "rt": [1760, 21, 497, 339, 261], "actions": ["up", "up", "up", "right", "up"], "actionTimes": [3317, 3843, 4869, 5728, 6501], "queries": {"click": {"state": {"target": [], "time": []}, "edge": {"target": [], "time": []}}, "mouseover": {"state": {"target": [], "time": []}, "edge": {"target": [], "time": []}}, "mouseout": {"state": {"target": [], "time": []}, "edge": {"target": [], "time": []}}}, "displayed_time": "15.56", "trialTime": 17339, "trial_type": "mouselab-mdp", "trial_index": 34, "time_elapsed": 1125599, "internal_node_id": "0.0-6.0-1.0-13.0"}}, {"uniqueid": "w31760974:a79516696", "current_trial": 35, "dateTime": 1693566113211, "trialdata": {"revealed_states": [], "clicked_states": [], "num_clicks_accrued": [0, 0, 0, 0, 0, 0, 0, 0, 0, 0, 0, 0, 0], "stateRewards": ["", 1, 1, -7, -9, -44, 24, -83, -15, 44, -24, 72, -2, -3, 4, -5, 57, 55, 29, -11, 22, 12, -25, -1, 2, 7, 12, 33, -8, 47, -4, 8, 50, -4], "withholdReward": false, "trial_id": "mdp_trial_15", "block": "test", "trialIndex": 20, "score": 53, "costs": 0, "simulationMode": [null, null, null, null, null], "rewards": [-1, 2, 7, 12, 33], "path": ["0", "0", "23", "24", "25", "26", "27"], "rt": [1096, 169, 313, 616, 54], "actions": ["left", "left", "left", "up", "up"], "actionTimes": [2507, 3173, 4000, 5139, 5708], "queries": {"click": {"state": {"target": [], "time": []}, "edge": {"target": [], "time": []}}, "mouseover": {"state": {"target": [], "time": []}, "edge": {"target": [], "time": []}}, "mouseout": {"state": {"target": [], "time": []}, "edge": {"target": [], "time": []}}}, "displayed_time": "15.41", "trialTime": 16712, "trial_type": "mouselab-mdp", "trial_index": 35, "time_elapsed": 1142554, "internal_node_id": "0.0-6.0-1.0-14.0"}}, {"uniqueid": "w31760974:a79516696", "current_trial": 36, "dateTime": 1693566130037, "trialdata": {"revealed_states": [], "clicked_states": [], "num_clicks_accrued": [0, 0, 0, 0, 0, 0, 0, 0, 0, 0, 0, 0, 0], "stateRewards": ["", -2, -3, 4, 1, 33, -53, 15, 9, -12, 61, -6, -2, 4, 6, -11, 47, -43, -7, -11, 46, 23, -28, -1, -1, 3, -10, 11, 76, -76, 10, 18, -38, 87], "withholdReward": false, "trial_id": "mdp_trial_16", "block": "test", "trialIndex": 21, "score": 44, "costs": 0, "simulationMode": [null, null, null, null, null], "rewards": [-2, 4, 6, -11, 47], "path": ["0", "0", "12", "13", "14", "15", "16"], "rt": [1309, 30, 5, 686, 84], "actions": ["right", "right", "right", "up", "up"], "actionTimes": [2592, 3130, 3638, 4853, 5451], "queries": {"click": {"state": {"target": [], "time": []}, "edge": {"target": [], "time": []}}, "mouseover": {"state": {"target": [], "time": []}, "edge": {"target": [], "time": []}}, "mouseout": {"state": {"target": [], "time": []}, "edge": {"target": [], "time": []}}}, "displayed_time": "15.29", "trialTime": 16581, "trial_type": "mouselab-mdp", "trial_index": 36, "time_elapsed": 1159380, "internal_node_id": "0.0-6.0-1.0-15.0"}}, {"uniqueid": "w31760974:a79516696", "current_trial": 37, "dateTime": 1693566147798, "trialdata": {"revealed_states": [], "clicked_states": [], "num_clicks_accrued": [0, 0, 0, 0, 0, 0, 0, 0, 0, 0, 0, 0, 0], "stateRewards": ["", 2, -1, 5, 8, 75, -35, -77, 1, -9, -81, -58, 1, 2, -7, 5, 77, -16, 19, 16, -10, -18, 40, -2, 3, 7, -5, 64, 1, -62, 10, 27, 10, 65], "withholdReward": false, "trial_id": "mdp_trial_17", "block": "test", "trialIndex": 22, "score": -2, "costs": 0, "simulationMode": [null, null, null, null, null], "rewards": [2, -1, 5, 1, -9], "path": ["0", "0", "1", "2", "3", "8", "9"], "rt": [959, 85, 441, 318, 849], "actions": ["up", "up", "up", "left", "up"], "actionTimes": [2259, 2853, 3793, 4621, 5967], "queries": {"click": {"state": {"target": [], "time": []}, "edge": {"target": [], "time": []}}, "mouseover": {"state": {"target": [], "time": []}, "edge": {"target": [], "time": []}}, "mouseout": {"state": {"target": [], "time": []}, "edge": {"target": [], "time": []}}}, "displayed_time": "15.30", "trialTime": 17510, "trial_type": "mouselab-mdp", "trial_index": 37, "time_elapsed": 1177141, "internal_node_id": "0.0-6.0-1.0-16.0"}}, {"uniqueid": "w31760974:a79516696", "current_trial": 38, "dateTime": 1693566166409, "trialdata": {"revealed_states": [], "clicked_states": [], "num_clicks_accrued": [0, 0, 0, 0, 0, 0, 0, 0, 0, 0, 0, 0, 0], "stateRewards": ["", -2, 3, 8, -9, 59, 41, -50, -1, 82, 66, 33, 2, -2, 7, 8, 1, -38, 12, -16, 24, -37, 67, 1, 4, -2, 5, 35, -83, 28, 8, -27, 69, -64], "withholdReward": false, "trial_id": "mdp_trial_18", "block": "test", "trialIndex": 23, "score": -46, "costs": 0, "simulationMode": [null, null, null, null, null], "rewards": [2, -2, 7, -16, -37], "path": ["0", "0", "12", "13", "14", "19", "21"], "rt": [1499, 220, 344, 818, 146], "actions": ["right", "right", "right", "down", "down"], "actionTimes": [2623, 3333, 4190, 5518, 6176], "queries": {"click": {"state": {"target": [], "time": []}, "edge": {"target": [], "time": []}}, "mouseover": {"state": {"target": [], "time": []}, "edge": {"target": [], "time": []}}, "mouseout": {"state": {"target": [], "time": []}, "edge": {"target": [], "time": []}}}, "displayed_time": "15.13", "trialTime": 18299, "trial_type": "mouselab-mdp", "trial_index": 38, "time_elapsed": 1195752, "internal_node_id": "0.0-6.0-1.0-17.0"}}, {"uniqueid": "w31760974:a79516696", "current_trial": 39, "dateTime": 1693566184898, "trialdata": {"revealed_states": [], "clicked_states": [], "num_clicks_accrued": [0, 0, 0, 0, 0, 0, 0, 0, 0, 0, 0, 0, 0], "stateRewards": ["", 2, -1, 5, 6, 10, 86, 55, 10, -45, 63, -71, 1, -2, 5, -8, -50, -72, 36, 15, 61, 12, 33, -1, -4, 6, 5, 79, -56, -21, -16, -87, 60, -81], "withholdReward": false, "trial_id": "mdp_trial_19", "block": "test", "trialIndex": 24, "score": -54, "costs": 0, "simulationMode": [null, null, null, null, null], "rewards": [1, -2, 5, -8, -50], "path": ["0", "0", "12", "13", "14", "15", "16"], "rt": [1339, 3785, 65, 801, 2], "actions": ["right", "right", "right", "up", "up"], "actionTimes": [3001, 7293, 7875, 9176, 9694], "queries": {"click": {"state": {"target": [], "time": []}, "edge": {"target": [], "time": []}}, "mouseover": {"state": {"target": [], "time": []}, "edge": {"target": [], "time": []}}, "mouseout": {"state": {"target": [], "time": []}, "edge": {"target": [], "time": []}}}, "displayed_time": "15.66", "trialTime": 18234, "trial_type": "mouselab-mdp", "trial_index": 39, "time_elapsed": 1214241, "internal_node_id": "0.0-6.0-1.0-18.0"}}, {"uniqueid": "w31760974:a79516696", "current_trial": 40, "dateTime": 1693566203613, "trialdata": {"revealed_states": [], "clicked_states": [], "num_clicks_accrued": [0, 0, 0, 0, 0, 0, 0, 0, 0, 0, 0, 0, 0], "stateRewards": ["", 1, -4, -4, 8, 1, -79, 68, -10, -79, 8, -74, -1, -3, -6, 14, 43, 23, 9, 5, -51, 63, 61, -2, 4, 6, -10, 69, -32, 57, 15, -80, -80, -77], "withholdReward": false, "trial_id": "mdp_trial_20", "block": "test", "trialIndex": 25, "score": 67, "costs": 0, "simulationMode": [null, null, null, null, null], "rewards": [-2, 4, 6, -10, 69], "path": ["0", "0", "23", "24", "25", "26", "27"], "rt": [1289, 155, 393, 488, 132], "actions": ["left", "left", "left", "up", "up"], "actionTimes": [2639, 3308, 4213, 5208, 5853], "queries": {"click": {"state": {"target": [], "time": []}, "edge": {"target": [], "time": []}}, "mouseover": {"state": {"target": [], "time": []}, "edge": {"target": [], "time": []}}, "mouseout": {"state": {"target": [], "time": []}, "edge": {"target": [], "time": []}}}, "displayed_time": "15.35", "trialTime": 18464, "trial_type": "mouselab-mdp", "trial_index": 40, "time_elapsed": 1232957, "internal_node_id": "0.0-6.0-1.0-19.0"}}, {"uniqueid": "w31760974:a79516696", "current_trial": 41, "dateTime": 1693566220487, "trialdata": {"revealed_states": [], "clicked_states": [], "num_clicks_accrued": [0, 0, 0, 0, 0, 0, 0, 0, 0, 0, 0, 0, 0], "stateRewards": ["", 1, 3, -2, 15, 51, 15, -19, 11, 67, -45, -73, 2, 4, -2, -13, 36, 9, -28, 10, -30, 31, 16, 1, 2, -1, -16, 14, -22, 36, -1, 88, -5, 45], "withholdReward": false, "trial_id": "mdp_trial_21", "block": "test", "trialIndex": 26, "score": 68, "costs": 0, "simulationMode": [null, null, null, null, null], "rewards": [1, 3, -2, 15, 51], "path": ["0", "0", "1", "2", "3", "4", "5"], "rt": [1543, 25, 28, 773, 678], "actions": ["up", "up", "up", "right", "up"], "actionTimes": [2875, 3399, 3935, 5229, 6419], "queries": {"click": {"state": {"target": [], "time": []}, "edge": {"target": [], "time": []}}, "mouseover": {"state": {"target": [], "time": []}, "edge": {"target": [], "time": []}}, "mouseout": {"state": {"target": [], "time": []}, "edge": {"target": [], "time": []}}}, "displayed_time": "15.33", "trialTime": 16555, "trial_type": "mouselab-mdp", "trial_index": 41, "time_elapsed": 1249830, "internal_node_id": "0.0-6.0-1.0-20.0"}}, {"uniqueid": "w31760974:a79516696", "current_trial": 42, "dateTime": 1693566238058, "trialdata": {"revealed_states": [], "clicked_states": [], "num_clicks_accrued": [0, 0, 0, 0, 0, 0, 0, 0, 0, 0, 0, 0, 0], "stateRewards": ["", -2, 3, 3, -14, 62, 36, 49, 16, 11, 17, -84, 2, -1, 6, 2, -82, -73, 49, -6, -87, 48, 50, -1, -2, -1, -16, -11, 37, -44, 4, 55, 73, -10], "withholdReward": false, "trial_id": "mdp_trial_22", "block": "test", "trialIndex": 27, "score": 49, "costs": 0, "simulationMode": [null, null, null, null, null], "rewards": [2, -1, 6, -6, 48], "path": ["0", "0", "12", "13", "14", "19", "21"], "rt": [1542, 2, 369, 276, 94], "actions": ["right", "right", "right", "down", "down"], "actionTimes": [2808, 3317, 4216, 5007, 5608], "queries": {"click": {"state": {"target": [], "time": []}, "edge": {"target": [], "time": []}}, "mouseover": {"state": {"target": [], "time": []}, "edge": {"target": [], "time": []}}, "mouseout": {"state": {"target": [], "time": []}, "edge": {"target": [], "time": []}}}, "displayed_time": "15.27", "trialTime": 17299, "trial_type": "mouselab-mdp", "trial_index": 42, "time_elapsed": 1267400, "internal_node_id": "0.0-6.0-1.0-21.0"}}, {"uniqueid": "w31760974:a79516696", "current_trial": 43, "dateTime": 1693566259001, "trialdata": {"revealed_states": [], "clicked_states": [], "num_clicks_accrued": [0, 0, 0, 0, 0, 0, 0, 0, 0, 0, 0, 0, 0], "stateRewards": ["", -1, -2, 4, 9, 10, -75, 39, 16, -43, 88, -19, -1, 1, 2, 4, -31, 10, 73, 12, 41, -64, -81, -2, 2, -6, 1, -81, -1, -26, 3, -59, -3, -20], "withholdReward": false, "trial_id": "mdp_trial_23", "block": "test", "trialIndex": 28, "score": -86, "costs": 0, "simulationMode": [null, null, null, null, null], "rewards": [-2, 2, -6, 1, -81], "path": ["0", "0", "23", "24", "25", "26", "27"], "rt": [1817, 118, 296, 340, 14], "actions": ["left", "left", "left", "up", "up"], "actionTimes": [3149, 3783, 4595, 5455, 5979], "queries": {"click": {"state": {"target": [], "time": []}, "edge": {"target": [], "time": []}}, "mouseover": {"state": {"target": [], "time": []}, "edge": {"target": [], "time": []}}, "mouseout": {"state": {"target": ["0"], "time": [19881]}, "edge": {"target": [], "time": []}}}, "displayed_time": "15.33", "trialTime": 20660, "trial_type": "mouselab-mdp", "trial_index": 43, "time_elapsed": 1288344, "internal_node_id": "0.0-6.0-1.0-22.0"}}, {"uniqueid": "w31760974:a79516696", "current_trial": 44, "dateTime": 1693566276578, "trialdata": {"revealed_states": [], "clicked_states": [], "num_clicks_accrued": [0, 0, 0, 0, 0, 0, 0, 0, 0, 0, 0, 0, 0], "stateRewards": ["", 2, -1, 1, 10, -52, 86, -22, -2, -14, -63, 38, 1, 3, 7, -8, 11, -32, -27, 9, -71, 40, -87, -2, -1, 5, -7, 12, 31, -57, 13, 86, -58, 29], "withholdReward": false, "trial_id": "mdp_trial_24", "block": "test", "trialIndex": 29, "score": 60, "costs": 0, "simulationMode": [null, null, null, null, null], "rewards": [1, 3, 7, 9, 40], "path": ["0", "0", "12", "13", "14", "19", "21"], "rt": [424, 4, 783, 115, 18], "actions": ["right", "right", "right", "down", "down"], "actionTimes": [2269, 2783, 4079, 4711, 5230], "queries": {"click": {"state": {"target": [], "time": []}, "edge": {"target": [], "time": []}}, "mouseover": {"state": {"target": [], "time": []}, "edge": {"target": [], "time": []}}, "mouseout": {"state": {"target": [], "time": []}, "edge": {"target": [], "time": []}}}, "displayed_time": "15.86", "trialTime": 17301, "trial_type": "mouselab-mdp", "trial_index": 44, "time_elapsed": 1305921, "internal_node_id": "0.0-6.0-1.0-23.0"}}, {"uniqueid": "w31760974:a79516696", "current_trial": 45, "dateTime": 1693566299849, "trialdata": {"revealed_states": [], "clicked_states": [], "num_clicks_accrued": [0, 0, 0, 0, 0, 0, 0, 0, 0, 0, 0, 0, 0], "stateRewards": ["", 1, -3, -4, -11, -56, 61, -47, -16, -28, -9, 69, -2, -3, -4, -8, 40, -86, 59, -4, 80, 27, 54, -1, 3, -1, 8, 67, 23, 50, 6, 83, -43, -29], "withholdReward": false, "trial_id": "mdp_trial_25", "block": "test", "trialIndex": 30, "score": -73, "costs": 0, "simulationMode": [null, null, null, null, null], "rewards": [1, -3, -4, -11, -56], "path": ["0", "0", "1", "2", "3", "4", "5"], "rt": [1420, 62, 508, 738, 614], "actions": ["up", "up", "up", "right", "up"], "actionTimes": [7201, 7776, 8773, 10004, 11129], "queries": {"click": {"state": {"target": [], "time": []}, "edge": {"target": [], "time": []}}, "mouseover": {"state": {"target": [], "time": []}, "edge": {"target": [], "time": []}}, "mouseout": {"state": {"target": [], "time": []}, "edge": {"target": [], "time": []}}}, "displayed_time": "19.78", "trialTime": 22974, "trial_type": "mouselab-mdp", "trial_index": 45, "time_elapsed": 1329192, "internal_node_id": "0.0-6.0-1.0-24.0"}}, {"uniqueid": "w31760974:a79516696", "current_trial": 46, "dateTime": 1693566316828, "trialdata": {"revealed_states": [], "clicked_states": [], "num_clicks_accrued": [0, 0, 0, 0, 0, 0, 0, 0, 0, 0, 0, 0, 0], "stateRewards": ["", 1, 2, -3, -5, 66, -50, -47, -5, 1, 28, -27, 1, 1, -1, -6, 37, -25, 56, 1, -82, -66, -40, -1, -4, -7, 15, -61, -23, 26, 10, 14, -56, 29], "withholdReward": false, "trial_id": "mdp_trial_26", "block": "test", "trialIndex": 31, "score": -58, "costs": 0, "simulationMode": [null, null, null, null, null], "rewards": [-1, -4, -7, 15, -61], "path": ["0", "0", "23", "24", "25", "26", "27"], "rt": [1290, 2, 285, 382, 69], "actions": ["left", "left", "left", "up", "up"], "actionTimes": [2652, 3175, 3992, 4889, 5475], "queries": {"click": {"state": {"target": [], "time": []}, "edge": {"target": [], "time": []}}, "mouseover": {"state": {"target": [], "time": []}, "edge": {"target": [], "time": []}}, "mouseout": {"state": {"target": [], "time": []}, "edge": {"target": [], "time": []}}}, "displayed_time": "15.36", "trialTime": 16695, "trial_type": "mouselab-mdp", "trial_index": 46, "time_elapsed": 1346171, "internal_node_id": "0.0-6.0-1.0-25.0"}}, {"uniqueid": "w31760974:a79516696", "current_trial": 47, "dateTime": 1693566336417, "trialdata": {"revealed_states": [], "clicked_states": ["16"], "num_clicks_accrued": [0, 0, 0, 0, 0, 0, 0, 0, 0, 0, 0, 0, 0], "stateRewards": ["", 1, -2, -8, -3, 31, -84, -55, -14, 15, -58, 17, -2, -3, 7, 7, -12, 48, 67, 4, -44, -68, 46, 2, 3, -5, -7, 76, 27, 5, 11, 57, 52, 59], "withholdReward": false, "trial_id": "mdp_trial_27", "block": "test", "trialIndex": 32, "score": -64.15, "costs": -2.15, "simulationMode": [null, null, null, null, null, null], "rewards": [-2, -3, 7, 4, -68], "path": ["0", "0", "12", "13", "14", "19", "21"], "rt": [4216, 981, 19, 332, 386, 28], "actions": ["left", "right", "right", "right", "down", "down"], "actionTimes": [5033, 6016, 6548, 7395, 8300, 8824], "queries": {"click": {"state": {"target": ["16"], "time": [3109]}, "edge": {"target": [], "time": []}}, "mouseover": {"state": {"target": ["14", "15", "16"], "time": [2079, 2478, 2728]}, "edge": {"target": [], "time": []}}, "mouseout": {"state": {"target": ["0", "14", "15", "16"], "time": [1745, 2416, 2664, 16365]}, "edge": {"target": [], "time": []}}}, "displayed_time": "14.82", "trialTime": 19307, "trial_type": "mouselab-mdp", "trial_index": 47, "time_elapsed": 1365760, "internal_node_id": "0.0-6.0-1.0-26.0"}}, {"uniqueid": "w31760974:a79516696", "current_trial": 48, "dateTime": 1693566357641, "trialdata": {"revealed_states": [], "clicked_states": ["27"], "num_clicks_accrued": [0, 0, 0, 0, 0, 0, 0, 0, 0, 0, 0, 0, 0], "stateRewards": ["", -1, -1, 7, -15, -43, -21, -84, -9, -45, -66, 2, 1, -2, 2, 8, -27, 44, -52, -5, -84, 11, 53, 1, 4, -4, 16, 83, -82, -15, -16, 68, -43, 81], "withholdReward": false, "trial_id": "mdp_trial_28", "block": "test", "trialIndex": 33, "score": 97.85, "costs": -2.15, "simulationMode": [null, null, null, null, null, null], "rewards": [1, 4, -4, 16, 83], "path": ["0", "0", "23", "24", "25", "26", "27"], "rt": [3151, 2951, 113, 254, 534, 137], "actions": ["right", "left", "left", "left", "up", "up"], "actionTimes": [4858, 7811, 8433, 9191, 10221, 10857], "queries": {"click": {"state": {"target": ["27"], "time": [3088]}, "edge": {"target": [], "time": []}}, "mouseover": {"state": {"target": ["1", "2", "3", "8", "27"], "time": [2087, 2125, 2218, 2437, 2751]}, "edge": {"target": [], "time": []}}, "mouseout": {"state": {"target": ["27", "1", "12", "0", "1", "2", "3", "8", "27", "1", "13", "14", "20", "20", "15", "4", "4", "5", "4"], "time": [771, 851, 1101, 2073, 2120, 2168, 2285, 2471, 4037, 16952, 17002, 17019, 17035, 17457, 18004, 18153, 18921, 20308, 20335]}, "edge": {"target": [], "time": []}}}, "displayed_time": "15.71", "trialTime": 20937, "trial_type": "mouselab-mdp", "trial_index": 48, "time_elapsed": 1386984, "internal_node_id": "0.0-6.0-1.0-27.0"}}, {"uniqueid": "w31760974:a79516696", "current_trial": 49, "dateTime": 1693566375562, "trialdata": {"revealed_states": [], "clicked_states": ["5"], "num_clicks_accrued": [0, 0, 0, 0, 0, 0, 0, 0, 0, 0, 0, 0, 0], "stateRewards": ["", -2, -3, -6, -7, 9, 16, 65, 5, -41, 20, -25, -1, -4, 1, -11, -49, -4, 71, 1, 39, -62, 52, -2, -3, 7, -9, -28, -70, 84, 8, 24, -58, 82], "withholdReward": false, "trial_id": "mdp_trial_29", "block": "test", "trialIndex": 34, "score": -11.149999999999999, "costs": -2.15, "simulationMode": [null, null, null, null, null], "rewards": [-2, -3, -6, -7, 9], "path": ["0", "0", "1", "2", "3", "4", "5"], "rt": [5571, 130, 393, 446, 1241], "actions": ["up", "up", "up", "right", "up"], "actionTimes": [7761, 8405, 9301, 10255, 11999], "queries": {"click": {"state": {"target": ["5"], "time": [4156]}, "edge": {"target": [], "time": []}}, "mouseover": {"state": {"target": ["1", "2", "4", "5", "4"], "time": [3122, 3279, 3656, 3740, 5130]}, "edge": {"target": [], "time": []}}, "mouseout": {"state": {"target": ["0", "1", "2", "4", "5", "5", "4"], "time": [1726, 3156, 3494, 3690, 4368, 5113, 5140]}, "edge": {"target": [], "time": []}}}, "displayed_time": "16.19", "trialTime": 17646, "trial_type": "mouselab-mdp", "trial_index": 49, "time_elapsed": 1404905, "internal_node_id": "0.0-6.0-1.0-28.0"}}, {"uniqueid": "w31760974:a79516696", "current_trial": 50, "dateTime": 1693566393925, "trialdata": {"revealed_states": [], "clicked_states": [], "num_clicks_accrued": [0, 0, 0, 0, 0, 0, 0, 0, 0, 0, 0, 0, 0], "stateRewards": ["", -1, -2, -8, 8, -27, -82, 19, -14, -62, 4, 1, -2, 2, 6, 10, 73, -51, -2, 2, 73, -48, 54, -1, 2, -4, 11, -25, 47, 86, 15, 33, 43, -42], "withholdReward": false, "trial_id": "mdp_trial_30", "block": "test", "trialIndex": 35, "score": 55, "costs": 0, "simulationMode": [null, null, null, null, null], "rewards": [-1, 2, -4, 15, 43], "path": ["0", "0", "23", "24", "25", "30", "32"], "rt": [5636, 94, 279, 316, 4], "actions": ["left", "left", "left", "down", "down"], "actionTimes": [7328, 7930, 8699, 9521, 10040], "queries": {"click": {"state": {"target": [], "time": []}, "edge": {"target": [], "time": []}}, "mouseover": {"state": {"target": ["0"], "time": [3039]}, "edge": {"target": [], "time": []}}, "mouseout": {"state": {"target": [], "time": []}, "edge": {"target": [], "time": []}}}, "displayed_time": "15.69", "trialTime": 18087, "trial_type": "mouselab-mdp", "trial_index": 50, "time_elapsed": 1423268, "internal_node_id": "0.0-6.0-1.0-29.0"}}, {"uniqueid": "w31760974:a79516696", "current_trial": 51, "dateTime": 1693566413210, "trialdata": {"revealed_states": [], "clicked_states": ["21"], "num_clicks_accrued": [0, 0, 0, 0, 0, 0, 0, 0, 0, 0, 0, 0, 0], "stateRewards": ["", 1, 4, -4, 14, 35, 51, 19, -13, 54, 78, -74, -2, -1, -3, 13, -11, -42, -73, -15, -24, -3, -69, 2, -1, 5, 16, -27, 73, 58, 9, -60, 5, -60], "withholdReward": false, "trial_id": "mdp_trial_31", "block": "test", "trialIndex": 36, "score": -6.15, "costs": -2.15, "simulationMode": [null, null, null, null, null, null], "rewards": [-2, -1, -3, 13, -11], "path": ["0", "0", "12", "13", "14", "15", "16"], "rt": [3553, 1162, 159, 19, 462, 208], "actions": ["right", "right", "right", "right", "up", "up"], "actionTimes": [4998, 6163, 6821, 7347, 8341, 9072], "queries": {"click": {"state": {"target": ["21"], "time": [3210]}, "edge": {"target": [], "time": []}}, "mouseover": {"state": {"target": ["0", "12", "19", "21"], "time": [1780, 1810, 2212, 2726]}, "edge": {"target": [], "time": []}}, "mouseout": {"state": {"target": ["0", "12", "13", "0", "12", "19", "21", "7"], "time": [347, 396, 597, 1793, 1844, 2699, 16647, 17245]}, "edge": {"target": [], "time": []}}}, "displayed_time": "15.45", "trialTime": 18981, "trial_type": "mouselab-mdp", "trial_index": 51, "time_elapsed": 1442553, "internal_node_id": "0.0-6.0-1.0-30.0"}}, {"uniqueid": "w31760974:a79516696", "current_trial": 52, "dateTime": 1693566430508, "trialdata": {"revealed_states": [], "clicked_states": ["5"], "num_clicks_accrued": [0, 0, 0, 0, 0, 0, 0, 0, 0, 0, 0, 0, 0], "stateRewards": ["", -1, -2, -1, -10, -57, 73, -72, -16, 75, -14, -46, -2, -3, -7, -1, -61, -60, 76, -4, 50, 4, 14, 2, 2, -7, 12, -65, -32, 15, -8, -76, -25, -61], "withholdReward": false, "trial_id": "mdp_trial_32", "block": "test", "trialIndex": 37, "score": 52.85, "costs": -2.15, "simulationMode": [null, null, null, null, null], "rewards": [-1, -2, -1, -16, 75], "path": ["0", "0", "1", "2", "3", "8", "9"], "rt": [4234, 216, 321, 169, 382], "actions": ["up", "up", "up", "left", "up"], "actionTimes": [5726, 6445, 7283, 7969, 8844], "queries": {"click": {"state": {"target": ["5"], "time": [2448]}, "edge": {"target": [], "time": []}}, "mouseover": {"state": {"target": ["1", "4", "5"], "time": [1782, 1877, 2026]}, "edge": {"target": [], "time": []}}, "mouseout": {"state": {"target": ["5", "1", "1", "4"], "time": [746, 860, 1795, 2011]}, "edge": {"target": [], "time": []}}}, "displayed_time": "15.49", "trialTime": 17012, "trial_type": "mouselab-mdp", "trial_index": 52, "time_elapsed": 1459851, "internal_node_id": "0.0-6.0-1.0-31.0"}}, {"uniqueid": "w31760974:a79516696", "current_trial": 53, "dateTime": 1693566449656, "trialdata": {"revealed_states": [], "clicked_states": ["21"], "num_clicks_accrued": [0, 0, 0, 0, 0, 0, 0, 0, 0, 0, 0, 0, 0], "stateRewards": ["", -2, 2, -5, -6, 10, -66, -58, -10, -11, -63, -70, -1, -4, -5, 7, 66, -64, -43, -3, 45, -37, 4, -2, -2, -6, -4, -30, 33, 43, 15, -32, -65, -59], "withholdReward": false, "trial_id": "mdp_trial_33", "block": "test", "trialIndex": 38, "score": -46.15, "costs": -2.15, "simulationMode": [null, null, null, null, null], "rewards": [-2, -2, -6, -4, -30], "path": ["0", "0", "23", "24", "25", "26", "27"], "rt": [5808, 117, 347, 554, 67], "actions": ["left", "left", "left", "up", "up"], "actionTimes": [8263, 8888, 9734, 10790, 11370], "queries": {"click": {"state": {"target": ["21"], "time": [4206]}, "edge": {"target": [], "time": []}}, "mouseover": {"state": {"target": ["22", "19", "21"], "time": [3352, 3423, 3601]}, "edge": {"target": [], "time": []}}, "mouseout": {"state": {"target": ["5", "2", "1", "0", "0", "22", "19", "21"], "time": [972, 1034, 1084, 1184, 3268, 3368, 3502, 17950]}, "edge": {"target": [], "time": []}}}, "displayed_time": "16.46", "trialTime": 18868, "trial_type": "mouselab-mdp", "trial_index": 53, "time_elapsed": 1478999, "internal_node_id": "0.0-6.0-1.0-32.0"}}, {"uniqueid": "w31760974:a79516696", "current_trial": 54, "dateTime": 1693566469151, "trialdata": {"revealed_states": [], "clicked_states": ["9"], "num_clicks_accrued": [0, 0, 0, 0, 0, 0, 0, 0, 0, 0, 0, 0, 0], "stateRewards": ["", 2, -1, 4, -9, -43, 7, 54, -13, 38, -40, -83, -1, 2, -8, -10, 34, -33, 11, -14, -79, 65, 26, 1, 2, 4, 10, 21, 1, 86, 4, -53, 28, -29], "withholdReward": false, "trial_id": "mdp_trial_34", "block": "test", "trialIndex": 39, "score": 27.85, "costs": -2.15, "simulationMode": [null, null, null, null, null], "rewards": [2, -1, 4, -13, 38], "path": ["0", "0", "1", "2", "3", "8", "9"], "rt": [4389, 13, 306, 381, 522], "actions": ["up", "up", "up", "left", "up"], "actionTimes": [6404, 6914, 7734, 8610, 9634], "queries": {"click": {"state": {"target": ["9"], "time": [3018]}, "edge": {"target": [], "time": []}}, "mouseover": {"state": {"target": ["10", "8", "9"], "time": [2396, 2427, 2515]}, "edge": {"target": [], "time": []}}, "mouseout": {"state": {"target": ["0", "1", "1", "10", "8"], "time": [1047, 1076, 1393, 2412, 2445]}, "edge": {"target": [], "time": []}}}, "displayed_time": "16.02", "trialTime": 19206, "trial_type": "mouselab-mdp", "trial_index": 54, "time_elapsed": 1498494, "internal_node_id": "0.0-6.0-1.0-33.0"}}, {"uniqueid": "w31760974:a79516696", "current_trial": 55, "dateTime": 1693566486861, "trialdata": {"revealed_states": [], "clicked_states": [], "num_clicks_accrued": [0, 0, 0, 0, 0, 0, 0, 0, 0, 0, 0, 0, 0], "stateRewards": ["", -1, 2, -2, 5, 80, -61, -27, 12, 44, -26, -75, -2, -4, 1, -16, 42, -49, -50, 4, -44, 2, 80, -2, -2, 5, -2, 59, 10, 24, 7, -48, -86, -44], "withholdReward": false, "trial_id": "mdp_trial_35", "block": "test", "trialIndex": 40, "score": 1, "costs": 0, "simulationMode": [null, null, null, null, null], "rewards": [-2, -4, 1, 4, 2], "path": ["0", "0", "12", "13", "14", "19", "21"], "rt": [6241, 163, 32, 715, 4], "actions": ["right", "right", "right", "down", "down"], "actionTimes": [8038, 8700, 9235, 10468, 10974], "queries": {"click": {"state": {"target": [], "time": []}, "edge": {"target": [], "time": []}}, "mouseover": {"state": {"target": ["12", "13", "14", "15", "16"], "time": [3718, 3984, 4152, 4668, 4934]}, "edge": {"target": [], "time": []}}, "mouseout": {"state": {"target": ["9", "8", "1", "0", "12", "13", "14", "15", "16"], "time": [855, 884, 971, 3670, 3803, 4085, 4639, 4789, 16967]}, "edge": {"target": [], "time": []}}}, "displayed_time": "15.80", "trialTime": 17407, "trial_type": "mouselab-mdp", "trial_index": 55, "time_elapsed": 1516204, "internal_node_id": "0.0-6.0-1.0-34.0"}}, {"uniqueid": "w31760974:a79516696", "current_trial": 56, "dateTime": 1693566505602, "trialdata": {"revealed_states": [], "clicked_states": ["32"], "num_clicks_accrued": [0, 0, 0, 0, 0, 0, 0, 0, 0, 0, 0, 0, 0], "stateRewards": ["", 2, -4, 7, 3, 23, -42, 4, 7, -81, -33, 7, -2, -4, 5, -1, 50, -57, -14, -13, -14, 44, 55, -2, -2, 5, -2, 33, 1, 57, -13, -7, 58, 87], "withholdReward": false, "trial_id": "mdp_trial_36", "block": "test", "trialIndex": 41, "score": 43.85, "costs": -2.15, "simulationMode": [null, null, null, null, null], "rewards": [-2, -2, 5, -13, 58], "path": ["0", "0", "23", "24", "25", "30", "32"], "rt": [4533, 15, 290, 657, 31], "actions": ["left", "left", "left", "down", "down"], "actionTimes": [6716, 7248, 8068, 9219, 9759], "queries": {"click": {"state": {"target": ["32"], "time": [3336]}, "edge": {"target": [], "time": []}}, "mouseover": {"state": {"target": ["23", "31", "30", "32", "32"], "time": [2615, 2677, 2726, 2798, 2980]}, "edge": {"target": [], "time": []}}, "mouseout": {"state": {"target": ["7", "3", "9", "10", "1", "23", "31", "30", "32"], "time": [962, 1009, 1059, 1230, 1276, 2643, 2693, 2743, 2830]}, "edge": {"target": [], "time": []}}}, "displayed_time": "16.18", "trialTime": 18443, "trial_type": "mouselab-mdp", "trial_index": 56, "time_elapsed": 1534946, "internal_node_id": "0.0-6.0-1.0-35.0"}}, {"uniqueid": "w31760974:a79516696", "current_trial": 57, "dateTime": 1693566524271, "trialdata": {"revealed_states": [], "clicked_states": ["15"], "num_clicks_accrued": [0, 0, 0, 0, 0, 0, 0, 0, 0, 0, 0, 0, 0], "stateRewards": ["", -1, 4, 3, 12, -27, 34, -33, 3, -63, 1, 6, 2, 2, -6, -11, -77, -85, 68, -6, 51, 81, -60, -2, -2, 1, 15, 20, 15, 68, -10, -14, 6, -4], "withholdReward": false, "trial_id": "mdp_trial_37", "block": "test", "trialIndex": 42, "score": 30.45, "costs": -1.55, "simulationMode": [null, null, null, null, null], "rewards": [-2, -2, 1, 15, 20], "path": ["0", "0", "23", "24", "25", "26", "27"], "rt": [3710, 40, 711, 48, 139], "actions": ["left", "left", "left", "up", "up"], "actionTimes": [5990, 6527, 7731, 8285, 8959], "queries": {"click": {"state": {"target": ["15"], "time": [3822]}, "edge": {"target": [], "time": []}}, "mouseover": {"state": {"target": ["16", "17", "15"], "time": [3002, 3301, 3418]}, "edge": {"target": [], "time": []}}, "mouseout": {"state": {"target": ["32", "0", "16", "17"], "time": [1338, 2855, 3036, 3351]}, "edge": {"target": [], "time": []}}}, "displayed_time": "16.28", "trialTime": 18333, "trial_type": "mouselab-mdp", "trial_index": 57, "time_elapsed": 1553614, "internal_node_id": "0.0-6.0-1.0-36.0"}}, {"uniqueid": "w31760974:a79516696", "current_trial": 58, "dateTime": 1693566541855, "trialdata": {"revealed_states": [], "clicked_states": ["5"], "num_clicks_accrued": [0, 0, 0, 0, 0, 0, 0, 0, 0, 0, 0, 0, 0], "stateRewards": ["", 2, 3, 3, 10, 19, -21, 6, 9, 54, 68, 16, 2, 2, -6, -8, 40, -2, -75, -2, -42, 55, 59, -1, 2, 4, -14, 11, -34, -30, -6, 61, -53, 13], "withholdReward": false, "trial_id": "mdp_trial_38", "block": "test", "trialIndex": 43, "score": 34.85, "costs": -2.15, "simulationMode": [null, null, null, null, null], "rewards": [2, 3, 3, 10, 19], "path": ["0", "0", "1", "2", "3", "4", "5"], "rt": [5623, 112, 315, 372, 433], "actions": ["up", "up", "up", "right", "up"], "actionTimes": [7784, 8399, 9218, 10108, 11037], "queries": {"click": {"state": {"target": ["5"], "time": [4591]}, "edge": {"target": [], "time": []}}, "mouseover": {"state": {"target": ["7", "6", "5", "4", "5", "4", "18", "15"], "time": [2990, 3035, 3371, 3435, 4203, 5969, 6402, 6436]}, "edge": {"target": [], "time": []}}, "mouseout": {"state": {"target": ["15", "23", "7", "6", "5", "4", "5", "4", "18", "15"], "time": [1154, 1506, 3003, 3051, 3387, 3973, 5952, 6003, 6419, 6453]}, "edge": {"target": [], "time": []}}}, "displayed_time": "16.16", "trialTime": 17251, "trial_type": "mouselab-mdp", "trial_index": 58, "time_elapsed": 1571197, "internal_node_id": "0.0-6.0-1.0-37.0"}}, {"uniqueid": "w31760974:a79516696", "current_trial": 59, "dateTime": 1693566559486, "trialdata": {"revealed_states": [], "clicked_states": ["21"], "num_clicks_accrued": [0, 0, 0, 0, 0, 0, 0, 0, 0, 0, 0, 0, 0], "stateRewards": ["", -1, 3, 1, -7, 56, 76, 57, 3, 11, -9, 14, 1, -2, 2, 8, -77, -3, 79, -5, 88, 24, -66, -2, -1, 7, -7, -30, 14, -76, 11, -36, 28, -6], "withholdReward": false, "trial_id": "mdp_trial_39", "block": "test", "trialIndex": 44, "score": 17.85, "costs": -2.15, "simulationMode": [null, null, null, null, null], "rewards": [1, -2, 2, -5, 24], "path": ["0", "0", "12", "13", "14", "19", "21"], "rt": [4581, 11, 332, 1011, 8], "actions": ["right", "right", "right", "down", "down"], "actionTimes": [6132, 6660, 7498, 9009, 9524], "queries": {"click": {"state": {"target": ["21"], "time": [2933]}, "edge": {"target": [], "time": []}}, "mouseover": {"state": {"target": ["12", "13", "14", "20", "21", "22", "13"], "time": [2014, 2033, 2080, 2235, 2353, 4032, 4081]}, "edge": {"target": [], "time": []}}, "mouseout": {"state": {"target": ["13", "12", "12", "13", "14", "20", "21", "22"], "time": [814, 879, 2031, 2047, 2131, 2265, 3981, 4049]}, "edge": {"target": [], "time": []}}}, "displayed_time": "15.55", "trialTime": 17294, "trial_type": "mouselab-mdp", "trial_index": 59, "time_elapsed": 1588829, "internal_node_id": "0.0-6.0-1.0-38.0"}}, {"uniqueid": "w31760974:a79516696", "current_trial": 60, "dateTime": 1693566579109, "trialdata": {"revealed_states": [], "clicked_states": ["27"], "num_clicks_accrued": [0, 0, 0, 0, 0, 0, 0, 0, 0, 0, 0, 0, 0], "stateRewards": ["", -1, 1, -2, 5, 73, 15, 61, 8, 7, 38, 76, 2, 2, -4, -6, -6, -26, 43, -5, -45, -85, -35, -2, 1, -4, 15, -10, 69, 72, -11, 84, -49, -38], "withholdReward": false, "trial_id": "mdp_trial_40", "block": "test", "trialIndex": 45, "score": -67.15, "costs": -2.15, "simulationMode": [null, null, null, null, null], "rewards": [-2, 1, -4, -11, -49], "path": ["0", "0", "23", "24", "25", "30", "32"], "rt": [5605, 116, 340, 315, 52], "actions": ["left", "left", "left", "down", "down"], "actionTimes": [7985, 8612, 9452, 10276, 10846], "queries": {"click": {"state": {"target": ["27"], "time": [3660]}, "edge": {"target": [], "time": []}}, "mouseover": {"state": {"target": ["29", "27", "27", "22"], "time": [3075, 3191, 3428, 4343]}, "edge": {"target": [], "time": []}}, "mouseout": {"state": {"target": ["13", "12", "0", "29", "27", "27"], "time": [1595, 1762, 2824, 3141, 3358, 3871]}, "edge": {"target": [], "time": []}}}, "displayed_time": "16.38", "trialTime": 19315, "trial_type": "mouselab-mdp", "trial_index": 60, "time_elapsed": 1608453, "internal_node_id": "0.0-6.0-1.0-39.0"}}, {"uniqueid": "w31760974:a79516696", "current_trial": 61, "dateTime": 1693566637572, "trialdata": {"rt": 58460, "response": {"Q0": "$-2 to $2", "Q1": "$-4 to $4", "Q2": "$-16 to $16", "Q3": "The cost for clicking on nodes varied between nodes.", "Q4": "Very motivated"}, "question_order": [0, 1, 2, 3, 4], "trial_id": "final_quiz_control", "trial_type": "survey-multi-choice", "trial_index": 61, "time_elapsed": 1666916, "internal_node_id": "0.0-6.0-2.0"}}, {"uniqueid": "w31760974:a79516696", "current_trial": 62, "dateTime": 1693566721975, "trialdata": {"rt": 84389, "response": {"Q0": "the strategy i used was when the up web the next moved was to go to the down web after", "Q1": "no i did not", "Q2": "it was difficult,having to guess the money in the web"}, "trial_id": "self_report_control", "trial_type": "survey-text", "trial_index": 62, "time_elapsed": 1751319, "internal_node_id": "0.0-6.0-3.0"}}, {"uniqueid": "w31760974:a79516696", "current_trial": 63, "dateTime": 1693566768878, "trialdata": {"rt": 46900, "response": {"Q0": "Disagree", "Q1": "Disagree", "Q2": "Neither disagree nor agree", "Q3": "Strongly agree", "Q4": "Strongly disagree", "Q5": "Neither disagree nor agree", "Q6": "Disagree"}, "question_order": [0, 1, 2, 3, 4, 5, 6], "trial_id": "self_report_2", "trial_type": "survey-multi-choice", "trial_index": 63, "time_elapsed": 1798222, "internal_node_id": "0.0-6.0-4.0"}}, {"uniqueid": "w31760974:a79516696", "current_trial": 64, "dateTime": 1693566799234, "trialdata": {"rt": 30348, "response": {"gender": "female", "age": "23", "colorblind": "0", "effort": "0"}, "trial_type": "survey-html-form", "trial_index": 64, "time_elapsed": 1828578, "internal_node_id": "0.0-6.0-5.0"}}, {"uniqueid": "w31760974:a79516696", "current_trial": 65, "dateTime": 1693566825998, "trialdata": {"rt": 26757, "response": {"Q0": "yes", "Q1": "no", "Q2": ""}, "trial_type": "survey-text", "trial_index": 65, "time_elapsed": 1855342, "internal_node_id": "0.0-6.0-6.0"}}, {"uniqueid": "w31760974:a79516696", "current_trial": 66, "dateTime": 1693566844785, "trialdata": {"rt": 18777, "stimulus": "<h1>Completion Code Instructions (1/2)</h1>\n<br><br><br><br>\nYou have reached the end of the experiment! The completion code consists of two parts: (1) a code with 2 characters (2) a code with 6 characters. On this page, you will receive the second part of the code. The first part of the completion code will be on the next page.\n<br><br>\nThe second part of your completion code is: <b>EWEK22</b>\n<br><br>\nPlease note this down. Then, press 'Finish HIT' in order to find the first part of your completion code. Once the data has been saved, you will receive this code either in this window or in the original browser window where you started the experiment.\n", "response": 0, "trial_type": "html-button-response", "trial_index": 66, "time_elapsed": 1874129, "internal_node_id": "0.0-6.0-7.0"}}], "questiondata": {"params": {"CODE": "C6DMOQA6", "MIN_TIME": 14, "inspectCost": 1, "startTime": "Fri Sep 01 2023 12:42:48 GMT+0200 (South Africa Standard Time)", "bonusRate": 0.002, "variance": "1_2_4_8_44", "branching": "31123"}}, "eventdata": [{"eventtype": "initialized", "value": null, "timestamp": 1693564967769, "interval": 0}, {"eventtype": "window_resize", "value": [1028, 744], "timestamp": 1693564967769, "interval": 0}, {"eventtype": "window_resize", "value": [1028, 744], "timestamp": 1693564968461, "interval": 692}, {"eventtype": "window_resize", "value": [1536, 864], "timestamp": 1693564973852, "interval": 5391}, {"eventtype": "focus", "value": "off", "timestamp": 1693565400014, "interval": 426162}, {"eventtype": "focus", "value": "on", "timestamp": 1693565400016, "interval": 2}, {"eventtype": "window_resize", "value": [1028, 744], "timestamp": 1693565400236, "interval": 220}, {"eventtype": "window_resize", "value": [1536, 864], "timestamp": 1693565402318, "interval": 2082}, {"eventtype": "focus", "value": "off", "timestamp": 1693565596452, "interval": 194134}, {"eventtype": "focus", "value": "on", "timestamp": 1693565596452, "interval": 0}, {"eventtype": "window_resize", "value": [1028, 744], "timestamp": 1693565596666, "interval": 214}, {"eventtype": "window_resize", "value": [1536, 864], "timestamp": 1693565598502, "interval": 1836}], "useragent": "Mozilla/5.0 (Windows NT 10.0; Win64; x64) AppleWebKit/537.36 (KHTML, like Gecko) Chrome/116.0.0.0 Safari/537.36", "mode": "live", "id": "w31760974:a79516696", "status": "user data saved", "Beginhit": "2023-09-01 10:42:44.987623", "Beginexp": "2023-09-01 10:42:54.843604", "Endhit": "2023-09-01 11:14:08.026809", "psiturkStatus": 3, "browser": "<redacted>", "platform": "windows", "language": "en-US"}