{"condition": 0, "counterbalance": 0, "assignmentId": "a29248097", "workerId": "w13245283", "hitId": "h28262395", "currenttrial": 73, "bonus": 0, "data": [{"uniqueid": "w13245283:a29248097", "current_trial": 0, "dateTime": 1693481106090, "trialdata": {"success": true, "trial_type": "fullscreen", "trial_index": 0, "time_elapsed": 44922, "internal_node_id": "0.0-0.0"}}, {"uniqueid": "w13245283:a29248097", "current_trial": 1, "dateTime": 1693481150062, "trialdata": {"view_history": [{"page_index": 0, "viewing_time": 43968}], "rt": 43969, "trial_id": "exp_instructions_control", "trial_type": "instructions", "trial_index": 1, "time_elapsed": 88894, "internal_node_id": "0.0-1.0"}}, {"uniqueid": "w13245283:a29248097", "current_trial": 2, "dateTime": 1693481317593, "trialdata": {"view_history": [{"page_index": 0, "viewing_time": 87326}, {"page_index": 1, "viewing_time": 15393}, {"page_index": 2, "viewing_time": 21270}, {"page_index": 3, "viewing_time": 43540}], "rt": 167530, "trial_id": "mouselab_instructions_1_control", "trial_type": "instructions", "trial_index": 2, "time_elapsed": 256425, "internal_node_id": "0.0-2.0-1.0"}}, {"uniqueid": "w13245283:a29248097", "current_trial": 3, "dateTime": 1693481345889, "trialdata": {"revealed_states": [], "clicked_states": [], "num_clicks_accrued": [0, 0, 0, 0, 0, 0, 0, 0, 0, 0, 0, 0, 0], "stateRewards": ["", -10, 10, 10, -10, 10, -10, 10, 10, 10, -10, 10, -10, 10, 10, 10, -10, 10, 10, 10, -10, -10, 10, 10, -10, 10, -10, -10, -10, 10, 10, -10, 10, 10], "withholdReward": false, "trial_id": "practice_1", "block": "test", "trialIndex": 0, "score": 33.5, "costs": 0, "simulationMode": [null, null, null, null, null, null, null, null, null, null, null, null, null, null, null, null], "rewards": [-10, -10, 10, 10, 10, -10, 10, 10, 10], "path": ["0", "0", "1", "1", "2", "2", "3", "4", "3", "8", "5"], "rt": [4132, 4001, 4332, 3829, 965, 471, 3877, 3377, 1278, 783, 249, 1445, 198, 1254, 3133, 883], "actions": ["up", "up", "up", "up", "up", "up", "up", "up", "up", "up", "right", "up", "up", "left", "up", "up"], "actionTimes": [4000, 4002, 8336, 8337, 9303, 9305, 13183, 13184, 14463, 14465, 15216, 15912, 15913, 17664, 19048, 19049], "queries": {"click": {"state": {"target": [], "time": []}, "edge": {"target": [], "time": []}}, "mouseover": {"state": {"target": [], "time": []}, "edge": {"target": [], "time": []}}, "mouseout": {"state": {"target": [], "time": []}, "edge": {"target": [], "time": []}}}, "displayed_time": "19.55", "trialTime": 22752, "trial_type": "mouselab-mdp", "trial_index": 3, "time_elapsed": 284721, "internal_node_id": "0.0-2.0-2.0-0.0"}}, {"uniqueid": "w13245283:a29248097", "current_trial": 4, "dateTime": 1693481357672, "trialdata": {"revealed_states": [], "clicked_states": [], "num_clicks_accrued": [0, 0, 0, 0, 0, 0, 0, 0, 0, 0, 0, 0, 0], "stateRewards": ["", 10, -10, -10, -10, 10, -10, 10, 10, 10, -10, 10, 10, -10, 10, 10, -10, -10, 10, -10, 10, 10, -10, 10, 10, 10, -10, -10, -10, -10, 10, -10, -10, -10], "withholdReward": false, "trial_id": "practice_2", "block": "test", "trialIndex": 1, "score": 33.5, "costs": 0, "simulationMode": [null, null, null, null, null], "rewards": [10, 10, 10, 10, -10], "path": ["0", "0", "23", "24", "25", "30", "32"], "rt": [2271, 269, 186, 202, 37], "actions": ["left", "left", "left", "down", "down"], "actionTimes": [5701, 6477, 7165, 7869, 8405], "queries": {"click": {"state": {"target": [], "time": []}, "edge": {"target": [], "time": []}}, "mouseover": {"state": {"target": [], "time": []}, "edge": {"target": [], "time": []}}, "mouseout": {"state": {"target": [], "time": []}, "edge": {"target": [], "time": []}}}, "displayed_time": "8.91", "trialTime": 11612, "trial_type": "mouselab-mdp", "trial_index": 4, "time_elapsed": 296504, "internal_node_id": "0.0-2.0-2.0-1.0"}}, {"uniqueid": "w13245283:a29248097", "current_trial": 5, "dateTime": 1693481384859, "trialdata": {"view_history": [{"page_index": 0, "viewing_time": 16206}, {"page_index": 1, "viewing_time": 10978}], "rt": 27185, "trial_id": "mouselab_instructions_2_control", "trial_type": "instructions", "trial_index": 5, "time_elapsed": 323690, "internal_node_id": "0.0-2.0-3.0"}}, {"uniqueid": "w13245283:a29248097", "current_trial": 6, "dateTime": 1693481426322, "trialdata": {"rt": 41461, "response": {"Q0": "The cost for clicking on nodes may vary between nodes.", "Q1": "The better I perform the higher my bonus will be.", "Q2": "No, the amount of cash at each node of the web may be different each time.", "Q3": "To get the highest total score.", "Q4": "Only before moving the spider.", "Q5": "10 seconds"}, "question_order": [0, 1, 2, 3, 4, 5], "correct": {"Q0": "The cost for clicking on nodes may vary between nodes.", "Q1": "The better I perform the higher my bonus will be.", "Q2": "No, the amount of cash at each node of the web may be different each time.", "Q3": "To get the highest total score.", "Q4": "Only before moving the spider.", "Q5": "3 seconds"}, "trial_id": "mouselab_quiz_control", "trial_type": "survey-multi-choice", "trial_index": 6, "time_elapsed": 365154, "internal_node_id": "0.0-2.0-4.0"}}, {"uniqueid": "w13245283:a29248097", "current_trial": 7, "dateTime": 1693481443026, "trialdata": {"success": true, "trial_type": "fullscreen", "trial_index": 7, "time_elapsed": 381858, "internal_node_id": "0.0-2.1-0.1-0.1"}}, {"uniqueid": "w13245283:a29248097", "current_trial": 8, "dateTime": 1693481490883, "trialdata": {"view_history": [{"page_index": 0, "viewing_time": 10104}, {"page_index": 1, "viewing_time": 23869}, {"page_index": 2, "viewing_time": 2895}, {"page_index": 3, "viewing_time": 10988}], "rt": 47856, "trial_id": "mouselab_instructions_1_control", "trial_type": "instructions", "trial_index": 8, "time_elapsed": 429715, "internal_node_id": "0.0-2.1-1.1"}}, {"uniqueid": "w13245283:a29248097", "current_trial": 9, "dateTime": 1693481502648, "trialdata": {"revealed_states": [], "clicked_states": [], "num_clicks_accrued": [0, 0, 0, 0, 0, 0, 0, 0, 0, 0, 0, 0, 0], "stateRewards": ["", -10, 10, 10, -10, 10, -10, 10, 10, 10, -10, 10, -10, 10, 10, 10, -10, 10, 10, 10, -10, -10, 10, 10, -10, 10, -10, -10, -10, 10, 10, -10, 10, 10], "withholdReward": false, "trial_id": "practice_1", "block": "test", "trialIndex": 2, "score": 13.5, "costs": 0, "simulationMode": [null, null, null, null, null], "rewards": [-10, 10, 10, -10, 10], "path": ["0", "0", "1", "2", "3", "4", "5"], "rt": [1635, 105, 458, 356, 103], "actions": ["up", "up", "up", "right", "up"], "actionTimes": [5014, 5630, 6591, 7447, 8054], "queries": {"click": {"state": {"target": [], "time": []}, "edge": {"target": [], "time": []}}, "mouseover": {"state": {"target": [], "time": []}, "edge": {"target": [], "time": []}}, "mouseout": {"state": {"target": ["0"], "time": [10506]}, "edge": {"target": [], "time": []}}}, "displayed_time": "8.56", "trialTime": 11599, "trial_type": "mouselab-mdp", "trial_index": 9, "time_elapsed": 441479, "internal_node_id": "0.0-2.1-2.1-0.1"}}, {"uniqueid": "w13245283:a29248097", "current_trial": 10, "dateTime": 1693481514760, "trialdata": {"revealed_states": [], "clicked_states": [], "num_clicks_accrued": [0, 0, 0, 0, 0, 0, 0, 0, 0, 0, 0, 0, 0], "stateRewards": ["", 10, -10, -10, -10, 10, -10, 10, 10, 10, -10, 10, 10, -10, 10, 10, -10, -10, 10, -10, 10, 10, -10, 10, 10, 10, -10, -10, -10, -10, 10, -10, -10, -10], "withholdReward": false, "trial_id": "practice_2", "block": "test", "trialIndex": 3, "score": 33.5, "costs": 0, "simulationMode": [null, null, null, null, null], "rewards": [10, 10, 10, 10, -10], "path": ["0", "0", "23", "24", "25", "30", "32"], "rt": [1100, 284, 140, 477, 609], "actions": ["left", "left", "left", "down", "down"], "actionTimes": [6371, 7163, 7811, 8787, 9899], "queries": {"click": {"state": {"target": [], "time": []}, "edge": {"target": [], "time": []}}, "mouseover": {"state": {"target": ["0"], "time": [5609]}, "edge": {"target": [], "time": []}}, "mouseout": {"state": {"target": ["0"], "time": [4680]}, "edge": {"target": [], "time": []}}}, "displayed_time": "10.40", "trialTime": 11931, "trial_type": "mouselab-mdp", "trial_index": 10, "time_elapsed": 453592, "internal_node_id": "0.0-2.1-2.1-1.1"}}, {"uniqueid": "w13245283:a29248097", "current_trial": 11, "dateTime": 1693481523436, "trialdata": {"view_history": [{"page_index": 0, "viewing_time": 5900}, {"page_index": 1, "viewing_time": 2774}], "rt": 8674, "trial_id": "mouselab_instructions_2_control", "trial_type": "instructions", "trial_index": 11, "time_elapsed": 462268, "internal_node_id": "0.0-2.1-3.1"}}, {"uniqueid": "w13245283:a29248097", "current_trial": 12, "dateTime": 1693481556799, "trialdata": {"rt": 33360, "response": {"Q0": "The cost for clicking on nodes may vary between nodes.", "Q1": "The better I perform the higher my bonus will be.", "Q2": "No, the amount of cash at each node of the web may be different each time.", "Q3": "To get the highest total score.", "Q4": "Any time during the round.", "Q5": "10 seconds"}, "question_order": [0, 1, 2, 3, 4, 5], "correct": {"Q0": "The cost for clicking on nodes may vary between nodes.", "Q1": "The better I perform the higher my bonus will be.", "Q2": "No, the amount of cash at each node of the web may be different each time.", "Q3": "To get the highest total score.", "Q4": "Only before moving the spider.", "Q5": "3 seconds"}, "trial_id": "mouselab_quiz_control", "trial_type": "survey-multi-choice", "trial_index": 12, "time_elapsed": 495631, "internal_node_id": "0.0-2.1-4.1"}}, {"uniqueid": "w13245283:a29248097", "current_trial": 13, "dateTime": 1693481579965, "trialdata": {"success": true, "trial_type": "fullscreen", "trial_index": 13, "time_elapsed": 518797, "internal_node_id": "0.0-2.2-0.2-0.2"}}, {"uniqueid": "w13245283:a29248097", "current_trial": 14, "dateTime": 1693481629373, "trialdata": {"view_history": [{"page_index": 0, "viewing_time": 18269}, {"page_index": 1, "viewing_time": 17463}, {"page_index": 2, "viewing_time": 2343}, {"page_index": 3, "viewing_time": 11332}], "rt": 49407, "trial_id": "mouselab_instructions_1_control", "trial_type": "instructions", "trial_index": 14, "time_elapsed": 568205, "internal_node_id": "0.0-2.2-1.2"}}, {"uniqueid": "w13245283:a29248097", "current_trial": 15, "dateTime": 1693481642240, "trialdata": {"revealed_states": [], "clicked_states": [], "num_clicks_accrued": [0, 0, 0, 0, 0, 0, 0, 0, 0, 0, 0, 0, 0], "stateRewards": ["", -10, 10, 10, -10, 10, -10, 10, 10, 10, -10, 10, -10, 10, 10, 10, -10, 10, 10, 10, -10, -10, 10, 10, -10, 10, -10, -10, -10, 10, 10, -10, 10, 10], "withholdReward": false, "trial_id": "practice_1", "block": "test", "trialIndex": 4, "score": 33.5, "costs": 0, "simulationMode": [null, null, null, null, null], "rewards": [10, -10, 10, 10, 10], "path": ["0", "0", "23", "24", "25", "30", "32"], "rt": [1290, 2158, 58, 290, 182], "actions": ["left", "left", "left", "down", "down"], "actionTimes": [6633, 9297, 9857, 10665, 11353], "queries": {"click": {"state": {"target": [], "time": []}, "edge": {"target": [], "time": []}}, "mouseover": {"state": {"target": [], "time": []}, "edge": {"target": [], "time": []}}, "mouseout": {"state": {"target": [], "time": []}, "edge": {"target": [], "time": []}}}, "displayed_time": "11.86", "trialTime": 12673, "trial_type": "mouselab-mdp", "trial_index": 15, "time_elapsed": 581072, "internal_node_id": "0.0-2.2-2.2-0.2"}}, {"uniqueid": "w13245283:a29248097", "current_trial": 16, "dateTime": 1693481652128, "trialdata": {"revealed_states": [], "clicked_states": [], "num_clicks_accrued": [0, 0, 0, 0, 0, 0, 0, 0, 0, 0, 0, 0, 0], "stateRewards": ["", 10, -10, -10, -10, 10, -10, 10, 10, 10, -10, 10, 10, -10, 10, 10, -10, -10, 10, -10, 10, 10, -10, 10, 10, 10, -10, -10, -10, -10, 10, -10, -10, -10], "withholdReward": false, "trial_id": "practice_2", "block": "test", "trialIndex": 5, "score": 13.5, "costs": 0, "simulationMode": [null, null, null, null, null], "rewards": [10, -10, 10, -10, 10], "path": ["0", "0", "12", "13", "14", "19", "21"], "rt": [1457, 140, 142, 937, 201], "actions": ["right", "right", "right", "down", "down"], "actionTimes": [2932, 3580, 4220, 5660, 6364], "queries": {"click": {"state": {"target": [], "time": []}, "edge": {"target": [], "time": []}}, "mouseover": {"state": {"target": [], "time": []}, "edge": {"target": [], "time": []}}, "mouseout": {"state": {"target": ["0", "0", "32"], "time": [8314, 8634, 8697]}, "edge": {"target": [], "time": []}}}, "displayed_time": "6.87", "trialTime": 9660, "trial_type": "mouselab-mdp", "trial_index": 16, "time_elapsed": 590960, "internal_node_id": "0.0-2.2-2.2-1.2"}}, {"uniqueid": "w13245283:a29248097", "current_trial": 17, "dateTime": 1693481687827, "trialdata": {"view_history": [{"page_index": 0, "viewing_time": 33202}, {"page_index": 1, "viewing_time": 2496}], "rt": 35698, "trial_id": "mouselab_instructions_2_control", "trial_type": "instructions", "trial_index": 17, "time_elapsed": 626658, "internal_node_id": "0.0-2.2-3.2"}}, {"uniqueid": "w13245283:a29248097", "current_trial": 18, "dateTime": 1693481719374, "trialdata": {"rt": 31545, "response": {"Q0": "The cost for clicking on nodes may vary between nodes.", "Q1": "The better I perform the higher my bonus will be.", "Q2": "No, the amount of cash at each node of the web may be different each time.", "Q3": "To get the highest total score.", "Q4": "Only after moving the spider.", "Q5": "10 seconds"}, "question_order": [0, 1, 2, 3, 4, 5], "correct": {"Q0": "The cost for clicking on nodes may vary between nodes.", "Q1": "The better I perform the higher my bonus will be.", "Q2": "No, the amount of cash at each node of the web may be different each time.", "Q3": "To get the highest total score.", "Q4": "Only before moving the spider.", "Q5": "3 seconds"}, "trial_id": "mouselab_quiz_control", "trial_type": "survey-multi-choice", "trial_index": 18, "time_elapsed": 658206, "internal_node_id": "0.0-2.2-4.2"}}, {"uniqueid": "w13245283:a29248097", "current_trial": 19, "dateTime": 1693481744090, "trialdata": {"success": true, "trial_type": "fullscreen", "trial_index": 19, "time_elapsed": 682922, "internal_node_id": "0.0-2.3-0.3-0.3"}}, {"uniqueid": "w13245283:a29248097", "current_trial": 20, "dateTime": 1693481787687, "trialdata": {"view_history": [{"page_index": 0, "viewing_time": 18878}, {"page_index": 1, "viewing_time": 20375}, {"page_index": 2, "viewing_time": 1880}, {"page_index": 3, "viewing_time": 2463}], "rt": 43596, "trial_id": "mouselab_instructions_1_control", "trial_type": "instructions", "trial_index": 20, "time_elapsed": 726519, "internal_node_id": "0.0-2.3-1.3"}}, {"uniqueid": "w13245283:a29248097", "current_trial": 21, "dateTime": 1693481799624, "trialdata": {"revealed_states": [], "clicked_states": [], "num_clicks_accrued": [0, 0, 0, 0, 0, 0, 0, 0, 0, 0, 0, 0, 0], "stateRewards": ["", -10, 10, 10, -10, 10, -10, 10, 10, 10, -10, 10, -10, 10, 10, 10, -10, 10, 10, 10, -10, -10, 10, 10, -10, 10, -10, -10, -10, 10, 10, -10, 10, 10], "withholdReward": false, "trial_id": "practice_1", "block": "test", "trialIndex": 6, "score": 33.5, "costs": 0, "simulationMode": [null, null, null, null, null], "rewards": [10, -10, 10, 10, 10], "path": ["0", "0", "23", "24", "25", "30", "32"], "rt": [1020, 14, 710, 551, 511], "actions": ["left", "left", "left", "down", "down"], "actionTimes": [2384, 2904, 4121, 5177, 6193], "queries": {"click": {"state": {"target": [], "time": []}, "edge": {"target": [], "time": []}}, "mouseover": {"state": {"target": ["0", "19"], "time": [1617, 1673]}, "edge": {"target": [], "time": []}}, "mouseout": {"state": {"target": ["20", "12", "0", "0", "19", "19", "13", "12"], "time": [656, 880, 896, 1640, 1680, 8062, 8214, 8246]}, "edge": {"target": [], "time": []}}}, "displayed_time": "6.70", "trialTime": 11729, "trial_type": "mouselab-mdp", "trial_index": 21, "time_elapsed": 738456, "internal_node_id": "0.0-2.3-2.3-0.3"}}, {"uniqueid": "w13245283:a29248097", "current_trial": 22, "dateTime": 1693481808328, "trialdata": {"revealed_states": [], "clicked_states": [], "num_clicks_accrued": [0, 0, 0, 0, 0, 0, 0, 0, 0, 0, 0, 0, 0], "stateRewards": ["", 10, -10, -10, -10, 10, -10, 10, 10, 10, -10, 10, 10, -10, 10, 10, -10, -10, 10, -10, 10, 10, -10, 10, 10, 10, -10, -10, -10, -10, 10, -10, -10, -10], "withholdReward": false, "trial_id": "practice_2", "block": "test", "trialIndex": 7, "score": 33.5, "costs": 0, "simulationMode": [null, null, null, null, null], "rewards": [10, 10, 10, 10, -10], "path": ["0", "0", "23", "24", "25", "30", "32"], "rt": [1098, 141, 8, 191, 209], "actions": ["left", "left", "left", "down", "down"], "actionTimes": [3180, 3820, 4331, 5035, 5747], "queries": {"click": {"state": {"target": [], "time": []}, "edge": {"target": [], "time": []}}, "mouseover": {"state": {"target": [], "time": []}, "edge": {"target": [], "time": []}}, "mouseout": {"state": {"target": ["0", "0"], "time": [1558, 7627]}, "edge": {"target": [], "time": []}}}, "displayed_time": "6.25", "trialTime": 8492, "trial_type": "mouselab-mdp", "trial_index": 22, "time_elapsed": 747160, "internal_node_id": "0.0-2.3-2.3-1.3"}}, {"uniqueid": "w13245283:a29248097", "current_trial": 23, "dateTime": 1693481829620, "trialdata": {"view_history": [{"page_index": 0, "viewing_time": 19363}, {"page_index": 1, "viewing_time": 1927}], "rt": 21290, "trial_id": "mouselab_instructions_2_control", "trial_type": "instructions", "trial_index": 23, "time_elapsed": 768452, "internal_node_id": "0.0-2.3-3.3"}}, {"uniqueid": "w13245283:a29248097", "current_trial": 24, "dateTime": 1693481922803, "trialdata": {"rt": 93181, "response": {"Q0": "The cost for clicking on nodes may vary between nodes.", "Q1": "The better I perform the higher my bonus will be.", "Q2": "No, the amount of cash at each node of the web may be different each time.", "Q3": "To get the highest total score.", "Q4": "Only before moving the spider.", "Q5": "3 seconds"}, "question_order": [0, 1, 2, 3, 4, 5], "correct": {"Q0": "The cost for clicking on nodes may vary between nodes.", "Q1": "The better I perform the higher my bonus will be.", "Q2": "No, the amount of cash at each node of the web may be different each time.", "Q3": "To get the highest total score.", "Q4": "Only before moving the spider.", "Q5": "3 seconds"}, "trial_id": "mouselab_quiz_control", "trial_type": "survey-multi-choice", "trial_index": 24, "time_elapsed": 861635, "internal_node_id": "0.0-2.3-4.3"}}, {"uniqueid": "w13245283:a29248097", "current_trial": 25, "dateTime": 1693481931510, "trialdata": {"rt": 8702, "response": {"Q0": "No"}, "question_order": [0], "trial_id": "repeat_check", "trial_type": "survey-multi-choice", "trial_index": 25, "time_elapsed": 870342, "internal_node_id": "0.0-4.0-0.0"}}, {"uniqueid": "w13245283:a29248097", "current_trial": 26, "dateTime": 1693481947039, "trialdata": {"rt": 15525, "stimulus": "\n<h1> Get ready to start the game! </h1>\n\nThank you for reading the instructions. Get ready start with the 40 rounds of this game.\n<br><br>\nIf you need to take a break, feel free to take one after the end of a round, before continuing to the next one.\n<br><br>\nRemember, the more money the spider gets, the bigger your bonus will be!\n<br><br>\n<div style='text-align: center;'>Press <code>space</code> to begin.</div>\n\n<br><br>\n(If, at any point, the <code>space</code> key does not take you to the next page, click once on the text and try again.)", "response": " ", "trial_id": "mdp_ready", "trial_type": "html-keyboard-response", "trial_index": 26, "time_elapsed": 885871, "internal_node_id": "0.0-6.0-0.0"}}, {"uniqueid": "w13245283:a29248097", "current_trial": 27, "dateTime": 1693481964983, "trialdata": {"revealed_states": [], "clicked_states": [], "num_clicks_accrued": [0, 0, 0, 0, 0, 0, 0, 0, 0, 0, 0, 0, 0], "stateRewards": ["", 1, -2, -8, -13, 4, 34, -84, -4, -49, 88, -70, -1, 3, -4, 10, -77, 13, -34, 15, -21, -16, 27, 1, -2, 8, -8, -6, 38, -26, 6, -15, 66, -3], "withholdReward": false, "trial_id": "mdp_trial_1", "block": "test", "trialIndex": 8, "score": 79, "costs": 0, "simulationMode": [null, null, null, null, null], "rewards": [1, -2, 8, 6, 66], "path": ["0", "0", "23", "24", "25", "30", "32"], "rt": [1264, 232, 158, 1043, 181], "actions": ["left", "left", "left", "down", "down"], "actionTimes": [3060, 3796, 4451, 5996, 6676], "queries": {"click": {"state": {"target": [], "time": []}, "edge": {"target": [], "time": []}}, "mouseover": {"state": {"target": [], "time": []}, "edge": {"target": [], "time": []}}, "mouseout": {"state": {"target": ["2", "10"], "time": [437, 621]}, "edge": {"target": [], "time": []}}}, "displayed_time": "15.80", "trialTime": 17732, "trial_type": "mouselab-mdp", "trial_index": 27, "time_elapsed": 903815, "internal_node_id": "0.0-6.0-1.0-0.0"}}, {"uniqueid": "w13245283:a29248097", "current_trial": 28, "dateTime": 1693481983451, "trialdata": {"revealed_states": [], "clicked_states": ["1"], "num_clicks_accrued": [0, 0, 0, 0, 0, 0, 0, 0, 0, 0, 0, 0, 0], "stateRewards": ["", -1, 3, 2, 9, 41, 4, -46, -12, -54, -87, -25, 2, 3, -1, 11, -77, 12, -33, -9, -32, 35, 72, 1, 3, -7, 4, 37, 65, -73, 6, 77, -43, 8], "withholdReward": false, "trial_id": "mdp_trial_2", "block": "test", "trialIndex": 9, "score": -63.4, "costs": -1.4, "simulationMode": [null, null, null, null, null], "rewards": [2, 3, -1, 11, -77], "path": ["0", "0", "12", "13", "14", "15", "16"], "rt": [5032, 318, 522, 198, 147], "actions": ["right", "right", "right", "up", "up"], "actionTimes": [6523, 7347, 8378, 9082, 9738], "queries": {"click": {"state": {"target": ["1"], "time": [2743]}, "edge": {"target": [], "time": []}}, "mouseover": {"state": {"target": ["1", "1", "12", "22", "19"], "time": [2092, 2444, 4339, 5330, 5353]}, "edge": {"target": [], "time": []}}, "mouseout": {"state": {"target": ["0", "1", "1", "1", "12", "22", "19", "20", "33", "32", "30", "31"], "time": [1333, 2147, 2908, 3557, 5284, 5339, 5386, 16029, 16908, 17092, 17221, 17301]}, "edge": {"target": [], "time": []}}}, "displayed_time": "15.49", "trialTime": 18207, "trial_type": "mouselab-mdp", "trial_index": 28, "time_elapsed": 922283, "internal_node_id": "0.0-6.0-1.0-1.0"}}, {"uniqueid": "w13245283:a29248097", "current_trial": 29, "dateTime": 1693482001670, "trialdata": {"revealed_states": [], "clicked_states": [], "num_clicks_accrued": [0, 0, 0, 0, 0, 0, 0, 0, 0, 0, 0, 0, 0], "stateRewards": ["", 1, -2, 7, -14, 88, -56, -44, -14, 64, -51, -57, -2, 3, -4, -9, -11, 19, -77, -1, 68, 75, -67, -1, 1, -2, 5, -37, 70, -34, -10, -72, 63, -41], "withholdReward": false, "trial_id": "mdp_trial_3", "block": "test", "trialIndex": 10, "score": 51, "costs": 0, "simulationMode": [null, null, null, null, null], "rewards": [-1, 1, -2, -10, 63], "path": ["0", "0", "23", "24", "25", "30", "32"], "rt": [1600, 506, 244, 413, 232], "actions": ["left", "left", "left", "down", "down"], "actionTimes": [3870, 4877, 5622, 6534, 7270], "queries": {"click": {"state": {"target": [], "time": []}, "edge": {"target": [], "time": []}}, "mouseover": {"state": {"target": [], "time": []}, "edge": {"target": [], "time": []}}, "mouseout": {"state": {"target": ["0"], "time": [2846]}, "edge": {"target": [], "time": []}}}, "displayed_time": "16.27", "trialTime": 17949, "trial_type": "mouselab-mdp", "trial_index": 29, "time_elapsed": 940502, "internal_node_id": "0.0-6.0-1.0-2.0"}}, {"uniqueid": "w13245283:a29248097", "current_trial": 30, "dateTime": 1693482020727, "trialdata": {"revealed_states": [], "clicked_states": [], "num_clicks_accrued": [0, 0, 0, 0, 0, 0, 0, 0, 0, 0, 0, 0, 0], "stateRewards": ["", -2, 3, -1, 2, -72, 63, 20, -1, 62, -66, 39, -2, 3, -6, 14, 22, 47, 1, 8, -49, -1, -41, 2, 2, -6, -16, -64, -60, -34, 16, 54, 22, -7], "withholdReward": false, "trial_id": "mdp_trial_4", "block": "test", "trialIndex": 11, "score": 36, "costs": 0, "simulationMode": [null, null, null, null, null], "rewards": [2, 2, -6, 16, 22], "path": ["0", "0", "23", "24", "25", "30", "32"], "rt": [1133, 2, 80, 442, 106], "actions": ["left", "left", "left", "down", "down"], "actionTimes": [4489, 5001, 5593, 6537, 7145], "queries": {"click": {"state": {"target": [], "time": []}, "edge": {"target": [], "time": []}}, "mouseover": {"state": {"target": ["12", "13"], "time": [3617, 3642]}, "edge": {"target": [], "time": []}}, "mouseout": {"state": {"target": ["22", "31", "31", "31", "30", "33", "12", "22", "0", "12", "13"], "time": [1538, 1586, 1897, 1961, 1977, 1993, 2353, 2545, 3025, 3635, 3650]}, "edge": {"target": [], "time": []}}}, "displayed_time": "17.37", "trialTime": 18794, "trial_type": "mouselab-mdp", "trial_index": 30, "time_elapsed": 959559, "internal_node_id": "0.0-6.0-1.0-3.0"}}, {"uniqueid": "w13245283:a29248097", "current_trial": 31, "dateTime": 1693482043214, "trialdata": {"revealed_states": [], "clicked_states": [], "num_clicks_accrued": [0, 0, 0, 0, 0, 0, 0, 0, 0, 0, 0, 0, 0], "stateRewards": ["", 1, 3, 1, -13, 52, -28, 67, -14, 3, 63, -70, -1, -4, 7, -11, -10, 47, -18, 6, 69, -9, -61, 2, 3, -6, 10, 63, -34, 40, -6, -79, -35, -32], "withholdReward": false, "trial_id": "mdp_trial_5", "block": "test", "trialIndex": 12, "score": -42, "costs": 0, "simulationMode": [null, null, null, null, null], "rewards": [2, 3, -6, -6, -35], "path": ["0", "0", "23", "24", "25", "30", "32"], "rt": [1238, 10, 500, 476, 154], "actions": ["left", "left", "left", "down", "down"], "actionTimes": [4958, 5470, 6478, 7454, 8111], "queries": {"click": {"state": {"target": [], "time": []}, "edge": {"target": [], "time": []}}, "mouseover": {"state": {"target": [], "time": []}, "edge": {"target": [], "time": []}}, "mouseout": {"state": {"target": ["14", "13", "12"], "time": [3045, 3141, 3229]}, "edge": {"target": [], "time": []}}}, "displayed_time": "17.72", "trialTime": 22206, "trial_type": "mouselab-mdp", "trial_index": 31, "time_elapsed": 982046, "internal_node_id": "0.0-6.0-1.0-4.0"}}, {"uniqueid": "w13245283:a29248097", "current_trial": 32, "dateTime": 1693482062327, "trialdata": {"revealed_states": [], "clicked_states": ["1"], "num_clicks_accrued": [0, 0, 0, 0, 0, 0, 0, 0, 0, 0, 0, 0, 0], "stateRewards": ["", 2, 3, 6, -5, -74, -53, 17, -12, 46, 44, 18, -2, 4, 1, -8, 22, -23, -49, 9, -45, 55, 81, 1, -1, -7, -16, -83, -71, -45, 2, 51, 82, 61], "withholdReward": false, "trial_id": "mdp_trial_6", "block": "test", "trialIndex": 13, "score": 43.6, "costs": -1.4, "simulationMode": [null, null, null, null, null], "rewards": [2, 3, 6, -12, 46], "path": ["0", "0", "1", "2", "3", "8", "9"], "rt": [4683, 337, 1072, 498, 434], "actions": ["up", "up", "up", "left", "up"], "actionTimes": [7269, 8117, 9693, 10701, 11637], "queries": {"click": {"state": {"target": ["1"], "time": [3910]}, "edge": {"target": [], "time": []}}, "mouseover": {"state": {"target": ["0", "0", "1", "12", "0", "23", "0", "12", "13", "14"], "time": [2740, 3286, 3666, 4510, 4799, 4973, 5674, 5708, 5730, 5793]}, "edge": {"target": [], "time": []}}, "mouseout": {"state": {"target": ["0", "0", "0", "1", "12", "0", "23", "0", "12", "13", "14"], "time": [2421, 2868, 3547, 4369, 4757, 4880, 5649, 5690, 5722, 5769, 5826]}, "edge": {"target": [], "time": []}}}, "displayed_time": "16.59", "trialTime": 18821, "trial_type": "mouselab-mdp", "trial_index": 32, "time_elapsed": 1001158, "internal_node_id": "0.0-6.0-1.0-5.0"}}, {"uniqueid": "w13245283:a29248097", "current_trial": 33, "dateTime": 1693482084374, "trialdata": {"revealed_states": [], "clicked_states": [], "num_clicks_accrued": [0, 0, 0, 0, 0, 0, 0, 0, 0, 0, 0, 0, 0], "stateRewards": ["", 1, -3, -1, 9, -34, -40, 22, -7, 45, 53, -11, 2, 4, 5, 15, 21, 37, -49, -3, 80, -28, -34, 1, -3, 1, 1, -40, -6, -5, -16, -85, -86, 59], "withholdReward": false, "trial_id": "mdp_trial_7", "block": "test", "trialIndex": 14, "score": -20, "costs": 0, "simulationMode": [null, null, null, null, null], "rewards": [2, 4, 5, -3, -28], "path": ["0", "0", "12", "13", "14", "19", "21"], "rt": [14758, 138, 229, 3, 159], "actions": ["right", "right", "right", "down", "down"], "actionTimes": [16878, 17525, 18254, 18757, 19421], "queries": {"click": {"state": {"target": [], "time": []}, "edge": {"target": [], "time": []}}, "mouseover": {"state": {"target": ["0"], "time": [2330]}, "edge": {"target": [], "time": []}}, "mouseout": {"state": {"target": ["19", "22", "0", "0"], "time": [1083, 1163, 1515, 2386]}, "edge": {"target": [], "time": []}}}, "displayed_time": "19.93", "trialTime": 21789, "trial_type": "mouselab-mdp", "trial_index": 33, "time_elapsed": 1023206, "internal_node_id": "0.0-6.0-1.0-6.0"}}, {"uniqueid": "w13245283:a29248097", "current_trial": 34, "dateTime": 1693482103511, "trialdata": {"revealed_states": [], "clicked_states": [], "num_clicks_accrued": [0, 0, 0, 0, 0, 0, 0, 0, 0, 0, 0, 0, 0], "stateRewards": ["", -2, -1, -4, -15, -14, -67, 32, -3, -59, 63, 31, 2, -1, -7, -15, 71, -66, -27, -3, -54, -39, 72, 2, 1, 1, -13, 77, -40, 35, -9, 35, 75, 57], "withholdReward": false, "trial_id": "mdp_trial_8", "block": "test", "trialIndex": 15, "score": -36, "costs": 0, "simulationMode": [null, null, null, null, null], "rewards": [-2, -1, -4, -15, -14], "path": ["0", "0", "1", "2", "3", "4", "5"], "rt": [1486, 2, 119, 1053, 113], "actions": ["up", "up", "up", "right", "up"], "actionTimes": [5244, 5750, 6379, 7939, 8555], "queries": {"click": {"state": {"target": [], "time": []}, "edge": {"target": [], "time": []}}, "mouseover": {"state": {"target": ["12", "13"], "time": [4262, 4274]}, "edge": {"target": [], "time": []}}, "mouseout": {"state": {"target": ["13", "12", "0", "12", "13"], "time": [2998, 3254, 4246, 4273, 4280]}, "edge": {"target": [], "time": []}}}, "displayed_time": "17.76", "trialTime": 18883, "trial_type": "mouselab-mdp", "trial_index": 34, "time_elapsed": 1042342, "internal_node_id": "0.0-6.0-1.0-7.0"}}, {"uniqueid": "w13245283:a29248097", "current_trial": 35, "dateTime": 1693482123903, "trialdata": {"revealed_states": [], "clicked_states": [], "num_clicks_accrued": [0, 0, 0, 0, 0, 0, 0, 0, 0, 0, 0, 0, 0], "stateRewards": ["", -2, 2, -5, 1, 42, -63, -58, -6, 2, 16, 81, -2, 4, 7, -10, 33, 3, -33, -2, -52, -84, -27, 2, -3, -3, 15, -74, -14, -5, -5, -84, 79, -31], "withholdReward": false, "trial_id": "mdp_trial_9", "block": "test", "trialIndex": 16, "score": 70, "costs": 0, "simulationMode": [null, null, null, null, null], "rewards": [2, -3, -3, -5, 79], "path": ["0", "0", "23", "24", "25", "30", "32"], "rt": [1672, 98, 164, 346, 362], "actions": ["left", "left", "left", "down", "down"], "actionTimes": [4937, 5537, 6201, 7049, 7913], "queries": {"click": {"state": {"target": [], "time": []}, "edge": {"target": [], "time": []}}, "mouseover": {"state": {"target": [], "time": []}, "edge": {"target": [], "time": []}}, "mouseout": {"state": {"target": ["12", "0"], "time": [2836, 4111]}, "edge": {"target": [], "time": []}}}, "displayed_time": "17.27", "trialTime": 20121, "trial_type": "mouselab-mdp", "trial_index": 35, "time_elapsed": 1062734, "internal_node_id": "0.0-6.0-1.0-8.0"}}, {"uniqueid": "w13245283:a29248097", "current_trial": 36, "dateTime": 1693482147167, "trialdata": {"revealed_states": [], "clicked_states": [], "num_clicks_accrued": [0, 0, 0, 0, 0, 0, 0, 0, 0, 0, 0, 0, 0], "stateRewards": ["", 2, 3, -1, 6, 44, -4, -59, -14, -3, 64, 16, 1, -3, 3, 6, 3, 49, 19, 3, -49, -14, -86, 1, 2, -3, -8, -33, 14, 32, -13, -77, -47, -67], "withholdReward": false, "trial_id": "mdp_trial_10", "block": "test", "trialIndex": 17, "score": -60, "costs": 0, "simulationMode": [null, null, null, null, null], "rewards": [1, 2, -3, -13, -47], "path": ["0", "0", "23", "24", "25", "30", "32"], "rt": [1934, 51, 280, 471, 314], "actions": ["left", "left", "left", "down", "down"], "actionTimes": [6073, 6632, 7417, 8385, 9201], "queries": {"click": {"state": {"target": [], "time": []}, "edge": {"target": [], "time": []}}, "mouseover": {"state": {"target": ["12"], "time": [4351]}, "edge": {"target": [], "time": []}}, "mouseout": {"state": {"target": ["12", "28", "26", "25", "24", "23", "0", "12"], "time": [1659, 2947, 2955, 3250, 3458, 3522, 4338, 4364]}, "edge": {"target": [], "time": []}}}, "displayed_time": "18.14", "trialTime": 22938, "trial_type": "mouselab-mdp", "trial_index": 36, "time_elapsed": 1085998, "internal_node_id": "0.0-6.0-1.0-9.0"}}, {"uniqueid": "w13245283:a29248097", "current_trial": 37, "dateTime": 1693482167143, "trialdata": {"revealed_states": [], "clicked_states": [], "num_clicks_accrued": [0, 0, 0, 0, 0, 0, 0, 0, 0, 0, 0, 0, 0], "stateRewards": ["", 2, 3, 6, -12, -29, 12, 87, 4, 35, -30, 67, 2, 3, -5, -9, 44, 69, -8, 1, 45, -8, 28, -2, -1, -8, 11, -12, -5, 81, 9, 87, 82, 88], "withholdReward": false, "trial_id": "mdp_trial_11", "block": "test", "trialIndex": 18, "score": -12, "costs": 0, "simulationMode": [null, null, null, null, null], "rewards": [-2, -1, -8, 11, -12], "path": ["0", "0", "23", "24", "25", "26", "27"], "rt": [2007, 177, 419, 454, 154], "actions": ["left", "left", "left", "up", "up"], "actionTimes": [5548, 6229, 7157, 8117, 8781], "queries": {"click": {"state": {"target": [], "time": []}, "edge": {"target": [], "time": []}}, "mouseover": {"state": {"target": ["12", "13"], "time": [4236, 4285]}, "edge": {"target": [], "time": []}}, "mouseout": {"state": {"target": ["20", "12", "0", "23", "12", "13"], "time": [2333, 2356, 2364, 2389, 4268, 4324]}, "edge": {"target": [], "time": []}}}, "displayed_time": "17.54", "trialTime": 19662, "trial_type": "mouselab-mdp", "trial_index": 37, "time_elapsed": 1105975, "internal_node_id": "0.0-6.0-1.0-10.0"}}, {"uniqueid": "w13245283:a29248097", "current_trial": 38, "dateTime": 1693482185575, "trialdata": {"revealed_states": [], "clicked_states": [], "num_clicks_accrued": [0, 0, 0, 0, 0, 0, 0, 0, 0, 0, 0, 0, 0], "stateRewards": ["", -1, -3, -3, 1, -38, 2, -53, -2, -1, -81, 70, -1, 1, -5, -9, 46, 15, 35, -1, -22, 38, 59, -2, 4, -8, 13, 1, -83, -43, 4, 76, 13, 48], "withholdReward": false, "trial_id": "mdp_trial_12", "block": "test", "trialIndex": 19, "score": 11, "costs": 0, "simulationMode": [null, null, null, null, null], "rewards": [-2, 4, -8, 4, 13], "path": ["0", "0", "23", "24", "25", "30", "32"], "rt": [1193, 3, 389, 330, 186], "actions": ["left", "left", "left", "down", "down"], "actionTimes": [4009, 4512, 5417, 6249, 6945], "queries": {"click": {"state": {"target": [], "time": []}, "edge": {"target": [], "time": []}}, "mouseover": {"state": {"target": ["0", "12"], "time": [3007, 3043]}, "edge": {"target": [], "time": []}}, "mouseout": {"state": {"target": ["26", "24", "31", "15", "7", "3", "8", "11", "10", "0", "12", "19", "20", "31", "31", "33", "25", "24"], "time": [528, 768, 840, 1608, 1640, 1664, 1680, 1848, 2127, 3023, 3056, 11987, 12028, 13059, 15218, 15802, 16585, 16657]}, "edge": {"target": [], "time": []}}}, "displayed_time": "16.82", "trialTime": 18121, "trial_type": "mouselab-mdp", "trial_index": 38, "time_elapsed": 1124406, "internal_node_id": "0.0-6.0-1.0-11.0"}}, {"uniqueid": "w13245283:a29248097", "current_trial": 39, "dateTime": 1693482203614, "trialdata": {"revealed_states": [], "clicked_states": [], "num_clicks_accrued": [0, 0, 0, 0, 0, 0, 0, 0, 0, 0, 0, 0, 0], "stateRewards": ["", -1, -4, -1, -5, -28, -23, -15, -15, -38, 59, -87, 2, 2, -5, 9, -55, -39, -71, -6, 85, -85, -11, -1, -2, 5, -10, 1, 25, 41, -4, 69, -35, 86], "withholdReward": false, "trial_id": "mdp_trial_13", "block": "test", "trialIndex": 20, "score": -59, "costs": 0, "simulationMode": [null, null, null, null, null], "rewards": [-1, -4, -1, -15, -38], "path": ["0", "0", "1", "2", "3", "8", "9"], "rt": [1641, 28, 191, 403, 468], "actions": ["up", "up", "up", "left", "up"], "actionTimes": [3979, 4515, 5219, 6131, 7107], "queries": {"click": {"state": {"target": [], "time": []}, "edge": {"target": [], "time": []}}, "mouseover": {"state": {"target": [], "time": []}, "edge": {"target": [], "time": []}}, "mouseout": {"state": {"target": ["0"], "time": [2506]}, "edge": {"target": [], "time": []}}}, "displayed_time": "16.34", "trialTime": 17763, "trial_type": "mouselab-mdp", "trial_index": 39, "time_elapsed": 1142446, "internal_node_id": "0.0-6.0-1.0-12.0"}}, {"uniqueid": "w13245283:a29248097", "current_trial": 40, "dateTime": 1693482220630, "trialdata": {"revealed_states": [], "clicked_states": [], "num_clicks_accrued": [0, 0, 0, 0, 0, 0, 0, 0, 0, 0, 0, 0, 0], "stateRewards": ["", -2, 2, -1, -6, 22, 6, 6, -5, 70, -42, 65, 1, 3, 5, -6, -67, -9, 3, 14, 7, -62, -13, -2, 4, 1, 16, 42, -21, -52, -8, 32, 53, 81], "withholdReward": false, "trial_id": "mdp_trial_14", "block": "test", "trialIndex": 21, "score": -39, "costs": 0, "simulationMode": [null, null, null, null, null], "rewards": [1, 3, 5, 14, -62], "path": ["0", "0", "12", "13", "14", "19", "21"], "rt": [1477, 34, 292, 541, 421], "actions": ["right", "right", "right", "down", "down"], "actionTimes": [2754, 3290, 4090, 5131, 6059], "queries": {"click": {"state": {"target": [], "time": []}, "edge": {"target": [], "time": []}}, "mouseover": {"state": {"target": ["0"], "time": [1297]}, "edge": {"target": [], "time": []}}, "mouseout": {"state": {"target": ["0"], "time": [1082]}, "edge": {"target": [], "time": []}}}, "displayed_time": "15.28", "trialTime": 16731, "trial_type": "mouselab-mdp", "trial_index": 40, "time_elapsed": 1159462, "internal_node_id": "0.0-6.0-1.0-13.0"}}, {"uniqueid": "w13245283:a29248097", "current_trial": 41, "dateTime": 1693482238694, "trialdata": {"revealed_states": [], "clicked_states": [], "num_clicks_accrued": [0, 0, 0, 0, 0, 0, 0, 0, 0, 0, 0, 0, 0], "stateRewards": ["", 2, 3, 8, 14, 69, -27, 17, 2, -71, -65, -10, 2, -3, 7, 8, 65, -10, 65, -12, 73, -12, 13, -2, -2, 6, 10, -79, -69, -18, 10, -85, 67, 74], "withholdReward": false, "trial_id": "mdp_trial_15", "block": "test", "trialIndex": 22, "score": 79, "costs": 0, "simulationMode": [null, null, null, null, null], "rewards": [-2, -2, 6, 10, 67], "path": ["0", "0", "23", "24", "25", "30", "32"], "rt": [1335, 84, 150, 418, 219], "actions": ["left", "left", "left", "down", "down"], "actionTimes": [3622, 4206, 4862, 5790, 6517], "queries": {"click": {"state": {"target": [], "time": []}, "edge": {"target": [], "time": []}}, "mouseover": {"state": {"target": [], "time": []}, "edge": {"target": [], "time": []}}, "mouseout": {"state": {"target": [], "time": []}, "edge": {"target": [], "time": []}}}, "displayed_time": "16.29", "trialTime": 17758, "trial_type": "mouselab-mdp", "trial_index": 41, "time_elapsed": 1177526, "internal_node_id": "0.0-6.0-1.0-14.0"}}, {"uniqueid": "w13245283:a29248097", "current_trial": 42, "dateTime": 1693482258462, "trialdata": {"revealed_states": [], "clicked_states": [], "num_clicks_accrued": [0, 0, 0, 0, 0, 0, 0, 0, 0, 0, 0, 0, 0], "stateRewards": ["", 2, 4, 4, -8, -36, -33, 38, 16, -51, 57, 57, 1, 3, 4, -6, 45, 68, 87, 1, 63, 24, -55, -2, 2, -6, -13, -63, -50, 8, 2, 80, 6, 60], "withholdReward": false, "trial_id": "mdp_trial_16", "block": "test", "trialIndex": 23, "score": 47, "costs": 0, "simulationMode": [null, null, null, null, null], "rewards": [1, 3, 4, -6, 45], "path": ["0", "0", "12", "13", "14", "15", "16"], "rt": [2204, 17, 87, 619, 70], "actions": ["right", "right", "right", "up", "up"], "actionTimes": [3820, 4347, 4947, 6075, 6652], "queries": {"click": {"state": {"target": [], "time": []}, "edge": {"target": [], "time": []}}, "mouseover": {"state": {"target": [], "time": []}, "edge": {"target": [], "time": []}}, "mouseout": {"state": {"target": ["0"], "time": [1331]}, "edge": {"target": [], "time": []}}}, "displayed_time": "15.62", "trialTime": 19452, "trial_type": "mouselab-mdp", "trial_index": 42, "time_elapsed": 1197294, "internal_node_id": "0.0-6.0-1.0-15.0"}}, {"uniqueid": "w13245283:a29248097", "current_trial": 43, "dateTime": 1693482277159, "trialdata": {"revealed_states": [], "clicked_states": [], "num_clicks_accrued": [0, 0, 0, 0, 0, 0, 0, 0, 0, 0, 0, 0, 0], "stateRewards": ["", 1, 2, 8, -2, 23, -69, -18, -16, 54, -21, 71, -1, -4, 7, 11, 43, -6, 88, 6, -55, 72, 43, 1, -3, -2, -1, 68, -31, -54, 4, -8, 25, -2], "withholdReward": false, "trial_id": "mdp_trial_17", "block": "test", "trialIndex": 24, "score": 25, "costs": 0, "simulationMode": [null, null, null, null, null], "rewards": [1, -3, -2, 4, 25], "path": ["0", "0", "23", "24", "25", "30", "32"], "rt": [1556, 5, 218, 355, 132], "actions": ["left", "left", "left", "down", "down"], "actionTimes": [3999, 4502, 5231, 6095, 6727], "queries": {"click": {"state": {"target": [], "time": []}, "edge": {"target": [], "time": []}}, "mouseover": {"state": {"target": [], "time": []}, "edge": {"target": [], "time": []}}, "mouseout": {"state": {"target": ["0"], "time": [2013]}, "edge": {"target": [], "time": []}}}, "displayed_time": "16.45", "trialTime": 18383, "trial_type": "mouselab-mdp", "trial_index": 43, "time_elapsed": 1215990, "internal_node_id": "0.0-6.0-1.0-16.0"}}, {"uniqueid": "w13245283:a29248097", "current_trial": 44, "dateTime": 1693482296118, "trialdata": {"revealed_states": [], "clicked_states": ["12"], "num_clicks_accrued": [0, 0, 0, 0, 0, 0, 0, 0, 0, 0, 0, 0, 0], "stateRewards": ["", -1, 1, 8, -3, -24, 11, -65, -6, -77, 48, 44, -2, 1, -2, -7, -55, -35, 33, 8, -28, 19, -53, -1, -1, -5, -5, -70, 10, 44, 8, -58, -70, 51], "withholdReward": false, "trial_id": "mdp_trial_18", "block": "test", "trialIndex": 25, "score": -61.4, "costs": -1.4, "simulationMode": [null, null, null, null, null], "rewards": [-1, 1, 8, -3, -65], "path": ["0", "0", "1", "2", "3", "4", "7"], "rt": [5007, 112, 604, 462, 969], "actions": ["up", "up", "up", "right", "down"], "actionTimes": [7514, 8130, 9234, 10202, 11674], "queries": {"click": {"state": {"target": ["12"], "time": [4457]}, "edge": {"target": [], "time": []}}, "mouseover": {"state": {"target": ["1", "12", "0", "23"], "time": [3523, 4215, 4856, 4923]}, "edge": {"target": [], "time": []}}, "mouseout": {"state": {"target": ["0", "1", "12", "12", "0", "23"], "time": [3112, 3983, 4577, 4785, 4866, 6414]}, "edge": {"target": [], "time": []}}}, "displayed_time": "16.51", "trialTime": 18642, "trial_type": "mouselab-mdp", "trial_index": 44, "time_elapsed": 1234950, "internal_node_id": "0.0-6.0-1.0-17.0"}}, {"uniqueid": "w13245283:a29248097", "current_trial": 45, "dateTime": 1693482330966, "trialdata": {"revealed_states": [], "clicked_states": [], "num_clicks_accrued": [0, 0, 0, 0, 0, 0, 0, 0, 0, 0, 0, 0, 0], "stateRewards": ["", 2, 3, -1, 16, -78, -11, 46, 2, -20, 79, -67, 2, 3, 2, 11, -83, -42, -58, -11, -67, -22, 55, 2, -1, -1, -16, -83, -82, 23, -11, -29, 13, 13], "withholdReward": false, "trial_id": "mdp_trial_19", "block": "test", "trialIndex": 26, "score": -26, "costs": 0, "simulationMode": [null, null, null, null, null], "rewards": [2, 3, 2, -11, -22], "path": ["0", "0", "12", "13", "14", "19", "21"], "rt": [1703, 117, 140, 493, 580], "actions": ["right", "right", "right", "down", "down"], "actionTimes": [4518, 5134, 5782, 6774, 7862], "queries": {"click": {"state": {"target": [], "time": []}, "edge": {"target": [], "time": []}}, "mouseover": {"state": {"target": [], "time": []}, "edge": {"target": [], "time": []}}, "mouseout": {"state": {"target": ["12"], "time": [2363]}, "edge": {"target": [], "time": []}}}, "displayed_time": "16.82", "trialTime": 34510, "trial_type": "mouselab-mdp", "trial_index": 45, "time_elapsed": 1269797, "internal_node_id": "0.0-6.0-1.0-18.0"}}, {"uniqueid": "w13245283:a29248097", "current_trial": 46, "dateTime": 1693482348710, "trialdata": {"revealed_states": [], "clicked_states": [], "num_clicks_accrued": [0, 0, 0, 0, 0, 0, 0, 0, 0, 0, 0, 0, 0], "stateRewards": ["", -1, 2, -6, 6, 43, 78, 78, -2, 55, -29, -17, -2, -4, 1, -15, 13, 7, -79, 8, -28, -68, 36, -1, -3, 3, -16, 84, -18, 87, 10, 32, 13, -81], "withholdReward": false, "trial_id": "mdp_trial_20", "block": "test", "trialIndex": 27, "score": 22, "costs": 0, "simulationMode": [null, null, null, null, null], "rewards": [-1, -3, 3, 10, 13], "path": ["0", "0", "23", "24", "25", "30", "32"], "rt": [9715, 305, 222, 308, 127], "actions": ["left", "left", "left", "down", "down"], "actionTimes": [11648, 12456, 13185, 14000, 14625], "queries": {"click": {"state": {"target": [], "time": []}, "edge": {"target": [], "time": []}}, "mouseover": {"state": {"target": [], "time": []}, "edge": {"target": [], "time": []}}, "mouseout": {"state": {"target": ["0", "28", "27", "27", "28"], "time": [433, 543, 734, 934, 1038]}, "edge": {"target": [], "time": []}}}, "displayed_time": "15.93", "trialTime": 17417, "trial_type": "mouselab-mdp", "trial_index": 46, "time_elapsed": 1287542, "internal_node_id": "0.0-6.0-1.0-19.0"}}, {"uniqueid": "w13245283:a29248097", "current_trial": 47, "dateTime": 1693482368558, "trialdata": {"revealed_states": [], "clicked_states": [], "num_clicks_accrued": [0, 0, 0, 0, 0, 0, 0, 0, 0, 0, 0, 0, 0], "stateRewards": ["", -2, -3, -6, -7, 9, 16, 65, 5, -41, 20, -25, -1, -4, 1, -11, -49, -4, 71, 1, 39, -62, 52, -2, -3, 7, -9, -28, -70, 84, 8, 24, -58, 82], "withholdReward": false, "trial_id": "mdp_trial_21", "block": "test", "trialIndex": 28, "score": -64, "costs": 0, "simulationMode": [null, null, null, null, null], "rewards": [-1, -4, 1, -11, -49], "path": ["0", "0", "12", "13", "14", "15", "16"], "rt": [1076, 326, 709, 341, 174], "actions": ["right", "right", "right", "up", "up"], "actionTimes": [4412, 5245, 6452, 7293, 7973], "queries": {"click": {"state": {"target": [], "time": []}, "edge": {"target": [], "time": []}}, "mouseover": {"state": {"target": [], "time": []}, "edge": {"target": [], "time": []}}, "mouseout": {"state": {"target": ["0", "0", "23"], "time": [2699, 9272, 9480]}, "edge": {"target": [], "time": []}}}, "displayed_time": "17.34", "trialTime": 19525, "trial_type": "mouselab-mdp", "trial_index": 47, "time_elapsed": 1307390, "internal_node_id": "0.0-6.0-1.0-20.0"}}, {"uniqueid": "w13245283:a29248097", "current_trial": 48, "dateTime": 1693482386613, "trialdata": {"revealed_states": [], "clicked_states": [], "num_clicks_accrued": [0, 0, 0, 0, 0, 0, 0, 0, 0, 0, 0, 0, 0], "stateRewards": ["", -2, 1, 6, -2, -10, -78, -69, 14, -15, 7, -1, 1, -1, -2, 13, 77, 32, 87, 5, -74, 30, -26, 1, 3, 4, 12, 39, 54, -43, 2, 10, 23, 13], "withholdReward": false, "trial_id": "mdp_trial_22", "block": "test", "trialIndex": 29, "score": 59, "costs": 0, "simulationMode": [null, null, null, null, null], "rewards": [1, 3, 4, 12, 39], "path": ["0", "0", "23", "24", "25", "26", "27"], "rt": [1182, 294, 23, 273, 142], "actions": ["left", "left", "left", "up", "up"], "actionTimes": [4102, 4901, 5429, 6206, 6846], "queries": {"click": {"state": {"target": [], "time": []}, "edge": {"target": [], "time": []}}, "mouseover": {"state": {"target": [], "time": []}, "edge": {"target": [], "time": []}}, "mouseout": {"state": {"target": ["33", "25", "24"], "time": [1922, 2178, 2195]}, "edge": {"target": [], "time": []}}}, "displayed_time": "16.92", "trialTime": 17749, "trial_type": "mouselab-mdp", "trial_index": 48, "time_elapsed": 1325445, "internal_node_id": "0.0-6.0-1.0-21.0"}}, {"uniqueid": "w13245283:a29248097", "current_trial": 49, "dateTime": 1693482404806, "trialdata": {"revealed_states": [], "clicked_states": [], "num_clicks_accrued": [0, 0, 0, 0, 0, 0, 0, 0, 0, 0, 0, 0, 0], "stateRewards": ["", -1, 2, 5, -6, 13, -64, -47, 8, -79, -80, -33, 1, 2, -2, -16, 56, -71, -10, 3, 29, 44, 85, -1, 4, 5, 4, -36, -56, 19, 8, 52, -13, -2], "withholdReward": false, "trial_id": "mdp_trial_23", "block": "test", "trialIndex": 30, "score": -66, "costs": 0, "simulationMode": [null, null, null, null, null], "rewards": [-1, 2, 5, 8, -80], "path": ["0", "0", "1", "2", "3", "8", "10"], "rt": [1231, 25, 84, 382, 300], "actions": ["up", "up", "up", "left", "down"], "actionTimes": [3509, 4036, 4644, 5525, 6325], "queries": {"click": {"state": {"target": [], "time": []}, "edge": {"target": [], "time": []}}, "mouseover": {"state": {"target": ["0", "12"], "time": [2738, 2850]}, "edge": {"target": [], "time": []}}, "mouseout": {"state": {"target": ["0", "12", "25", "24", "18", "15", "18", "0", "23"], "time": [2801, 8462, 13460, 13501, 13628, 13806, 13861, 13901, 13918]}, "edge": {"target": [], "time": []}}}, "displayed_time": "16.28", "trialTime": 17853, "trial_type": "mouselab-mdp", "trial_index": 49, "time_elapsed": 1343638, "internal_node_id": "0.0-6.0-1.0-22.0"}}, {"uniqueid": "w13245283:a29248097", "current_trial": 50, "dateTime": 1693482423894, "trialdata": {"revealed_states": [], "clicked_states": [], "num_clicks_accrued": [0, 0, 0, 0, 0, 0, 0, 0, 0, 0, 0, 0, 0], "stateRewards": ["", -2, 3, -1, -9, 44, 48, -37, -3, 71, -39, 87, -1, 3, -4, 4, -21, 59, -15, -8, -1, 28, -38, 2, 4, 4, 8, -85, -72, -63, 14, 58, 63, -46], "withholdReward": false, "trial_id": "mdp_trial_24", "block": "test", "trialIndex": 31, "score": 87, "costs": 0, "simulationMode": [null, null, null, null, null], "rewards": [2, 4, 4, 14, 63], "path": ["0", "0", "23", "24", "25", "30", "32"], "rt": [1442, 146, 109, 348, 117], "actions": ["left", "left", "left", "down", "down"], "actionTimes": [3762, 4409, 5025, 5881, 6497], "queries": {"click": {"state": {"target": [], "time": []}, "edge": {"target": [], "time": []}}, "mouseover": {"state": {"target": [], "time": []}, "edge": {"target": [], "time": []}}, "mouseout": {"state": {"target": ["0"], "time": [2046]}, "edge": {"target": [], "time": []}}}, "displayed_time": "16.32", "trialTime": 18770, "trial_type": "mouselab-mdp", "trial_index": 50, "time_elapsed": 1362726, "internal_node_id": "0.0-6.0-1.0-23.0"}}, {"uniqueid": "w13245283:a29248097", "current_trial": 51, "dateTime": 1693482457661, "trialdata": {"revealed_states": [], "clicked_states": [], "num_clicks_accrued": [0, 0, 0, 0, 0, 0, 0, 0, 0, 0, 0, 0, 0], "stateRewards": ["", -1, -3, -5, -14, -13, -47, 79, 8, -60, -64, 41, -1, 2, 3, 13, -46, 61, -79, -11, -64, -65, 23, 1, -2, 6, -14, 46, 32, 21, 7, 75, -66, 15], "withholdReward": false, "trial_id": "mdp_trial_25", "block": "test", "trialIndex": 32, "score": 78, "costs": 0, "simulationMode": [null, null, null, null, null], "rewards": [-1, 2, 3, 13, 61], "path": ["0", "0", "12", "13", "14", "15", "17"], "rt": [1619, 281, 315, 306, 477], "actions": ["right", "right", "right", "up", "right"], "actionTimes": [16375, 17166, 17991, 18814, 19798], "queries": {"click": {"state": {"target": [], "time": []}, "edge": {"target": [], "time": []}}, "mouseover": {"state": {"target": [], "time": []}, "edge": {"target": [], "time": []}}, "mouseout": {"state": {"target": ["0"], "time": [14462]}, "edge": {"target": [], "time": []}}}, "displayed_time": "28.76", "trialTime": 33430, "trial_type": "mouselab-mdp", "trial_index": 51, "time_elapsed": 1396493, "internal_node_id": "0.0-6.0-1.0-24.0"}}, {"uniqueid": "w13245283:a29248097", "current_trial": 52, "dateTime": 1693482484789, "trialdata": {"revealed_states": [], "clicked_states": [], "num_clicks_accrued": [0, 0, 0, 0, 0, 0, 0, 0, 0, 0, 0, 0, 0], "stateRewards": ["", 1, 3, -2, 15, 51, 15, -19, 11, 67, -45, -73, 2, 4, -2, -13, 36, 9, -28, 10, -30, 31, 16, 1, 2, -1, -16, 14, -22, 36, -1, 88, -5, 45], "withholdReward": false, "trial_id": "mdp_trial_26", "block": "test", "trialIndex": 33, "score": 89, "costs": 0, "simulationMode": [null, null, null, null, null], "rewards": [1, 2, -1, -1, 88], "path": ["0", "0", "23", "24", "25", "30", "31"], "rt": [1439, 45, 118, 44, 257], "actions": ["left", "left", "left", "down", "right"], "actionTimes": [3305, 3873, 4489, 5040, 5808], "queries": {"click": {"state": {"target": [], "time": []}, "edge": {"target": [], "time": []}}, "mouseover": {"state": {"target": [], "time": []}, "edge": {"target": [], "time": []}}, "mouseout": {"state": {"target": ["0", "0", "31", "10", "8", "31", "24", "23", "19"], "time": [1664, 15424, 15921, 15960, 15973, 23056, 23733, 23941, 26747]}, "edge": {"target": [], "time": []}}}, "displayed_time": "15.87", "trialTime": 26760, "trial_type": "mouselab-mdp", "trial_index": 52, "time_elapsed": 1423620, "internal_node_id": "0.0-6.0-1.0-25.0"}}, {"uniqueid": "w13245283:a29248097", "current_trial": 53, "dateTime": 1693482510085, "trialdata": {"revealed_states": [], "clicked_states": [], "num_clicks_accrued": [0, 0, 0, 0, 0, 0, 0, 0, 0, 0, 0, 0, 0], "stateRewards": ["", 1, 3, 3, -10, 52, 68, 59, 12, 7, 49, 21, -2, -3, -4, -2, -2, 63, 63, -4, 44, 43, -76, -2, -3, -6, 13, 48, 36, 12, -5, -36, -33, -11], "withholdReward": false, "trial_id": "mdp_trial_27", "block": "test", "trialIndex": 34, "score": 52, "costs": 0, "simulationMode": [null, null, null, null, null], "rewards": [-2, -3, -4, -2, 63], "path": ["0", "0", "12", "13", "14", "15", "18"], "rt": [1159, 256, 427, 113, 39], "actions": ["right", "right", "right", "up", "left"], "actionTimes": [4645, 5405, 6340, 6957, 7501], "queries": {"click": {"state": {"target": [], "time": []}, "edge": {"target": [], "time": []}}, "mouseover": {"state": {"target": ["22", "20"], "time": [3902, 3932]}, "edge": {"target": [], "time": []}}, "mouseout": {"state": {"target": ["19", "22", "13", "12", "0", "22", "20", "14", "13", "12", "0", "23", "31"], "time": [1639, 2454, 2725, 2790, 3846, 3910, 3939, 22477, 22494, 22509, 22549, 22621, 22781]}, "edge": {"target": [], "time": []}}}, "displayed_time": "17.49", "trialTime": 24933, "trial_type": "mouselab-mdp", "trial_index": 53, "time_elapsed": 1448917, "internal_node_id": "0.0-6.0-1.0-26.0"}}, {"uniqueid": "w13245283:a29248097", "current_trial": 54, "dateTime": 1693482528358, "trialdata": {"revealed_states": [], "clicked_states": [], "num_clicks_accrued": [0, 0, 0, 0, 0, 0, 0, 0, 0, 0, 0, 0, 0], "stateRewards": ["", 1, -4, -4, 8, 1, -79, 68, -10, -79, 8, -74, -1, -3, -6, 14, 43, 23, 9, 5, -51, 63, 61, -2, 4, 6, -10, 69, -32, 57, 15, -80, -80, -77], "withholdReward": false, "trial_id": "mdp_trial_28", "block": "test", "trialIndex": 35, "score": -57, "costs": 0, "simulationMode": [null, null, null, null, null], "rewards": [-2, 4, 6, 15, -80], "path": ["0", "0", "23", "24", "25", "30", "31"], "rt": [2171, 21, 7, 354, 898], "actions": ["left", "left", "left", "down", "right"], "actionTimes": [4189, 4716, 5236, 6109, 7509], "queries": {"click": {"state": {"target": [], "time": []}, "edge": {"target": [], "time": []}}, "mouseover": {"state": {"target": [], "time": []}, "edge": {"target": [], "time": []}}, "mouseout": {"state": {"target": ["23", "23"], "time": [1148, 1395]}, "edge": {"target": [], "time": []}}}, "displayed_time": "16.02", "trialTime": 17926, "trial_type": "mouselab-mdp", "trial_index": 54, "time_elapsed": 1467190, "internal_node_id": "0.0-6.0-1.0-27.0"}}, {"uniqueid": "w13245283:a29248097", "current_trial": 55, "dateTime": 1693482545941, "trialdata": {"revealed_states": [], "clicked_states": [], "num_clicks_accrued": [0, 0, 0, 0, 0, 0, 0, 0, 0, 0, 0, 0, 0], "stateRewards": ["", -1, 1, 6, -6, 70, 66, 67, -16, -75, -35, 37, -1, 4, 4, -6, 47, -9, 63, 15, 21, -63, 13, 1, 3, -6, 10, 79, -29, 18, -15, 9, -67, -19], "withholdReward": false, "trial_id": "mdp_trial_29", "block": "test", "trialIndex": 36, "score": -36, "costs": 0, "simulationMode": [null, null, null, null, null], "rewards": [1, 3, -6, -15, -19], "path": ["0", "0", "23", "24", "25", "30", "33"], "rt": [1423, 39, 76, 915, 132], "actions": ["left", "left", "left", "down", "left"], "actionTimes": [3482, 4034, 4618, 6042, 6682], "queries": {"click": {"state": {"target": [], "time": []}, "edge": {"target": [], "time": []}}, "mouseover": {"state": {"target": ["0", "12", "13", "14"], "time": [2592, 2723, 2738, 2747]}, "edge": {"target": [], "time": []}}, "mouseout": {"state": {"target": ["0", "0", "12", "13", "14"], "time": [1680, 2704, 2736, 2746, 2756]}, "edge": {"target": [], "time": []}}}, "displayed_time": "16.06", "trialTime": 17226, "trial_type": "mouselab-mdp", "trial_index": 55, "time_elapsed": 1484773, "internal_node_id": "0.0-6.0-1.0-28.0"}}, {"uniqueid": "w13245283:a29248097", "current_trial": 56, "dateTime": 1693482584341, "trialdata": {"revealed_states": [], "clicked_states": ["1"], "num_clicks_accrued": [0, 0, 0, 0, 0, 0, 0, 0, 0, 0, 0, 0, 0], "stateRewards": ["", -1, 3, 8, 9, -53, 20, -84, 2, -28, -62, -31, -1, -2, -7, 2, 51, 58, 45, -4, -17, -41, 36, 2, -2, -7, -15, 29, -54, -37, -16, -43, 65, -17], "withholdReward": false, "trial_id": "mdp_trial_30", "block": "test", "trialIndex": 37, "score": 48.6, "costs": -1.4, "simulationMode": [null, null, null, null, null], "rewards": [-1, -2, -7, 2, 58], "path": ["0", "0", "12", "13", "14", "15", "17"], "rt": [2964, 347, 220, 59, 47], "actions": ["right", "right", "right", "up", "right"], "actionTimes": [6612, 7468, 8196, 8757, 9316], "queries": {"click": {"state": {"target": ["1"], "time": [4693]}, "edge": {"target": [], "time": []}}, "mouseover": {"state": {"target": ["1", "1", "0", "23", "0", "13", "14"], "time": [3819, 4458, 5256, 5343, 5820, 5871, 5886]}, "edge": {"target": [], "time": []}}, "mouseout": {"state": {"target": ["20", "19", "0", "0", "1", "1", "0", "23", "0", "13", "14"], "time": [2635, 2654, 3139, 3291, 4227, 5094, 5322, 5808, 5846, 5884, 5899]}, "edge": {"target": [], "time": []}}}, "displayed_time": "17.65", "trialTime": 38045, "trial_type": "mouselab-mdp", "trial_index": 56, "time_elapsed": 1523173, "internal_node_id": "0.0-6.0-1.0-29.0"}}, {"uniqueid": "w13245283:a29248097", "current_trial": 57, "dateTime": 1693482612501, "trialdata": {"revealed_states": [], "clicked_states": [], "num_clicks_accrued": [0, 0, 0, 0, 0, 0, 0, 0, 0, 0, 0, 0, 0], "stateRewards": ["", -2, 3, -5, -7, 66, 43, -60, -4, -70, -75, 4, -1, 2, 2, -13, 54, 11, -40, -1, 77, 32, 15, -2, 3, -8, -9, -35, 83, -27, 6, -74, -34, 44], "withholdReward": false, "trial_id": "mdp_trial_31", "block": "test", "trialIndex": 38, "score": -78, "costs": 0, "simulationMode": [null, null, null, null, null], "rewards": [-2, 3, -5, -4, -70], "path": ["0", "0", "1", "2", "3", "8", "9"], "rt": [1375, 240, 159, 36, 461], "actions": ["up", "up", "up", "left", "up"], "actionTimes": [4665, 5410, 6074, 6617, 7578], "queries": {"click": {"state": {"target": [], "time": []}, "edge": {"target": [], "time": []}}, "mouseover": {"state": {"target": [], "time": []}, "edge": {"target": [], "time": []}}, "mouseout": {"state": {"target": [], "time": []}, "edge": {"target": [], "time": []}}}, "displayed_time": "17.29", "trialTime": 27770, "trial_type": "mouselab-mdp", "trial_index": 57, "time_elapsed": 1551333, "internal_node_id": "0.0-6.0-1.0-30.0"}}, {"uniqueid": "w13245283:a29248097", "current_trial": 58, "dateTime": 1693482629781, "trialdata": {"revealed_states": [], "clicked_states": [], "num_clicks_accrued": [0, 0, 0, 0, 0, 0, 0, 0, 0, 0, 0, 0, 0], "stateRewards": ["", 1, -2, 4, 7, -43, -83, -60, -5, -86, -80, 83, -1, -2, 6, 11, -15, 21, 13, 9, 29, -49, 11, -1, 4, -6, -11, 87, 40, 63, -8, -39, -11, 62], "withholdReward": false, "trial_id": "mdp_trial_32", "block": "test", "trialIndex": 39, "score": -22, "costs": 0, "simulationMode": [null, null, null, null, null], "rewards": [-1, 4, -6, -8, -11], "path": ["0", "0", "23", "24", "25", "30", "32"], "rt": [1154, 294, 439, 294, 352], "actions": ["left", "left", "left", "down", "down"], "actionTimes": [2380, 3180, 4124, 4924, 5780], "queries": {"click": {"state": {"target": [], "time": []}, "edge": {"target": [], "time": []}}, "mouseover": {"state": {"target": [], "time": []}, "edge": {"target": [], "time": []}}, "mouseout": {"state": {"target": [], "time": []}, "edge": {"target": [], "time": []}}}, "displayed_time": "15.23", "trialTime": 16932, "trial_type": "mouselab-mdp", "trial_index": 58, "time_elapsed": 1568613, "internal_node_id": "0.0-6.0-1.0-31.0"}}, {"uniqueid": "w13245283:a29248097", "current_trial": 59, "dateTime": 1693482647822, "trialdata": {"revealed_states": [], "clicked_states": ["12"], "num_clicks_accrued": [0, 0, 0, 0, 0, 0, 0, 0, 0, 0, 0, 0, 0], "stateRewards": ["", 2, 4, -6, -13, -75, -81, 30, 7, 5, 59, -65, -1, -1, 7, 14, -38, 36, -41, 1, -54, -5, 64, 2, -1, 5, 6, -19, 79, 11, 16, -33, -50, 58], "withholdReward": false, "trial_id": "mdp_trial_33", "block": "test", "trialIndex": 40, "score": -89.4, "costs": -1.4, "simulationMode": [null, null, null, null, null], "rewards": [2, 4, -6, -13, -75], "path": ["0", "0", "1", "2", "3", "4", "5"], "rt": [4284, 320, 173, 44, 542], "actions": ["up", "up", "up", "right", "up"], "actionTimes": [5883, 6707, 7378, 7931, 8979], "queries": {"click": {"state": {"target": ["12"], "time": [3733]}, "edge": {"target": [], "time": []}}, "mouseover": {"state": {"target": ["0", "12", "0", "23", "0", "13", "13"], "time": [2068, 3067, 4393, 4580, 4803, 4873, 5198]}, "edge": {"target": [], "time": []}}, "mouseout": {"state": {"target": ["0", "10", "0", "12", "0", "23", "0", "12", "13"], "time": [548, 891, 2931, 4335, 4485, 4792, 4832, 4854, 4911]}, "edge": {"target": [], "time": []}}}, "displayed_time": "15.60", "trialTime": 17659, "trial_type": "mouselab-mdp", "trial_index": 59, "time_elapsed": 1586653, "internal_node_id": "0.0-6.0-1.0-32.0"}}, {"uniqueid": "w13245283:a29248097", "current_trial": 60, "dateTime": 1693482669653, "trialdata": {"revealed_states": [], "clicked_states": [], "num_clicks_accrued": [0, 0, 0, 0, 0, 0, 0, 0, 0, 0, 0, 0, 0], "stateRewards": ["", 2, 4, -3, 16, -58, 30, -35, 11, -60, 47, 27, -2, -1, -7, -16, 23, -70, 68, -10, -65, -43, -34, -2, 1, 7, 9, -63, 34, -31, -8, -12, -86, 59], "withholdReward": false, "trial_id": "mdp_trial_34", "block": "test", "trialIndex": 41, "score": -88, "costs": 0, "simulationMode": [null, null, null, null, null], "rewards": [-2, 1, 7, -8, -86], "path": ["0", "0", "23", "24", "25", "30", "32"], "rt": [1050, 325, 412, 263, 140], "actions": ["left", "left", "left", "down", "down"], "actionTimes": [4109, 4941, 5853, 6621, 7269], "queries": {"click": {"state": {"target": [], "time": []}, "edge": {"target": [], "time": []}}, "mouseover": {"state": {"target": [], "time": []}, "edge": {"target": [], "time": []}}, "mouseout": {"state": {"target": ["13", "12", "23", "1", "0"], "time": [1079, 1142, 1398, 1870, 2789]}, "edge": {"target": [], "time": []}}}, "displayed_time": "17.06", "trialTime": 21485, "trial_type": "mouselab-mdp", "trial_index": 60, "time_elapsed": 1608485, "internal_node_id": "0.0-6.0-1.0-33.0"}}, {"uniqueid": "w13245283:a29248097", "current_trial": 61, "dateTime": 1693482695517, "trialdata": {"revealed_states": [], "clicked_states": [], "num_clicks_accrued": [0, 0, 0, 0, 0, 0, 0, 0, 0, 0, 0, 0, 0], "stateRewards": ["", -1, 2, 7, 8, 75, 67, -11, 6, 52, -17, 38, -1, 4, -8, 14, 74, -37, -17, -12, 52, 55, 71, -2, -1, -5, 2, 21, 6, -88, -14, 64, -61, -47], "withholdReward": false, "trial_id": "mdp_trial_35", "block": "test", "trialIndex": 42, "score": -83, "costs": 0, "simulationMode": [null, null, null, null, null], "rewards": [-2, -1, -5, -14, -61], "path": ["0", "0", "23", "24", "25", "30", "32"], "rt": [1416, 314, 372, 443, 897], "actions": ["left", "left", "left", "down", "down"], "actionTimes": [3199, 4023, 4903, 5855, 7255], "queries": {"click": {"state": {"target": [], "time": []}, "edge": {"target": [], "time": []}}, "mouseover": {"state": {"target": [], "time": []}, "edge": {"target": [], "time": []}}, "mouseout": {"state": {"target": ["0"], "time": [1599]}, "edge": {"target": [], "time": []}}}, "displayed_time": "15.78", "trialTime": 25487, "trial_type": "mouselab-mdp", "trial_index": 61, "time_elapsed": 1634349, "internal_node_id": "0.0-6.0-1.0-34.0"}}, {"uniqueid": "w13245283:a29248097", "current_trial": 62, "dateTime": 1693482713300, "trialdata": {"revealed_states": [], "clicked_states": [], "num_clicks_accrued": [0, 0, 0, 0, 0, 0, 0, 0, 0, 0, 0, 0, 0], "stateRewards": ["", -2, 4, -7, -3, -76, 39, -28, 10, 14, 12, 60, 2, -3, 6, -10, 88, -34, -41, -3, 72, -13, -56, 1, 3, 2, 8, -51, 23, -57, 1, 14, -46, -16], "withholdReward": false, "trial_id": "mdp_trial_36", "block": "test", "trialIndex": 43, "score": -46, "costs": 0, "simulationMode": [null, null, null, null, null], "rewards": [2, -3, 6, -10, -41], "path": ["0", "0", "12", "13", "14", "15", "18"], "rt": [1079, 50, 335, 62, 260], "actions": ["right", "right", "right", "up", "left"], "actionTimes": [2738, 3298, 4138, 4698, 5465], "queries": {"click": {"state": {"target": [], "time": []}, "edge": {"target": [], "time": []}}, "mouseover": {"state": {"target": [], "time": []}, "edge": {"target": [], "time": []}}, "mouseout": {"state": {"target": ["0"], "time": [1439]}, "edge": {"target": [], "time": []}}}, "displayed_time": "15.66", "trialTime": 17425, "trial_type": "mouselab-mdp", "trial_index": 62, "time_elapsed": 1652132, "internal_node_id": "0.0-6.0-1.0-35.0"}}, {"uniqueid": "w13245283:a29248097", "current_trial": 63, "dateTime": 1693482729940, "trialdata": {"revealed_states": [], "clicked_states": ["23"], "num_clicks_accrued": [0, 0, 0, 0, 0, 0, 0, 0, 0, 0, 0, 0, 0], "stateRewards": ["", -1, -1, 4, -16, -75, 81, -51, -7, -84, 73, -30, -2, 1, -3, -16, -77, 33, 14, 1, 45, 87, -66, 2, 2, -5, -7, -19, -17, 79, -3, 8, 49, 47], "withholdReward": false, "trial_id": "mdp_trial_37", "block": "test", "trialIndex": 44, "score": 43.6, "costs": -1.4, "simulationMode": [null, null, null, null, null], "rewards": [2, 2, -5, -3, 49], "path": ["0", "0", "23", "24", "25", "30", "32"], "rt": [4968, 103, 285, 123, 211], "actions": ["left", "left", "left", "down", "down"], "actionTimes": [6084, 6691, 7476, 8099, 8811], "queries": {"click": {"state": {"target": ["23"], "time": [2402]}, "edge": {"target": [], "time": []}}, "mouseover": {"state": {"target": ["23", "1", "12", "0", "22", "19"], "time": [2024, 3204, 3858, 4487, 5008, 5017]}, "edge": {"target": [], "time": []}}, "mouseout": {"state": {"target": ["0", "23", "1", "12", "0", "23", "22", "19"], "time": [888, 3027, 3495, 4183, 4559, 4966, 5016, 5030]}, "edge": {"target": [], "time": []}}}, "displayed_time": "15.12", "trialTime": 16260, "trial_type": "mouselab-mdp", "trial_index": 63, "time_elapsed": 1668772, "internal_node_id": "0.0-6.0-1.0-36.0"}}, {"uniqueid": "w13245283:a29248097", "current_trial": 64, "dateTime": 1693482747596, "trialdata": {"revealed_states": [], "clicked_states": [], "num_clicks_accrued": [0, 0, 0, 0, 0, 0, 0, 0, 0, 0, 0, 0, 0], "stateRewards": ["", 1, 2, 2, -15, -84, 28, -26, 13, 31, 86, 30, -2, 1, -1, -8, 66, -40, -1, -10, -32, 57, -17, 1, 2, -2, 9, -23, 77, 85, 12, -32, -62, -35], "withholdReward": false, "trial_id": "mdp_trial_38", "block": "test", "trialIndex": 45, "score": -19, "costs": 0, "simulationMode": [null, null, null, null, null], "rewards": [1, 2, -2, 12, -32], "path": ["0", "0", "23", "24", "25", "30", "31"], "rt": [1368, 336, 208, 205, 240], "actions": ["left", "left", "left", "down", "right"], "actionTimes": [3811, 4650, 5363, 6075, 6827], "queries": {"click": {"state": {"target": [], "time": []}, "edge": {"target": [], "time": []}}, "mouseover": {"state": {"target": [], "time": []}, "edge": {"target": [], "time": []}}, "mouseout": {"state": {"target": ["19", "22", "12"], "time": [1519, 1543, 1830]}, "edge": {"target": [], "time": []}}}, "displayed_time": "16.45", "trialTime": 17283, "trial_type": "mouselab-mdp", "trial_index": 64, "time_elapsed": 1686428, "internal_node_id": "0.0-6.0-1.0-37.0"}}, {"uniqueid": "w13245283:a29248097", "current_trial": 65, "dateTime": 1693482766395, "trialdata": {"revealed_states": [], "clicked_states": [], "num_clicks_accrued": [0, 0, 0, 0, 0, 0, 0, 0, 0, 0, 0, 0, 0], "stateRewards": ["", -1, 4, 3, 12, -27, 34, -33, 3, -63, 1, 6, 2, 2, -6, -11, -77, -85, 68, -6, 51, 81, -60, -2, -2, 1, 15, 20, 15, 68, -10, -14, 6, -4], "withholdReward": false, "trial_id": "mdp_trial_39", "block": "test", "trialIndex": 46, "score": -7, "costs": 0, "simulationMode": [null, null, null, null, null], "rewards": [-2, -2, 1, -10, 6], "path": ["0", "0", "23", "24", "25", "30", "32"], "rt": [981, 238, 240, 272, 165], "actions": ["left", "left", "left", "down", "down"], "actionTimes": [2070, 2814, 3557, 4333, 4997], "queries": {"click": {"state": {"target": [], "time": []}, "edge": {"target": [], "time": []}}, "mouseover": {"state": {"target": [], "time": []}, "edge": {"target": [], "time": []}}, "mouseout": {"state": {"target": ["0", "12", "13", "21"], "time": [9079, 9128, 9136, 15037]}, "edge": {"target": [], "time": []}}}, "displayed_time": "15.09", "trialTime": 18357, "trial_type": "mouselab-mdp", "trial_index": 65, "time_elapsed": 1705226, "internal_node_id": "0.0-6.0-1.0-38.0"}}, {"uniqueid": "w13245283:a29248097", "current_trial": 66, "dateTime": 1693482784700, "trialdata": {"revealed_states": [], "clicked_states": [], "num_clicks_accrued": [0, 0, 0, 0, 0, 0, 0, 0, 0, 0, 0, 0, 0], "stateRewards": ["", 2, -2, -8, 9, -20, 55, -58, 14, 42, 2, 36, 1, -3, -5, 5, -58, 57, 60, 16, 57, 30, -70, -2, 1, 3, 10, 59, 23, 77, -13, -26, 88, -72], "withholdReward": false, "trial_id": "mdp_trial_40", "block": "test", "trialIndex": 47, "score": -37, "costs": 0, "simulationMode": [null, null, null, null, null], "rewards": [-2, 1, 3, -13, -26], "path": ["0", "0", "23", "24", "25", "30", "31"], "rt": [2426, 31, 161, 383, 45], "actions": ["left", "left", "left", "down", "right"], "actionTimes": [4437, 4972, 5637, 6525, 7076], "queries": {"click": {"state": {"target": [], "time": []}, "edge": {"target": [], "time": []}}, "mouseover": {"state": {"target": ["0"], "time": [2514]}, "edge": {"target": [], "time": []}}, "mouseout": {"state": {"target": ["0", "0"], "time": [1576, 2617]}, "edge": {"target": [], "time": []}}}, "displayed_time": "16.01", "trialTime": 17917, "trial_type": "mouselab-mdp", "trial_index": 66, "time_elapsed": 1723532, "internal_node_id": "0.0-6.0-1.0-39.0"}}, {"uniqueid": "w13245283:a29248097", "current_trial": 67, "dateTime": 1693482847484, "trialdata": {"rt": 62780, "response": {"Q0": "$-2 to $2", "Q1": "$-16 to $16", "Q2": "$-32 to $32", "Q3": "The cost was always $1.4.", "Q4": "Slightly motivated"}, "question_order": [0, 1, 2, 3, 4], "trial_id": "final_quiz_control", "trial_type": "survey-multi-choice", "trial_index": 67, "time_elapsed": 1786316, "internal_node_id": "0.0-6.0-2.0"}}, {"uniqueid": "w13245283:a29248097", "current_trial": 68, "dateTime": 1693482946199, "trialdata": {"rt": 98710, "response": {"Q0": "Sticking to previous steps that resulted in high cash earnings.", "Q1": "I started taking more risks which did't always pay off.", "Q2": "very difficult. i wanted to stick to old habits but even when that wasnt working I changed it up and it still didnt benefit me - I could have strategised better. "}, "trial_id": "self_report_control", "trial_type": "survey-text", "trial_index": 68, "time_elapsed": 1885030, "internal_node_id": "0.0-6.0-3.0"}}, {"uniqueid": "w13245283:a29248097", "current_trial": 69, "dateTime": 1693482982239, "trialdata": {"rt": 36037, "response": {"gender": "female", "age": "26", "colorblind": "0", "effort": "0"}, "trial_type": "survey-html-form", "trial_index": 69, "time_elapsed": 1921071, "internal_node_id": "0.0-6.0-4.0"}}, {"uniqueid": "w13245283:a29248097", "current_trial": 70, "dateTime": 1693483048065, "trialdata": {"rt": 65821, "response": {"Q0": "The nodes - but the practice round helped. Maybe have more practice rounds next time though. ", "Q1": "No I have never participated before", "Q2": ""}, "trial_type": "survey-text", "trial_index": 70, "time_elapsed": 1986896, "internal_node_id": "0.0-6.0-5.0"}}, {"uniqueid": "w13245283:a29248097", "current_trial": 71, "dateTime": 1693483096755, "trialdata": {"rt": 48688, "stimulus": "<h1>Completion Code Instructions (1/2)</h1>\n<br><br><br><br>\nYou have reached the end of the experiment! The completion code consists of two parts: (1) a code with 2 characters (2) a code with 6 characters. On this page, you will receive the second part of the code. The first part of the completion code will be on the next page.\n<br><br>\nThe second part of your completion code is: <b>EWEK22</b>\n<br><br>\nPlease note this down. Then, press 'Finish HIT' in order to find the first part of your completion code. Once the data has been saved, you will receive this code either in this window or in the original browser window where you started the experiment.\n", "response": 0, "trial_type": "html-button-response", "trial_index": 71, "time_elapsed": 2035587, "internal_node_id": "0.0-6.0-6.0"}}, {"uniqueid": "w13245283:a29248097", "current_trial": 72, "dateTime": 1693483097757, "trialdata": {"success": true, "trial_type": "fullscreen", "trial_index": 72, "time_elapsed": 2036589, "internal_node_id": "0.0-7.0"}}], "questiondata": {"params": {"CODE": "C6DMOQA6", "MIN_TIME": 14, "inspectCost": 1, "startTime": "Thu Aug 31 2023 13:24:18 GMT+0200 (South Africa Standard Time)", "bonusRate": 0.002, "variance": "1_2_4_8_44", "branching": "31123"}, "final_score": -190.4}, "eventdata": [{"eventtype": "initialized", "value": null, "timestamp": 1693481057227, "interval": 0}, {"eventtype": "window_resize", "value": [1028, 744], "timestamp": 1693481057228, "interval": 1}, {"eventtype": "window_resize", "value": [1028, 744], "timestamp": 1693481058093, "interval": 865}, {"eventtype": "focus", "value": "on", "timestamp": 1693481082595, "interval": 24502}, {"eventtype": "window_resize", "value": [1536, 864], "timestamp": 1693481105309, "interval": 22714}, {"eventtype": "focus", "value": "off", "timestamp": 1693481440011, "interval": 334702}, {"eventtype": "focus", "value": "on", "timestamp": 1693481440012, "interval": 1}, {"eventtype": "window_resize", "value": [1536, 758], "timestamp": 1693481440228, "interval": 216}, {"eventtype": "window_resize", "value": [1536, 864], "timestamp": 1693481442254, "interval": 2026}, {"eventtype": "focus", "value": "off", "timestamp": 1693481577024, "interval": 134770}, {"eventtype": "focus", "value": "on", "timestamp": 1693481577024, "interval": 0}, {"eventtype": "window_resize", "value": [1536, 758], "timestamp": 1693481577229, "interval": 205}, {"eventtype": "window_resize", "value": [1536, 864], "timestamp": 1693481579184, "interval": 1955}, {"eventtype": "focus", "value": "off", "timestamp": 1693481741117, "interval": 161933}, {"eventtype": "focus", "value": "on", "timestamp": 1693481741117, "interval": 0}, {"eventtype": "window_resize", "value": [1536, 758], "timestamp": 1693481741325, "interval": 208}, {"eventtype": "window_resize", "value": [1536, 864], "timestamp": 1693481743314, "interval": 1989}, {"eventtype": "focus", "value": "off", "timestamp": 1693482503850, "interval": 760536}, {"eventtype": "focus", "value": "on", "timestamp": 1693482509084, "interval": 5234}, {"eventtype": "focus", "value": "off", "timestamp": 1693482761543, "interval": 252459}, {"eventtype": "focus", "value": "on", "timestamp": 1693482766119, "interval": 4576}, {"eventtype": "window_resize", "value": [1536, 758], "timestamp": 1693482900915, "interval": 134796}], "useragent": "Mozilla/5.0 (Windows NT 10.0; Win64; x64) AppleWebKit/537.36 (KHTML, like Gecko) Chrome/116.0.0.0 Safari/537.36", "mode": "live", "id": "w13245283:a29248097", "status": "user data saved", "Beginhit": "2023-08-31 11:24:07.100923", "Beginexp": "2023-08-31 11:25:07.365064", "Endhit": "2023-08-31 11:58:20.061184", "psiturkStatus": 3, "browser": "<redacted>", "platform": "windows", "language": "en-US"}