{"condition": 1, "counterbalance": 0, "assignmentId": "a94559017", "workerId": "w14580506", "hitId": "h80781789", "currenttrial": 39, "bonus": 0, "data": [{"uniqueid": "w14580506:a94559017", "current_trial": 0, "dateTime": 1693389129595, "trialdata": {"success": true, "trial_type": "fullscreen", "trial_index": 0, "time_elapsed": 4834, "internal_node_id": "0.0-0.0"}}, {"uniqueid": "w14580506:a94559017", "current_trial": 1, "dateTime": 1693389152576, "trialdata": {"view_history": [{"page_index": 0, "viewing_time": 22974}], "rt": 22974, "trial_id": "exp_instructions_misaligned", "trial_type": "instructions", "trial_index": 1, "time_elapsed": 27816, "internal_node_id": "0.0-1.0"}}, {"uniqueid": "w14580506:a94559017", "current_trial": 2, "dateTime": 1693389425853, "trialdata": {"view_history": [{"page_index": 0, "viewing_time": 154451}, {"page_index": 1, "viewing_time": 67995}, {"page_index": 2, "viewing_time": 23480}, {"page_index": 3, "viewing_time": 27353}], "rt": 273280, "trial_id": "mouselab_instructions_1_misaligned", "trial_type": "instructions", "trial_index": 2, "time_elapsed": 301093, "internal_node_id": "0.0-2.0-1.0"}}, {"uniqueid": "w14580506:a94559017", "current_trial": 3, "dateTime": 1693389480999, "trialdata": {"revealed_states": [], "clicked_states": ["12", "13", "14"], "num_clicks_accrued": [0, 0, 0, 0, 0, 0, 0, 0, 0, 0, 0, 0, 0], "stateRewards": ["", -10, 10, 10, -10, 10, 10, 10, -10, -10, -10, -10, 10, -10, 10, 10, -10, -10, 10, -10, -10, -10, -10, -10, -10, -10, -10, -10, -10, 10, -10, -10, 10, 10], "withholdReward": false, "trial_id": "practice_1", "block": "test", "trialIndex": 0, "score": -8, "costs": -1.5, "simulationMode": [null, null, null, null, null], "rewards": [10, -10, 10, -10, -10], "path": ["0", "0", "12", "13", "14", "19", "22"], "rt": [27925, 660, 6543, 6819, 1392], "actions": ["right", "right", "right", "down", "left"], "actionTimes": [31399, 32591, 39673, 47033, 48972], "queries": {"click": {"state": {"target": ["12", "13", "14"], "time": [5459, 12010, 22438]}, "edge": {"target": [], "time": []}}, "mouseover": {"state": {"target": ["12", "13", "14", "14", "19"], "time": [5256, 9232, 18482, 20057, 26221]}, "edge": {"target": [], "time": []}}, "mouseout": {"state": {"target": ["0", "12", "13", "14", "14", "19", "14", "14", "19", "14", "14", "14", "19", "21", "19"], "time": [5060, 9168, 18445, 19010, 22563, 38166, 38222, 38470, 38740, 38846, 40399, 40493, 45140, 45439, 45536]}, "edge": {"target": [], "time": []}}}, "displayed_time": "49.51", "trialTime": 54887, "trial_type": "mouselab-mdp", "trial_index": 3, "time_elapsed": 356239, "internal_node_id": "0.0-2.0-2.0-0.0"}}, {"uniqueid": "w14580506:a94559017", "current_trial": 4, "dateTime": 1693389508331, "trialdata": {"revealed_states": [], "clicked_states": ["23", "1", "12", "13", "18"], "num_clicks_accrued": [0, 0, 0, 0, 0, 0, 0, 0, 0, 0, 0, 0, 0], "stateRewards": ["", 10, 10, -10, 10, -10, 10, 10, -10, -10, 10, 10, 10, -10, -10, -10, -10, 10, 10, -10, -10, 10, -10, 10, -10, 10, 10, -10, -10, 10, -10, -10, 10, -10], "withholdReward": false, "trial_id": "practice_2", "block": "test", "trialIndex": 1, "score": -29, "costs": -2.5, "simulationMode": [null, null, null, null, null], "rewards": [10, -10, -10, -10, -10], "path": ["0", "0", "12", "13", "14", "15", "16"], "rt": [16927, 1245, 630, 265, 561], "actions": ["right", "right", "right", "up", "up"], "actionTimes": [19723, 21505, 22672, 23473, 24570], "queries": {"click": {"state": {"target": ["23", "1", "12", "13", "18"], "time": [4658, 6098, 7532, 12985, 14553]}, "edge": {"target": [], "time": []}}, "mouseover": {"state": {"target": ["0", "23", "1", "12", "13", "18", "12"], "time": [3992, 4352, 5975, 6843, 12722, 13753, 17971]}, "edge": {"target": [], "time": []}}, "mouseout": {"state": {"target": ["22", "22", "12", "0", "23", "1", "12", "13", "18", "12"], "time": [1496, 1641, 1961, 4286, 5579, 6768, 12624, 13617, 17832, 68412]}, "edge": {"target": [], "time": []}}}, "displayed_time": "25.11", "trialTime": 27115, "trial_type": "mouselab-mdp", "trial_index": 4, "time_elapsed": 383571, "internal_node_id": "0.0-2.0-2.0-1.0"}}, {"uniqueid": "w14580506:a94559017", "current_trial": 5, "dateTime": 1693389563488, "trialdata": {"view_history": [{"page_index": 0, "viewing_time": 45583}, {"page_index": 1, "viewing_time": 9570}], "rt": 55153, "trial_id": "mouselab_instructions_2_misaligned", "trial_type": "instructions", "trial_index": 5, "time_elapsed": 438727, "internal_node_id": "0.0-2.0-3.0"}}, {"uniqueid": "w14580506:a94559017", "current_trial": 6, "dateTime": 1693389609446, "trialdata": {"rt": 45952, "response": {"Q0": "The cost for clicking on nodes may vary between nodes.", "Q1": "The better I perform the higher my bonus will be.", "Q2": "No, the amount of cash at each node of the web may be different each time.", "Q3": "To get the highest total score.", "Q4": "Only before moving the spider.", "Q5": "3 seconds"}, "question_order": [0, 1, 2, 3, 4, 5], "correct": {"Q0": "The cost for clicking on nodes may vary between nodes.", "Q1": "The better I perform the higher my bonus will be.", "Q2": "No, the amount of cash at each node of the web may be different each time.", "Q3": "To get the highest total score.", "Q4": "Only before moving the spider.", "Q5": "3 seconds"}, "trial_id": "mouselab_quiz_misaligned", "trial_type": "survey-multi-choice", "trial_index": 6, "time_elapsed": 484686, "internal_node_id": "0.0-2.0-4.0"}}, {"uniqueid": "w14580506:a94559017", "current_trial": 7, "dateTime": 1693389707339, "trialdata": {"rt": 97875, "response": {"Q0": "No"}, "question_order": [0], "trial_id": "repeat_check", "trial_type": "survey-multi-choice", "trial_index": 7, "time_elapsed": 582578, "internal_node_id": "0.0-4.0-0.0"}}, {"uniqueid": "w14580506:a94559017", "current_trial": 8, "dateTime": 1693389717817, "trialdata": {"rt": 10460, "stimulus": "\n<h1> Get ready to start the game! </h1>\n\nThank you for reading the instructions. Get ready start with the 40 rounds of this game.\n<br><br>\nIf you need to take a break, feel free to take one after the end of a round, before continuing to the next one.\n<br><br>\nRemember, the more money the spider gets, the bigger your bonus will be!\n<br><br>\n<div style='text-align: center;'>Press <code>space</code> to begin.</div>\n\n<br><br>\n(If, at any point, the <code>space</code> key does not take you to the next page, click once on the text and try again.)", "response": " ", "trial_id": "mdp_ready", "trial_type": "html-keyboard-response", "trial_index": 8, "time_elapsed": 593057, "internal_node_id": "0.0-6.0-0.0"}}, {"uniqueid": "w14580506:a94559017", "current_trial": 9, "dateTime": 1693389738665, "trialdata": {"revealed_states": [], "clicked_states": [], "num_clicks_accrued": [0, 0, 0, 0, 0, 0, 0, 0, 0, 0, 0, 0, 0], "stateRewards": ["", 1, 4, 5, -5, 58, -80, 75, 6, 25, -39, 46, 2, -2, 4, 2, 59, 31, -22, -12, -61, 15, 72, 1, -2, -7, 8, 77, 76, -23, -7, 71, -15, -3], "withholdReward": false, "trial_id": "mdp_trial_1", "block": "test", "trialIndex": 2, "score": -69, "costs": 0, "simulationMode": [null, null, null, null, null], "rewards": [2, -2, 4, -12, -61], "path": ["0", "0", "12", "13", "14", "19", "20"], "rt": [6375, 2224, 1031, 1166, 751], "actions": ["right", "right", "right", "down", "right"], "actionTimes": [9631, 12388, 13961, 15663, 16948], "queries": {"click": {"state": {"target": [], "time": []}, "edge": {"target": [], "time": []}}, "mouseover": {"state": {"target": ["12"], "time": [6541]}, "edge": {"target": [], "time": []}}, "mouseout": {"state": {"target": ["0"], "time": [6461]}, "edge": {"target": [], "time": []}}}, "displayed_time": "17.50", "trialTime": 20636, "trial_type": "mouselab-mdp", "trial_index": 9, "time_elapsed": 613905, "internal_node_id": "0.0-6.0-1.0-0.0"}}, {"uniqueid": "w14580506:a94559017", "current_trial": 10, "dateTime": 1693389771816, "trialdata": {"revealed_states": [], "clicked_states": ["23", "24", "1", "2", "7", "3", "8", "11"], "num_clicks_accrued": [0, 0, 0, 0, 0, 0, 0, 0, 0, 0, 0, 0, 0], "stateRewards": ["", 2, -1, 3, -12, -83, 6, -33, 9, 28, 24, -50, -2, -1, -2, -5, -87, 37, 82, 12, 80, -5, 10, -2, -3, -6, 9, 22, -1, 16, 9, 77, -62, 58], "withholdReward": false, "trial_id": "mdp_trial_2", "block": "test", "trialIndex": 3, "score": 34, "costs": -7, "simulationMode": [null, null, null, null, null, null], "rewards": [2, -1, 3, 9, 28], "path": ["0", "0", "1", "2", "3", "8", "9"], "rt": [16025, 5869, 139, 252, 314, 1061], "actions": ["up", "up", "up", "up", "left", "up"], "actionTimes": [19704, 25575, 26259, 27039, 27884, 29481], "queries": {"click": {"state": {"target": ["23", "24", "1", "2", "7", "3", "8", "11"], "time": [4524, 6333, 7892, 9128, 10677, 13538, 15956, 17487]}, "edge": {"target": [], "time": []}}, "mouseover": {"state": {"target": ["23", "24", "1", "2", "7", "3", "8", "11", "2", "1", "2", "16"], "time": [4261, 5792, 7610, 8887, 10461, 12053, 15150, 17173, 18772, 18908, 23333, 23909]}, "edge": {"target": [], "time": []}}, "mouseout": {"state": {"target": ["12", "12", "1", "10", "1", "0", "23", "24", "1", "2", "7", "2", "3", "8", "11", "8", "2", "1", "2", "16"], "time": [740, 796, 843, 900, 1296, 4180, 5678, 7127, 8798, 10406, 11462, 11771, 15060, 17091, 18304, 18370, 18829, 23300, 23341, 24435]}, "edge": {"target": [], "time": []}}}, "displayed_time": "30.02", "trialTime": 32943, "trial_type": "mouselab-mdp", "trial_index": 10, "time_elapsed": 647056, "internal_node_id": "0.0-6.0-1.0-1.0"}}, {"uniqueid": "w14580506:a94559017", "current_trial": 11, "dateTime": 1693389799583, "trialdata": {"revealed_states": [], "clicked_states": ["12", "13", "14", "19", "20", "15", "18", "17"], "num_clicks_accrued": [0, 0, 0, 0, 0, 0, 0, 0, 0, 0, 0, 0, 0], "stateRewards": ["", 1, 1, 4, 11, 83, -66, 18, -16, -23, 5, 25, 1, -3, 1, -12, 18, 24, -86, -11, -64, 36, 40, 2, 1, -6, 13, 55, 29, 72, -2, 81, -72, -41], "withholdReward": false, "trial_id": "mdp_trial_3", "block": "test", "trialIndex": 4, "score": -87.6, "costs": -10.6, "simulationMode": [null, null, null, null, null], "rewards": [2, 1, -6, -2, -72], "path": ["0", "0", "23", "24", "25", "30", "32"], "rt": [19651, 411, 330, 118, 343], "actions": ["left", "left", "left", "down", "down"], "actionTimes": [21605, 22550, 23421, 24074, 24948], "queries": {"click": {"state": {"target": ["12", "13", "14", "19", "20", "15", "18", "17"], "time": [4091, 5126, 6150, 7142, 8232, 11581, 13031, 17333]}, "edge": {"target": [], "time": []}}, "mouseover": {"state": {"target": ["12", "13", "14", "19", "20", "15", "18", "16", "17", "17"], "time": [3746, 4694, 5907, 6857, 7991, 9022, 12658, 13969, 15970, 16724]}, "edge": {"target": [], "time": []}}, "mouseout": {"state": {"target": ["15", "13", "0", "12", "13", "14", "19", "20", "15", "18", "16", "17", "17"], "time": [714, 778, 3623, 4647, 5867, 6791, 7924, 8750, 12593, 13641, 15871, 16002, 18491]}, "edge": {"target": [], "time": []}}}, "displayed_time": "25.49", "trialTime": 27546, "trial_type": "mouselab-mdp", "trial_index": 11, "time_elapsed": 674823, "internal_node_id": "0.0-6.0-1.0-2.0"}}, {"uniqueid": "w14580506:a94559017", "current_trial": 12, "dateTime": 1693389896047, "trialdata": {"revealed_states": [], "clicked_states": ["23", "24", "25", "30", "26", "28", "1", "2", "3", "4", "5", "6", "12", "13", "14", "15", "16"], "num_clicks_accrued": [0, 0, 0, 0, 0, 0, 0, 0, 0, 0, 0, 0, 0], "stateRewards": ["", 1, 2, 3, 16, 63, -25, 16, -4, -14, 82, -66, -1, -3, -3, -11, -14, 19, 46, 3, -34, -82, 66, -2, -3, 4, -5, -63, 77, -37, -1, -45, -41, 84], "withholdReward": false, "trial_id": "mdp_trial_4", "block": "test", "trialIndex": 5, "score": -20.95, "costs": -17.95, "simulationMode": [null, null, null, null, null], "rewards": [1, 2, 3, 16, -25], "path": ["0", "0", "1", "2", "3", "4", "6"], "rt": [41006, 176, 137, 139, 623], "actions": ["up", "up", "up", "right", "right"], "actionTimes": [44805, 45517, 46178, 46847, 47997], "queries": {"click": {"state": {"target": ["23", "24", "25", "30", "26", "28", "1", "2", "3", "4", "5", "6", "12", "13", "14", "15", "16"], "time": [4793, 6306, 8796, 11141, 13253, 14745, 17872, 20636, 22594, 23881, 25169, 28775, 32312, 34049, 35860, 37989, 39758]}, "edge": {"target": [], "time": []}}, "mouseover": {"state": {"target": ["23", "24", "25", "30", "25", "26", "28", "1", "2", "3", "4", "5", "6", "7", "12", "13", "14", "15", "16", "18", "0"], "time": [4477, 5810, 8639, 10180, 12409, 12728, 13995, 15350, 19995, 22362, 23500, 24793, 26442, 30143, 30643, 33102, 35043, 37314, 39290, 43323, 43833]}, "edge": {"target": [], "time": []}}, "mouseout": {"state": {"target": ["17", "14", "13", "12", "0", "23", "24", "25", "30", "25", "26", "28", "1", "2", "3", "4", "5", "6", "7", "12", "13", "14", "15", "16", "18"], "time": [1136, 1265, 1431, 2192, 4390, 5720, 8288, 10041, 12302, 12474, 13948, 15259, 19854, 22247, 23435, 24675, 26203, 30059, 30160, 33021, 34978, 37232, 39200, 43265, 43355]}, "edge": {"target": [], "time": []}}}, "displayed_time": "48.54", "trialTime": 96245, "trial_type": "mouselab-mdp", "trial_index": 12, "time_elapsed": 771286, "internal_node_id": "0.0-6.0-1.0-3.0"}}, {"uniqueid": "w14580506:a94559017", "current_trial": 13, "dateTime": 1693389932069, "trialdata": {"revealed_states": [], "clicked_states": ["23", "24", "25", "30", "32", "1", "2", "3", "8", "11"], "num_clicks_accrued": [0, 0, 0, 0, 0, 0, 0, 0, 0, 0, 0, 0, 0], "stateRewards": ["", -2, -1, -6, -14, -55, 78, -13, 11, 14, -71, 59, 2, 2, 6, -6, 9, 38, 14, 7, 85, 11, 68, 1, -4, -1, -3, -63, -85, 9, -2, 63, -86, -10], "withholdReward": false, "trial_id": "mdp_trial_5", "block": "test", "trialIndex": 6, "score": 51.5, "costs": -9.5, "simulationMode": [null, null, null, null, null], "rewards": [-2, -1, -6, 11, 59], "path": ["0", "0", "1", "2", "3", "8", "11"], "rt": [27537, 41, 108, 548, 172], "actions": ["up", "up", "up", "left", "left"], "actionTimes": [29336, 29906, 30539, 31612, 32321], "queries": {"click": {"state": {"target": ["23", "24", "25", "30", "32", "1", "2", "3", "8", "11"], "time": [3974, 5587, 7634, 9331, 11265, 15976, 17900, 20868, 23014, 25413]}, "edge": {"target": [], "time": []}}, "mouseover": {"state": {"target": ["23", "24", "25", "30", "32", "31", "28", "1", "2", "3", "8", "11", "8", "7"], "time": [3684, 5066, 7065, 8670, 10276, 14160, 14801, 15439, 17053, 20529, 22560, 24017, 27771, 27917]}, "edge": {"target": [], "time": []}}, "mouseout": {"state": {"target": ["0", "0", "0", "23", "24", "25", "30", "32", "31", "28", "1", "2", "3", "8", "11", "8"], "time": [466, 520, 3551, 4992, 6927, 8569, 10137, 13858, 14193, 15096, 16742, 20233, 22495, 23919, 27739, 27811]}, "edge": {"target": [], "time": []}}}, "displayed_time": "32.85", "trialTime": 35808, "trial_type": "mouselab-mdp", "trial_index": 13, "time_elapsed": 807309, "internal_node_id": "0.0-6.0-1.0-4.0"}}, {"uniqueid": "w14580506:a94559017", "current_trial": 14, "dateTime": 1693389974370, "trialdata": {"revealed_states": [], "clicked_states": ["12", "13", "14", "19", "21", "1", "2", "3", "4", "6", "23", "24", "25", "30", "31"], "num_clicks_accrued": [0, 0, 0, 0, 0, 0, 0, 0, 0, 0, 0, 0, 0], "stateRewards": ["", 2, 3, -1, 6, 44, -4, -59, -14, -3, 64, 16, 1, -3, 3, 6, 3, 49, 19, 3, -49, -14, -86, 1, 2, -3, -8, -33, 14, 32, -13, -77, -47, -67], "withholdReward": false, "trial_id": "mdp_trial_6", "block": "test", "trialIndex": 7, "score": -24.25, "costs": -14.25, "simulationMode": [null, null, null, null, null], "rewards": [1, -3, 3, 3, -14], "path": ["0", "0", "12", "13", "14", "19", "21"], "rt": [34306, 57, 113, 451, 240], "actions": ["right", "right", "right", "down", "down"], "actionTimes": [36677, 37271, 37909, 38881, 39669], "queries": {"click": {"state": {"target": ["12", "13", "14", "19", "21", "1", "2", "3", "4", "6", "23", "24", "25", "30", "31"], "time": [3267, 4627, 5929, 7206, 8550, 13326, 14826, 16209, 17871, 19848, 24726, 26260, 27497, 28774, 30323]}, "edge": {"target": [], "time": []}}, "mouseover": {"state": {"target": ["12", "13", "14", "19", "21", "20", "15", "18", "1", "2", "3", "4", "6", "6", "4", "3", "8", "10", "23", "24", "25", "30", "31", "0", "1"], "time": [2853, 3883, 5239, 6697, 8013, 12151, 12545, 12576, 12953, 14206, 15746, 17452, 18524, 18917, 23298, 23322, 23346, 23773, 24241, 25575, 26910, 28155, 29491, 34365, 34480]}, "edge": {"target": [], "time": []}}, "mouseout": {"state": {"target": ["7", "7", "16", "18", "12", "0", "0", "12", "13", "14", "19", "21", "20", "15", "18", "1", "2", "3", "4", "6", "6", "4", "3", "8", "10", "23", "24", "25", "30", "31", "0", "1"], "time": [681, 714, 978, 1034, 1363, 1452, 2806, 3771, 5189, 6588, 7907, 9170, 12160, 12560, 12618, 14116, 15599, 17371, 18475, 18836, 23281, 23313, 23338, 23709, 23838, 25467, 26798, 28048, 29409, 31031, 34397, 34520]}, "edge": {"target": [], "time": []}}}, "displayed_time": "40.20", "trialTime": 42090, "trial_type": "mouselab-mdp", "trial_index": 14, "time_elapsed": 849610, "internal_node_id": "0.0-6.0-1.0-5.0"}}, {"uniqueid": "w14580506:a94559017", "current_trial": 15, "dateTime": 1693390001529, "trialdata": {"revealed_states": [], "clicked_states": ["12", "13", "14", "15", "16", "1", "2", "3", "4", "7"], "num_clicks_accrued": [0, 0, 0, 0, 0, 0, 0, 0, 0, 0, 0, 0, 0], "stateRewards": ["", -2, -1, -2, -15, 87, 57, 29, -10, 77, -80, -7, 1, -3, 6, 14, -11, 87, -59, 4, -71, 16, -11, 2, 2, -7, 2, -47, 61, 50, 14, -20, 17, 81], "withholdReward": false, "trial_id": "mdp_trial_7", "block": "test", "trialIndex": 8, "score": -0.5, "costs": -9.5, "simulationMode": [null, null, null, null, null], "rewards": [-2, -1, -2, -15, 29], "path": ["0", "0", "1", "2", "3", "4", "7"], "rt": [18627, 613, 399, 244, 257], "actions": ["up", "up", "up", "right", "down"], "actionTimes": [20988, 22139, 23075, 23854, 24649], "queries": {"click": {"state": {"target": ["12", "13", "14", "15", "16", "1", "2", "3", "4", "7"], "time": [3516, 4638, 5883, 6903, 7929, 13115, 14079, 15030, 15875, 16685]}, "edge": {"target": [], "time": []}}, "mouseover": {"state": {"target": ["12", "13", "14", "15", "16", "1", "23", "1", "2", "3", "4", "7"], "time": [2972, 4251, 5404, 6535, 7675, 11886, 11959, 12502, 13728, 14736, 15579, 16327]}, "edge": {"target": [], "time": []}}, "mouseout": {"state": {"target": ["2", "8", "11", "0", "0", "12", "13", "14", "15", "16", "16", "1", "23", "1", "2", "3", "4", "7"], "time": [1040, 1104, 1145, 1498, 2917, 3988, 5316, 6405, 7429, 9035, 11803, 11902, 12224, 13209, 14646, 15514, 16252, 17464]}, "edge": {"target": [], "time": []}}}, "displayed_time": "25.18", "trialTime": 26945, "trial_type": "mouselab-mdp", "trial_index": 15, "time_elapsed": 876769, "internal_node_id": "0.0-6.0-1.0-6.0"}}, {"uniqueid": "w14580506:a94559017", "current_trial": 16, "dateTime": 1693390020243, "trialdata": {"revealed_states": [], "clicked_states": ["23", "24", "25", "26", "27"], "num_clicks_accrued": [0, 0, 0, 0, 0, 0, 0, 0, 0, 0, 0, 0, 0], "stateRewards": ["", -2, -4, -2, -13, -15, 87, -19, -6, -80, 30, 12, 1, 1, -8, 2, 55, 56, 15, 11, -68, -7, 55, -2, 3, -3, -3, 48, 62, 4, 1, -3, 69, -33], "withholdReward": false, "trial_id": "mdp_trial_8", "block": "test", "trialIndex": 9, "score": 38.25, "costs": -4.75, "simulationMode": [null, null, null, null, null], "rewards": [-2, 3, -3, -3, 48], "path": ["0", "0", "23", "24", "25", "26", "27"], "rt": [10051, 102, 138, 63, 92], "actions": ["left", "left", "left", "up", "up"], "actionTimes": [11882, 12516, 13185, 13777, 14406], "queries": {"click": {"state": {"target": ["23", "24", "25", "26", "27"], "time": [3392, 5023, 5885, 7057, 7934]}, "edge": {"target": [], "time": []}}, "mouseover": {"state": {"target": ["23", "1", "24", "25", "26", "27"], "time": [3118, 4330, 4783, 5657, 6805, 7681]}, "edge": {"target": [], "time": []}}, "mouseout": {"state": {"target": ["0", "23", "1", "24", "25", "26", "27"], "time": [3078, 4248, 4416, 5576, 6567, 7632, 8034]}, "edge": {"target": [], "time": []}}}, "displayed_time": "15.84", "trialTime": 18497, "trial_type": "mouselab-mdp", "trial_index": 16, "time_elapsed": 895482, "internal_node_id": "0.0-6.0-1.0-7.0"}}, {"uniqueid": "w14580506:a94559017", "current_trial": 17, "dateTime": 1693390058039, "trialdata": {"revealed_states": [], "clicked_states": ["1", "2", "3", "8", "11", "12", "13", "14", "15", "16", "23", "24", "25", "26", "27"], "num_clicks_accrued": [0, 0, 0, 0, 0, 0, 0, 0, 0, 0, 0, 0, 0], "stateRewards": ["", 1, 3, 1, -13, 52, -28, 67, -14, 3, 63, -70, -1, -4, 7, -11, -10, 47, -18, 6, 69, -9, -61, 2, 3, -6, 10, 63, -34, 40, -6, -79, -35, -32], "withholdReward": false, "trial_id": "mdp_trial_9", "block": "test", "trialIndex": 10, "score": 57.75, "costs": -14.25, "simulationMode": [null, null, null, null, null], "rewards": [2, 3, -6, 10, 63], "path": ["0", "0", "23", "24", "25", "26", "27"], "rt": [29076, 515, 407, 375, 304], "actions": ["left", "left", "left", "up", "up"], "actionTimes": [31398, 32445, 33385, 34303, 35151], "queries": {"click": {"state": {"target": ["1", "2", "3", "8", "11", "12", "13", "14", "15", "16", "23", "24", "25", "26", "27"], "time": [3662, 4968, 6159, 7819, 9473, 15033, 16071, 17072, 17933, 18875, 24341, 25301, 26166, 26973, 27922]}, "edge": {"target": [], "time": []}}, "mouseover": {"state": {"target": ["1", "2", "3", "8", "11", "12", "13", "14", "15", "16", "17", "13", "12", "0", "23", "24", "25", "26", "27"], "time": [3285, 4447, 5791, 7610, 9183, 14796, 15598, 16689, 17672, 18540, 23027, 23651, 23682, 23739, 24102, 24855, 25847, 26671, 27491]}, "edge": {"target": [], "time": []}}, "mouseout": {"state": {"target": ["2", "1", "1", "2", "3", "8", "11", "12", "12", "13", "14", "15", "16", "17", "13", "12", "0", "23", "24", "25", "26", "27"], "time": [1293, 1615, 4332, 5636, 7536, 9144, 11871, 15038, 15510, 16591, 17548, 18449, 19384, 23092, 23665, 23714, 23920, 24788, 25798, 26606, 27426, 27996]}, "edge": {"target": [], "time": []}}}, "displayed_time": "35.68", "trialTime": 37575, "trial_type": "mouselab-mdp", "trial_index": 17, "time_elapsed": 933279, "internal_node_id": "0.0-6.0-1.0-8.0"}}, {"uniqueid": "w14580506:a94559017", "current_trial": 18, "dateTime": 1693390075672, "trialdata": {"revealed_states": [], "clicked_states": ["1", "2", "3", "8", "11"], "num_clicks_accrued": [0, 0, 0, 0, 0, 0, 0, 0, 0, 0, 0, 0, 0], "stateRewards": ["", 1, -1, 1, 13, 31, -56, 72, 2, 41, 5, 63, -2, -3, -2, 3, -71, -26, 52, 13, -31, 24, -67, 2, -2, 5, 4, 66, 43, 72, 9, 86, -26, 44], "withholdReward": false, "trial_id": "mdp_trial_10", "block": "test", "trialIndex": 11, "score": 61.25, "costs": -4.75, "simulationMode": [null, null, null, null, null], "rewards": [1, -1, 1, 2, 63], "path": ["0", "0", "1", "2", "3", "8", "11"], "rt": [8210, 152, 146, 27, 149], "actions": ["up", "up", "up", "left", "left"], "actionTimes": [10169, 10848, 11525, 12088, 12761], "queries": {"click": {"state": {"target": ["1", "2", "3", "8", "11"], "time": [2829, 3726, 4564, 5307, 6044]}, "edge": {"target": [], "time": []}}, "mouseover": {"state": {"target": ["1", "2", "3", "8", "11"], "time": [2531, 3456, 4300, 5071, 5799]}, "edge": {"target": [], "time": []}}, "mouseout": {"state": {"target": ["10", "3", "2", "1", "0", "1", "2", "3", "8", "11"], "time": [859, 925, 1106, 1147, 2450, 3293, 4229, 5022, 5734, 6905]}, "edge": {"target": [], "time": []}}}, "displayed_time": "15.97", "trialTime": 17424, "trial_type": "mouselab-mdp", "trial_index": 18, "time_elapsed": 950912, "internal_node_id": "0.0-6.0-1.0-9.0"}}, {"uniqueid": "w14580506:a94559017", "current_trial": 19, "dateTime": 1693390098474, "trialdata": {"revealed_states": [], "clicked_states": ["23", "24", "25", "30", "32", "12", "13", "14", "19", "20"], "num_clicks_accrued": [0, 0, 0, 0, 0, 0, 0, 0, 0, 0, 0, 0, 0], "stateRewards": ["", -2, -3, 1, -7, 39, -67, 16, 5, -20, 73, 66, -1, 4, 5, -3, 23, -68, -87, -8, 3, -3, 17, 1, -4, -2, -13, -32, 34, 61, -5, -11, -18, 12], "withholdReward": false, "trial_id": "mdp_trial_11", "block": "test", "trialIndex": 12, "score": -6.5, "costs": -9.5, "simulationMode": [null, null, null, null, null], "rewards": [-1, 4, 5, -8, 3], "path": ["0", "0", "12", "13", "14", "19", "20"], "rt": [15322, 522, 234, 138, 244], "actions": ["right", "right", "right", "down", "right"], "actionTimes": [16933, 17978, 18755, 19427, 20200], "queries": {"click": {"state": {"target": ["23", "24", "25", "30", "32", "12", "13", "14", "19", "20"], "time": [2563, 3491, 4367, 5188, 5966, 10186, 10940, 11649, 12341, 12969]}, "edge": {"target": [], "time": []}}, "mouseover": {"state": {"target": ["23", "24", "25", "30", "32", "12", "13", "14", "19", "20"], "time": [2297, 3231, 4116, 4872, 5656, 9802, 10656, 11355, 12054, 12699]}, "edge": {"target": [], "time": []}}, "mouseout": {"state": {"target": ["10", "2", "1", "1", "0", "23", "24", "25", "30", "32", "12", "13", "14", "19", "20"], "time": [908, 1003, 1059, 1102, 2232, 3083, 4050, 4780, 5590, 6740, 10603, 11299, 12006, 12650, 13831]}, "edge": {"target": [], "time": []}}}, "displayed_time": "20.74", "trialTime": 22587, "trial_type": "mouselab-mdp", "trial_index": 19, "time_elapsed": 973714, "internal_node_id": "0.0-6.0-1.0-10.0"}}, {"uniqueid": "w14580506:a94559017", "current_trial": 20, "dateTime": 1693390116836, "trialdata": {"revealed_states": [], "clicked_states": ["1", "2", "3", "8", "9"], "num_clicks_accrued": [0, 0, 0, 0, 0, 0, 0, 0, 0, 0, 0, 0, 0], "stateRewards": ["", -1, 2, -2, 13, -56, -28, 10, 14, 53, -80, -29, 1, -3, -3, -14, 14, 9, -40, -9, 18, 18, 48, 1, 1, 1, -9, 64, -39, -9, 7, -52, -78, 7], "withholdReward": false, "trial_id": "mdp_trial_12", "block": "test", "trialIndex": 13, "score": 61.25, "costs": -4.75, "simulationMode": [null, null, null, null, null], "rewards": [-1, 2, -2, 14, 53], "path": ["0", "0", "1", "2", "3", "8", "9"], "rt": [7822, 181, 222, 206, 210], "actions": ["up", "up", "up", "left", "up"], "actionTimes": [9969, 10686, 11443, 12175, 12913], "queries": {"click": {"state": {"target": ["1", "2", "3", "8", "9"], "time": [2872, 3729, 4481, 5210, 5907]}, "edge": {"target": [], "time": []}}, "mouseover": {"state": {"target": ["1", "2", "3", "8", "9"], "time": [2624, 3517, 4254, 4967, 5655]}, "edge": {"target": [], "time": []}}, "mouseout": {"state": {"target": ["20", "19", "22", "0", "0", "1", "2", "3", "8", "9"], "time": [888, 1250, 1298, 1733, 2527, 3372, 4156, 4905, 5589, 6421]}, "edge": {"target": [], "time": []}}}, "displayed_time": "16.16", "trialTime": 18146, "trial_type": "mouselab-mdp", "trial_index": 20, "time_elapsed": 992075, "internal_node_id": "0.0-6.0-1.0-11.0"}}, {"uniqueid": "w14580506:a94559017", "current_trial": 21, "dateTime": 1693390135153, "trialdata": {"revealed_states": [], "clicked_states": ["1", "2", "3", "4", "6"], "num_clicks_accrued": [0, 0, 0, 0, 0, 0, 0, 0, 0, 0, 0, 0, 0], "stateRewards": ["", -1, -4, 8, 8, -68, 47, 24, -7, -61, 49, -69, -1, -1, 8, -7, 42, 1, -45, -11, 10, -63, -6, 1, 4, 6, -16, 79, -37, -58, -12, 81, 18, -53], "withholdReward": false, "trial_id": "mdp_trial_13", "block": "test", "trialIndex": 14, "score": 53.25, "costs": -4.75, "simulationMode": [null, null, null, null, null], "rewards": [-1, -4, 8, 8, 47], "path": ["0", "0", "1", "2", "3", "4", "6"], "rt": [9271, 100, 187, 132, 170], "actions": ["up", "up", "up", "right", "right"], "actionTimes": [11886, 12511, 13230, 13892, 14581], "queries": {"click": {"state": {"target": ["1", "2", "3", "4", "6"], "time": [3460, 4313, 5111, 5795, 6745]}, "edge": {"target": [], "time": []}}, "mouseover": {"state": {"target": ["1", "2", "3", "4", "6", "6"], "time": [3109, 4034, 4885, 5514, 6236, 6581]}, "edge": {"target": [], "time": []}}, "mouseout": {"state": {"target": ["9", "11", "3", "2", "1", "1", "2", "3", "4", "6", "6"], "time": [903, 1100, 1241, 1560, 1649, 3886, 4761, 5451, 6212, 6335, 7352]}, "edge": {"target": [], "time": []}}}, "displayed_time": "16.63", "trialTime": 18102, "trial_type": "mouselab-mdp", "trial_index": 21, "time_elapsed": 1010392, "internal_node_id": "0.0-6.0-1.0-12.0"}}, {"uniqueid": "w14580506:a94559017", "current_trial": 22, "dateTime": 1693390171126, "trialdata": {"revealed_states": [], "clicked_states": ["23", "24", "25", "26", "28", "12", "13", "14", "15", "16", "1", "2", "3", "8", "10"], "num_clicks_accrued": [0, 0, 0, 0, 0, 0, 0, 0, 0, 0, 0, 0, 0], "stateRewards": ["", 1, 2, -8, 9, 18, -83, -11, 6, -64, -48, 17, -2, -2, -5, -3, -24, -3, -86, -2, 48, -41, -22, -2, 4, 7, 8, 81, 13, -48, 10, 61, 19, 57], "withholdReward": false, "trial_id": "mdp_trial_14", "block": "test", "trialIndex": 15, "score": -66.25, "costs": -14.25, "simulationMode": [null, null, null, null, null], "rewards": [-2, -2, -5, -2, -41], "path": ["0", "0", "12", "13", "14", "19", "21"], "rt": [29311, 27, 149, 36, 155], "actions": ["right", "right", "right", "down", "down"], "actionTimes": [31415, 31986, 32658, 33229, 33914], "queries": {"click": {"state": {"target": ["23", "24", "25", "26", "28", "12", "13", "14", "15", "16", "1", "2", "3", "8", "10"], "time": [3056, 3797, 4543, 5247, 6077, 10549, 11298, 12085, 12815, 13462, 17700, 18378, 19103, 19768, 20538]}, "edge": {"target": [], "time": []}}, "mouseover": {"state": {"target": ["23", "24", "25", "26", "28", "1", "12", "13", "14", "15", "16", "1", "2", "3", "8", "10", "2", "4", "4", "7", "12", "1", "7", "4"], "time": [2743, 3537, 4325, 4995, 5816, 10073, 10253, 11071, 11842, 12464, 13185, 17446, 18147, 18860, 19526, 20236, 24143, 24184, 24405, 24479, 24914, 25634, 26093, 26461]}, "edge": {"target": [], "time": []}}, "mouseout": {"state": {"target": ["0", "23", "24", "25", "26", "28", "1", "12", "13", "14", "15", "16", "16", "1", "2", "3", "8", "10", "2", "4", "4", "7", "12", "1", "7"], "time": [2669, 3472, 4234, 4880, 5634, 6793, 10123, 10951, 11777, 12408, 13112, 13899, 17117, 18051, 18729, 19459, 20154, 21048, 24169, 24225, 24445, 24528, 24954, 25979, 26429]}, "edge": {"target": [], "time": []}}}, "displayed_time": "34.44", "trialTime": 35758, "trial_type": "mouselab-mdp", "trial_index": 22, "time_elapsed": 1046366, "internal_node_id": "0.0-6.0-1.0-13.0"}}, {"uniqueid": "w14580506:a94559017", "current_trial": 23, "dateTime": 1693390188227, "trialdata": {"revealed_states": [], "clicked_states": ["23", "24", "25", "30", "31"], "num_clicks_accrued": [0, 0, 0, 0, 0, 0, 0, 0, 0, 0, 0, 0, 0], "stateRewards": ["", 2, 3, -2, -8, -8, -41, 74, 15, -23, -80, 1, 1, 3, 3, -15, -63, -78, 67, 13, 75, -41, 86, 2, -2, 6, -3, -8, -49, 50, -6, 83, 74, 80], "withholdReward": false, "trial_id": "mdp_trial_15", "block": "test", "trialIndex": 16, "score": 78.25, "costs": -4.75, "simulationMode": [null, null, null, null, null], "rewards": [2, -2, 6, -6, 83], "path": ["0", "0", "23", "24", "25", "30", "31"], "rt": [7393, 32, 119, 66, 170], "actions": ["left", "left", "left", "down", "right"], "actionTimes": [9142, 9714, 10368, 10965, 11669], "queries": {"click": {"state": {"target": ["23", "24", "25", "30", "31"], "time": [2546, 3277, 4039, 4775, 5500]}, "edge": {"target": [], "time": []}}, "mouseover": {"state": {"target": ["23", "24", "25", "30", "31"], "time": [2258, 3000, 3836, 4467, 5189]}, "edge": {"target": [], "time": []}}, "mouseout": {"state": {"target": ["4", "4", "3", "10", "23", "0", "23", "24", "25", "30", "31"], "time": [520, 550, 576, 659, 1168, 2224, 2944, 3754, 4410, 5132, 6091]}, "edge": {"target": [], "time": []}}}, "displayed_time": "15.76", "trialTime": 16882, "trial_type": "mouselab-mdp", "trial_index": 23, "time_elapsed": 1063466, "internal_node_id": "0.0-6.0-1.0-14.0"}}, {"uniqueid": "w14580506:a94559017", "current_trial": 24, "dateTime": 1693390204861, "trialdata": {"revealed_states": [], "clicked_states": ["1", "2", "3", "4", "5"], "num_clicks_accrued": [0, 0, 0, 0, 0, 0, 0, 0, 0, 0, 0, 0, 0], "stateRewards": ["", 1, 2, -3, -6, 50, -7, 7, -7, -80, 21, -1, 2, 2, 4, -1, 33, 84, 1, 14, -53, 81, 6, -2, -2, -3, -9, -87, -38, -59, -5, -74, -3, -71], "withholdReward": false, "trial_id": "mdp_trial_16", "block": "test", "trialIndex": 17, "score": 39.25, "costs": -4.75, "simulationMode": [null, null, null, null, null], "rewards": [1, 2, -3, -6, 50], "path": ["0", "0", "1", "2", "3", "4", "5"], "rt": [7876, 13, 154, 128, 87], "actions": ["up", "up", "up", "right", "up"], "actionTimes": [9255, 9801, 10475, 11134, 11759], "queries": {"click": {"state": {"target": ["1", "2", "3", "4", "5"], "time": [2145, 2875, 3640, 4359, 5050]}, "edge": {"target": [], "time": []}}, "mouseover": {"state": {"target": ["1", "2", "3", "4", "5", "6", "12"], "time": [1821, 2640, 3442, 4073, 4746, 7163, 7754]}, "edge": {"target": [], "time": []}}, "mouseout": {"state": {"target": ["0", "0", "1", "2", "3", "4", "5", "6", "12"], "time": [701, 1764, 2152, 3313, 3991, 4664, 5541, 7213, 8425]}, "edge": {"target": [], "time": []}}}, "displayed_time": "15.39", "trialTime": 16422, "trial_type": "mouselab-mdp", "trial_index": 24, "time_elapsed": 1080100, "internal_node_id": "0.0-6.0-1.0-15.0"}}, {"uniqueid": "w14580506:a94559017", "current_trial": 25, "dateTime": 1693390221640, "trialdata": {"revealed_states": [], "clicked_states": ["12", "13", "14", "19", "21"], "num_clicks_accrued": [0, 0, 0, 0, 0, 0, 0, 0, 0, 0, 0, 0, 0], "stateRewards": ["", 2, -1, -1, 7, 11, -40, -22, -2, 69, 37, 8, -2, 4, -8, -12, -2, -72, -3, -12, 17, 63, 12, 1, 3, -7, 6, 25, 61, 61, -9, 28, -17, 27], "withholdReward": false, "trial_id": "mdp_trial_17", "block": "test", "trialIndex": 18, "score": 40.25, "costs": -4.75, "simulationMode": [null, null, null, null, null], "rewards": [-2, 4, -8, -12, 63], "path": ["0", "0", "12", "13", "14", "19", "21"], "rt": [7800, 49, 88, 4, 218], "actions": ["right", "right", "right", "down", "down"], "actionTimes": [9313, 9881, 10504, 11037, 11784], "queries": {"click": {"state": {"target": ["12", "13", "14", "19", "21"], "time": [2149, 2934, 3701, 4408, 5143]}, "edge": {"target": [], "time": []}}, "mouseover": {"state": {"target": ["12", "13", "14", "19", "21"], "time": [1919, 2616, 3401, 4132, 4850]}, "edge": {"target": [], "time": []}}, "mouseout": {"state": {"target": ["12", "0", "12", "13", "14", "19", "21"], "time": [674, 1830, 2541, 3319, 4083, 4736, 5826]}, "edge": {"target": [], "time": []}}}, "displayed_time": "15.53", "trialTime": 16562, "trial_type": "mouselab-mdp", "trial_index": 25, "time_elapsed": 1096879, "internal_node_id": "0.0-6.0-1.0-16.0"}}, {"uniqueid": "w14580506:a94559017", "current_trial": 26, "dateTime": 1693390255556, "trialdata": {"revealed_states": [], "clicked_states": ["23", "24", "25", "26", "27", "1", "2", "3", "4", "5", "12", "13", "14", "15", "16", "19", "21"], "num_clicks_accrued": [0, 0, 0, 0, 0, 0, 0, 0, 0, 0, 0, 0, 0], "stateRewards": ["", -2, -1, -3, -1, -78, -6, 2, -1, 22, -88, 32, 2, 2, -7, -8, -51, -17, 54, 2, -44, 54, 75, 2, -2, -8, -15, -29, 12, -67, 15, -1, -47, -47], "withholdReward": false, "trial_id": "mdp_trial_18", "block": "test", "trialIndex": 19, "score": 35.05, "costs": -17.95, "simulationMode": [null, null, null, null, null], "rewards": [2, 2, -7, 2, 54], "path": ["0", "0", "12", "13", "14", "19", "21"], "rt": [27372, 532, 222, 63, 177], "actions": ["right", "right", "right", "down", "down"], "actionTimes": [28729, 29786, 30541, 31133, 31847], "queries": {"click": {"state": {"target": ["23", "24", "25", "26", "27", "1", "2", "3", "4", "5", "12", "13", "14", "15", "16", "19", "21"], "time": [1894, 2572, 3289, 3930, 4624, 9598, 10431, 11160, 11913, 12610, 16797, 17531, 18260, 18917, 19663, 24104, 24918]}, "edge": {"target": [], "time": []}}, "mouseover": {"state": {"target": ["0", "23", "24", "25", "26", "27", "10", "2", "3", "1", "2", "3", "4", "5", "6", "12", "13", "14", "15", "16", "20", "19", "21"], "time": [1548, 1646, 2366, 3079, 3711, 4405, 5723, 5733, 8446, 9314, 10204, 10903, 11654, 12325, 16134, 16486, 17304, 18025, 18655, 19311, 23544, 23872, 24650]}, "edge": {"target": [], "time": []}}, "mouseout": {"state": {"target": ["23", "24", "24", "0", "23", "24", "25", "26", "27", "10", "2", "3", "1", "2", "3", "4", "5", "6", "12", "13", "14", "15", "16", "20", "19", "21"], "time": [515, 638, 745, 1589, 2301, 2997, 3620, 4323, 5146, 5727, 8428, 8484, 10122, 10845, 11548, 12271, 12614, 16142, 17206, 17919, 18599, 19256, 20008, 23610, 24592, 25462]}, "edge": {"target": [], "time": []}}}, "displayed_time": "32.39", "trialTime": 33699, "trial_type": "mouselab-mdp", "trial_index": 26, "time_elapsed": 1130795, "internal_node_id": "0.0-6.0-1.0-17.0"}}, {"uniqueid": "w14580506:a94559017", "current_trial": 27, "dateTime": 1693390276347, "trialdata": {"revealed_states": [], "clicked_states": ["23", "24", "25", "30", "32", "1", "2", "3", "4", "7"], "num_clicks_accrued": [0, 0, 0, 0, 0, 0, 0, 0, 0, 0, 0, 0, 0], "stateRewards": ["", -2, -1, -1, 5, -54, -87, 35, 2, -8, 20, -22, 1, 3, 6, 13, -75, -32, -55, -3, 56, 62, -22, -1, -4, -1, -7, -51, 84, 70, 7, -15, 5, 55], "withholdReward": false, "trial_id": "mdp_trial_19", "block": "test", "trialIndex": 20, "score": 26.5, "costs": -9.5, "simulationMode": [null, null, null, null, null], "rewards": [-2, -1, -1, 5, 35], "path": ["0", "0", "1", "2", "3", "4", "7"], "rt": [14215, 23, 106, 55, 55], "actions": ["up", "up", "up", "right", "down"], "actionTimes": [16123, 16683, 17316, 17897, 18480], "queries": {"click": {"state": {"target": ["23", "24", "25", "30", "32", "1", "2", "3", "4", "7"], "time": [2561, 3213, 3884, 4539, 5227, 9873, 10582, 11268, 11973, 12677]}, "edge": {"target": [], "time": []}}, "mouseover": {"state": {"target": ["23", "24", "25", "30", "32", "1", "2", "3", "4", "7"], "time": [2322, 2985, 3707, 4271, 4910, 9585, 10296, 11025, 11762, 12418]}, "edge": {"target": [], "time": []}}, "mouseout": {"state": {"target": ["21", "0", "23", "24", "25", "30", "32", "1", "2", "3", "4", "7"], "time": [988, 2282, 2936, 3583, 4213, 4853, 5643, 10255, 10662, 11639, 12327, 13114]}, "edge": {"target": [], "time": []}}}, "displayed_time": "19.01", "trialTime": 20577, "trial_type": "mouselab-mdp", "trial_index": 27, "time_elapsed": 1151587, "internal_node_id": "0.0-6.0-1.0-18.0"}}, {"uniqueid": "w14580506:a94559017", "current_trial": 28, "dateTime": 1693390293533, "trialdata": {"revealed_states": [], "clicked_states": ["12", "13", "14", "15", "18"], "num_clicks_accrued": [0, 0, 0, 0, 0, 0, 0, 0, 0, 0, 0, 0, 0], "stateRewards": ["", -1, -3, -7, -4, -85, -70, 79, 8, 84, -66, 42, 2, -2, -3, -16, -54, -66, 68, -3, 21, -14, 7, -2, -1, -3, -8, 75, 80, 86, -7, -84, 73, -16], "withholdReward": false, "trial_id": "mdp_trial_20", "block": "test", "trialIndex": 21, "score": 44.25, "costs": -4.75, "simulationMode": [null, null, null, null, null], "rewards": [2, -2, -3, -16, 68], "path": ["0", "0", "12", "13", "14", "15", "18"], "rt": [7656, 147, 156, 110, 94], "actions": ["right", "right", "right", "up", "left"], "actionTimes": [9393, 10065, 10757, 11394, 12028], "queries": {"click": {"state": {"target": ["12", "13", "14", "15", "18"], "time": [2606, 3365, 4043, 4692, 5256]}, "edge": {"target": [], "time": []}}, "mouseover": {"state": {"target": ["0", "12", "13", "14", "15", "18"], "time": [2083, 2156, 3162, 3793, 4457, 5070]}, "edge": {"target": [], "time": []}}, "mouseout": {"state": {"target": ["18", "12", "0", "0", "12", "13", "14", "15"], "time": [533, 688, 1533, 2115, 2968, 3719, 4369, 4924]}, "edge": {"target": [], "time": []}}}, "displayed_time": "15.75", "trialTime": 16973, "trial_type": "mouselab-mdp", "trial_index": 28, "time_elapsed": 1168773, "internal_node_id": "0.0-6.0-1.0-19.0"}}, {"uniqueid": "w14580506:a94559017", "current_trial": 29, "dateTime": 1693390313186, "trialdata": {"revealed_states": [], "clicked_states": ["23", "24", "25", "30", "32", "12", "13", "14", "15", "17"], "num_clicks_accrued": [0, 0, 0, 0, 0, 0, 0, 0, 0, 0, 0, 0, 0], "stateRewards": ["", -1, -3, -5, -14, -13, -47, 79, 8, -60, -64, 41, -1, 2, 3, 13, -46, 61, -79, -11, -64, -65, 23, 1, -2, 6, -14, 46, 32, 21, 7, 75, -66, 15], "withholdReward": false, "trial_id": "mdp_trial_21", "block": "test", "trialIndex": 22, "score": 68.5, "costs": -9.5, "simulationMode": [null, null, null, null, null], "rewards": [-1, 2, 3, 13, 61], "path": ["0", "0", "12", "13", "14", "15", "17"], "rt": [13607, 99, 112, 50, 120], "actions": ["right", "right", "right", "up", "right"], "actionTimes": [15223, 15845, 16490, 17078, 17715], "queries": {"click": {"state": {"target": ["23", "24", "25", "30", "32", "12", "13", "14", "15", "17"], "time": [2385, 3021, 3700, 4322, 4987, 9318, 9981, 10683, 11373, 12027]}, "edge": {"target": [], "time": []}}, "mouseover": {"state": {"target": ["23", "24", "25", "30", "32", "12", "13", "14", "15", "17"], "time": [1998, 2786, 3456, 4078, 4790, 9073, 9745, 10399, 11111, 11737]}, "edge": {"target": [], "time": []}}, "mouseout": {"state": {"target": ["18", "18", "12", "0", "23", "24", "25", "30", "32", "12", "13", "14", "15"], "time": [497, 548, 614, 1966, 2737, 3398, 4005, 4695, 4990, 9689, 10316, 11055, 11670]}, "edge": {"target": [], "time": []}}}, "displayed_time": "18.24", "trialTime": 19437, "trial_type": "mouselab-mdp", "trial_index": 29, "time_elapsed": 1188425, "internal_node_id": "0.0-6.0-1.0-20.0"}}, {"uniqueid": "w14580506:a94559017", "current_trial": 30, "dateTime": 1693390331378, "trialdata": {"revealed_states": [], "clicked_states": ["1", "2", "3", "4", "6"], "num_clicks_accrued": [0, 0, 0, 0, 0, 0, 0, 0, 0, 0, 0, 0, 0], "stateRewards": ["", -1, 4, 3, 12, -27, 34, -33, 3, -63, 1, 6, 2, 2, -6, -11, -77, -85, 68, -6, 51, 81, -60, -2, -2, 1, 15, 20, 15, 68, -10, -14, 6, -4], "withholdReward": false, "trial_id": "mdp_trial_22", "block": "test", "trialIndex": 23, "score": 47.25, "costs": -4.75, "simulationMode": [null, null, null, null, null], "rewards": [-1, 4, 3, 12, 34], "path": ["0", "0", "1", "2", "3", "4", "6"], "rt": [7297, 702, 396, 204, 270], "actions": ["up", "up", "up", "right", "right"], "actionTimes": [9007, 10231, 11175, 11916, 12715], "queries": {"click": {"state": {"target": ["1", "2", "3", "4", "6"], "time": [2392, 3101, 3774, 5135, 5741]}, "edge": {"target": [], "time": []}}, "mouseover": {"state": {"target": ["1", "2", "3", "4", "4", "6"], "time": [2146, 2924, 3538, 4228, 4998, 5496]}, "edge": {"target": [], "time": []}}, "mouseout": {"state": {"target": ["17", "17", "15", "18", "12", "0", "1", "2", "3", "4", "4", "6"], "time": [651, 713, 761, 788, 1139, 2029, 2745, 3456, 4195, 4349, 5440, 6282]}, "edge": {"target": [], "time": []}}}, "displayed_time": "15.72", "trialTime": 17979, "trial_type": "mouselab-mdp", "trial_index": 30, "time_elapsed": 1206618, "internal_node_id": "0.0-6.0-1.0-21.0"}}, {"uniqueid": "w14580506:a94559017", "current_trial": 31, "dateTime": 1693390348627, "trialdata": {"revealed_states": [], "clicked_states": ["23", "24", "25", "26", "28"], "num_clicks_accrued": [0, 0, 0, 0, 0, 0, 0, 0, 0, 0, 0, 0, 0], "stateRewards": ["", -1, -3, 4, -10, -5, 79, -87, -2, 53, 29, -20, -2, -1, -5, 10, 27, 86, 46, -16, -29, 40, 3, 2, 4, -1, -6, 37, 79, -29, 7, 86, -62, 29], "withholdReward": false, "trial_id": "mdp_trial_23", "block": "test", "trialIndex": 24, "score": 73.25, "costs": -4.75, "simulationMode": [null, null, null, null, null], "rewards": [2, 4, -1, -6, 79], "path": ["0", "0", "23", "24", "25", "26", "28"], "rt": [7120, 407, 269, 137, 109], "actions": ["left", "left", "left", "up", "right"], "actionTimes": [8628, 9559, 10369, 11037, 11676], "queries": {"click": {"state": {"target": ["23", "24", "25", "26", "28"], "time": [2205, 2856, 3504, 4200, 4823]}, "edge": {"target": [], "time": []}}, "mouseover": {"state": {"target": ["0", "23", "24", "25", "26", "28"], "time": [1838, 1960, 2654, 3268, 4079, 4596]}, "edge": {"target": [], "time": []}}, "mouseout": {"state": {"target": ["16", "18", "0", "23", "24", "25", "26", "28"], "time": [492, 754, 1893, 2575, 3220, 3842, 4534, 5596]}, "edge": {"target": [], "time": []}}}, "displayed_time": "15.53", "trialTime": 17029, "trial_type": "mouselab-mdp", "trial_index": 31, "time_elapsed": 1223866, "internal_node_id": "0.0-6.0-1.0-22.0"}}, {"uniqueid": "w14580506:a94559017", "current_trial": 32, "dateTime": 1693390375537, "trialdata": {"revealed_states": [], "clicked_states": ["1", "2", "3", "8", "10", "23", "24", "25", "30", "31", "12", "13", "14", "19", "20"], "num_clicks_accrued": [0, 0, 0, 0, 0, 0, 0, 0, 0, 0, 0, 0, 0], "stateRewards": ["", -1, 1, 6, -6, 70, 66, 67, -16, -75, -35, 37, -1, 4, 4, -6, 47, -9, 63, 15, 21, -63, 13, 1, 3, -6, 10, 79, -29, 18, -15, 9, -67, -19], "withholdReward": false, "trial_id": "mdp_trial_24", "block": "test", "trialIndex": 25, "score": 28.75, "costs": -14.25, "simulationMode": [null, null, null, null, null], "rewards": [-1, 4, 4, 15, 21], "path": ["0", "0", "12", "13", "14", "19", "20"], "rt": [20425, 103, 120, 205, 190], "actions": ["right", "right", "right", "down", "right"], "actionTimes": [22207, 22851, 23502, 24236, 24955], "queries": {"click": {"state": {"target": ["1", "2", "3", "8", "10", "23", "24", "25", "30", "31", "12", "13", "14", "19", "20"], "time": [2466, 3170, 3916, 4563, 5227, 9169, 9838, 10509, 11224, 11895, 15941, 16537, 17159, 17757, 18971]}, "edge": {"target": [], "time": []}}, "mouseover": {"state": {"target": ["1", "2", "3", "8", "10", "23", "24", "25", "30", "31", "12", "13", "14", "19", "20", "20"], "time": [2223, 3108, 3673, 4311, 4975, 8834, 9594, 10414, 10989, 11626, 15671, 16310, 16907, 17556, 18099, 18825]}, "edge": {"target": [], "time": []}}, "mouseout": {"state": {"target": ["1", "2", "3", "8", "10", "23", "24", "25", "30", "31", "12", "13", "14", "19", "20", "20"], "time": [2789, 3598, 4279, 4910, 6000, 9539, 10217, 10881, 11569, 12324, 16253, 16867, 17489, 18072, 18283, 19283]}, "edge": {"target": [], "time": []}}}, "displayed_time": "25.48", "trialTime": 26688, "trial_type": "mouselab-mdp", "trial_index": 32, "time_elapsed": 1250777, "internal_node_id": "0.0-6.0-1.0-23.0"}}, {"uniqueid": "w14580506:a94559017", "current_trial": 33, "dateTime": 1693390392694, "trialdata": {"revealed_states": [], "clicked_states": ["12", "13", "14", "15", "16"], "num_clicks_accrued": [0, 0, 0, 0, 0, 0, 0, 0, 0, 0, 0, 0, 0], "stateRewards": ["", -2, -1, -4, -15, -14, -67, 32, -3, -59, 63, 31, 2, -1, -7, -15, 71, -66, -27, -3, -54, -39, 72, 2, 1, 1, -13, 77, -40, 35, -9, 35, 75, 57], "withholdReward": false, "trial_id": "mdp_trial_25", "block": "test", "trialIndex": 26, "score": 45.25, "costs": -4.75, "simulationMode": [null, null, null, null, null], "rewards": [2, -1, -7, -15, 71], "path": ["0", "0", "12", "13", "14", "15", "16"], "rt": [7440, 450, 224, 132, 155], "actions": ["right", "right", "right", "up", "up"], "actionTimes": [9273, 10257, 11032, 11689, 12380], "queries": {"click": {"state": {"target": ["12", "13", "14", "15", "16"], "time": [2536, 3328, 4001, 4647, 5360]}, "edge": {"target": [], "time": []}}, "mouseover": {"state": {"target": ["12", "13", "14", "15", "16"], "time": [2250, 3126, 3699, 4568, 5133]}, "edge": {"target": [], "time": []}}, "mouseout": {"state": {"target": ["12", "0", "12", "13", "14", "15", "16"], "time": [1317, 2185, 3061, 3658, 4314, 5084, 6126]}, "edge": {"target": [], "time": []}}}, "displayed_time": "15.85", "trialTime": 16941, "trial_type": "mouselab-mdp", "trial_index": 33, "time_elapsed": 1267934, "internal_node_id": "0.0-6.0-1.0-24.0"}}, {"uniqueid": "w14580506:a94559017", "current_trial": 34, "dateTime": 1693390410935, "trialdata": {"revealed_states": [], "clicked_states": ["1", "2", "3", "8", "10"], "num_clicks_accrued": [0, 0, 0, 0, 0, 0, 0, 0, 0, 0, 0, 0, 0], "stateRewards": ["", -1, -2, 4, 9, 10, -75, 39, 16, -43, 88, -19, -1, 1, 2, 4, -31, 10, 73, 12, 41, -64, -81, -2, 2, -6, 1, -81, -1, -26, 3, -59, -3, -20], "withholdReward": false, "trial_id": "mdp_trial_26", "block": "test", "trialIndex": 27, "score": 100.25, "costs": -4.75, "simulationMode": [null, null, null, null, null], "rewards": [-1, -2, 4, 16, 88], "path": ["0", "0", "1", "2", "3", "8", "10"], "rt": [8326, 476, 305, 126, 159], "actions": ["up", "up", "up", "left", "down"], "actionTimes": [10081, 11096, 11942, 12596, 13280], "queries": {"click": {"state": {"target": ["1", "2", "3", "8", "10"], "time": [3190, 3908, 4589, 5267, 5931]}, "edge": {"target": [], "time": []}}, "mouseover": {"state": {"target": ["1", "2", "3", "8", "10"], "time": [3018, 3664, 4329, 5065, 5737]}, "edge": {"target": [], "time": []}}, "mouseout": {"state": {"target": ["0", "1", "2", "3", "8", "10", "10"], "time": [2592, 3590, 4230, 4975, 5638, 5942, 6957]}, "edge": {"target": [], "time": []}}}, "displayed_time": "15.77", "trialTime": 18027, "trial_type": "mouselab-mdp", "trial_index": 34, "time_elapsed": 1286174, "internal_node_id": "0.0-6.0-1.0-25.0"}}, {"uniqueid": "w14580506:a94559017", "current_trial": 35, "dateTime": 1693390433195, "trialdata": {"revealed_states": [], "clicked_states": ["1", "2", "3", "4", "5", "23", "24", "25", "30", "32"], "num_clicks_accrued": [0, 0, 0, 0, 0, 0, 0, 0, 0, 0, 0, 0, 0], "stateRewards": ["", 1, 1, -6, -2, 7, 77, 3, 16, -16, 66, 31, -1, 3, -8, -6, 33, -50, -48, 7, -60, -66, 36, 2, -3, 3, -7, -12, -61, -79, -4, 8, 74, -70], "withholdReward": false, "trial_id": "mdp_trial_27", "block": "test", "trialIndex": 28, "score": 62.5, "costs": -9.5, "simulationMode": [null, null, null, null, null], "rewards": [2, -3, 3, -4, 74], "path": ["0", "0", "23", "24", "25", "30", "32"], "rt": [15768, 98, 160, 112, 126], "actions": ["left", "left", "left", "down", "down"], "actionTimes": [17721, 18352, 19047, 19699, 20365], "queries": {"click": {"state": {"target": ["1", "2", "3", "4", "5", "23", "24", "25", "30", "32"], "time": [2726, 3380, 4052, 4779, 5486, 10601, 11289, 12658, 13279, 14000]}, "edge": {"target": [], "time": []}}, "mouseover": {"state": {"target": ["1", "2", "3", "4", "5", "6", "2", "23", "24", "25", "25", "30", "32"], "time": [2449, 3241, 3906, 4545, 5167, 9751, 9881, 10431, 11063, 12235, 12478, 13061, 13722]}, "edge": {"target": [], "time": []}}, "mouseout": {"state": {"target": ["2", "0", "1", "2", "3", "4", "5", "6", "2", "23", "24", "25", "25", "30", "30", "32"], "time": [917, 2366, 3088, 3766, 4414, 5128, 5581, 9775, 10104, 11021, 11675, 12347, 12980, 13284, 13657, 14502]}, "edge": {"target": [], "time": []}}}, "displayed_time": "20.90", "trialTime": 22038, "trial_type": "mouselab-mdp", "trial_index": 35, "time_elapsed": 1308435, "internal_node_id": "0.0-6.0-1.0-26.0"}}, {"uniqueid": "w14580506:a94559017", "current_trial": 36, "dateTime": 1693390450321, "trialdata": {"revealed_states": [], "clicked_states": ["12", "13", "14", "15", "17"], "num_clicks_accrued": [0, 0, 0, 0, 0, 0, 0, 0, 0, 0, 0, 0, 0], "stateRewards": ["", 1, 1, 1, -3, -7, -1, -41, -10, 20, -72, -63, 1, -4, -2, 2, -66, 30, -84, -2, 49, 23, 71, -1, -4, 4, -12, 67, 5, 18, -16, 88, 56, -5], "withholdReward": false, "trial_id": "mdp_trial_28", "block": "test", "trialIndex": 29, "score": 22.25, "costs": -4.75, "simulationMode": [null, null, null, null, null], "rewards": [1, -4, -2, 2, 30], "path": ["0", "0", "12", "13", "14", "15", "17"], "rt": [7208, 57, 126, 46, 97], "actions": ["right", "right", "right", "up", "right"], "actionTimes": [9070, 9657, 10308, 10877, 11497], "queries": {"click": {"state": {"target": ["12", "13", "14", "15", "17"], "time": [2522, 3181, 3828, 4492, 5106]}, "edge": {"target": [], "time": []}}, "mouseover": {"state": {"target": ["12", "13", "14", "15", "17"], "time": [2299, 2953, 3600, 4223, 4862]}, "edge": {"target": [], "time": []}}, "mouseout": {"state": {"target": ["0", "12", "0", "12", "13", "14", "15"], "time": [1037, 1135, 2258, 2857, 3543, 4158, 4813]}, "edge": {"target": [], "time": []}}}, "displayed_time": "15.88", "trialTime": 16893, "trial_type": "mouselab-mdp", "trial_index": 36, "time_elapsed": 1325561, "internal_node_id": "0.0-6.0-1.0-27.0"}}, {"uniqueid": "w14580506:a94559017", "current_trial": 37, "dateTime": 1693390466888, "trialdata": {"revealed_states": [], "clicked_states": ["23", "24", "25", "30", "32"], "num_clicks_accrued": [0, 0, 0, 0, 0, 0, 0, 0, 0, 0, 0, 0, 0], "stateRewards": ["", -2, 1, -8, 12, -65, -79, 16, 7, -80, -17, -45, -2, 2, -5, -2, -85, 23, -4, -7, 48, 27, -76, 2, 3, 5, 2, 43, 71, -13, 7, -49, 59, -31], "withholdReward": false, "trial_id": "mdp_trial_29", "block": "test", "trialIndex": 30, "score": 71.25, "costs": -4.75, "simulationMode": [null, null, null, null, null], "rewards": [2, 3, 5, 7, 59], "path": ["0", "0", "23", "24", "25", "30", "32"], "rt": [6986, 548, 162, 79, 151], "actions": ["left", "left", "left", "down", "down"], "actionTimes": [8360, 9451, 10149, 10766, 11456], "queries": {"click": {"state": {"target": ["23", "24", "25", "30", "32"], "time": [1996, 2634, 3304, 3954, 4623]}, "edge": {"target": [], "time": []}}, "mouseover": {"state": {"target": ["23", "24", "25", "30", "32"], "time": [1784, 2414, 3136, 3749, 4387]}, "edge": {"target": [], "time": []}}, "mouseout": {"state": {"target": ["17", "17", "14", "13", "12", "0", "23", "24", "25", "30", "32"], "time": [369, 407, 670, 703, 743, 1711, 2373, 3028, 3676, 4306, 4978]}, "edge": {"target": [], "time": []}}}, "displayed_time": "15.39", "trialTime": 16347, "trial_type": "mouselab-mdp", "trial_index": 37, "time_elapsed": 1342127, "internal_node_id": "0.0-6.0-1.0-28.0"}}, {"uniqueid": "w14580506:a94559017", "current_trial": 38, "dateTime": 1693390499446, "trialdata": {"revealed_states": [], "clicked_states": ["1", "2", "3", "8", "9", "12", "13", "14", "19", "21", "23", "24", "25", "26", "27", "30", "32"], "num_clicks_accrued": [0, 0, 0, 0, 0, 0, 0, 0, 0, 0, 0, 0, 0], "stateRewards": ["", -1, -2, -8, 8, -27, -82, 19, -14, -62, 4, 1, -2, 2, 6, 10, 73, -51, -2, 2, 73, -48, 54, -1, 2, -4, 11, -25, 47, 86, 15, 33, 43, -42], "withholdReward": false, "trial_id": "mdp_trial_30", "block": "test", "trialIndex": 31, "score": 37.05, "costs": -17.95, "simulationMode": [null, null, null, null, null], "rewards": [-1, 2, -4, 15, 43], "path": ["0", "0", "23", "24", "25", "30", "32"], "rt": [26766, 45, 100, 15, 106], "actions": ["left", "left", "left", "down", "down"], "actionTimes": [28248, 28826, 29463, 30013, 30653], "queries": {"click": {"state": {"target": ["1", "2", "3", "8", "9", "12", "13", "14", "19", "21", "23", "24", "25", "26", "27", "30", "32"], "time": [2107, 2782, 3511, 4133, 4849, 9513, 10219, 10841, 11407, 12038, 17269, 17874, 18718, 19423, 20046, 24314, 25055]}, "edge": {"target": [], "time": []}}, "mouseover": {"state": {"target": ["1", "2", "3", "8", "9", "3", "12", "12", "13", "14", "19", "21", "23", "24", "25", "26", "27", "30", "32"], "time": [1835, 2589, 3325, 3939, 4597, 8714, 9010, 9256, 9950, 10614, 11188, 11835, 17066, 17655, 18541, 19246, 19842, 24076, 24764]}, "edge": {"target": [], "time": []}}, "mouseout": {"state": {"target": ["0", "1", "2", "3", "8", "9", "3", "12", "12", "13", "14", "19", "21", "21", "23", "24", "25", "26", "27", "30", "32"], "time": [1171, 2182, 3179, 3891, 4533, 4927, 8722, 9017, 9885, 10557, 11131, 11721, 12042, 12416, 17607, 17954, 19156, 19768, 20572, 24682, 25591]}, "edge": {"target": [], "time": []}}}, "displayed_time": "31.18", "trialTime": 32349, "trial_type": "mouselab-mdp", "trial_index": 38, "time_elapsed": 1374686, "internal_node_id": "0.0-6.0-1.0-29.0"}}], "questiondata": {"params": {"CODE": "C6DMOQA6", "MIN_TIME": 14, "inspectCost": 1, "startTime": "Wed Aug 30 2023 10:52:04 GMT+0100 (British Summer Time)", "bonusRate": 0.002, "variance": "1_2_4_8_44", "branching": "31123"}}, "eventdata": [{"eventtype": "initialized", "value": null, "timestamp": 1693389123693, "interval": 0}, {"eventtype": "window_resize", "value": [1024, 740], "timestamp": 1693389123693, "interval": 0}, {"eventtype": "window_resize", "value": [1024, 740], "timestamp": 1693389124013, "interval": 320}, {"eventtype": "window_resize", "value": [1440, 900], "timestamp": 1693389128822, "interval": 4809}, {"eventtype": "window_resize", "value": [1024, 740], "timestamp": 1693390563423, "interval": 1434601}, {"eventtype": "focus", "value": "off", "timestamp": 1693390576515, "interval": 13092}, {"eventtype": "focus", "value": "on", "timestamp": 1693390578247, "interval": 1732}, {"eventtype": "focus", "value": "off", "timestamp": 1693390581094, "interval": 2847}, {"eventtype": "focus", "value": "on", "timestamp": 1693390581108, "interval": 14}, {"eventtype": "focus", "value": "off", "timestamp": 1693390583522, "interval": 2414}, {"eventtype": "focus", "value": "on", "timestamp": 1693390584694, "interval": 1172}], "useragent": "Mozilla/5.0 (Macintosh; Intel Mac OS X 10_15_7) AppleWebKit/605.1.15 (KHTML, like Gecko) Version/16.0 Safari/605.1.15", "mode": "live", "id": "w14580506:a94559017", "status": "user data saved", "Beginhit": "2023-08-30 09:52:04.524421", "Beginexp": "2023-08-30 09:52:11.71886", "Endhit": null, "psiturkStatus": 6, "browser": "<redacted>", "platform": "macos", "language": "en-gb", "excludeReason": "dataincomplete"}