{"condition": 0, "counterbalance": 0, "assignmentId": "a13806729", "workerId": "w42330923", "hitId": "h67154595", "currenttrial": 55, "bonus": 0, "data": [{"uniqueid": "w42330923:a13806729", "current_trial": 0, "dateTime": 1691142092924, "trialdata": {"success": true, "trial_type": "fullscreen", "trial_index": 0, "time_elapsed": 4351, "internal_node_id": "0.0-0.0"}}, {"uniqueid": "w42330923:a13806729", "current_trial": 1, "dateTime": 1691142110573, "trialdata": {"view_history": [{"page_index": 0, "viewing_time": 17593}], "rt": 17597, "trial_id": "exp_instructions_control", "trial_type": "instructions", "trial_index": 1, "time_elapsed": 22004, "internal_node_id": "0.0-1.0"}}, {"uniqueid": "w42330923:a13806729", "current_trial": 2, "dateTime": 1691142114969, "trialdata": {"success": true, "trial_type": "fullscreen", "trial_index": 2, "time_elapsed": 26400, "internal_node_id": "0.0-2.0-0.0"}}, {"uniqueid": "w42330923:a13806729", "current_trial": 3, "dateTime": 1691142294668, "trialdata": {"view_history": [{"page_index": 0, "viewing_time": 61542}, {"page_index": 1, "viewing_time": 65488}, {"page_index": 2, "viewing_time": 24705}, {"page_index": 3, "viewing_time": 27940}], "rt": 179680, "trial_id": "mouselab_instructions_1_control", "trial_type": "instructions", "trial_index": 3, "time_elapsed": 206099, "internal_node_id": "0.0-2.0-1.0"}}, {"uniqueid": "w42330923:a13806729", "current_trial": 4, "dateTime": 1691142375688, "trialdata": {"revealed_states": [], "clicked_states": ["14", "26", "3", "13", "12", "24", "30", "32", "33", "29", "4", "6", "22", "19", "20", "21"], "num_clicks_accrued": [0, 0, 0, 0, 0, 0, 0, 0, 0, 0, 0, 0, 0], "stateRewards": ["", 10, -10, 10, -10, -10, 10, 10, -10, -10, 10, -10, 10, -10, 10, 10, -10, -10, 10, -10, 10, -10, -10, -10, 10, 10, -10, -10, -10, 10, 10, 10, -10, 10], "withholdReward": false, "trial_id": "practice_1", "block": "test", "trialIndex": 0, "score": -14.5, "costs": -8, "simulationMode": [null, null, null, null, null], "rewards": [10, -10, 10, -10, -10], "path": ["0", "0", "1", "2", "3", "8", "9"], "rt": [50128, 4271, 2340, 2872, 1025], "actions": ["up", "up", "up", "left", "up"], "actionTimes": [56096, 61020, 63895, 67351, 68928], "queries": {"click": {"state": {"target": ["14", "26", "3", "13", "12", "24", "30", "32", "33", "29", "4", "6", "22", "19", "20", "21"], "time": [10032, 13030, 15264, 18586, 21084, 22903, 24795, 27048, 29384, 31423, 36168, 38157, 46898, 49156, 50855, 52204]}, "edge": {"target": [], "time": []}}, "mouseover": {"state": {"target": ["0", "14", "24", "26", "10", "3", "4", "6", "18", "13", "12", "0", "24", "30", "32", "31", "33", "29", "27", "10", "8", "3", "4", "6", "18", "0", "12", "22", "19", "20", "21", "12"], "time": [7368, 9040, 11624, 12043, 14355, 14562, 16294, 16640, 17395, 17792, 20020, 21837, 22348, 24143, 26356, 28283, 28712, 30688, 32501, 32699, 33469, 33673, 35503, 37157, 39816, 42817, 45971, 46281, 48023, 50213, 51754, 53812]}, "edge": {"target": [], "time": []}}, "mouseout": {"state": {"target": ["19", "13", "18", "12", "0", "14", "24", "26", "10", "3", "4", "6", "18", "13", "12", "0", "24", "30", "32", "31", "30", "33", "29", "27", "10", "8", "3", "4", "6", "18", "0", "12", "22", "19", "20", "21", "12"], "time": [null, 341, 2158, 2656, 7429, 10962, 11814, 14114, 14448, 16180, 16391, 17292, 17473, 19780, 21185, 21975, 24018, 25979, 27773, 28349, 28579, 29534, 31539, 32633, 32830, 33523, 35440, 37084, 39421, 40442, 43132, 46172, 47845, 50122, 51517, 52363, 53870]}, "edge": {"target": [], "time": []}}}, "displayed_time": "69.47", "trialTime": 77614, "trial_type": "mouselab-mdp", "trial_index": 4, "time_elapsed": 287116, "internal_node_id": "0.0-2.0-2.0-0.0"}}, {"uniqueid": "w42330923:a13806729", "current_trial": 5, "dateTime": 1691142433530, "trialdata": {"revealed_states": [], "clicked_states": ["24", "25", "12", "13", "14", "1", "2", "19", "21", "20", "22", "15", "16", "18", "17"], "num_clicks_accrued": [0, 0, 0, 0, 0, 0, 0, 0, 0, 0, 0, 0, 0], "stateRewards": ["", -10, -10, -10, -10, -10, -10, 10, -10, 10, 10, 10, -10, 10, 10, 10, 10, 10, 10, -10, -10, -10, -10, -10, -10, -10, 10, 10, -10, 10, -10, 10, 10, -10], "withholdReward": false, "trial_id": "practice_2", "block": "test", "trialIndex": 1, "score": 26, "costs": -7.5, "simulationMode": [null, null, null, null, null], "rewards": [-10, 10, 10, 10, 10], "path": ["0", "0", "12", "13", "14", "15", "18"], "rt": [38750, 1860, 435, 835, 550], "actions": ["right", "right", "right", "up", "left"], "actionTimes": [43133, 45576, 46576, 47954, 49054], "queries": {"click": {"state": {"target": ["24", "25", "12", "13", "14", "1", "2", "19", "21", "20", "22", "15", "16", "18", "17"], "time": [9163, 11133, 14405, 15918, 17396, 19826, 23276, 25730, 27055, 28377, 29610, 31922, 36037, 37515, 39507]}, "edge": {"target": [], "time": []}}, "mouseover": {"state": {"target": ["23", "24", "25", "26", "0", "12", "13", "14", "18", "1", "23", "23", "1", "2", "13", "19", "21", "20", "22", "15", "16", "18", "15", "17", "12"], "time": [8242, 8590, 10642, 12939, 13795, 13899, 15139, 17043, 18074, 18481, 18872, 19104, 19268, 22752, 24786, 25254, 26578, 28003, 29299, 31034, 32632, 37137, 38392, 39015, 42188]}, "edge": {"target": [], "time": []}}, "mouseout": {"state": {"target": ["23", "24", "25", "26", "0", "12", "13", "14", "18", "1", "23", "23", "1", "2", "13", "19", "21", "20", "22", "15", "16", "18", "15", "17", "12"], "time": [8424, 10489, 12546, 13525, 13878, 15054, 16905, 17980, 18190, 18820, 18907, 19172, 19933, 24438, 24838, 26473, 27851, 28991, 30927, 32490, 36684, 38293, 38476, 41871, 42319]}, "edge": {"target": [], "time": []}}}, "displayed_time": "49.64", "trialTime": 54921, "trial_type": "mouselab-mdp", "trial_index": 5, "time_elapsed": 344955, "internal_node_id": "0.0-2.0-2.0-1.0"}}, {"uniqueid": "w42330923:a13806729", "current_trial": 6, "dateTime": 1691142487795, "trialdata": {"view_history": [{"page_index": 0, "viewing_time": 43066}, {"page_index": 1, "viewing_time": 11179}], "rt": 54247, "trial_id": "mouselab_instructions_2_control", "trial_type": "instructions", "trial_index": 6, "time_elapsed": 399226, "internal_node_id": "0.0-2.0-3.0"}}, {"uniqueid": "w42330923:a13806729", "current_trial": 7, "dateTime": 1691142537364, "trialdata": {"rt": 49517, "response": {"Q0": "The cost for clicking on nodes may vary between nodes.", "Q1": "The better I perform the higher my bonus will be.", "Q2": "No, the amount of cash at each node of the web may be different each time.", "Q3": "To get the highest total score.", "Q4": "Only before moving the spider.", "Q5": "3 seconds"}, "question_order": [0, 1, 2, 3, 4, 5], "correct": {"Q0": "The cost for clicking on nodes may vary between nodes.", "Q1": "The better I perform the higher my bonus will be.", "Q2": "No, the amount of cash at each node of the web may be different each time.", "Q3": "To get the highest total score.", "Q4": "Only before moving the spider.", "Q5": "3 seconds"}, "trial_id": "mouselab_quiz_control", "trial_type": "survey-multi-choice", "trial_index": 7, "time_elapsed": 448795, "internal_node_id": "0.0-2.0-4.0"}}, {"uniqueid": "w42330923:a13806729", "current_trial": 8, "dateTime": 1691142552460, "trialdata": {"rt": 15053, "stimulus": "\n<h1> Get ready to start the game! </h1>\n\nThank you for reading the instructions. Get ready start with the 40 rounds of this game.\n<br><br>\nIf you need to take a break, feel free to take one after the end of a round, before continuing to the next one.\n<br><br>\nRemember, the more money the spider gets, the bigger your bonus will be!\n<br><br>\n<div style='text-align: center;'>Press <code>space</code> to begin.</div>\n\n<br><br>\n(If, at any point, the <code>space</code> key does not take you to the next page, click once on the text and try again.)", "response": " ", "trial_id": "mdp_ready", "trial_type": "html-keyboard-response", "trial_index": 8, "time_elapsed": 463891, "internal_node_id": "0.0-4.0-0.0"}}, {"uniqueid": "w42330923:a13806729", "current_trial": 9, "dateTime": 1691142609905, "trialdata": {"revealed_states": [], "clicked_states": ["23", "24", "25", "12", "13", "14", "15", "18", "17", "16", "19", "21", "22", "20"], "num_clicks_accrued": [0, 0, 0, 0, 0, 0, 0, 0, 0, 0, 0, 0, 0], "stateRewards": ["", -1, 2, -7, -12, -62, 12, -13, 5, 77, -71, 83, 1, -4, 7, 15, -42, -87, -4, 5, -25, 44, 88, -1, 4, -5, -8, 14, 51, 8, -5, 83, -24, -19], "withholdReward": false, "trial_id": "mdp_trial_1", "block": "test", "trialIndex": 2, "score": 77.4, "costs": -19.599999999999998, "simulationMode": [null, null, null, null, null], "rewards": [1, -4, 7, 5, 88], "path": ["0", "0", "12", "13", "14", "19", "22"], "rt": [38059, 211, 151, 543, 487], "actions": ["right", "right", "right", "down", "left"], "actionTimes": [43987, 44775, 45530, 46697, 47768], "queries": {"click": {"state": {"target": ["23", "24", "25", "12", "13", "14", "15", "18", "17", "16", "19", "21", "22", "20"], "time": [8575, 11358, 14468, 16199, 18847, 21176, 24038, 27730, 29378, 30967, 32687, 35392, 37676, 39461]}, "edge": {"target": [], "time": []}}, "mouseover": {"state": {"target": ["23", "24", "24", "25", "13", "12", "13", "14", "15", "18", "17", "16", "19", "21", "22", "19", "20", "12"], "time": [8136, 9357, 10835, 12170, 15644, 15941, 16925, 20457, 23475, 25314, 28894, 30565, 32135, 33630, 36394, 38750, 38837, 43301]}, "edge": {"target": [], "time": []}}, "mouseout": {"state": {"target": ["23", "23", "24", "24", "25", "24", "13", "12", "13", "14", "15", "18", "17", "16", "16", "19", "21", "22", "19", "20", "12", "0"], "time": [3769, 9270, 10351, 11910, 15157, 15235, 15818, 16906, 20138, 22041, 25289, 28558, 30448, 31061, 31921, 33514, 35569, 38721, 38821, 40213, 43394, 51878]}, "edge": {"target": [], "time": []}}}, "displayed_time": "48.33", "trialTime": 55072, "trial_type": "mouselab-mdp", "trial_index": 9, "time_elapsed": 521334, "internal_node_id": "0.0-4.0-1.0-0.0"}}, {"uniqueid": "w42330923:a13806729", "current_trial": 10, "dateTime": 1691142662047, "trialdata": {"revealed_states": [], "clicked_states": ["1", "2", "3", "8", "11", "4", "6", "5"], "num_clicks_accrued": [0, 0, 0, 0, 0, 0, 0, 0, 0, 0, 0, 0, 0], "stateRewards": ["", 1, -1, 8, 4, 76, -33, -17, -3, -1, -54, -74, -2, 2, -5, 13, -51, 63, 83, 1, 84, 29, -36, 2, -1, 7, -12, -10, -44, -43, -14, 8, -69, 19], "withholdReward": false, "trial_id": "mdp_trial_2", "block": "test", "trialIndex": 3, "score": 76.8, "costs": -11.200000000000001, "simulationMode": [null, null, null, null, null], "rewards": [1, -1, 8, 4, 76], "path": ["0", "0", "1", "2", "3", "4", "5"], "rt": [29209, 598, 353, 675, 137], "actions": ["up", "up", "up", "right", "up"], "actionTimes": [39830, 41016, 41921, 43190, 43866], "queries": {"click": {"state": {"target": ["1", "2", "3", "8", "11", "4", "6", "5"], "time": [12904, 15687, 18250, 21186, 23755, 26764, 29712, 32681]}, "edge": {"target": [], "time": []}}, "mouseover": {"state": {"target": ["1", "2", "3", "8", "11", "3", "4", "6", "4", "5", "2"], "time": [12354, 13529, 17623, 20643, 22463, 24701, 25922, 28969, 31786, 31980, 37770]}, "edge": {"target": [], "time": []}}, "mouseout": {"state": {"target": ["0", "1", "2", "3", "3", "8", "11", "3", "4", "6", "4", "5", "2", "18", "15", "20", "19"], "time": [12289, 13006, 16737, 19042, 20299, 22339, 24608, 24810, 27810, 30575, 31887, 33351, 37934, 47417, 47466, 49130, 49174]}, "edge": {"target": [], "time": []}}}, "displayed_time": "44.45", "trialTime": 49634, "trial_type": "mouselab-mdp", "trial_index": 10, "time_elapsed": 573477, "internal_node_id": "0.0-4.0-1.0-1.0"}}, {"uniqueid": "w42330923:a13806729", "current_trial": 11, "dateTime": 1691142722586, "trialdata": {"revealed_states": [], "clicked_states": ["23", "24", "25", "30", "32", "33", "31", "12", "13", "14", "15", "16", "18", "17", "19", "22", "21", "20"], "num_clicks_accrued": [0, 0, 0, 0, 0, 0, 0, 0, 0, 0, 0, 0, 0], "stateRewards": ["", -2, -1, -3, -1, -78, -6, 2, -1, 22, -88, 32, 2, 2, -7, -8, -51, -17, 54, 2, -44, 54, 75, 2, -2, -8, -15, -29, 12, -67, 15, -1, -47, -47], "withholdReward": false, "trial_id": "mdp_trial_3", "block": "test", "trialIndex": 4, "score": 48.80000000000001, "costs": -25.199999999999992, "simulationMode": [null, null, null, null, null], "rewards": [2, 2, -7, 2, 75], "path": ["0", "0", "12", "13", "14", "19", "22"], "rt": [44415, 131, 151, 722, 363], "actions": ["right", "right", "right", "down", "left"], "actionTimes": [47632, 48349, 49051, 50315, 51231], "queries": {"click": {"state": {"target": ["23", "24", "25", "30", "32", "33", "31", "12", "13", "14", "15", "16", "18", "17", "19", "22", "21", "20"], "time": [5242, 8238, 10839, 12814, 15713, 18246, 20593, 23460, 25327, 27430, 29826, 32201, 34026, 35997, 38621, 40623, 42523, 44928]}, "edge": {"target": [], "time": []}}, "mouseover": {"state": {"target": ["1", "23", "24", "25", "26", "30", "30", "32", "33", "30", "31", "0", "12", "13", "14", "15", "16", "18", "17", "19", "22", "21", "20"], "time": [4460, 4806, 5915, 9057, 11874, 12066, 12290, 15270, 16642, 18991, 19171, 21362, 21581, 24276, 26214, 29085, 31651, 33235, 35269, 38166, 39682, 41590, 44335]}, "edge": {"target": [], "time": []}}, "mouseout": {"state": {"target": ["0", "1", "23", "24", "25", "26", "30", "30", "32", "33", "30", "31", "0", "12", "13", "14", "15", "15", "16", "18", "17", "19", "19", "22", "21", "20"], "time": [3938, 4520, 5356, 8987, 11707, 11965, 12144, 13910, 15864, 18954, 19097, 21255, 21462, 23609, 26139, 28735, 29955, 31181, 32984, 34201, 37642, 38758, 39538, 41293, 43896, 46066]}, "edge": {"target": [], "time": []}}}, "displayed_time": "51.80", "trialTime": 57444, "trial_type": "mouselab-mdp", "trial_index": 11, "time_elapsed": 634012, "internal_node_id": "0.0-4.0-1.0-2.0"}}, {"uniqueid": "w42330923:a13806729", "current_trial": 12, "dateTime": 1691142770919, "trialdata": {"revealed_states": [], "clicked_states": ["1", "2", "3", "4", "6", "8", "11", "5", "9", "10", "7"], "num_clicks_accrued": [0, 0, 0, 0, 0, 0, 0, 0, 0, 0, 0, 0, 0], "stateRewards": ["", 1, -2, 7, -14, 88, -56, -44, -14, 64, -51, -57, -2, 3, -4, -9, -11, 19, -77, -1, 68, 75, -67, -1, 1, -2, 5, -37, 70, -34, -10, -72, 63, -41], "withholdReward": false, "trial_id": "mdp_trial_4", "block": "test", "trialIndex": 5, "score": 64.6, "costs": -15.400000000000002, "simulationMode": [null, null, null, null, null, null], "rewards": [1, -2, 7, -14, 88], "path": ["0", "0", "1", "2", "3", "4", "5"], "rt": [27154, 1951, 253, 2000, 535, 198], "actions": ["up", "up", "up", "up", "right", "up"], "actionTimes": [32263, 34236, 35049, 37619, 38708, 39460], "queries": {"click": {"state": {"target": ["1", "2", "3", "4", "6", "8", "11", "5", "9", "10", "7"], "time": [6937, 8562, 10731, 13048, 15637, 18446, 20775, 23675, 26376, 28414, 30697]}, "edge": {"target": [], "time": []}}, "mouseover": {"state": {"target": ["0", "0", "1", "2", "3", "4", "6", "8", "11", "8", "11", "3", "12", "7", "5", "9", "9", "10", "7"], "time": [6042, 6340, 6492, 8140, 9424, 12306, 14629, 16849, 17397, 18028, 20172, 21594, 22835, 22943, 23167, 24869, 25987, 27712, 29415]}, "edge": {"target": [], "time": []}}, "mouseout": {"state": {"target": ["14", "13", "12", "0", "0", "1", "2", "3", "4", "6", "8", "11", "8", "11", "8", "3", "12", "7", "5", "9", "9", "9", "10", "7"], "time": [2052, 2386, 2469, 6122, 6394, 7665, 8684, 11824, 14305, 16243, 17347, 17843, 18645, 21496, 21571, 21658, 22897, 23079, 24335, 25136, 26503, 27243, 28638, 31474]}, "edge": {"target": [], "time": []}}}, "displayed_time": "40.00", "trialTime": 45606, "trial_type": "mouselab-mdp", "trial_index": 12, "time_elapsed": 682344, "internal_node_id": "0.0-4.0-1.0-3.0"}}, {"uniqueid": "w42330923:a13806729", "current_trial": 13, "dateTime": 1691142813175, "trialdata": {"revealed_states": [], "clicked_states": ["23", "24", "25", "30", "32", "31", "33", "26", "27", "29", "28"], "num_clicks_accrued": [0, 0, 0, 0, 0, 0, 0, 0, 0, 0, 0, 0, 0], "stateRewards": ["", -1, -1, 4, -16, -75, 81, -51, -7, -84, 73, -30, -2, 1, -3, -16, -77, 33, 14, 1, 45, 87, -66, 2, 2, -5, -7, -19, -17, 79, -3, 8, 49, 47], "withholdReward": false, "trial_id": "mdp_trial_5", "block": "test", "trialIndex": 6, "score": 55.599999999999994, "costs": -15.400000000000002, "simulationMode": [null, null, null, null, null], "rewards": [2, 2, -5, -7, 79], "path": ["0", "0", "23", "24", "25", "26", "29"], "rt": [29345, 206, 99, 627, 1887], "actions": ["left", "left", "left", "up", "left"], "actionTimes": [33176, 33947, 34660, 35856, 38380], "queries": {"click": {"state": {"target": ["23", "24", "25", "30", "32", "31", "33", "26", "27", "29", "28"], "time": [6559, 8381, 11119, 13564, 15925, 18115, 20710, 23342, 25678, 27729, 30329]}, "edge": {"target": [], "time": []}}, "mouseover": {"state": {"target": ["23", "24", "25", "30", "32", "31", "30", "33", "26", "27", "29", "29", "26", "28", "23"], "time": [5687, 7592, 10724, 13113, 15311, 17573, 19733, 20115, 22473, 25050, 26629, 26947, 28462, 28727, 32094]}, "edge": {"target": [], "time": []}}, "mouseout": {"state": {"target": ["23", "24", "25", "30", "30", "32", "31", "30", "33", "26", "27", "29", "29", "26", "28", "28", "23"], "time": [7447, 9520, 11259, 13701, 14671, 16964, 18974, 19777, 21508, 24279, 26355, 26780, 27852, 28703, 30487, 31191, 32254]}, "edge": {"target": [], "time": []}}}, "displayed_time": "38.92", "trialTime": 39827, "trial_type": "mouselab-mdp", "trial_index": 13, "time_elapsed": 724601, "internal_node_id": "0.0-4.0-1.0-4.0"}}, {"uniqueid": "w42330923:a13806729", "current_trial": 14, "dateTime": 1691142837947, "trialdata": {"revealed_states": [], "clicked_states": [], "num_clicks_accrued": [0, 0, 0, 0, 0, 0, 0, 0, 0, 0, 0, 0, 0], "stateRewards": ["", -2, 2, 8, -6, -25, 3, 87, 2, -62, -2, 74, -2, -1, 2, -1, 79, 49, -37, -14, 5, 67, -9, -1, 2, -2, 5, 15, 38, 32, -14, -38, -38, 30], "withholdReward": false, "trial_id": "mdp_trial_6", "block": "test", "trialIndex": 7, "score": 77, "costs": 0, "simulationMode": [null, null, null, null, null], "rewards": [-2, -1, 2, -1, 79], "path": ["0", "0", "12", "13", "14", "15", "16"], "rt": [10213, 36, 182, 814, 10], "actions": ["right", "right", "right", "up", "up"], "actionTimes": [13666, 14298, 15066, 16447, 17026], "queries": {"click": {"state": {"target": [], "time": []}, "edge": {"target": [], "time": []}}, "mouseover": {"state": {"target": ["1", "2", "3", "4", "6", "6", "1"], "time": [4644, 5427, 5851, 6160, 6517, 9755, 11565]}, "edge": {"target": [], "time": []}}, "mouseout": {"state": {"target": ["0", "1", "2", "3", "4", "6", "6", "1"], "time": [1580, 5367, 5474, 6059, 6437, 9312, 11438, 12166]}, "edge": {"target": [], "time": []}}}, "displayed_time": "17.57", "trialTime": 22230, "trial_type": "mouselab-mdp", "trial_index": 14, "time_elapsed": 749376, "internal_node_id": "0.0-4.0-1.0-5.0"}}, {"uniqueid": "w42330923:a13806729", "current_trial": 15, "dateTime": 1691142877864, "trialdata": {"revealed_states": [], "clicked_states": ["21", "20", "22", "17", "16", "18", "31", "32", "33"], "num_clicks_accrued": [0, 0, 0, 0, 0, 0, 0, 0, 0, 0, 0, 0, 0], "stateRewards": ["", 2, 3, 6, -12, -29, 12, 87, 4, 35, -30, 67, 2, 3, -5, -9, 44, 69, -8, 1, 45, -8, 28, -2, -1, -8, 11, -12, -5, 81, 9, 87, 82, 88], "withholdReward": false, "trial_id": "mdp_trial_7", "block": "test", "trialIndex": 8, "score": 72.4, "costs": -12.600000000000001, "simulationMode": [null, null, null, null, null], "rewards": [-2, -1, -8, 9, 87], "path": ["0", "0", "23", "24", "25", "30", "31"], "rt": [25094, 8, 73, 445, 962], "actions": ["left", "left", "left", "down", "right"], "actionTimes": [28452, 29032, 29728, 30812, 32388], "queries": {"click": {"state": {"target": ["21", "20", "22", "17", "16", "18", "31", "32", "33"], "time": [5469, 7679, 9395, 12321, 15541, 17860, 20424, 22995, 25781]}, "edge": {"target": [], "time": []}}, "mouseover": {"state": {"target": ["22", "21", "20", "20", "22", "17", "16", "18", "12", "31", "32", "33"], "time": [4495, 4937, 6670, 7008, 8699, 11773, 13086, 16897, 18739, 19763, 22417, 25314]}, "edge": {"target": [], "time": []}}, "mouseout": {"state": {"target": ["0", "22", "21", "20", "20", "22", "17", "16", "18", "12", "31", "32", "33"], "time": [1740, 4579, 6143, 6770, 8427, 10437, 12972, 15681, 17936, 18789, 21643, 23127, 26557]}, "edge": {"target": [], "time": []}}}, "displayed_time": "32.97", "trialTime": 37062, "trial_type": "mouselab-mdp", "trial_index": 15, "time_elapsed": 789292, "internal_node_id": "0.0-4.0-1.0-6.0"}}, {"uniqueid": "w42330923:a13806729", "current_trial": 16, "dateTime": 1691142945985, "trialdata": {"revealed_states": [], "clicked_states": ["5", "6", "7", "10", "11", "9", "27", "28", "29", "33", "32", "31", "21", "20", "22"], "num_clicks_accrued": [0, 0, 0, 0, 0, 0, 0, 0, 0, 0, 0, 0, 0], "stateRewards": ["", 2, -1, -2, -5, -47, -57, -33, -11, 31, -18, -72, -2, 1, -4, -8, -46, -53, -50, 15, -85, -9, 39, -2, -2, 1, 14, -1, -8, 53, -12, -41, -74, 62], "withholdReward": false, "trial_id": "mdp_trial_8", "block": "test", "trialIndex": 9, "score": 26, "costs": -20.999999999999996, "simulationMode": [null, null, null, null, null], "rewards": [-2, -2, 1, -12, 62], "path": ["0", "0", "23", "24", "25", "30", "33"], "rt": [39668, 71, 64, 358, 205], "actions": ["left", "left", "left", "down", "left"], "actionTimes": [55338, 55997, 56633, 57559, 58313], "queries": {"click": {"state": {"target": ["5", "6", "7", "10", "11", "9", "27", "28", "29", "33", "32", "31", "21", "20", "22"], "time": [18063, 20392, 23042, 25783, 28206, 30431, 33072, 35999, 38304, 40595, 42818, 45342, 48480, 50596, 52857]}, "edge": {"target": [], "time": []}}, "mouseover": {"state": {"target": ["0", "1", "2", "3", "5", "6", "7", "10", "28", "11", "9", "27", "28", "28", "26", "29", "33", "32", "31", "21", "20", "19", "22"], "time": [16462, 16808, 16944, 17150, 17549, 18966, 22656, 25280, 26861, 27751, 29120, 32714, 34962, 35527, 36927, 37468, 39832, 41877, 44754, 48007, 49460, 51376, 52257]}, "edge": {"target": [], "time": []}}, "mouseout": {"state": {"target": ["0", "0", "1", "2", "3", "5", "6", "7", "10", "28", "11", "9", "27", "28", "28", "26", "29", "29", "33", "32", "31", "21", "20", "19", "22"], "time": [16132, 16683, 16898, 17006, 17236, 18541, 20971, 23168, 25909, 26942, 29040, 30514, 33203, 35116, 36752, 37348, 38395, 39156, 41634, 42918, 46960, 48608, 51283, 51837, 52964]}, "edge": {"target": [], "time": []}}}, "displayed_time": "58.86", "trialTime": 65333, "trial_type": "mouselab-mdp", "trial_index": 16, "time_elapsed": 857415, "internal_node_id": "0.0-4.0-1.0-7.0"}}, {"uniqueid": "w42330923:a13806729", "current_trial": 17, "dateTime": 1691142983800, "trialdata": {"revealed_states": [], "clicked_states": ["21", "22", "20", "32", "31", "33", "27", "29"], "num_clicks_accrued": [0, 0, 0, 0, 0, 0, 0, 0, 0, 0, 0, 0, 0], "stateRewards": ["", 1, -2, 4, 7, -43, -83, -60, -5, -86, -80, 83, -1, -2, 6, 11, -15, 21, 13, 9, 29, -49, 11, -1, 4, -6, -11, 87, 40, 63, -8, -39, -11, 62], "withholdReward": false, "trial_id": "mdp_trial_9", "block": "test", "trialIndex": 10, "score": 61.8, "costs": -11.200000000000001, "simulationMode": [null, null, null, null, null], "rewards": [-1, 4, -6, -11, 87], "path": ["0", "0", "23", "24", "25", "26", "27"], "rt": [24331, 106, 122, 454, 1576], "actions": ["left", "left", "left", "up", "up"], "actionTimes": [27806, 28510, 29221, 30268, 32391], "queries": {"click": {"state": {"target": ["21", "22", "20", "32", "31", "33", "27", "29"], "time": [6161, 9500, 11829, 14844, 17072, 19381, 22565, 24646]}, "edge": {"target": [], "time": []}}, "mouseover": {"state": {"target": ["12", "14", "19", "21", "22", "19", "20", "20", "32", "31", "33", "26", "27", "29", "28"], "time": [4491, 4815, 5045, 5782, 7338, 10142, 10283, 10611, 14388, 16257, 18394, 21590, 21888, 23712, 26277]}, "edge": {"target": [], "time": []}}, "mouseout": {"state": {"target": ["0", "12", "14", "19", "21", "22", "19", "20", "20", "32", "31", "33", "26", "27", "29", "28"], "time": [1757, 4628, 4885, 5624, 6247, 10121, 10221, 10366, 13200, 16149, 17175, 21210, 21677, 23343, 25511, 26719]}, "edge": {"target": [], "time": []}}}, "displayed_time": "32.95", "trialTime": 34626, "trial_type": "mouselab-mdp", "trial_index": 17, "time_elapsed": 895228, "internal_node_id": "0.0-4.0-1.0-8.0"}}, {"uniqueid": "w42330923:a13806729", "current_trial": 18, "dateTime": 1691143012427, "trialdata": {"revealed_states": [], "clicked_states": [], "num_clicks_accrued": [0, 0, 0, 0, 0, 0, 0, 0, 0, 0, 0, 0, 0], "stateRewards": ["", -2, -1, -4, -15, -14, -67, 32, -3, -59, 63, 31, 2, -1, -7, -15, 71, -66, -27, -3, -54, -39, 72, 2, 1, 1, -13, 77, -40, 35, -9, 35, 75, 57], "withholdReward": false, "trial_id": "mdp_trial_10", "block": "test", "trialIndex": 11, "score": -48, "costs": 0, "simulationMode": [null, null, null, null, null], "rewards": [2, -1, -7, -15, -27], "path": ["0", "0", "12", "13", "14", "15", "18"], "rt": [1067, 171, 105, 471, 1529], "actions": ["right", "right", "right", "up", "left"], "actionTimes": [7877, 8626, 9285, 10345, 12417], "queries": {"click": {"state": {"target": [], "time": []}, "edge": {"target": [], "time": []}}, "mouseover": {"state": {"target": [], "time": []}, "edge": {"target": [], "time": []}}, "mouseout": {"state": {"target": ["23", "0", "0", "18", "15"], "time": [2780, 7068, 14657, 15677, 15741]}, "edge": {"target": [], "time": []}}}, "displayed_time": "20.82", "trialTime": 26070, "trial_type": "mouselab-mdp", "trial_index": 18, "time_elapsed": 923857, "internal_node_id": "0.0-4.0-1.0-9.0"}}, {"uniqueid": "w42330923:a13806729", "current_trial": 19, "dateTime": 1691143036603, "trialdata": {"revealed_states": [], "clicked_states": [], "num_clicks_accrued": [0, 0, 0, 0, 0, 0, 0, 0, 0, 0, 0, 0, 0], "stateRewards": ["", 1, -1, 1, -14, -10, 67, -28, -11, 72, 40, -65, -1, 1, 1, -2, 8, -55, 34, -10, 61, 33, -15, 2, -4, 7, 4, -75, 63, -21, -16, 61, 19, 21], "withholdReward": false, "trial_id": "mdp_trial_11", "block": "test", "trialIndex": 12, "score": 50, "costs": 0, "simulationMode": [null, null, null, null, null], "rewards": [2, -4, 7, -16, 61], "path": ["0", "0", "23", "24", "25", "30", "31"], "rt": [2440, 96, 722, 656, 835], "actions": ["left", "left", "left", "down", "right"], "actionTimes": [6881, 7545, 8858, 10084, 11514], "queries": {"click": {"state": {"target": [], "time": []}, "edge": {"target": [], "time": []}}, "mouseover": {"state": {"target": [], "time": []}, "edge": {"target": [], "time": []}}, "mouseout": {"state": {"target": ["18", "1"], "time": [1132, 1277]}, "edge": {"target": [], "time": []}}}, "displayed_time": "18.44", "trialTime": 20771, "trial_type": "mouselab-mdp", "trial_index": 19, "time_elapsed": 948033, "internal_node_id": "0.0-4.0-1.0-10.0"}}, {"uniqueid": "w42330923:a13806729", "current_trial": 20, "dateTime": 1691143058563, "trialdata": {"revealed_states": [], "clicked_states": [], "num_clicks_accrued": [0, 0, 0, 0, 0, 0, 0, 0, 0, 0, 0, 0, 0], "stateRewards": ["", 2, 3, -3, 12, -43, 81, -82, -15, 58, -7, -75, -1, -1, 3, -5, 50, -25, -8, 4, 66, 65, -66, 2, -4, 2, -1, -10, 10, 37, 11, 88, -37, 8], "withholdReward": false, "trial_id": "mdp_trial_12", "block": "test", "trialIndex": 13, "score": -88, "costs": 0, "simulationMode": [null, null, null, null, null], "rewards": [2, 3, -3, -15, -75], "path": ["0", "0", "1", "2", "3", "8", "11"], "rt": [1807, 210, 1532, 507, 956], "actions": ["up", "up", "up", "left", "left"], "actionTimes": [5216, 5976, 8104, 9170, 10692], "queries": {"click": {"state": {"target": [], "time": []}, "edge": {"target": [], "time": []}}, "mouseover": {"state": {"target": [], "time": []}, "edge": {"target": [], "time": []}}, "mouseout": {"state": {"target": ["14", "13", "0", "12"], "time": [1126, 1182, 13481, 13553]}, "edge": {"target": [], "time": []}}}, "displayed_time": "17.41", "trialTime": 19002, "trial_type": "mouselab-mdp", "trial_index": 20, "time_elapsed": 969992, "internal_node_id": "0.0-4.0-1.0-11.0"}}, {"uniqueid": "w42330923:a13806729", "current_trial": 21, "dateTime": 1691143080197, "trialdata": {"revealed_states": [], "clicked_states": ["5"], "num_clicks_accrued": [0, 0, 0, 0, 0, 0, 0, 0, 0, 0, 0, 0, 0], "stateRewards": ["", 1, 1, 7, -11, 80, -20, -53, -14, 3, 31, 27, 2, -1, -8, -10, 33, 41, 86, 9, 78, -37, -13, -1, -2, -6, -8, -80, 75, 4, -16, -49, -74, 24], "withholdReward": false, "trial_id": "mdp_trial_13", "block": "test", "trialIndex": 14, "score": 76.6, "costs": -1.4, "simulationMode": [null, null, null, null, null], "rewards": [1, 1, 7, -11, 80], "path": ["0", "0", "1", "2", "3", "4", "5"], "rt": [5650, 11, 10, 484, 141], "actions": ["up", "up", "up", "right", "up"], "actionTimes": [9570, 10136, 10729, 11832, 12530], "queries": {"click": {"state": {"target": ["5"], "time": [5603]}, "edge": {"target": [], "time": []}}, "mouseover": {"state": {"target": ["7", "4", "5", "6", "6"], "time": [4780, 4891, 5181, 6482, 7982]}, "edge": {"target": [], "time": []}}, "mouseout": {"state": {"target": ["14", "1", "7", "4", "5", "5", "6", "6"], "time": [1108, 1224, 4827, 5076, 5737, 6370, 7633, 8665]}, "edge": {"target": [], "time": []}}}, "displayed_time": "17.92", "trialTime": 18698, "trial_type": "mouselab-mdp", "trial_index": 21, "time_elapsed": 991626, "internal_node_id": "0.0-4.0-1.0-12.0"}}, {"uniqueid": "w42330923:a13806729", "current_trial": 22, "dateTime": 1691143120536, "trialdata": {"revealed_states": [], "clicked_states": ["29", "27", "28", "33", "32", "31", "22", "21", "20"], "num_clicks_accrued": [0, 0, 0, 0, 0, 0, 0, 0, 0, 0, 0, 0, 0], "stateRewards": ["", 2, -4, 4, 9, 69, 9, -75, 12, -86, 66, 25, -1, 3, 2, -13, -88, -3, 1, 4, -69, 49, -84, 2, -1, 4, 2, -18, -81, -52, -15, -69, -54, 25], "withholdReward": false, "trial_id": "mdp_trial_14", "block": "test", "trialIndex": 15, "score": 44.4, "costs": -12.600000000000001, "simulationMode": [null, null, null, null, null], "rewards": [-1, 3, 2, 4, 49], "path": ["0", "0", "12", "13", "14", "19", "21"], "rt": [25781, 634, 170, 478, 164], "actions": ["right", "right", "right", "down", "down"], "actionTimes": [29305, 30604, 31363, 32387, 33129], "queries": {"click": {"state": {"target": ["29", "27", "28", "33", "32", "31", "22", "21", "20"], "time": [5638, 8731, 10989, 13269, 15647, 17945, 21417, 24082, 26693]}, "edge": {"target": [], "time": []}}, "mouseover": {"state": {"target": ["24", "25", "29", "27", "28", "25", "33", "32", "31", "22", "21", "20"], "time": [4331, 4555, 5132, 6730, 9922, 11925, 12363, 14864, 17214, 20804, 23518, 26159]}, "edge": {"target": [], "time": []}}, "mouseout": {"state": {"target": ["20", "22", "0", "24", "25", "29", "27", "28", "25", "33", "32", "31", "22", "21", "20"], "time": [1066, 1351, 3579, 4455, 4709, 6298, 9605, 11897, 12061, 14420, 16434, 19718, 22204, 25005, 27489]}, "edge": {"target": [], "time": []}}}, "displayed_time": "33.68", "trialTime": 37233, "trial_type": "mouselab-mdp", "trial_index": 22, "time_elapsed": 1031960, "internal_node_id": "0.0-4.0-1.0-13.0"}}, {"uniqueid": "w42330923:a13806729", "current_trial": 23, "dateTime": 1691143159180, "trialdata": {"revealed_states": [], "clicked_states": ["9", "11", "10", "7", "6", "5", "16", "17"], "num_clicks_accrued": [0, 0, 0, 0, 0, 0, 0, 0, 0, 0, 0, 0, 0], "stateRewards": ["", 1, 1, -3, 7, 49, 78, 26, -5, 26, 48, -43, -1, -3, 2, -5, 4, -1, -60, 10, -35, 51, 81, -2, 1, -7, -5, -39, -86, -54, 4, -3, 74, 77], "withholdReward": false, "trial_id": "mdp_trial_15", "block": "test", "trialIndex": 16, "score": 72.8, "costs": -11.200000000000001, "simulationMode": [null, null, null, null, null], "rewards": [1, 1, -3, 7, 78], "path": ["0", "0", "1", "2", "3", "4", "6"], "rt": [23134, 746, 174, 571, 49], "actions": ["up", "up", "up", "right", "right"], "actionTimes": [27119, 28466, 29206, 30350, 30941], "queries": {"click": {"state": {"target": ["9", "11", "10", "7", "6", "5", "16", "17"], "time": [6191, 8203, 10553, 12965, 15353, 19310, 21935, 24708]}, "edge": {"target": [], "time": []}}, "mouseover": {"state": {"target": ["1", "8", "9", "11", "11", "10", "7", "7", "6", "5", "16", "17", "15", "18"], "time": [5204, 5499, 5635, 7005, 7393, 10017, 11479, 11933, 13946, 18770, 21310, 24291, 25949, 26100]}, "edge": {"target": [], "time": []}}, "mouseout": {"state": {"target": ["16", "1", "0", "1", "8", "9", "11", "11", "10", "7", "7", "6", "5", "16", "17", "15", "18"], "time": [1192, 1904, 2379, 5274, 5580, 6897, 7061, 8863, 11310, 11561, 13864, 15503, 19463, 24008, 25848, 26025, 26164]}, "edge": {"target": [], "time": []}}}, "displayed_time": "31.57", "trialTime": 36016, "trial_type": "mouselab-mdp", "trial_index": 23, "time_elapsed": 1070606, "internal_node_id": "0.0-4.0-1.0-14.0"}}, {"uniqueid": "w42330923:a13806729", "current_trial": 24, "dateTime": 1691143181531, "trialdata": {"revealed_states": [], "clicked_states": [], "num_clicks_accrued": [0, 0, 0, 0, 0, 0, 0, 0, 0, 0, 0, 0, 0], "stateRewards": ["", 1, 1, 1, 15, -76, 52, -32, 14, -57, 37, 49, 1, -4, -3, 6, 83, -76, 25, 9, 36, -1, -17, -1, 4, 4, -2, -22, -21, 58, -15, -57, 49, -24], "withholdReward": false, "trial_id": "mdp_trial_16", "block": "test", "trialIndex": 17, "score": -65, "costs": 0, "simulationMode": [null, null, null, null, null], "rewards": [-1, 4, 4, -15, -57], "path": ["0", "0", "23", "24", "25", "30", "31"], "rt": [5332, 133, 184, 488, 325], "actions": ["left", "left", "left", "down", "right"], "actionTimes": [9473, 10183, 10910, 11953, 12839], "queries": {"click": {"state": {"target": [], "time": []}, "edge": {"target": [], "time": []}}, "mouseover": {"state": {"target": [], "time": []}, "edge": {"target": [], "time": []}}, "mouseout": {"state": {"target": ["0"], "time": [15076]}, "edge": {"target": [], "time": []}}}, "displayed_time": "18.15", "trialTime": 19601, "trial_type": "mouselab-mdp", "trial_index": 24, "time_elapsed": 1092961, "internal_node_id": "0.0-4.0-1.0-15.0"}}, {"uniqueid": "w42330923:a13806729", "current_trial": 25, "dateTime": 1691143225450, "trialdata": {"revealed_states": [], "clicked_states": ["9", "11", "10", "7", "6", "5", "27", "29", "28", "31", "33", "32"], "num_clicks_accrued": [0, 0, 0, 0, 0, 0, 0, 0, 0, 0, 0, 0, 0], "stateRewards": ["", -1, -3, -7, -7, -76, 30, -49, 11, -70, 56, 2, 1, 4, -3, -14, -59, -83, -25, -9, -21, -67, -73, -2, 4, 4, -9, -11, -32, 60, 9, -87, 22, -64], "withholdReward": false, "trial_id": "mdp_trial_17", "block": "test", "trialIndex": 18, "score": 40.2, "costs": -16.8, "simulationMode": [null, null, null, null, null], "rewards": [-2, 4, 4, -9, 60], "path": ["0", "0", "23", "24", "25", "26", "29"], "rt": [31245, 1163, 198, 551, 105], "actions": ["left", "left", "left", "up", "left"], "actionTimes": [34031, 35757, 36537, 37636, 38363], "queries": {"click": {"state": {"target": ["9", "11", "10", "7", "6", "5", "27", "29", "28", "31", "33", "32"], "time": [4484, 6622, 8890, 11135, 13784, 16074, 19188, 21624, 24090, 27045, 29169, 31539]}, "edge": {"target": [], "time": []}}, "mouseover": {"state": {"target": ["1", "2", "3", "9", "11", "10", "2", "7", "6", "5", "28", "26", "27", "27", "29", "25", "24", "28", "31", "33", "32"], "time": [3502, 3577, 3672, 3922, 5153, 8303, 9612, 10190, 12028, 15888, 17701, 17942, 18243, 18835, 20884, 23024, 23204, 23575, 26685, 28356, 31095]}, "edge": {"target": [], "time": []}}, "mouseout": {"state": {"target": ["18", "1", "2", "3", "9", "11", "10", "2", "7", "6", "5", "28", "26", "27", "27", "29", "25", "24", "28", "31", "33", "33", "32"], "time": [614, 3560, 3625, 3723, 5031, 7272, 9523, 9696, 11269, 15451, 17521, 17857, 18054, 18514, 19316, 22741, 23151, 23470, 26219, 27167, 29309, 30521, 31660]}, "edge": {"target": [], "time": []}}}, "displayed_time": "38.91", "trialTime": 40668, "trial_type": "mouselab-mdp", "trial_index": 25, "time_elapsed": 1136880, "internal_node_id": "0.0-4.0-1.0-16.0"}}, {"uniqueid": "w42330923:a13806729", "current_trial": 26, "dateTime": 1691143280368, "trialdata": {"revealed_states": [], "clicked_states": ["16", "18", "17", "20", "21", "22", "32", "31", "33", "29", "11", "9", "27"], "num_clicks_accrued": [0, 0, 0, 0, 0, 0, 0, 0, 0, 0, 0, 0, 0], "stateRewards": ["", -1, -4, -1, -11, 43, 69, 39, 4, 17, -20, -82, -2, -1, 4, 8, -79, 24, -79, 11, 36, 64, 41, 2, 4, -1, 11, -79, -47, 75, -3, 63, -36, -19], "withholdReward": false, "trial_id": "mdp_trial_18", "block": "test", "trialIndex": 19, "score": 72.8, "costs": -18.2, "simulationMode": [null, null, null, null, null], "rewards": [2, 4, -1, 11, 75], "path": ["0", "0", "23", "24", "25", "26", "29"], "rt": [38260, 879, 148, 436, 84], "actions": ["left", "left", "left", "up", "left"], "actionTimes": [42166, 43631, 44404, 45447, 46106], "queries": {"click": {"state": {"target": ["16", "18", "17", "20", "21", "22", "32", "31", "33", "29", "11", "9", "27"], "time": [6171, 8491, 11303, 13830, 17698, 20053, 23658, 25859, 29296, 31548, 34449, 36856, 39326]}, "edge": {"target": [], "time": []}}, "mouseover": {"state": {"target": ["1", "7", "16", "18", "17", "20", "21", "22", "32", "31", "33", "33", "29", "29", "27", "11", "9", "27"], "time": [4978, 5081, 5640, 6729, 10864, 13226, 17146, 19142, 23240, 24995, 28128, 28877, 30631, 31091, 32225, 32441, 36205, 38282]}, "edge": {"target": [], "time": []}}, "mouseout": {"state": {"target": ["18", "2", "0", "0", "1", "7", "16", "18", "17", "20", "21", "22", "22", "32", "31", "33", "33", "33", "29", "29", "27", "11", "9", "27", "27", "10", "2"], "time": [884, 942, 1440, 1729, 5043, 5139, 6291, 8620, 12158, 15977, 17845, 20158, 21855, 24525, 26779, 28234, 29342, 30159, 30751, 31705, 32311, 36073, 36988, 39466, 40172, 49964, 50029]}, "edge": {"target": [], "time": []}}}, "displayed_time": "46.65", "trialTime": 51830, "trial_type": "mouselab-mdp", "trial_index": 26, "time_elapsed": 1191796, "internal_node_id": "0.0-4.0-1.0-17.0"}}, {"uniqueid": "w42330923:a13806729", "current_trial": 27, "dateTime": 1691143312911, "trialdata": {"revealed_states": [], "clicked_states": ["20", "17", "6", "11", "29"], "num_clicks_accrued": [0, 0, 0, 0, 0, 0, 0, 0, 0, 0, 0, 0, 0], "stateRewards": ["", -2, 2, 5, -14, -56, 64, 84, -5, 52, 39, 85, -2, 1, 7, 8, 21, 29, -78, -9, -10, -69, 10, -2, -1, -7, 15, 72, 20, 41, -2, 52, 80, 22], "withholdReward": false, "trial_id": "mdp_trial_19", "block": "test", "trialIndex": 20, "score": 78, "costs": -7, "simulationMode": [null, null, null, null, null], "rewards": [-2, 2, 5, -5, 85], "path": ["0", "0", "1", "2", "3", "8", "11"], "rt": [14902, 13, 106, 579, 101], "actions": ["up", "up", "up", "left", "left"], "actionTimes": [20273, 20860, 21520, 22637, 23314], "queries": {"click": {"state": {"target": ["20", "17", "6", "11", "29"], "time": [7936, 10149, 12325, 14493, 17114]}, "edge": {"target": [], "time": []}}, "mouseover": {"state": {"target": ["18", "15", "20", "17", "6", "9", "11", "29", "25", "24"], "time": [6934, 7043, 7330, 8970, 11397, 13546, 13675, 16197, 18885, 19047]}, "edge": {"target": [], "time": []}}, "mouseout": {"state": {"target": ["16", "18", "1", "0", "18", "15", "20", "17", "6", "9", "11", "29", "29", "25", "24"], "time": [1834, 2227, 2416, 6877, 7013, 7106, 8046, 10300, 13356, 13645, 16100, 17219, 18195, 18984, 19348]}, "edge": {"target": [], "time": []}}}, "displayed_time": "23.89", "trialTime": 29730, "trial_type": "mouselab-mdp", "trial_index": 27, "time_elapsed": 1224340, "internal_node_id": "0.0-4.0-1.0-18.0"}}, {"uniqueid": "w42330923:a13806729", "current_trial": 28, "dateTime": 1691143355021, "trialdata": {"revealed_states": [], "clicked_states": ["29", "11", "6", "17", "20", "33", "32"], "num_clicks_accrued": [0, 0, 0, 0, 0, 0, 0, 0, 0, 0, 0, 0, 0], "stateRewards": ["", 2, 4, 4, 9, -88, -10, 44, 16, -54, 64, 78, 1, 2, 5, 16, 80, 36, 7, -4, 9, -47, -70, -1, -3, 6, -16, 11, 80, 28, 8, -1, 34, -17], "withholdReward": false, "trial_id": "mdp_trial_20", "block": "test", "trialIndex": 21, "score": 94.2, "costs": -9.8, "simulationMode": [null, null, null, null, null], "rewards": [2, 4, 4, 16, 78], "path": ["0", "0", "1", "2", "3", "8", "11"], "rt": [23014, 597, 126, 909, 150], "actions": ["up", "up", "up", "left", "left"], "actionTimes": [27218, 28451, 29150, 30651, 31359], "queries": {"click": {"state": {"target": ["29", "11", "6", "17", "20", "33", "32"], "time": [6630, 9064, 11603, 14442, 17777, 20908, 23547]}, "edge": {"target": [], "time": []}}, "mouseover": {"state": {"target": ["24", "29", "27", "11", "5", "6", "17", "20", "31", "33", "32", "21"], "time": [5331, 6132, 7525, 7994, 10051, 10454, 13969, 16768, 19791, 20528, 23018, 26177]}, "edge": {"target": [], "time": []}}, "mouseout": {"state": {"target": ["14", "12", "0", "24", "29", "27", "11", "5", "6", "6", "17", "20", "31", "33", "32", "21", "20", "21"], "time": [1552, 1997, 5218, 5492, 7390, 7896, 9799, 10161, 11845, 12792, 15491, 19212, 20066, 21518, 23951, 26521, 36539, 38245]}, "edge": {"target": [], "time": []}}}, "displayed_time": "31.91", "trialTime": 38883, "trial_type": "mouselab-mdp", "trial_index": 28, "time_elapsed": 1266450, "internal_node_id": "0.0-4.0-1.0-19.0"}}, {"uniqueid": "w42330923:a13806729", "current_trial": 29, "dateTime": 1691143402353, "trialdata": {"revealed_states": [], "clicked_states": ["29", "33", "20", "17", "5", "6", "11", "9", "10"], "num_clicks_accrued": [0, 0, 0, 0, 0, 0, 0, 0, 0, 0, 0, 0, 0], "stateRewards": ["", -2, -3, 1, -14, 48, -49, 67, -1, -35, -48, 3, -2, 1, -4, -5, 86, -84, 39, 1, 48, 41, -42, -1, -4, 2, -7, 18, -86, 17, 7, -9, 57, -69], "withholdReward": false, "trial_id": "mdp_trial_21", "block": "test", "trialIndex": 22, "score": 17.4, "costs": -12.600000000000001, "simulationMode": [null, null, null, null, null], "rewards": [-2, -3, 1, -14, 48], "path": ["0", "0", "1", "2", "3", "4", "5"], "rt": [28329, 751, 208, 536, 633], "actions": ["up", "up", "up", "right", "up"], "actionTimes": [31977, 33297, 34095, 35214, 36418], "queries": {"click": {"state": {"target": ["29", "33", "20", "17", "5", "6", "11", "9", "10"], "time": [5598, 7837, 10988, 13646, 17346, 20132, 23007, 25892, 28220]}, "edge": {"target": [], "time": []}}, "mouseover": {"state": {"target": ["12", "29", "33", "22", "20", "20", "17", "6", "5", "6", "3", "11", "9", "10", "1"], "time": [3939, 5184, 7238, 9606, 10071, 10434, 13164, 15921, 16358, 19415, 22203, 22676, 25425, 27306, 28948]}, "edge": {"target": [], "time": []}}, "mouseout": {"state": {"target": ["0", "12", "29", "33", "22", "20", "20", "17", "6", "5", "6", "3", "11", "9", "9", "10", "1", "20", "21"], "time": [3927, 4757, 6160, 7957, 9924, 10147, 11618, 13790, 15985, 18782, 20270, 22439, 23854, 26030, 26756, 28864, 30868, 41256, 43357]}, "edge": {"target": [], "time": []}}}, "displayed_time": "36.97", "trialTime": 44123, "trial_type": "mouselab-mdp", "trial_index": 29, "time_elapsed": 1313783, "internal_node_id": "0.0-4.0-1.0-20.0"}}, {"uniqueid": "w42330923:a13806729", "current_trial": 30, "dateTime": 1691143437851, "trialdata": {"revealed_states": [], "clicked_states": ["32", "21", "17", "5", "9", "29"], "num_clicks_accrued": [0, 0, 0, 0, 0, 0, 0, 0, 0, 0, 0, 0, 0], "stateRewards": ["", -2, 2, -5, 1, 42, -63, -58, -6, 2, 16, 81, -2, 4, 7, -10, 33, 3, -33, -2, -52, -84, -27, 2, -3, -3, 15, -74, -14, -5, -5, -84, 79, -31], "withholdReward": false, "trial_id": "mdp_trial_22", "block": "test", "trialIndex": 23, "score": 61.6, "costs": -8.4, "simulationMode": [null, null, null, null, null], "rewards": [2, -3, -3, -5, 79], "path": ["0", "0", "23", "24", "25", "30", "32"], "rt": [19186, 903, 197, 549, 34], "actions": ["left", "left", "left", "down", "down"], "actionTimes": [23129, 24590, 25338, 26429, 27019], "queries": {"click": {"state": {"target": ["32", "21", "17", "5", "9", "29"], "time": [6918, 9077, 11943, 14979, 17728, 20637]}, "edge": {"target": [], "time": []}}, "mouseover": {"state": {"target": ["23", "30", "32", "32", "19", "21", "17", "16", "6", "5", "9", "11", "27", "29"], "time": [5068, 5549, 5705, 6389, 7572, 8204, 11452, 13671, 14189, 14517, 16950, 19754, 20024, 20179]}, "edge": {"target": [], "time": []}}, "mouseout": {"state": {"target": ["0", "23", "30", "32", "32", "19", "21", "17", "16", "6", "5", "5", "9", "9", "11", "27", "29", "24"], "time": [1660, 5132, 5648, 5849, 7367, 7921, 9225, 13489, 13814, 14316, 16036, 16400, 18554, 19586, 19868, 20092, 21427, 31446]}, "edge": {"target": [], "time": []}}}, "displayed_time": "27.59", "trialTime": 32067, "trial_type": "mouselab-mdp", "trial_index": 30, "time_elapsed": 1349279, "internal_node_id": "0.0-4.0-1.0-21.0"}}, {"uniqueid": "w42330923:a13806729", "current_trial": 31, "dateTime": 1691143481724, "trialdata": {"revealed_states": [], "clicked_states": ["29", "33", "20", "17", "5", "9", "21", "22", "32"], "num_clicks_accrued": [0, 0, 0, 0, 0, 0, 0, 0, 0, 0, 0, 0, 0], "stateRewards": ["", -1, 3, 8, 9, -53, 20, -84, 2, -28, -62, -31, -1, -2, -7, 2, 51, 58, 45, -4, -17, -41, 36, 2, -2, -7, -15, 29, -54, -37, -16, -43, 65, -17], "withholdReward": false, "trial_id": "mdp_trial_23", "block": "test", "trialIndex": 24, "score": 29.4, "costs": -12.600000000000001, "simulationMode": [null, null, null, null, null], "rewards": [2, -2, -7, -16, 65], "path": ["0", "0", "23", "24", "25", "30", "32"], "rt": [27941, 296, 260, 433, 13], "actions": ["left", "left", "left", "down", "down"], "actionTimes": [31808, 32657, 33472, 34365, 34956], "queries": {"click": {"state": {"target": ["29", "33", "20", "17", "5", "9", "21", "22", "32"], "time": [6199, 9075, 11766, 14522, 17327, 19880, 23333, 25961, 28819]}, "edge": {"target": [], "time": []}}, "mouseover": {"state": {"target": ["24", "29", "33", "14", "20", "17", "16", "5", "5", "9", "6", "21", "22", "22", "32"], "time": [5113, 5643, 8564, 9911, 10941, 13918, 15258, 15808, 16585, 19301, 21268, 22457, 25108, 25525, 28433]}, "edge": {"target": [], "time": []}}, "mouseout": {"state": {"target": ["0", "24", "29", "29", "33", "14", "20", "17", "16", "5", "5", "9", "6", "21", "22", "22", "22", "32"], "time": [5054, 5161, 6271, 6679, 9178, 10363, 11885, 14673, 15351, 16410, 17523, 20690, 21342, 24192, 25217, 26069, 27182, 29472]}, "edge": {"target": [], "time": []}}}, "displayed_time": "35.53", "trialTime": 40733, "trial_type": "mouselab-mdp", "trial_index": 31, "time_elapsed": 1393153, "internal_node_id": "0.0-4.0-1.0-22.0"}}, {"uniqueid": "w42330923:a13806729", "current_trial": 32, "dateTime": 1691143528751, "trialdata": {"revealed_states": [], "clicked_states": ["22", "21", "20", "17", "16", "6", "11", "27", "32"], "num_clicks_accrued": [0, 0, 0, 0, 0, 0, 0, 0, 0, 0, 0, 0, 0], "stateRewards": ["", 2, 3, -1, 16, -78, -11, 46, 2, -20, 79, -67, 2, 3, 2, 11, -83, -42, -58, -11, -67, -22, 55, 2, -1, -1, -16, -83, -82, 23, -11, -29, 13, 13], "withholdReward": false, "trial_id": "mdp_trial_24", "block": "test", "trialIndex": 25, "score": 38.4, "costs": -12.600000000000001, "simulationMode": [null, null, null, null, null], "rewards": [2, 3, 2, -11, 55], "path": ["0", "0", "12", "13", "14", "19", "22"], "rt": [27652, 219, 161, 443, 222], "actions": ["right", "right", "right", "down", "left"], "actionTimes": [38417, 39191, 39921, 40947, 41733], "queries": {"click": {"state": {"target": ["22", "21", "20", "17", "16", "6", "11", "27", "32"], "time": [13685, 15899, 18698, 21328, 23640, 26222, 28904, 31964, 34666]}, "edge": {"target": [], "time": []}}, "mouseover": {"state": {"target": ["12", "13", "22", "21", "20", "17", "16", "6", "7", "2", "11", "29", "27", "29", "33", "32", "33"], "time": [12461, 12941, 13255, 14767, 18261, 20763, 23041, 25736, 26795, 27533, 28098, 31179, 31452, 32411, 33657, 33927, 36808]}, "edge": {"target": [], "time": []}}, "mouseout": {"state": {"target": ["12", "12", "13", "22", "21", "20", "17", "16", "6", "7", "2", "11", "29", "27", "29", "33", "32", "33"], "time": [1296, 12887, 13063, 14509, 15960, 19724, 22028, 25040, 26719, 27428, 27866, 29886, 31377, 32385, 32485, 33789, 34801, 37319]}, "edge": {"target": [], "time": []}}}, "displayed_time": "42.32", "trialTime": 43935, "trial_type": "mouselab-mdp", "trial_index": 32, "time_elapsed": 1440181, "internal_node_id": "0.0-4.0-1.0-23.0"}}, {"uniqueid": "w42330923:a13806729", "current_trial": 33, "dateTime": 1691143552528, "trialdata": {"revealed_states": [], "clicked_states": [], "num_clicks_accrued": [0, 0, 0, 0, 0, 0, 0, 0, 0, 0, 0, 0, 0], "stateRewards": ["", 2, -4, 7, 3, 23, -42, 4, 7, -81, -33, 7, -2, -4, 5, -1, 50, -57, -14, -13, -14, 44, 55, -2, -2, 5, -2, 33, 1, 57, -13, -7, 58, 87], "withholdReward": false, "trial_id": "mdp_trial_25", "block": "test", "trialIndex": 26, "score": 12, "costs": 0, "simulationMode": [null, null, null, null, null], "rewards": [2, -4, 7, 3, 4], "path": ["0", "0", "1", "2", "3", "4", "7"], "rt": [5687, 657, 432, 1014, 267], "actions": ["up", "up", "up", "right", "down"], "actionTimes": [8992, 10287, 11273, 12822, 13645], "queries": {"click": {"state": {"target": [], "time": []}, "edge": {"target": [], "time": []}}, "mouseover": {"state": {"target": ["22", "21"], "time": [5665, 6083]}, "edge": {"target": [], "time": []}}, "mouseout": {"state": {"target": ["0", "22", "21"], "time": [1454, 5729, 7599]}, "edge": {"target": [], "time": []}}}, "displayed_time": "17.31", "trialTime": 20535, "trial_type": "mouselab-mdp", "trial_index": 33, "time_elapsed": 1463957, "internal_node_id": "0.0-4.0-1.0-24.0"}}, {"uniqueid": "w42330923:a13806729", "current_trial": 34, "dateTime": 1691143584714, "trialdata": {"revealed_states": [], "clicked_states": ["29", "9", "17", "21", "32", "22", "20"], "num_clicks_accrued": [0, 0, 0, 0, 0, 0, 0, 0, 0, 0, 0, 0, 0], "stateRewards": ["", -1, 2, 5, -6, 13, -64, -47, 8, -79, -80, -33, 1, 2, -2, -16, 56, -71, -10, 3, 29, 44, 85, -1, 4, 5, 4, -36, -56, 19, 8, 52, -13, -2], "withholdReward": false, "trial_id": "mdp_trial_26", "block": "test", "trialIndex": 27, "score": 79.2, "costs": -9.8, "simulationMode": [null, null, null, null, null], "rewards": [1, 2, -2, 3, 85], "path": ["0", "0", "12", "13", "14", "19", "22"], "rt": [16829, 91, 122, 631, 208], "actions": ["right", "right", "right", "down", "left"], "actionTimes": [20839, 21504, 22208, 23397, 24163], "queries": {"click": {"state": {"target": ["29", "9", "17", "21", "32", "22", "20"], "time": [5800, 7382, 9179, 11542, 14300, 16750, 18827]}, "edge": {"target": [], "time": []}}, "mouseover": {"state": {"target": ["28", "26", "29", "10", "8", "9", "17", "20", "21", "32", "22", "20"], "time": [5093, 5229, 5336, 6331, 6686, 6807, 8610, 10611, 10873, 14005, 16061, 17940]}, "edge": {"target": [], "time": []}}, "mouseout": {"state": {"target": ["17", "15", "12", "28", "26", "29", "10", "8", "9", "17", "20", "21", "32", "22", "20"], "time": [1602, 1677, 1852, 5174, 5285, 5973, 6668, 6791, 7933, 9833, 10689, 11660, 14791, 16883, 18943]}, "edge": {"target": [], "time": []}}}, "displayed_time": "24.73", "trialTime": 29121, "trial_type": "mouselab-mdp", "trial_index": 34, "time_elapsed": 1496144, "internal_node_id": "0.0-4.0-1.0-25.0"}}, {"uniqueid": "w42330923:a13806729", "current_trial": 35, "dateTime": 1691143620956, "trialdata": {"revealed_states": [], "clicked_states": ["33", "32", "31", "21", "20", "22", "16", "17"], "num_clicks_accrued": [0, 0, 0, 0, 0, 0, 0, 0, 0, 0, 0, 0, 0], "stateRewards": ["", 1, -3, -6, -5, 47, 80, -29, 11, -71, 10, -29, -2, 3, -6, 12, 2, -78, -6, 8, 34, -16, -5, -1, 3, 3, -13, 84, -36, -62, -3, -27, 66, 15], "withholdReward": false, "trial_id": "mdp_trial_27", "block": "test", "trialIndex": 28, "score": 56.8, "costs": -11.200000000000001, "simulationMode": [null, null, null, null, null], "rewards": [-1, 3, 3, -3, 66], "path": ["0", "0", "23", "24", "25", "30", "32"], "rt": [21347, 20, 176, 487, 105], "actions": ["left", "left", "left", "down", "down"], "actionTimes": [25739, 26321, 27078, 28108, 28769], "queries": {"click": {"state": {"target": ["33", "32", "31", "21", "20", "22", "16", "17"], "time": [6331, 8350, 10847, 13697, 15884, 18390, 21052, 23703]}, "edge": {"target": [], "time": []}}, "mouseover": {"state": {"target": ["23", "24", "33", "32", "31", "22", "21", "20", "22", "15", "16", "17"], "time": [5341, 5416, 5552, 6951, 10268, 12817, 13345, 15310, 17804, 20081, 20459, 23347]}, "edge": {"target": [], "time": []}}, "mouseout": {"state": {"target": ["23", "24", "33", "32", "31", "22", "21", "20", "22", "15", "16", "17"], "time": [5400, 5484, 6869, 9130, 12713, 12913, 13814, 17344, 18497, 20215, 22723, 24365]}, "edge": {"target": [], "time": []}}}, "displayed_time": "29.34", "trialTime": 32921, "trial_type": "mouselab-mdp", "trial_index": 35, "time_elapsed": 1532386, "internal_node_id": "0.0-4.0-1.0-26.0"}}, {"uniqueid": "w42330923:a13806729", "current_trial": 36, "dateTime": 1691143667664, "trialdata": {"revealed_states": [], "clicked_states": ["27", "29", "33", "32", "21", "20", "22", "16", "17", "5", "10"], "num_clicks_accrued": [0, 0, 0, 0, 0, 0, 0, 0, 0, 0, 0, 0, 0], "stateRewards": ["", 2, -1, 1, 10, -52, 86, -22, -2, -14, -63, 38, 1, 3, 7, -8, 11, -32, -27, 9, -71, 40, -87, -2, -1, 5, -7, 12, 31, -57, 13, 86, -58, 29], "withholdReward": false, "trial_id": "mdp_trial_28", "block": "test", "trialIndex": 29, "score": 44.599999999999994, "costs": -15.400000000000002, "simulationMode": [null, null, null, null, null], "rewards": [1, 3, 7, 9, 40], "path": ["0", "0", "12", "13", "14", "19", "21"], "rt": [28288, 733, 291, 600, 176], "actions": ["right", "right", "right", "down", "down"], "actionTimes": [32657, 34012, 34845, 36011, 36759], "queries": {"click": {"state": {"target": ["27", "29", "33", "32", "21", "20", "22", "16", "17", "5", "10"], "time": [6481, 8952, 11259, 14903, 16756, 18592, 20725, 22720, 24901, 27723, 30516]}, "edge": {"target": [], "time": []}}, "mouseover": {"state": {"target": ["26", "27", "29", "29", "33", "32", "21", "20", "22", "16", "17", "5", "8", "10"], "time": [6085, 6179, 8158, 8556, 10697, 14381, 16318, 17550, 19513, 22476, 23978, 27070, 29571, 29748]}, "edge": {"target": [], "time": []}}, "mouseout": {"state": {"target": ["22", "0", "26", "27", "29", "29", "33", "33", "32", "21", "20", "20", "22", "16", "17", "5", "8", "10"], "time": [1561, 2098, 6158, 6590, 8282, 9121, 11411, 14125, 15431, 17407, 18748, 19197, 21855, 23519, 25088, 27848, 29638, 30670]}, "edge": {"target": [], "time": []}}}, "displayed_time": "37.36", "trialTime": 41692, "trial_type": "mouselab-mdp", "trial_index": 36, "time_elapsed": 1579091, "internal_node_id": "0.0-4.0-1.0-27.0"}}, {"uniqueid": "w42330923:a13806729", "current_trial": 37, "dateTime": 1691143704097, "trialdata": {"revealed_states": [], "clicked_states": ["27", "9", "5", "16", "21", "32", "33", "20", "17"], "num_clicks_accrued": [0, 0, 0, 0, 0, 0, 0, 0, 0, 0, 0, 0, 0], "stateRewards": ["", 1, 1, 5, 6, -29, -7, 3, -16, 9, -46, 65, -1, 4, -1, -16, -63, -77, -87, 8, 80, -50, 43, -1, -1, -5, 5, -38, -71, -62, 9, 81, -50, -52], "withholdReward": false, "trial_id": "mdp_trial_29", "block": "test", "trialIndex": 30, "score": 77.4, "costs": -12.600000000000001, "simulationMode": [null, null, null, null, null], "rewards": [-1, 4, -1, 8, 80], "path": ["0", "0", "12", "13", "14", "19", "20"], "rt": [22168, 124, 94, 395, 114], "actions": ["right", "right", "right", "down", "right"], "actionTimes": [25803, 26549, 27209, 28151, 28839], "queries": {"click": {"state": {"target": ["27", "9", "5", "16", "21", "32", "33", "20", "17"], "time": [5830, 9181, 10987, 12837, 15730, 17873, 19759, 21549, 23809]}, "edge": {"target": [], "time": []}}, "mouseover": {"state": {"target": ["23", "24", "27", "9", "9", "5", "16", "20", "21", "32", "30", "33", "20", "20", "17"], "time": [4761, 4860, 5426, 6829, 8426, 10118, 12390, 15015, 15273, 17213, 19075, 19308, 20853, 21216, 22852]}, "edge": {"target": [], "time": []}}, "mouseout": {"state": {"target": ["14", "13", "23", "24", "27", "9", "9", "5", "16", "20", "21", "32", "30", "33", "20", "20", "17"], "time": [1303, 1398, 4833, 4964, 6241, 7747, 9347, 11731, 13891, 15130, 16327, 18482, 19188, 20442, 20977, 22174, 23945]}, "edge": {"target": [], "time": []}}}, "displayed_time": "29.41", "trialTime": 32898, "trial_type": "mouselab-mdp", "trial_index": 37, "time_elapsed": 1615527, "internal_node_id": "0.0-4.0-1.0-28.0"}}, {"uniqueid": "w42330923:a13806729", "current_trial": 38, "dateTime": 1691143752208, "trialdata": {"revealed_states": [], "clicked_states": ["27", "29", "33", "32", "31", "21", "22", "20", "17", "16", "18", "6", "5", "9"], "num_clicks_accrued": [0, 0, 0, 0, 0, 0, 0, 0, 0, 0, 0, 0, 0], "stateRewards": ["", -2, -1, 3, -3, 71, -58, -21, 7, -10, -75, -37, 2, 4, -1, -12, -79, -29, -48, 3, -41, -10, -30, -1, -2, 1, -15, 13, 66, 22, -1, -42, -86, -55], "withholdReward": false, "trial_id": "mdp_trial_30", "block": "test", "trialIndex": 31, "score": 48.400000000000006, "costs": -19.599999999999998, "simulationMode": [null, null, null, null, null], "rewards": [-2, -1, 3, -3, 71], "path": ["0", "0", "1", "2", "3", "4", "5"], "rt": [31173, 166, 1321, 503, 125], "actions": ["up", "up", "up", "right", "up"], "actionTimes": [35604, 36329, 38227, 39303, 40027], "queries": {"click": {"state": {"target": ["27", "29", "33", "32", "31", "21", "22", "20", "17", "16", "18", "6", "5", "9"], "time": [6662, 8508, 10608, 12525, 15398, 17715, 19597, 21442, 23261, 25362, 27074, 29288, 31318, 33627]}, "edge": {"target": [], "time": []}}, "mouseover": {"state": {"target": ["28", "27", "29", "33", "32", "31", "22", "21", "22", "19", "20", "17", "16", "18", "6", "5", "9", "11"], "time": [5804, 6182, 7451, 10074, 11428, 13273, 16507, 17109, 19049, 20279, 20441, 22586, 24306, 26285, 28422, 30488, 32297, 34348]}, "edge": {"target": [], "time": []}}, "mouseout": {"state": {"target": ["13", "12", "28", "27", "29", "33", "32", "31", "22", "21", "22", "19", "20", "17", "16", "18", "6", "5", "9", "11", "26", "17", "21"], "time": [1479, 1587, 5984, 7318, 8621, 11409, 12670, 15557, 16866, 17921, 20247, 20425, 22187, 23417, 26108, 27220, 29939, 31881, 33781, 34482, 41796, 41879, 43733]}, "edge": {"target": [], "time": []}}}, "displayed_time": "40.59", "trialTime": 44608, "trial_type": "mouselab-mdp", "trial_index": 38, "time_elapsed": 1663636, "internal_node_id": "0.0-4.0-1.0-29.0"}}, {"uniqueid": "w42330923:a13806729", "current_trial": 39, "dateTime": 1691143796807, "trialdata": {"revealed_states": [], "clicked_states": ["11", "6", "18", "17", "20", "22", "31", "33", "28", "29"], "num_clicks_accrued": [0, 0, 0, 0, 0, 0, 0, 0, 0, 0, 0, 0, 0], "stateRewards": ["", -1, -3, -7, -4, -85, -70, 79, 8, 84, -66, 42, 2, -2, -3, -16, -54, -66, 68, -3, 21, -14, 7, -2, -1, -3, -8, 75, 80, 86, -7, -84, 73, -16], "withholdReward": false, "trial_id": "mdp_trial_31", "block": "test", "trialIndex": 32, "score": 58, "costs": -14.000000000000002, "simulationMode": [null, null, null, null, null], "rewards": [-2, -1, -3, -8, 86], "path": ["0", "0", "23", "24", "25", "26", "29"], "rt": [26075, 92, 131, 490, 164], "actions": ["left", "left", "left", "up", "left"], "actionTimes": [29900, 30553, 31234, 32285, 32994], "queries": {"click": {"state": {"target": ["11", "6", "18", "17", "20", "22", "31", "33", "28", "29"], "time": [6659, 8698, 11038, 13293, 15574, 17912, 20786, 23322, 25681, 28122]}, "edge": {"target": [], "time": []}}, "mouseover": {"state": {"target": ["10", "8", "9", "11", "6", "16", "18", "17", "20", "22", "24", "31", "32", "33", "28", "26", "29"], "time": [5456, 5572, 5805, 6290, 8050, 10202, 10503, 11703, 14903, 16582, 20248, 20470, 21861, 22801, 24801, 27132, 27389]}, "edge": {"target": [], "time": []}}, "mouseout": {"state": {"target": ["0", "10", "8", "9", "11", "11", "6", "16", "18", "17", "20", "22", "24", "31", "32", "33", "28", "26", "29"], "time": [5027, 5558, 5711, 5967, 6815, 7551, 8843, 10378, 11608, 14533, 16353, 18029, 20383, 21620, 22542, 24035, 25832, 27220, 28613]}, "edge": {"target": [], "time": []}}}, "displayed_time": "33.58", "trialTime": 39410, "trial_type": "mouselab-mdp", "trial_index": 39, "time_elapsed": 1708233, "internal_node_id": "0.0-4.0-1.0-30.0"}}, {"uniqueid": "w42330923:a13806729", "current_trial": 40, "dateTime": 1691143835053, "trialdata": {"revealed_states": [], "clicked_states": ["27", "32", "21", "16", "17", "5"], "num_clicks_accrued": [0, 0, 0, 0, 0, 0, 0, 0, 0, 0, 0, 0, 0], "stateRewards": ["", -2, 4, -5, -12, 85, -24, -18, -15, -78, -22, 26, -1, -1, 2, 14, -45, 52, -23, 7, -33, 24, -6, -2, -4, 5, -7, -16, 36, -39, 5, 71, -87, -23], "withholdReward": false, "trial_id": "mdp_trial_32", "block": "test", "trialIndex": 33, "score": 61.6, "costs": -8.4, "simulationMode": [null, null, null, null, null], "rewards": [-2, 4, -5, -12, 85], "path": ["0", "0", "1", "2", "3", "4", "5"], "rt": [17073, 118, 1063, 273, 361], "actions": ["up", "up", "up", "right", "up"], "actionTimes": [24871, 25555, 27164, 27992, 28942], "queries": {"click": {"state": {"target": ["27", "32", "21", "16", "17", "5"], "time": [10198, 12366, 14962, 17279, 19373, 21516]}, "edge": {"target": [], "time": []}}, "mouseover": {"state": {"target": ["10", "11", "27", "26", "25", "30", "32", "14", "20", "21", "16", "17", "5", "4"], "time": [9118, 9469, 9693, 10941, 11099, 11531, 11929, 13510, 13733, 14226, 16545, 18919, 20497, 24001]}, "edge": {"target": [], "time": []}}, "mouseout": {"state": {"target": ["25", "24", "23", "10", "11", "27", "27", "26", "25", "30", "32", "14", "20", "21", "16", "17", "5", "5", "5", "4", "6"], "time": [4821, 4935, 5043, 9182, 9531, 10293, 10923, 11017, 11170, 11741, 12496, 13632, 14039, 15818, 17861, 19813, 23292, 23757, 23899, 24053, 31321]}, "edge": {"target": [], "time": []}}}, "displayed_time": "29.51", "trialTime": 34385, "trial_type": "mouselab-mdp", "trial_index": 40, "time_elapsed": 1746483, "internal_node_id": "0.0-4.0-1.0-31.0"}}, {"uniqueid": "w42330923:a13806729", "current_trial": 41, "dateTime": 1691143886124, "trialdata": {"revealed_states": [], "clicked_states": ["9", "6", "17", "20", "22", "21", "31", "32", "33", "29", "27", "28"], "num_clicks_accrued": [0, 0, 0, 0, 0, 0, 0, 0, 0, 0, 0, 0, 0], "stateRewards": ["", -1, 4, -6, -5, -22, -38, -38, -2, -56, 88, 14, -1, -1, -7, -6, 61, -60, 21, 11, 57, 31, -30, -2, -2, 6, -9, -44, -70, -44, -15, 34, 16, -78], "withholdReward": false, "trial_id": "mdp_trial_33", "block": "test", "trialIndex": 34, "score": 66.2, "costs": -16.8, "simulationMode": [null, null, null, null, null], "rewards": [-1, 4, -6, -2, 88], "path": ["0", "0", "1", "2", "3", "8", "10"], "rt": [32031, 1771, 132, 598, 438], "actions": ["up", "up", "up", "left", "down"], "actionTimes": [38180, 40524, 41258, 42450, 43437], "queries": {"click": {"state": {"target": ["9", "6", "17", "20", "22", "21", "31", "32", "33", "29", "27", "28"], "time": [8153, 10160, 13316, 16981, 20796, 22888, 25825, 27728, 29919, 31923, 33593, 35353]}, "edge": {"target": [], "time": []}}, "mouseover": {"state": {"target": ["1", "3", "9", "5", "6", "16", "16", "16", "16", "17", "20", "22", "22", "21", "21", "31", "31", "30", "32", "33", "29", "27", "28"], "time": [7123, 7294, 7574, 8690, 8935, 10832, 11478, 11910, 12473, 12871, 14648, 17643, 20383, 21849, 22355, 24985, 25411, 26584, 26734, 28475, 31360, 32785, 34481]}, "edge": {"target": [], "time": []}}, "mouseout": {"state": {"target": ["0", "1", "3", "9", "5", "6", "6", "16", "16", "16", "16", "17", "17", "20", "22", "22", "21", "21", "31", "31", "31", "30", "32", "33", "29", "27", "27", "28"], "time": [3867, 7182, 7406, 8610, 8844, 10346, 10816, 10934, 11601, 11990, 12687, 13426, 14163, 17566, 17709, 21400, 21988, 23661, 25087, 25959, 26505, 26660, 28352, 30584, 32088, 33736, 34364, 36036]}, "edge": {"target": [], "time": []}}}, "displayed_time": "43.97", "trialTime": 47699, "trial_type": "mouselab-mdp", "trial_index": 41, "time_elapsed": 1797550, "internal_node_id": "0.0-4.0-1.0-32.0"}}, {"uniqueid": "w42330923:a13806729", "current_trial": 42, "dateTime": 1691143914966, "trialdata": {"revealed_states": [], "clicked_states": [], "num_clicks_accrued": [0, 0, 0, 0, 0, 0, 0, 0, 0, 0, 0, 0, 0], "stateRewards": ["", -2, -2, -7, -13, -10, 49, -68, -1, 84, 70, 88, 1, 4, 4, 12, -57, 25, 30, 8, -1, -77, 57, 2, 3, 2, 3, -18, -80, 23, -15, -41, 70, 11], "withholdReward": false, "trial_id": "mdp_trial_34", "block": "test", "trialIndex": 35, "score": -92, "costs": 0, "simulationMode": [null, null, null, null, null], "rewards": [-2, -2, -7, -13, -68], "path": ["0", "0", "1", "2", "3", "4", "7"], "rt": [5862, 541, 121, 370, 973], "actions": ["up", "up", "up", "right", "down"], "actionTimes": [11880, 13122, 13816, 14801, 16389], "queries": {"click": {"state": {"target": [], "time": []}, "edge": {"target": [], "time": []}}, "mouseover": {"state": {"target": ["9", "9"], "time": [8420, 9158]}, "edge": {"target": [], "time": []}}, "mouseout": {"state": {"target": ["14", "12", "0", "9", "9", "21"], "time": [3021, 3348, 7886, 8486, 10350, 24956]}, "edge": {"target": [], "time": []}}}, "displayed_time": "20.03", "trialTime": 25382, "trial_type": "mouselab-mdp", "trial_index": 42, "time_elapsed": 1826395, "internal_node_id": "0.0-4.0-1.0-33.0"}}, {"uniqueid": "w42330923:a13806729", "current_trial": 43, "dateTime": 1691143940798, "trialdata": {"revealed_states": [], "clicked_states": [], "num_clicks_accrued": [0, 0, 0, 0, 0, 0, 0, 0, 0, 0, 0, 0, 0], "stateRewards": ["", 1, 2, -3, -5, 66, -50, -47, -5, 1, 28, -27, 1, 1, -1, -6, 37, -25, 56, 1, -82, -66, -40, -1, -4, -7, 15, -61, -23, 26, 10, 14, -56, 29], "withholdReward": false, "trial_id": "mdp_trial_35", "block": "test", "trialIndex": 36, "score": 51, "costs": 0, "simulationMode": [null, null, null, null, null], "rewards": [1, 1, -1, -6, 56], "path": ["0", "0", "12", "13", "14", "15", "18"], "rt": [5743, 121, 45, 749, 1121], "actions": ["right", "right", "right", "up", "left"], "actionTimes": [9718, 10396, 10989, 12364, 14090], "queries": {"click": {"state": {"target": [], "time": []}, "edge": {"target": [], "time": []}}, "mouseover": {"state": {"target": ["1", "4", "7", "2"], "time": [6144, 6274, 6709, 7602]}, "edge": {"target": [], "time": []}}, "mouseout": {"state": {"target": ["0", "1", "4", "7", "2"], "time": [1795, 6209, 6589, 7474, 7798]}, "edge": {"target": [], "time": []}}}, "displayed_time": "17.98", "trialTime": 21699, "trial_type": "mouselab-mdp", "trial_index": 43, "time_elapsed": 1852224, "internal_node_id": "0.0-4.0-1.0-34.0"}}, {"uniqueid": "w42330923:a13806729", "current_trial": 44, "dateTime": 1691143968485, "trialdata": {"revealed_states": [], "clicked_states": [], "num_clicks_accrued": [0, 0, 0, 0, 0, 0, 0, 0, 0, 0, 0, 0, 0], "stateRewards": ["", 2, -1, 5, 8, 75, -35, -77, 1, -9, -81, -58, 1, 2, -7, 5, 77, -16, 19, 16, -10, -18, 40, -2, 3, 7, -5, 64, 1, -62, 10, 27, 10, 65], "withholdReward": false, "trial_id": "mdp_trial_36", "block": "test", "trialIndex": 37, "score": 67, "costs": 0, "simulationMode": [null, null, null, null, null], "rewards": [-2, 3, 7, -5, 64], "path": ["0", "0", "23", "24", "25", "26", "27"], "rt": [5086, 25, 201, 771, 49], "actions": ["left", "left", "left", "up", "up"], "actionTimes": [10357, 10956, 11717, 13021, 13664], "queries": {"click": {"state": {"target": [], "time": []}, "edge": {"target": [], "time": []}}, "mouseover": {"state": {"target": ["23", "26", "27"], "time": [6888, 7208, 7956]}, "edge": {"target": [], "time": []}}, "mouseout": {"state": {"target": ["15", "18", "12", "23", "26", "27"], "time": [1762, 1891, 2202, 7056, 7574, 9322]}, "edge": {"target": [], "time": []}}}, "displayed_time": "19.27", "trialTime": 21796, "trial_type": "mouselab-mdp", "trial_index": 44, "time_elapsed": 1879914, "internal_node_id": "0.0-4.0-1.0-35.0"}}, {"uniqueid": "w42330923:a13806729", "current_trial": 45, "dateTime": 1691143992105, "trialdata": {"revealed_states": [], "clicked_states": ["29", "33"], "num_clicks_accrued": [0, 0, 0, 0, 0, 0, 0, 0, 0, 0, 0, 0, 0], "stateRewards": ["", -1, -2, -8, 8, -27, -82, 19, -14, -62, 4, 1, -2, 2, 6, 10, 73, -51, -2, 2, 73, -48, 54, -1, 2, -4, 11, -25, 47, 86, 15, 33, 43, -42], "withholdReward": false, "trial_id": "mdp_trial_37", "block": "test", "trialIndex": 38, "score": 91.2, "costs": -2.8, "simulationMode": [null, null, null, null, null], "rewards": [-1, 2, -4, 11, 86], "path": ["0", "0", "23", "24", "25", "26", "29"], "rt": [6093, 106, 209, 372, 199], "actions": ["left", "left", "left", "up", "left"], "actionTimes": [10983, 11665, 12436, 13375, 14148], "queries": {"click": {"state": {"target": ["29", "33"], "time": [6836, 8947]}, "edge": {"target": [], "time": []}}, "mouseover": {"state": {"target": ["0", "28", "26", "29", "33"], "time": [5149, 5949, 6090, 6350, 8153]}, "edge": {"target": [], "time": []}}, "mouseout": {"state": {"target": ["15", "0", "28", "26", "29", "29", "33"], "time": [1644, 5865, 6005, 6251, 6972, 7566, 9537]}, "edge": {"target": [], "time": []}}}, "displayed_time": "18.90", "trialTime": 20234, "trial_type": "mouselab-mdp", "trial_index": 45, "time_elapsed": 1903530, "internal_node_id": "0.0-4.0-1.0-36.0"}}, {"uniqueid": "w42330923:a13806729", "current_trial": 46, "dateTime": 1691144024607, "trialdata": {"revealed_states": [], "clicked_states": [], "num_clicks_accrued": [0, 0, 0, 0, 0, 0, 0, 0, 0, 0, 0, 0, 0], "stateRewards": ["", -2, 1, -7, -8, -37, -76, -87, 11, 30, -63, 80, -1, 4, 2, -1, 42, 17, 52, -3, -75, -80, -68, 2, -3, -5, -15, -48, 82, 24, -7, 5, -22, -71], "withholdReward": false, "trial_id": "mdp_trial_38", "block": "test", "trialIndex": 39, "score": -92, "costs": 0, "simulationMode": [null, null, null, null, null], "rewards": [-2, 1, -7, -8, -76], "path": ["0", "0", "1", "2", "3", "4", "6"], "rt": [5704, 56, 388, 571, 955], "actions": ["up", "up", "up", "right", "right"], "actionTimes": [19425, 20078, 21019, 22153, 23670], "queries": {"click": {"state": {"target": [], "time": []}, "edge": {"target": [], "time": []}}, "mouseover": {"state": {"target": ["0"], "time": [17353]}, "edge": {"target": [], "time": []}}, "mouseout": {"state": {"target": ["10", "0", "0", "0"], "time": [10308, 10504, 16978, 26521]}, "edge": {"target": [], "time": []}}}, "displayed_time": "27.72", "trialTime": 29017, "trial_type": "mouselab-mdp", "trial_index": 46, "time_elapsed": 1936036, "internal_node_id": "0.0-4.0-1.0-37.0"}}, {"uniqueid": "w42330923:a13806729", "current_trial": 47, "dateTime": 1691144059135, "trialdata": {"revealed_states": [], "clicked_states": ["27", "11", "6", "16", "21", "20", "32", "33"], "num_clicks_accrued": [0, 0, 0, 0, 0, 0, 0, 0, 0, 0, 0, 0, 0], "stateRewards": ["", -2, 2, -2, -7, -50, -62, -45, 7, 36, -24, -72, -1, -1, 8, -1, -67, 20, -52, 2, 35, -50, 80, -1, 1, 6, -6, -70, 6, 88, 8, -47, 74, -19], "withholdReward": false, "trial_id": "mdp_trial_39", "block": "test", "trialIndex": 40, "score": 76.8, "costs": -11.200000000000001, "simulationMode": [null, null, null, null, null], "rewards": [-1, 1, 6, 8, 74], "path": ["0", "0", "23", "24", "25", "30", "32"], "rt": [20534, 299, 405, 146, 222], "actions": ["left", "left", "left", "down", "down"], "actionTimes": [24456, 25341, 26313, 27040, 27854], "queries": {"click": {"state": {"target": ["27", "11", "6", "16", "21", "20", "32", "33"], "time": [5632, 7864, 10151, 12934, 14963, 17400, 20031, 22096]}, "edge": {"target": [], "time": []}}, "mouseover": {"state": {"target": ["28", "27", "11", "8", "6", "16", "20", "21", "20", "22", "32", "33"], "time": [4761, 5008, 6983, 8613, 9129, 12445, 14047, 14433, 16846, 18072, 18796, 21393]}, "edge": {"target": [], "time": []}}, "mouseout": {"state": {"target": ["14", "13", "12", "0", "28", "27", "11", "8", "6", "6", "16", "20", "21", "20", "22", "32", "33"], "time": [1039, 1097, 1145, 1245, 4854, 6421, 8591, 8804, 10270, 11992, 13024, 14129, 15119, 17900, 18196, 20164, 22748]}, "edge": {"target": [], "time": []}}}, "displayed_time": "28.42", "trialTime": 30972, "trial_type": "mouselab-mdp", "trial_index": 47, "time_elapsed": 1970561, "internal_node_id": "0.0-4.0-1.0-38.0"}}, {"uniqueid": "w42330923:a13806729", "current_trial": 48, "dateTime": 1691144086731, "trialdata": {"revealed_states": [], "clicked_states": ["5", "9", "27", "32"], "num_clicks_accrued": [0, 0, 0, 0, 0, 0, 0, 0, 0, 0, 0, 0, 0], "stateRewards": ["", 2, -2, -8, 9, -20, 55, -58, 14, 42, 2, 36, 1, -3, -5, 5, -58, 57, 60, 16, 57, 30, -70, -2, 1, 3, 10, 59, 23, 77, -13, -26, 88, -72], "withholdReward": false, "trial_id": "mdp_trial_40", "block": "test", "trialIndex": 41, "score": 71.4, "costs": -5.6, "simulationMode": [null, null, null, null, null], "rewards": [-2, 1, 3, -13, 88], "path": ["0", "0", "23", "24", "25", "30", "32"], "rt": [11819, 111, 235, 637, 200], "actions": ["left", "left", "left", "down", "down"], "actionTimes": [15950, 16628, 17429, 18601, 19372], "queries": {"click": {"state": {"target": ["5", "9", "27", "32"], "time": [6109, 8200, 10182, 12858]}, "edge": {"target": [], "time": []}}, "mouseover": {"state": {"target": ["2", "5", "9", "11", "27", "26", "25", "32"], "time": [5122, 5591, 7071, 8776, 9467, 11082, 11528, 12059]}, "edge": {"target": [], "time": []}}, "mouseout": {"state": {"target": ["0", "2", "5", "9", "11", "27", "27", "26", "25", "32", "19"], "time": [5056, 5211, 6675, 8269, 8844, 10267, 10996, 11509, 11639, 13740, 22256]}, "edge": {"target": [], "time": []}}}, "displayed_time": "19.95", "trialTime": 24315, "trial_type": "mouselab-mdp", "trial_index": 48, "time_elapsed": 1998156, "internal_node_id": "0.0-4.0-1.0-39.0"}}, {"uniqueid": "w42330923:a13806729", "current_trial": 49, "dateTime": 1691144156592, "trialdata": {"rt": 69041, "response": {"Q0": "$-2 to $2", "Q1": "$-4 to $4", "Q2": "$-16 to $16", "Q3": "The cost for clicking on nodes varied between nodes.", "Q4": "Very motivated"}, "question_order": [0, 1, 2, 3, 4], "trial_id": "final_quiz_control", "trial_type": "survey-multi-choice", "trial_index": 49, "time_elapsed": 2068022, "internal_node_id": "0.0-4.0-2.0"}}, {"uniqueid": "w42330923:a13806729", "current_trial": 50, "dateTime": 1691144344313, "trialdata": {"rt": 187125, "response": {"Q0": "After the first few rounds I realized that the values of the nodes in the pathways to getting to the final nodes did not matter because you had to go through them anyway. So, I would reveal the values of the nodes at the end point, and pick the highest one.   ", "Q1": "No, I used the same strategy. At some point I did a few rounds randomly and in some I did well and in some I lost a lot, so I just went back to my strategy. ", "Q2": "There was no difficulty to it. I think my strategy worked well in most of the rounds. "}, "trial_id": "self_report_control", "trial_type": "survey-text", "trial_index": 50, "time_elapsed": 2255743, "internal_node_id": "0.0-4.0-3.0"}}, {"uniqueid": "w42330923:a13806729", "current_trial": 51, "dateTime": 1691144376830, "trialdata": {"rt": 32281, "response": {"gender": "female", "age": "21", "colorblind": "0", "effort": "0"}, "trial_type": "survey-html-form", "trial_index": 51, "time_elapsed": 2288261, "internal_node_id": "0.0-4.0-4.0"}}, {"uniqueid": "w42330923:a13806729", "current_trial": 52, "dateTime": 1691144404942, "trialdata": {"rt": 28022, "response": {"Q0": "No. ", "Q1": "No. ", "Q2": "N/A"}, "trial_type": "survey-text", "trial_index": 52, "time_elapsed": 2316372, "internal_node_id": "0.0-4.0-5.0"}}, {"uniqueid": "w42330923:a13806729", "current_trial": 53, "dateTime": 1691144411488, "trialdata": {"rt": 6322, "stimulus": "Press 'Finish HIT' in order to reach the completion code. Once the data has been saved, you will receive the code either in this window or in the original browser window where you started the experiment.\n", "response": 0, "trial_type": "html-button-response", "trial_index": 53, "time_elapsed": 2322918, "internal_node_id": "0.0-5.0"}}, {"uniqueid": "w42330923:a13806729", "current_trial": 54, "dateTime": 1691144412578, "trialdata": {"success": true, "trial_type": "fullscreen", "trial_index": 54, "time_elapsed": 2324009, "internal_node_id": "0.0-6.0"}}], "questiondata": {"params": {"CODE": "C6DMOQA6", "MIN_TIME": 14, "inspectCost": 1, "startTime": "Fri Aug 04 2023 11:41:25 GMT+0200 (South Africa Standard Time)", "bonusRate": 0.002, "variance": "1_2_4_8_44", "branching": "31123"}, "final_score": 1712.8}, "eventdata": [{"eventtype": "initialized", "value": null, "timestamp": 1691142084678, "interval": 0}, {"eventtype": "window_resize", "value": [1024, 654], "timestamp": 1691142084679, "interval": 1}, {"eventtype": "window_resize", "value": [1024, 654], "timestamp": 1691142085252, "interval": 573}, {"eventtype": "window_resize", "value": [1366, 768], "timestamp": 1691142092561, "interval": 7309}], "useragent": "Mozilla/5.0 (Windows NT 10.0; Win64; x64) AppleWebKit/537.36 (KHTML, like Gecko) Chrome/115.0.0.0 Safari/537.36", "mode": "live", "id": "w42330923:a13806729", "status": "user data saved", "Beginhit": "2023-08-04 09:41:22.061115", "Beginexp": "2023-08-04 09:41:34.548172", "Endhit": "2023-08-04 10:20:23.740971", "psiturkStatus": 3, "browser": "<redacted>", "platform": "windows", "language": "en-US"}