{"condition": 0, "counterbalance": 0, "assignmentId": "a57423394", "workerId": "w91135227", "hitId": "h95626691", "currenttrial": 14, "bonus": 0, "data": [{"uniqueid": "w91135227:a57423394", "current_trial": 0, "dateTime": 1691160430359, "trialdata": {"success": true, "trial_type": "fullscreen", "trial_index": 0, "time_elapsed": 6231, "internal_node_id": "0.0-0.0"}}, {"uniqueid": "w91135227:a57423394", "current_trial": 1, "dateTime": 1691160457449, "trialdata": {"view_history": [{"page_index": 0, "viewing_time": 27070}], "rt": 27071, "trial_id": "exp_instructions_control", "trial_type": "instructions", "trial_index": 1, "time_elapsed": 33321, "internal_node_id": "0.0-1.0"}}, {"uniqueid": "w91135227:a57423394", "current_trial": 2, "dateTime": 1691160461398, "trialdata": {"success": true, "trial_type": "fullscreen", "trial_index": 2, "time_elapsed": 37271, "internal_node_id": "0.0-2.0-0.0"}}, {"uniqueid": "w91135227:a57423394", "current_trial": 3, "dateTime": 1691160813572, "trialdata": {"view_history": [{"page_index": 0, "viewing_time": 173353}, {"page_index": 1, "viewing_time": 107721}, {"page_index": 2, "viewing_time": 31097}, {"page_index": 3, "viewing_time": 39990}], "rt": 352163, "trial_id": "mouselab_instructions_1_control", "trial_type": "instructions", "trial_index": 3, "time_elapsed": 389444, "internal_node_id": "0.0-2.0-1.0"}}, {"uniqueid": "w91135227:a57423394", "current_trial": 4, "dateTime": 1691160833511, "trialdata": {"revealed_states": [], "clicked_states": [], "num_clicks_accrued": [0, 0, 0, 0, 0, 0, 0, 0, 0, 0, 0, 0, 0], "stateRewards": ["", -10, 10, 10, 10, -10, -10, -10, -10, -10, -10, -10, 10, 10, -10, 10, -10, 10, -10, -10, -10, 10, -10, -10, 10, -10, -10, 10, 10, 10, -10, -10, 10, -10], "withholdReward": false, "trial_id": "practice_1", "block": "test", "trialIndex": 0, "score": 13.5, "costs": 0, "simulationMode": [null, null, null, null, null], "rewards": [-10, 10, 10, 10, -10], "path": ["0", "0", "1", "2", "3", "4", "7"], "rt": [4243, 43, 83, 955, 3140], "actions": ["up", "up", "up", "right", "down"], "actionTimes": [6318, 6877, 7481, 8975, 12640], "queries": {"click": {"state": {"target": [], "time": []}, "edge": {"target": [], "time": []}}, "mouseover": {"state": {"target": ["1", "0", "0", "1", "2"], "time": [2412, 3352, 3512, 3801, 3833]}, "edge": {"target": [], "time": []}}, "mouseout": {"state": {"target": ["0", "1", "0", "0", "1"], "time": [2211, 2462, 3385, 3763, 3827]}, "edge": {"target": [], "time": []}}}, "displayed_time": "13.15", "trialTime": 18504, "trial_type": "mouselab-mdp", "trial_index": 4, "time_elapsed": 409383, "internal_node_id": "0.0-2.0-2.0-0.0"}}, {"uniqueid": "w91135227:a57423394", "current_trial": 5, "dateTime": 1691160849576, "trialdata": {"revealed_states": [], "clicked_states": [], "num_clicks_accrued": [0, 0, 0, 0, 0, 0, 0, 0, 0, 0, 0, 0, 0], "stateRewards": ["", 10, 10, 10, 10, -10, -10, -10, -10, -10, 10, 10, 10, -10, 10, -10, -10, -10, -10, 10, -10, 10, 10, 10, 10, 10, -10, -10, -10, 10, -10, -10, 10, 10], "withholdReward": false, "trial_id": "practice_2", "block": "test", "trialIndex": 1, "score": -6.5, "costs": 0, "simulationMode": [null, null, null, null, null], "rewards": [10, -10, 10, -10, -10], "path": ["0", "0", "12", "13", "14", "15", "16"], "rt": [1169, 12, 15, 957, 75], "actions": ["right", "right", "right", "up", "up"], "actionTimes": [7562, 8090, 8644, 10119, 10703], "queries": {"click": {"state": {"target": [], "time": []}, "edge": {"target": [], "time": []}}, "mouseover": {"state": {"target": [], "time": []}, "edge": {"target": [], "time": []}}, "mouseout": {"state": {"target": ["2", "1", "0"], "time": [1985, 2015, 2324]}, "edge": {"target": [], "time": []}}}, "displayed_time": "11.24", "trialTime": 15432, "trial_type": "mouselab-mdp", "trial_index": 5, "time_elapsed": 425446, "internal_node_id": "0.0-2.0-2.0-1.0"}}, {"uniqueid": "w91135227:a57423394", "current_trial": 6, "dateTime": 1691160919527, "trialdata": {"view_history": [{"page_index": 0, "viewing_time": 57259}, {"page_index": 1, "viewing_time": 12678}], "rt": 69940, "trial_id": "mouselab_instructions_2_control", "trial_type": "instructions", "trial_index": 6, "time_elapsed": 495400, "internal_node_id": "0.0-2.0-3.0"}}, {"uniqueid": "w91135227:a57423394", "current_trial": 7, "dateTime": 1691160996161, "trialdata": {"rt": 76610, "response": {"Q0": "The cost for clicking on nodes may vary between nodes.", "Q1": "The better I perform the higher my bonus will be.", "Q2": "No, the amount of cash at each node of the web may be different each time.", "Q3": "To get the highest total score.", "Q4": "Any time during the round.", "Q5": "3 seconds"}, "question_order": [0, 1, 2, 3, 4, 5], "correct": {"Q0": "The cost for clicking on nodes may vary between nodes.", "Q1": "The better I perform the higher my bonus will be.", "Q2": "No, the amount of cash at each node of the web may be different each time.", "Q3": "To get the highest total score.", "Q4": "Only before moving the spider.", "Q5": "3 seconds"}, "trial_id": "mouselab_quiz_control", "trial_type": "survey-multi-choice", "trial_index": 7, "time_elapsed": 572033, "internal_node_id": "0.0-2.0-4.0"}}, {"uniqueid": "w91135227:a57423394", "current_trial": 8, "dateTime": 1691161010643, "trialdata": {"success": true, "trial_type": "fullscreen", "trial_index": 8, "time_elapsed": 586516, "internal_node_id": "0.0-2.1-0.1"}}, {"uniqueid": "w91135227:a57423394", "current_trial": 9, "dateTime": 1691161113925, "trialdata": {"view_history": [{"page_index": 0, "viewing_time": 33998}, {"page_index": 1, "viewing_time": 56930}, {"page_index": 2, "viewing_time": 9777}, {"page_index": 3, "viewing_time": 2571}], "rt": 103277, "trial_id": "mouselab_instructions_1_control", "trial_type": "instructions", "trial_index": 9, "time_elapsed": 689797, "internal_node_id": "0.0-2.1-1.1"}}, {"uniqueid": "w91135227:a57423394", "current_trial": 10, "dateTime": 1691161128496, "trialdata": {"revealed_states": [], "clicked_states": [], "num_clicks_accrued": [0, 0, 0, 0, 0, 0, 0, 0, 0, 0, 0, 0, 0], "stateRewards": ["", -10, 10, 10, 10, -10, -10, -10, -10, -10, -10, -10, 10, 10, -10, 10, -10, 10, -10, -10, -10, 10, -10, -10, 10, -10, -10, 10, 10, 10, -10, -10, 10, -10], "withholdReward": false, "trial_id": "practice_1", "block": "test", "trialIndex": 2, "score": -6.5, "costs": 0, "simulationMode": [null, null, null, null, null], "rewards": [-10, 10, -10, -10, 10], "path": ["0", "0", "23", "24", "25", "30", "32"], "rt": [3710, 643, 289, 1015, 80], "actions": ["left", "left", "left", "down", "down"], "actionTimes": [7387, 8568, 9381, 10926, 11526], "queries": {"click": {"state": {"target": [], "time": []}, "edge": {"target": [], "time": []}}, "mouseover": {"state": {"target": ["23"], "time": [5751]}, "edge": {"target": [], "time": []}}, "mouseout": {"state": {"target": ["12", "23"], "time": [1783, 5785]}, "edge": {"target": [], "time": []}}}, "displayed_time": "12.06", "trialTime": 13852, "trial_type": "mouselab-mdp", "trial_index": 10, "time_elapsed": 704367, "internal_node_id": "0.0-2.1-2.1-0.1"}}, {"uniqueid": "w91135227:a57423394", "current_trial": 11, "dateTime": 1691161149856, "trialdata": {"revealed_states": [], "clicked_states": [], "num_clicks_accrued": [0, 0, 0, 0, 0, 0, 0, 0, 0, 0, 0, 0, 0], "stateRewards": ["", 10, 10, 10, 10, -10, -10, -10, -10, -10, 10, 10, 10, -10, 10, -10, -10, -10, -10, 10, -10, 10, 10, 10, 10, 10, -10, -10, -10, 10, -10, -10, 10, 10], "withholdReward": false, "trial_id": "practice_2", "block": "test", "trialIndex": 3, "score": 33.5, "costs": 0, "simulationMode": [null, null, null, null, null], "rewards": [10, 10, 10, -10, 10], "path": ["0", "0", "1", "2", "3", "8", "10"], "rt": [1911, 354, 3171, 292, 601], "actions": ["up", "up", "up", "left", "down"], "actionTimes": [11943, 12845, 16546, 17365, 18490], "queries": {"click": {"state": {"target": [], "time": []}, "edge": {"target": [], "time": []}}, "mouseover": {"state": {"target": [], "time": []}, "edge": {"target": [], "time": []}}, "mouseout": {"state": {"target": ["23"], "time": [5549]}, "edge": {"target": [], "time": []}}}, "displayed_time": "19.01", "trialTime": 20646, "trial_type": "mouselab-mdp", "trial_index": 11, "time_elapsed": 725728, "internal_node_id": "0.0-2.1-2.1-1.1"}}, {"uniqueid": "w91135227:a57423394", "current_trial": 12, "dateTime": 1691161168321, "trialdata": {"view_history": [{"page_index": 0, "viewing_time": 13387}, {"page_index": 1, "viewing_time": 5061}], "rt": 18449, "trial_id": "mouselab_instructions_2_control", "trial_type": "instructions", "trial_index": 12, "time_elapsed": 744194, "internal_node_id": "0.0-2.1-3.1"}}, {"uniqueid": "w91135227:a57423394", "current_trial": 13, "dateTime": 1691161222918, "trialdata": {"rt": 54575, "response": {"Q0": "The cost for clicking on nodes may vary between nodes.", "Q1": "The better I perform the higher my bonus will be.", "Q2": "No, the structure of the web will be different each time.", "Q3": "To get the highest total score.", "Q4": "Only before moving the spider.", "Q5": "3 seconds"}, "question_order": [0, 1, 2, 3, 4, 5], "correct": {"Q0": "The cost for clicking on nodes may vary between nodes.", "Q1": "The better I perform the higher my bonus will be.", "Q2": "No, the amount of cash at each node of the web may be different each time.", "Q3": "To get the highest total score.", "Q4": "Only before moving the spider.", "Q5": "3 seconds"}, "trial_id": "mouselab_quiz_control", "trial_type": "survey-multi-choice", "trial_index": 13, "time_elapsed": 798791, "internal_node_id": "0.0-2.1-4.1"}}], "questiondata": {"params": {"CODE": "C6DMOQA6", "MIN_TIME": 14, "inspectCost": 1, "startTime": "Fri Aug 04 2023 15:46:57 GMT+0100 (British Summer Time)", "bonusRate": 0.002, "variance": "1_2_4_8_44", "branching": "31123"}}, "eventdata": [{"eventtype": "initialized", "value": null, "timestamp": 1691160416943, "interval": 0}, {"eventtype": "window_resize", "value": [1028, 744], "timestamp": 1691160416943, "interval": 0}, {"eventtype": "window_resize", "value": [1028, 744], "timestamp": 1691160417569, "interval": 626}, {"eventtype": "window_resize", "value": [1536, 864], "timestamp": 1691160429668, "interval": 12099}, {"eventtype": "focus", "value": "off", "timestamp": 1691160831089, "interval": 401421}, {"eventtype": "focus", "value": "on", "timestamp": 1691160831913, "interval": 824}, {"eventtype": "focus", "value": "off", "timestamp": 1691161006302, "interval": 174389}, {"eventtype": "focus", "value": "on", "timestamp": 1691161006303, "interval": 1}, {"eventtype": "window_resize", "value": [1028, 744], "timestamp": 1691161006525, "interval": 222}, {"eventtype": "window_resize", "value": [1536, 864], "timestamp": 1691161009928, "interval": 3403}, {"eventtype": "focus", "value": "off", "timestamp": 1691161241644, "interval": 231716}], "useragent": "Mozilla/5.0 (Windows NT 10.0; Win64; x64) AppleWebKit/537.36 (KHTML, like Gecko) Chrome/115.0.0.0 Safari/537.36", "mode": "live", "id": "w91135227:a57423394", "status": "user data saved", "Beginhit": "2023-08-04 14:46:51.842992", "Beginexp": "2023-08-04 14:47:09.990283", "Endhit": null, "psiturkStatus": 6, "browser": "<redacted>", "platform": "windows", "language": "en-GB", "excludeReason": "quizfail"}