{"condition": 0, "counterbalance": 0, "assignmentId": "a29279708", "workerId": "w24824436", "hitId": "h27071252", "currenttrial": 55, "bonus": 0, "data": [{"uniqueid": "w24824436:a29279708", "current_trial": 0, "dateTime": 1691142073437, "trialdata": {"success": true, "trial_type": "fullscreen", "trial_index": 0, "time_elapsed": 4972, "internal_node_id": "0.0-0.0"}}, {"uniqueid": "w24824436:a29279708", "current_trial": 1, "dateTime": 1691142083639, "trialdata": {"view_history": [{"page_index": 0, "viewing_time": 10187}], "rt": 10188, "trial_id": "exp_instructions_control", "trial_type": "instructions", "trial_index": 1, "time_elapsed": 15175, "internal_node_id": "0.0-1.0"}}, {"uniqueid": "w24824436:a29279708", "current_trial": 2, "dateTime": 1691142086983, "trialdata": {"success": true, "trial_type": "fullscreen", "trial_index": 2, "time_elapsed": 18519, "internal_node_id": "0.0-2.0-0.0"}}, {"uniqueid": "w24824436:a29279708", "current_trial": 3, "dateTime": 1691142331449, "trialdata": {"view_history": [{"page_index": 0, "viewing_time": 95369}, {"page_index": 1, "viewing_time": 79844}, {"page_index": 2, "viewing_time": 14755}, {"page_index": 3, "viewing_time": 54484}], "rt": 244454, "trial_id": "mouselab_instructions_1_control", "trial_type": "instructions", "trial_index": 3, "time_elapsed": 262985, "internal_node_id": "0.0-2.0-1.0"}}, {"uniqueid": "w24824436:a29279708", "current_trial": 4, "dateTime": 1691142411784, "trialdata": {"revealed_states": [], "clicked_states": ["23", "24", "25", "30", "33", "13", "14", "15", "2", "3", "4", "8", "9", "11", "10"], "num_clicks_accrued": [0, 0, 0, 0, 0, 0, 0, 0, 0, 0, 0, 0, 0], "stateRewards": ["", -10, 10, 10, 10, 10, 10, -10, 10, -10, 10, -10, -10, -10, -10, 10, -10, 10, 10, -10, 10, 10, 10, 10, -10, 10, 10, 10, -10, -10, 10, 10, 10, 10], "withholdReward": false, "trial_id": "practice_1", "block": "test", "trialIndex": 0, "score": 26, "costs": -7.5, "simulationMode": [null, null, null, null, null], "rewards": [10, -10, 10, 10, 10], "path": ["0", "0", "23", "24", "25", "30", "33"], "rt": [63010, 736, 184, 54, 38], "actions": ["left", "left", "left", "down", "left"], "actionTimes": [70498, 71766, 72518, 73109, 73680], "queries": {"click": {"state": {"target": ["23", "24", "25", "30", "33", "13", "14", "15", "2", "3", "4", "8", "9", "11", "10"], "time": [11158, 13451, 15109, 20286, 22135, 26021, 27318, 29532, 32427, 35131, 36944, 40939, 43510, 45409, 46910]}, "edge": {"target": [], "time": []}}, "mouseover": {"state": {"target": ["0", "23", "24", "25", "26", "30", "30", "33", "12", "12", "12", "13", "14", "15", "15", "16", "7", "2", "2", "1", "3", "4", "4", "8", "8", "8", "9", "5", "6", "4", "3", "11", "10", "7", "7", "4", "6", "6", "4", "7", "2", "1", "18", "1", "24", "25", "24", "23", "24", "23", "0", "23", "0"], "time": [8369, 10235, 13172, 14737, 16222, 18934, 19380, 21922, 24382, 25120, 25304, 25804, 27173, 27728, 29257, 30220, 31109, 31209, 32089, 33082, 34907, 35923, 36407, 37579, 38632, 40672, 43274, 43932, 44297, 44414, 44804, 45289, 46208, 48206, 48533, 48856, 48944, 49887, 50072, 53192, 53407, 54073, 54142, 54472, 54606, 54975, 55763, 55808, 56591, 56651, 57074, 57390, 63641]}, "edge": {"target": [], "time": []}}, "mouseout": {"state": {"target": ["1", "1", "12", "0", "0", "0", "23", "24", "25", "26", "25", "30", "30", "33", "30", "30", "30", "12", "12", "12", "13", "14", "15", "15", "16", "7", "2", "2", "1", "2", "3", "4", "4", "8", "8", "8", "8", "9", "5", "6", "4", "3", "8", "11", "10", "7", "7", "4", "6", "6", "4", "7", "2", "1", "18", "1", "24", "25", "24", "23", "24", "23", "0", "23", "0"], "time": [null, 501, 1016, 3384, 8121, 9287, 12972, 13992, 15710, 18856, 18906, 19205, 21470, 22625, 22691, 23839, 24256, 24704, 25171, 25328, 26864, 27670, 27790, 29646, 30578, 31172, 31656, 32938, 34456, 34539, 35835, 36112, 36971, 37990, 39573, 42021, 42756, 43872, 43970, 44346, 44774, 44838, 44936, 45791, 48124, 48226, 48708, 48907, 49229, 49976, 53157, 53215, 53506, 54097, 54378, 54505, 54907, 55739, 55791, 55833, 56628, 56708, 57273, 60374, 63664]}, "edge": {"target": [], "time": []}}}, "displayed_time": "74.23", "trialTime": 77731, "trial_type": "mouselab-mdp", "trial_index": 4, "time_elapsed": 343318, "internal_node_id": "0.0-2.0-2.0-0.0"}}, {"uniqueid": "w24824436:a29279708", "current_trial": 5, "dateTime": 1691142475234, "trialdata": {"revealed_states": [], "clicked_states": ["23", "25", "26", "29", "12", "13", "14", "30", "33", "1", "2", "3", "8", "11", "4", "6", "5", "9", "24"], "num_clicks_accrued": [0, 0, 0, 0, 0, 0, 0, 0, 0, 0, 0, 0, 0], "stateRewards": ["", 10, 10, -10, 10, -10, -10, -10, 10, 10, 10, 10, -10, -10, 10, 10, 10, -10, 10, -10, -10, 10, -10, -10, 10, 10, -10, -10, -10, 10, 10, 10, 10, -10], "withholdReward": false, "trial_id": "practice_2", "block": "test", "trialIndex": 1, "score": 4, "costs": -9.5, "simulationMode": [null, null, null, null, null], "rewards": [-10, 10, 10, 10, -10], "path": ["0", "0", "23", "24", "25", "30", "33"], "rt": [52528, 88, 150, 108, 638], "actions": ["left", "left", "left", "down", "left"], "actionTimes": [56292, 56899, 57590, 58227, 59397], "queries": {"click": {"state": {"target": ["23", "25", "26", "29", "12", "13", "14", "30", "33", "1", "2", "3", "8", "11", "4", "6", "5", "9", "24"], "time": [4886, 6685, 7876, 9689, 13945, 15621, 17169, 19033, 20365, 22283, 24208, 26427, 27595, 29577, 33504, 35271, 36958, 38155, 41921]}, "edge": {"target": [], "time": []}}, "mouseover": {"state": {"target": ["23", "24", "25", "26", "26", "29", "29", "1", "18", "14", "13", "12", "1", "12", "13", "13", "14", "19", "30", "33", "2", "1", "1", "2", "2", "3", "8", "3", "8", "11", "4", "4", "3", "4", "4", "6", "5", "9", "3", "2", "12", "0", "24", "25", "30", "31", "7", "2", "23", "24", "23"], "time": [3979, 5253, 5979, 7142, 7702, 8499, 9440, 10184, 10475, 10941, 11174, 11574, 13007, 13758, 14371, 15309, 16087, 17770, 18542, 19554, 21243, 21494, 21808, 23089, 23932, 24590, 25709, 26078, 26941, 28229, 30978, 31343, 31459, 32027, 32775, 34158, 36579, 37519, 38715, 39106, 39526, 40593, 41330, 46002, 46877, 47994, 48745, 49161, 49279, 49729, 50294]}, "edge": {"target": [], "time": []}}, "mouseout": {"state": {"target": ["22", "0", "23", "24", "25", "26", "26", "26", "29", "26", "29", "26", "1", "18", "14", "13", "12", "1", "12", "13", "13", "14", "19", "30", "33", "2", "1", "1", "2", "2", "3", "8", "3", "8", "11", "8", "3", "4", "4", "3", "4", "4", "6", "5", "9", "3", "2", "12", "0", "24", "24", "25", "30", "31", "7", "2", "23", "24", "23"], "time": [1120, 3814, 5171, 5875, 7103, 7181, 8040, 8354, 9139, 9379, 10086, 10147, 10218, 10509, 11092, 11492, 12541, 13274, 14025, 14949, 15990, 17654, 18153, 19483, 20759, 21459, 21529, 22618, 23659, 24502, 25544, 26042, 26901, 28050, 30051, 30237, 30694, 31043, 31426, 31494, 32059, 33982, 35932, 37433, 38675, 38762, 39143, 40395, 41228, 45045, 45903, 46024, 47910, 48328, 48827, 49186, 49694, 50045, 50337]}, "edge": {"target": [], "time": []}}}, "displayed_time": "59.91", "trialTime": 61845, "trial_type": "mouselab-mdp", "trial_index": 5, "time_elapsed": 406768, "internal_node_id": "0.0-2.0-2.0-1.0"}}, {"uniqueid": "w24824436:a29279708", "current_trial": 6, "dateTime": 1691142539398, "trialdata": {"view_history": [{"page_index": 0, "viewing_time": 52873}, {"page_index": 1, "viewing_time": 11280}], "rt": 64154, "trial_id": "mouselab_instructions_2_control", "trial_type": "instructions", "trial_index": 6, "time_elapsed": 470934, "internal_node_id": "0.0-2.0-3.0"}}, {"uniqueid": "w24824436:a29279708", "current_trial": 7, "dateTime": 1691142591203, "trialdata": {"rt": 51788, "response": {"Q0": "The cost for clicking on nodes may vary between nodes.", "Q1": "The better I perform the higher my bonus will be.", "Q2": "No, the amount of cash at each node of the web may be different each time.", "Q3": "To get the highest total score.", "Q4": "Only before moving the spider.", "Q5": "3 seconds"}, "question_order": [0, 1, 2, 3, 4, 5], "correct": {"Q0": "The cost for clicking on nodes may vary between nodes.", "Q1": "The better I perform the higher my bonus will be.", "Q2": "No, the amount of cash at each node of the web may be different each time.", "Q3": "To get the highest total score.", "Q4": "Only before moving the spider.", "Q5": "3 seconds"}, "trial_id": "mouselab_quiz_control", "trial_type": "survey-multi-choice", "trial_index": 7, "time_elapsed": 522739, "internal_node_id": "0.0-2.0-4.0"}}, {"uniqueid": "w24824436:a29279708", "current_trial": 8, "dateTime": 1691142608384, "trialdata": {"rt": 17153, "stimulus": "\n<h1> Get ready to start the game! </h1>\n\nThank you for reading the instructions. Get ready start with the 40 rounds of this game.\n<br><br>\nIf you need to take a break, feel free to take one after the end of a round, before continuing to the next one.\n<br><br>\nRemember, the more money the spider gets, the bigger your bonus will be!\n<br><br>\n<div style='text-align: center;'>Press <code>space</code> to begin.</div>\n\n<br><br>\n(If, at any point, the <code>space</code> key does not take you to the next page, click once on the text and try again.)", "response": " ", "trial_id": "mdp_ready", "trial_type": "html-keyboard-response", "trial_index": 8, "time_elapsed": 539920, "internal_node_id": "0.0-4.0-0.0"}}, {"uniqueid": "w24824436:a29279708", "current_trial": 9, "dateTime": 1691142629527, "trialdata": {"revealed_states": [], "clicked_states": [], "num_clicks_accrued": [0, 0, 0, 0, 0, 0, 0, 0, 0, 0, 0, 0, 0], "stateRewards": ["", -2, -3, 1, -7, 39, -67, 16, 5, -20, 73, 66, -1, 4, 5, -3, 23, -68, -87, -8, 3, -3, 17, 1, -4, -2, -13, -32, 34, 61, -5, -11, -18, 12], "withholdReward": false, "trial_id": "mdp_trial_1", "block": "test", "trialIndex": 2, "score": 43, "costs": 0, "simulationMode": [null, null, null, null, null], "rewards": [1, -4, -2, -13, 61], "path": ["0", "0", "23", "24", "25", "26", "29"], "rt": [5735, 202, 94, 322, 5], "actions": ["left", "left", "left", "up", "left"], "actionTimes": [8878, 9610, 10255, 11122, 11663], "queries": {"click": {"state": {"target": [], "time": []}, "edge": {"target": [], "time": []}}, "mouseover": {"state": {"target": ["0", "23", "24", "24", "23", "0"], "time": [3633, 3867, 7017, 8082, 8292, 8500]}, "edge": {"target": [], "time": []}}, "mouseout": {"state": {"target": ["10", "0", "0", "23", "24", "24", "23", "0", "12"], "time": [762, 3194, 3817, 6818, 7967, 8266, 8319, 14000, 14885]}, "edge": {"target": [], "time": []}}}, "displayed_time": "17.14", "trialTime": 19393, "trial_type": "mouselab-mdp", "trial_index": 9, "time_elapsed": 561061, "internal_node_id": "0.0-4.0-1.0-0.0"}}, {"uniqueid": "w24824436:a29279708", "current_trial": 10, "dateTime": 1691142651904, "trialdata": {"revealed_states": [], "clicked_states": [], "num_clicks_accrued": [0, 0, 0, 0, 0, 0, 0, 0, 0, 0, 0, 0, 0], "stateRewards": ["", 2, 3, -1, 6, 44, -4, -59, -14, -3, 64, 16, 1, -3, 3, 6, 3, 49, 19, 3, -49, -14, -86, 1, 2, -3, -8, -33, 14, 32, -13, -77, -47, -67], "withholdReward": false, "trial_id": "mdp_trial_2", "block": "test", "trialIndex": 3, "score": -45, "costs": 0, "simulationMode": [null, null, null, null, null], "rewards": [1, -3, 3, 3, -49], "path": ["0", "0", "12", "13", "14", "19", "20"], "rt": [5408, 565, 203, 410, 193], "actions": ["right", "right", "right", "down", "right"], "actionTimes": [9656, 10742, 11512, 12486, 13210], "queries": {"click": {"state": {"target": [], "time": []}, "edge": {"target": [], "time": []}}, "mouseover": {"state": {"target": ["23", "23"], "time": [7043, 7359]}, "edge": {"target": [], "time": []}}, "mouseout": {"state": {"target": ["0", "0", "23", "23", "0"], "time": [2488, 6959, 7098, 7386, 14961]}, "edge": {"target": [], "time": []}}}, "displayed_time": "18.25", "trialTime": 20810, "trial_type": "mouselab-mdp", "trial_index": 10, "time_elapsed": 583438, "internal_node_id": "0.0-4.0-1.0-1.0"}}, {"uniqueid": "w24824436:a29279708", "current_trial": 11, "dateTime": 1691142687756, "trialdata": {"revealed_states": [], "clicked_states": ["23", "24", "25", "30", "33", "26", "29", "13", "14"], "num_clicks_accrued": [0, 0, 0, 0, 0, 0, 0, 0, 0, 0, 0, 0, 0], "stateRewards": ["", -1, 1, -5, -6, -78, 47, -13, 12, 48, -88, 20, 2, -3, -2, 13, -20, 37, -57, 14, -38, 30, 31, -2, -2, 8, 2, -23, 78, 28, 12, -74, -88, 8], "withholdReward": false, "trial_id": "mdp_trial_3", "block": "test", "trialIndex": 4, "score": 21.4, "costs": -12.600000000000001, "simulationMode": [null, null, null, null, null], "rewards": [-2, -2, 8, 2, 28], "path": ["0", "0", "23", "24", "25", "26", "29"], "rt": [23883, 106, 316, 509, 71], "actions": ["left", "left", "left", "up", "left"], "actionTimes": [26360, 27038, 27884, 28915, 29515], "queries": {"click": {"state": {"target": ["23", "24", "25", "30", "33", "26", "29", "13", "14"], "time": [3683, 5417, 7450, 9485, 11343, 13702, 15397, 18840, 20576]}, "edge": {"target": [], "time": []}}, "mouseover": {"state": {"target": ["23", "23", "24", "25", "24", "25", "25", "30", "33", "23", "26", "29", "12", "14", "13", "12", "14", "12"], "time": [2537, 3309, 4077, 4773, 5224, 5802, 7173, 8298, 10000, 11767, 12458, 14548, 17541, 18407, 18464, 19465, 20483, 22341]}, "edge": {"target": [], "time": []}}, "mouseout": {"state": {"target": ["17", "15", "0", "23", "23", "24", "25", "24", "25", "25", "30", "33", "23", "26", "29", "26", "12", "14", "13", "12", "13", "14", "13", "12"], "time": [652, 674, 2527, 3005, 3914, 4703, 4999, 5763, 6885, 7923, 9947, 11733, 12061, 14268, 16005, 16130, 17566, 18431, 19162, 20000, 20206, 21252, 21508, 22409]}, "edge": {"target": [], "time": []}}}, "displayed_time": "30.04", "trialTime": 34242, "trial_type": "mouselab-mdp", "trial_index": 11, "time_elapsed": 619291, "internal_node_id": "0.0-4.0-1.0-2.0"}}, {"uniqueid": "w24824436:a29279708", "current_trial": 12, "dateTime": 1691142719370, "trialdata": {"revealed_states": [], "clicked_states": ["12", "13", "14", "15", "19", "20", "17"], "num_clicks_accrued": [0, 0, 0, 0, 0, 0, 0, 0, 0, 0, 0, 0, 0], "stateRewards": ["", -2, -3, 8, 14, -73, 73, 84, -12, -2, -50, -17, 2, 1, -2, -9, -44, -27, -33, 16, -63, -47, -66, -2, 1, 4, -5, -33, -11, 50, 9, 38, -79, 31], "withholdReward": false, "trial_id": "mdp_trial_4", "block": "test", "trialIndex": 5, "score": -55.8, "costs": -9.8, "simulationMode": [null, null, null, null, null], "rewards": [2, 1, -2, 16, -63], "path": ["0", "0", "12", "13", "14", "19", "20"], "rt": [18667, 251, 128, 358, 207], "actions": ["right", "right", "right", "down", "right"], "actionTimes": [21580, 22356, 23021, 23919, 24664], "queries": {"click": {"state": {"target": ["12", "13", "14", "15", "19", "20", "17"], "time": [4306, 6163, 7886, 10068, 11754, 13536, 15284]}, "edge": {"target": [], "time": []}}, "mouseover": {"state": {"target": ["12", "12", "13", "14", "15", "19", "20", "17", "15", "12", "0"], "time": [2986, 3514, 5027, 6591, 8532, 11159, 12757, 14187, 16579, 17399, 18147]}, "edge": {"target": [], "time": []}}, "mouseout": {"state": {"target": ["0", "12", "12", "13", "14", "15", "19", "20", "17", "15", "12", "0", "0"], "time": [2974, 3029, 4715, 6552, 8485, 10879, 12476, 14113, 16065, 16935, 17864, 18597, 29382]}, "edge": {"target": [], "time": []}}}, "displayed_time": "25.18", "trialTime": 30024, "trial_type": "mouselab-mdp", "trial_index": 12, "time_elapsed": 650905, "internal_node_id": "0.0-4.0-1.0-3.0"}}, {"uniqueid": "w24824436:a29279708", "current_trial": 13, "dateTime": 1691142743605, "trialdata": {"revealed_states": [], "clicked_states": [], "num_clicks_accrued": [0, 0, 0, 0, 0, 0, 0, 0, 0, 0, 0, 0, 0], "stateRewards": ["", -1, 1, 6, -6, 70, 66, 67, -16, -75, -35, 37, -1, 4, 4, -6, 47, -9, 63, 15, 21, -63, 13, 1, 3, -6, 10, 79, -29, 18, -15, 9, -67, -19], "withholdReward": false, "trial_id": "mdp_trial_5", "block": "test", "trialIndex": 6, "score": 26, "costs": 0, "simulationMode": [null, null, null, null, null], "rewards": [1, 3, -6, 10, 18], "path": ["0", "0", "23", "24", "25", "26", "29"], "rt": [12060, 8, 5, 362, 459], "actions": ["left", "left", "left", "up", "left"], "actionTimes": [14555, 15125, 15695, 16601, 17617], "queries": {"click": {"state": {"target": [], "time": []}, "edge": {"target": [], "time": []}}, "mouseover": {"state": {"target": ["24", "25", "23", "24", "24"], "time": [2555, 3492, 5724, 5773, 6408]}, "edge": {"target": [], "time": []}}, "mouseout": {"state": {"target": ["20", "19", "22", "0", "24", "25", "23", "24"], "time": [638, 672, 706, 2543, 3341, 5158, 5761, 5841]}, "edge": {"target": [], "time": []}}}, "displayed_time": "18.15", "trialTime": 22352, "trial_type": "mouselab-mdp", "trial_index": 13, "time_elapsed": 675140, "internal_node_id": "0.0-4.0-1.0-4.0"}}, {"uniqueid": "w24824436:a29279708", "current_trial": 14, "dateTime": 1691142767809, "trialdata": {"revealed_states": [], "clicked_states": [], "num_clicks_accrued": [0, 0, 0, 0, 0, 0, 0, 0, 0, 0, 0, 0, 0], "stateRewards": ["", 2, -4, 1, -12, -59, -53, -74, 16, -88, -66, 66, 1, -2, 8, -9, -14, 22, 25, -1, -39, 47, -14, -1, -1, -2, 1, -4, 52, -26, 15, -7, 46, 43], "withholdReward": false, "trial_id": "mdp_trial_6", "block": "test", "trialIndex": 7, "score": 20, "costs": 0, "simulationMode": [null, null, null, null, null], "rewards": [1, -2, 8, -9, 22], "path": ["0", "0", "12", "13", "14", "15", "17"], "rt": [7247, 36, 26, 474, 495], "actions": ["right", "right", "right", "up", "right"], "actionTimes": [14537, 15102, 15717, 16722, 17762], "queries": {"click": {"state": {"target": [], "time": []}, "edge": {"target": [], "time": []}}, "mouseover": {"state": {"target": ["12", "13", "15", "18", "18", "17", "14"], "time": [9637, 9984, 10368, 12178, 12426, 12467, 14002]}, "edge": {"target": [], "time": []}}, "mouseout": {"state": {"target": ["24", "23", "0", "12", "13", "15", "18", "18", "17", "14", "21", "21"], "time": [5183, 5497, 8766, 9670, 10011, 11450, 12253, 12452, 12499, 14031, 22153, 22319]}, "edge": {"target": [], "time": []}}}, "displayed_time": "21.29", "trialTime": 22580, "trial_type": "mouselab-mdp", "trial_index": 14, "time_elapsed": 699344, "internal_node_id": "0.0-4.0-1.0-5.0"}}, {"uniqueid": "w24824436:a29279708", "current_trial": 15, "dateTime": 1691142814592, "trialdata": {"revealed_states": [], "clicked_states": ["15", "19", "30", "26", "8", "4", "5", "9", "29", "33"], "num_clicks_accrued": [0, 0, 0, 0, 0, 0, 0, 0, 0, 0, 0, 0, 0], "stateRewards": ["", -2, 2, -4, -4, -59, 88, 62, -3, 69, -15, -34, 1, -2, -5, 7, -54, -20, 78, -16, -74, -53, -21, 2, -4, 2, 13, -8, -44, 26, 9, 72, 4, 17], "withholdReward": false, "trial_id": "mdp_trial_7", "block": "test", "trialIndex": 8, "score": 25, "costs": -14.000000000000002, "simulationMode": [null, null, null, null, null], "rewards": [2, -4, 2, 13, 26], "path": ["0", "0", "23", "24", "25", "26", "29"], "rt": [31630, 215, 149, 264, 98], "actions": ["left", "left", "left", "up", "left"], "actionTimes": [35343, 36090, 36774, 37569, 38198], "queries": {"click": {"state": {"target": ["15", "19", "30", "26", "8", "4", "5", "9", "29", "33"], "time": [5167, 6860, 11572, 14404, 16685, 19190, 22113, 24831, 26450, 28348]}, "edge": {"target": [], "time": []}}, "mouseover": {"state": {"target": ["12", "15", "19", "30", "25", "26", "10", "8", "3", "4", "4", "6", "5", "9", "9", "9", "27", "29", "25", "33"], "time": [4497, 4863, 5782, 8085, 12433, 12778, 16004, 16340, 17674, 18014, 18359, 20342, 21739, 23086, 23486, 24492, 25440, 26141, 27410, 28014]}, "edge": {"target": [], "time": []}}, "mouseout": {"state": {"target": ["12", "13", "14", "14", "0", "12", "15", "19", "30", "25", "26", "10", "8", "3", "4", "4", "6", "5", "9", "9", "9", "27", "29", "25", "33", "14"], "time": [602, 637, 703, 1035, 4456, 4525, 5690, 8073, 12420, 12733, 15657, 16059, 17509, 17743, 18053, 20258, 20662, 22990, 23131, 23537, 25369, 25485, 26568, 27449, 28933, 43579]}, "edge": {"target": [], "time": []}}}, "displayed_time": "38.74", "trialTime": 44948, "trial_type": "mouselab-mdp", "trial_index": 15, "time_elapsed": 746126, "internal_node_id": "0.0-4.0-1.0-6.0"}}, {"uniqueid": "w24824436:a29279708", "current_trial": 16, "dateTime": 1691142852244, "trialdata": {"revealed_states": [], "clicked_states": ["20", "17", "5", "9", "29", "33", "24"], "num_clicks_accrued": [0, 0, 0, 0, 0, 0, 0, 0, 0, 0, 0, 0, 0], "stateRewards": ["", 2, -4, 7, 3, 23, -42, 4, 7, -81, -33, 7, -2, -4, 5, -1, 50, -57, -14, -13, -14, 44, 55, -2, -2, 5, -2, 33, 1, 57, -13, -7, 58, 87], "withholdReward": false, "trial_id": "mdp_trial_8", "block": "test", "trialIndex": 9, "score": 65.2, "costs": -9.8, "simulationMode": [null, null, null, null, null], "rewards": [-2, -2, 5, -13, 87], "path": ["0", "0", "23", "24", "25", "30", "33"], "rt": [22371, 160, 328, 338, 168], "actions": ["left", "left", "left", "down", "left"], "actionTimes": [25294, 25999, 26857, 27742, 28440], "queries": {"click": {"state": {"target": ["20", "17", "5", "9", "29", "33", "24"], "time": [4298, 6353, 8710, 11472, 14336, 16738, 19775]}, "edge": {"target": [], "time": []}}, "mouseover": {"state": {"target": ["13", "20", "17", "15", "4", "5", "5", "9", "11", "27", "29", "33", "30", "23", "24", "28", "24", "31", "12", "23"], "time": [3101, 3570, 5772, 6905, 7323, 7382, 8006, 9433, 12264, 12673, 13805, 15514, 17712, 18340, 18412, 18856, 19537, 20242, 22723, 23189]}, "edge": {"target": [], "time": []}}, "mouseout": {"state": {"target": ["1", "0", "0", "13", "20", "17", "15", "4", "5", "5", "9", "11", "27", "29", "33", "30", "23", "24", "28", "24", "31", "12", "23"], "time": [553, 735, 2982, 3220, 4455, 6893, 6950, 7369, 7419, 9095, 12182, 12314, 13027, 14937, 17311, 18022, 18374, 18441, 19073, 20196, 22356, 22750, 23213]}, "edge": {"target": [], "time": []}}}, "displayed_time": "28.96", "trialTime": 35529, "trial_type": "mouselab-mdp", "trial_index": 16, "time_elapsed": 783779, "internal_node_id": "0.0-4.0-1.0-7.0"}}, {"uniqueid": "w24824436:a29279708", "current_trial": 17, "dateTime": 1691142887249, "trialdata": {"revealed_states": [], "clicked_states": ["17", "20", "5", "9", "29", "33"], "num_clicks_accrued": [0, 0, 0, 0, 0, 0, 0, 0, 0, 0, 0, 0, 0], "stateRewards": ["", 2, 3, -3, 4, 72, -28, 34, -12, 57, -64, -15, 2, 1, -4, -15, 2, 49, 31, -1, -42, -58, 31, -2, 1, -2, -13, -75, -19, -22, -6, 61, 10, -56], "withholdReward": false, "trial_id": "mdp_trial_9", "block": "test", "trialIndex": 10, "score": 69.6, "costs": -8.4, "simulationMode": [null, null, null, null, null], "rewards": [2, 3, -3, 4, 72], "path": ["0", "0", "1", "2", "3", "4", "5"], "rt": [19033, 41, 173, 165, 323], "actions": ["up", "up", "up", "right", "up"], "actionTimes": [24047, 24637, 25353, 26062, 27165], "queries": {"click": {"state": {"target": ["17", "20", "5", "9", "29", "33"], "time": [6525, 8422, 10543, 13650, 16567, 18636]}, "edge": {"target": [], "time": []}}, "mouseover": {"state": {"target": ["17", "20", "20", "14", "5", "9", "27", "29", "33", "12", "0", "12"], "time": [5977, 6988, 7480, 8936, 9920, 11642, 15417, 16385, 17442, 20142, 20663, 20913]}, "edge": {"target": [], "time": []}}, "mouseout": {"state": {"target": ["15", "18", "0", "17", "20", "20", "14", "5", "9", "27", "29", "29", "33", "12", "0", "12"], "time": [34, 2908, 5066, 6939, 7034, 8923, 8993, 10927, 14721, 15529, 16657, 16936, 19004, 20208, 20847, 30966]}, "edge": {"target": [], "time": []}}}, "displayed_time": "27.68", "trialTime": 33086, "trial_type": "mouselab-mdp", "trial_index": 17, "time_elapsed": 818784, "internal_node_id": "0.0-4.0-1.0-8.0"}}, {"uniqueid": "w24824436:a29279708", "current_trial": 18, "dateTime": 1691142912644, "trialdata": {"revealed_states": [], "clicked_states": ["1", "5", "17"], "num_clicks_accrued": [0, 0, 0, 0, 0, 0, 0, 0, 0, 0, 0, 0, 0], "stateRewards": ["", -1, 2, -6, 6, 43, 78, 78, -2, 55, -29, -17, -2, -4, 1, -15, 13, 7, -79, 8, -28, -68, 36, -1, -3, 3, -16, 84, -18, 87, 10, 32, 13, -81], "withholdReward": false, "trial_id": "mdp_trial_10", "block": "test", "trialIndex": 11, "score": 39.8, "costs": -4.199999999999999, "simulationMode": [null, null, null, null, null], "rewards": [-1, 2, -6, 6, 43], "path": ["0", "0", "1", "2", "3", "4", "5"], "rt": [9666, 80, 56, 214, 794], "actions": ["up", "up", "up", "right", "up"], "actionTimes": [12620, 13243, 13822, 14587, 15910], "queries": {"click": {"state": {"target": ["1", "5", "17"], "time": [4932, 6886, 9860]}, "edge": {"target": [], "time": []}}, "mouseover": {"state": {"target": ["1", "2", "5", "6", "16", "17", "20", "13"], "time": [4612, 5367, 5724, 8115, 9155, 9541, 10413, 12107]}, "edge": {"target": [], "time": []}}, "mouseout": {"state": {"target": ["12", "0", "0", "1", "2", "5", "6", "16", "17", "20", "13", "13"], "time": [1072, 1137, 4074, 5294, 5415, 7695, 9124, 9197, 10368, 11992, 12163, 21442]}, "edge": {"target": [], "time": []}}}, "displayed_time": "16.96", "trialTime": 23189, "trial_type": "mouselab-mdp", "trial_index": 18, "time_elapsed": 844178, "internal_node_id": "0.0-4.0-1.0-9.0"}}, {"uniqueid": "w24824436:a29279708", "current_trial": 19, "dateTime": 1691142939708, "trialdata": {"revealed_states": [], "clicked_states": ["24", "29", "27", "33", "32", "31"], "num_clicks_accrued": [0, 0, 0, 0, 0, 0, 0, 0, 0, 0, 0, 0, 0], "stateRewards": ["", 1, -1, 8, -3, 38, 85, -20, -4, 8, 23, 73, 2, -4, 6, -13, 44, 7, -28, -11, -77, 45, -69, 1, -1, -7, -11, 75, -51, -87, 7, 36, -53, -26], "withholdReward": false, "trial_id": "mdp_trial_11", "block": "test", "trialIndex": 12, "score": 48.6, "costs": -8.4, "simulationMode": [null, null, null, null, null], "rewards": [1, -1, -7, -11, 75], "path": ["0", "0", "23", "24", "25", "26", "27"], "rt": [14668, 141, 71, 242, 556], "actions": ["left", "left", "left", "up", "up"], "actionTimes": [18125, 18796, 19388, 20149, 21248], "queries": {"click": {"state": {"target": ["24", "29", "27", "33", "32", "31"], "time": [5302, 7356, 9327, 11345, 13389, 15655]}, "edge": {"target": [], "time": []}}, "mouseover": {"state": {"target": ["28", "28", "28", "24", "24", "25", "26", "29", "27", "11", "27", "27", "26", "33", "30", "30", "32", "31", "30"], "time": [3609, 3975, 4208, 4499, 4643, 5782, 6864, 7146, 7780, 7878, 8090, 8402, 9776, 10162, 11849, 12599, 12930, 13848, 16389]}, "edge": {"target": [], "time": []}}, "mouseout": {"state": {"target": ["32", "28", "28", "28", "24", "24", "25", "26", "29", "27", "11", "27", "27", "26", "33", "30", "30", "32", "31"], "time": [1012, 3673, 4013, 4309, 4532, 5703, 5888, 6892, 7512, 7854, 8049, 8134, 9763, 9811, 11807, 12218, 12817, 13498, 16305]}, "edge": {"target": [], "time": []}}}, "displayed_time": "21.78", "trialTime": 25070, "trial_type": "mouselab-mdp", "trial_index": 19, "time_elapsed": 871242, "internal_node_id": "0.0-4.0-1.0-10.0"}}, {"uniqueid": "w24824436:a29279708", "current_trial": 20, "dateTime": 1691142978033, "trialdata": {"revealed_states": [], "clicked_states": ["5", "6", "7", "9", "11", "10", "27", "29", "28"], "num_clicks_accrued": [0, 0, 0, 0, 0, 0, 0, 0, 0, 0, 0, 0, 0], "stateRewards": ["", -2, -3, 7, -13, 60, 9, 37, -6, 37, 20, 1, 2, -2, -8, 6, -80, -31, -10, -7, 70, -65, -44, -1, 1, 7, 6, -11, 73, -85, 16, -21, 47, 34], "withholdReward": false, "trial_id": "mdp_trial_12", "block": "test", "trialIndex": 13, "score": 73.4, "costs": -12.600000000000001, "simulationMode": [null, null, null, null, null], "rewards": [-1, 1, 7, 6, 73], "path": ["0", "0", "23", "24", "25", "26", "28"], "rt": [25078, 95, 20, 86, 77], "actions": ["left", "left", "left", "up", "right"], "actionTimes": [27965, 28599, 29168, 29970, 30572], "queries": {"click": {"state": {"target": ["5", "6", "7", "9", "11", "10", "27", "29", "28"], "time": [5594, 8839, 11154, 13088, 15155, 17139, 19352, 21237, 25160]}, "edge": {"target": [], "time": []}}, "mouseover": {"state": {"target": ["5", "6", "16", "6", "7", "3", "9", "11", "10", "27", "29", "26", "25", "28", "10", "28", "25"], "time": [5341, 6080, 6459, 7641, 9607, 12025, 12541, 14422, 16652, 18367, 20281, 21818, 22300, 24511, 24572, 24876, 27080]}, "edge": {"target": [], "time": []}}, "mouseout": {"state": {"target": ["0", "0", "5", "6", "16", "6", "7", "3", "9", "11", "10", "10", "27", "27", "29", "26", "25", "28", "10", "28", "28", "25", "23", "0"], "time": [1071, 3609, 6038, 6122, 7492, 9400, 11817, 12439, 13813, 16049, 17265, 17614, 19478, 19803, 21360, 22207, 24459, 24544, 24826, 25777, 26993, 36244, 36297, 36327]}, "edge": {"target": [], "time": []}}}, "displayed_time": "31.09", "trialTime": 36539, "trial_type": "mouselab-mdp", "trial_index": 20, "time_elapsed": 909567, "internal_node_id": "0.0-4.0-1.0-11.0"}}, {"uniqueid": "w24824436:a29279708", "current_trial": 21, "dateTime": 1691143008584, "trialdata": {"revealed_states": [], "clicked_states": ["1", "2", "12", "13", "23", "24", "25", "29"], "num_clicks_accrued": [0, 0, 0, 0, 0, 0, 0, 0, 0, 0, 0, 0, 0], "stateRewards": ["", 2, 3, -2, -8, -8, -41, 74, 15, -23, -80, 1, 1, 3, 3, -15, -63, -78, 67, 13, 75, -41, 86, 2, -2, 6, -3, -8, -49, 50, -6, 83, 74, 80], "withholdReward": false, "trial_id": "mdp_trial_13", "block": "test", "trialIndex": 14, "score": 41.8, "costs": -11.200000000000001, "simulationMode": [null, null, null, null, null], "rewards": [2, -2, 6, -3, 50], "path": ["0", "0", "23", "24", "25", "26", "29"], "rt": [17818, 321, 80, 690, 602], "actions": ["left", "left", "left", "up", "left"], "actionTimes": [22420, 23274, 23883, 25109, 26244], "queries": {"click": {"state": {"target": ["1", "2", "12", "13", "23", "24", "25", "29"], "time": [5753, 7825, 9778, 11700, 13603, 15524, 17419, 19609]}, "edge": {"target": [], "time": []}}, "mouseover": {"state": {"target": ["7", "2", "1", "2", "12", "13", "0", "23", "23", "24", "25", "26", "29", "27", "28"], "time": [4720, 5308, 5443, 6350, 8547, 10198, 12283, 12796, 13410, 14454, 16095, 18092, 19165, 20250, 21908]}, "edge": {"target": [], "time": []}}, "mouseout": {"state": {"target": ["0", "7", "2", "1", "2", "12", "13", "12", "0", "23", "23", "24", "25", "26", "29", "27", "28"], "time": [4667, 4764, 5336, 6302, 8207, 10155, 12160, 12239, 12640, 13182, 14299, 16050, 17567, 19109, 19971, 21877, 21941]}, "edge": {"target": [], "time": []}}}, "displayed_time": "26.77", "trialTime": 28354, "trial_type": "mouselab-mdp", "trial_index": 21, "time_elapsed": 940119, "internal_node_id": "0.0-4.0-1.0-12.0"}}, {"uniqueid": "w24824436:a29279708", "current_trial": 22, "dateTime": 1691143060106, "trialdata": {"revealed_states": [], "clicked_states": ["17", "20", "21", "22", "16", "5", "6", "7", "9", "11", "10", "27", "29", "28", "33", "32", "31"], "num_clicks_accrued": [0, 0, 0, 0, 0, 0, 0, 0, 0, 0, 0, 0, 0], "stateRewards": ["", 1, 4, -8, -5, -15, -7, 21, 13, -30, 40, -65, 1, 1, 5, -14, 35, 27, -38, -11, 36, -58, -47, -2, 4, -3, 13, -16, -49, 22, 15, -56, -44, -10], "withholdReward": false, "trial_id": "mdp_trial_14", "block": "test", "trialIndex": 15, "score": 26.200000000000006, "costs": -23.799999999999994, "simulationMode": [null, null, null, null, null], "rewards": [1, 4, -8, 13, 40], "path": ["0", "0", "1", "2", "3", "8", "10"], "rt": [42419, 24, 8, 182, 27], "actions": ["up", "up", "up", "left", "down"], "actionTimes": [44499, 45051, 45581, 46317, 46878], "queries": {"click": {"state": {"target": ["17", "20", "21", "22", "16", "5", "6", "7", "9", "11", "10", "27", "29", "28", "33", "32", "31"], "time": [4695, 6714, 8680, 10528, 13563, 15679, 18142, 20086, 22376, 24470, 26737, 29373, 32170, 34263, 38214, 39896, 41927]}, "edge": {"target": [], "time": []}}, "mouseover": {"state": {"target": ["1", "18", "13", "12", "12", "15", "17", "20", "20", "21", "21", "22", "19", "12", "12", "16", "16", "6", "5", "5", "6", "7", "3", "9", "11", "10", "27", "29", "25", "28", "25", "33", "32", "31"], "time": [2587, 2654, 2829, 3085, 3362, 4049, 4447, 5166, 5638, 7225, 7880, 9228, 11245, 12549, 12847, 13016, 13349, 14034, 14458, 14872, 16472, 18891, 20558, 20982, 22903, 25409, 29100, 31834, 32789, 33749, 36201, 37819, 38772, 41118]}, "edge": {"target": [], "time": []}}, "mouseout": {"state": {"target": ["0", "1", "18", "13", "12", "12", "15", "17", "20", "20", "21", "21", "22", "19", "22", "12", "12", "16", "16", "6", "5", "5", "6", "6", "7", "3", "9", "11", "10", "27", "29", "25", "28", "25", "33", "32", "31"], "time": [779, 2621, 2798, 2873, 3128, 3997, 4086, 5086, 5245, 7175, 7402, 9204, 11172, 11446, 11716, 12617, 12902, 13043, 13663, 14083, 14575, 16064, 18278, 18582, 20383, 20644, 22854, 24933, 28222, 31117, 32647, 32905, 36034, 36268, 38319, 41044, 43234]}, "edge": {"target": [], "time": []}}}, "displayed_time": "47.41", "trialTime": 49580, "trial_type": "mouselab-mdp", "trial_index": 22, "time_elapsed": 991641, "internal_node_id": "0.0-4.0-1.0-13.0"}}, {"uniqueid": "w24824436:a29279708", "current_trial": 23, "dateTime": 1691143084503, "trialdata": {"revealed_states": [], "clicked_states": ["22", "21", "20", "17", "16", "18"], "num_clicks_accrued": [0, 0, 0, 0, 0, 0, 0, 0, 0, 0, 0, 0, 0], "stateRewards": ["", -2, 1, 6, -2, -10, -78, -69, 14, -15, 7, -1, 1, -1, -2, 13, 77, 32, 87, 5, -74, 30, -26, 1, 3, 4, 12, 39, 54, -43, 2, 10, 23, 13], "withholdReward": false, "trial_id": "mdp_trial_15", "block": "test", "trialIndex": 16, "score": 89.6, "costs": -8.4, "simulationMode": [null, null, null, null, null], "rewards": [1, -1, -2, 13, 87], "path": ["0", "0", "12", "13", "14", "15", "18"], "rt": [13681, 431, 166, 186, 63], "actions": ["right", "right", "right", "up", "left"], "actionTimes": [17489, 18488, 19178, 19900, 20490], "queries": {"click": {"state": {"target": ["22", "21", "20", "17", "16", "18"], "time": [5789, 7979, 9561, 11194, 13299, 15181]}, "edge": {"target": [], "time": []}}, "mouseover": {"state": {"target": ["19", "21", "22", "22", "21", "21", "21", "20", "20", "17", "16", "18"], "time": [4650, 4732, 5155, 5533, 6096, 6509, 7633, 8324, 8713, 10698, 12252, 14709]}, "edge": {"target": [], "time": []}}, "mouseout": {"state": {"target": ["14", "13", "13", "12", "0", "19", "21", "22", "22", "21", "21", "21", "20", "20", "17", "16", "18"], "time": [1847, 1883, 2411, 2461, 3880, 4688, 5114, 5191, 6052, 6142, 7046, 8079, 8367, 10080, 12175, 13869, 15687]}, "edge": {"target": [], "time": []}}}, "displayed_time": "21.03", "trialTime": 22457, "trial_type": "mouselab-mdp", "trial_index": 23, "time_elapsed": 1016038, "internal_node_id": "0.0-4.0-1.0-14.0"}}, {"uniqueid": "w24824436:a29279708", "current_trial": 24, "dateTime": 1691143105755, "trialdata": {"revealed_states": [], "clicked_states": [], "num_clicks_accrued": [0, 0, 0, 0, 0, 0, 0, 0, 0, 0, 0, 0, 0], "stateRewards": ["", -2, -3, -6, -7, 9, 16, 65, 5, -41, 20, -25, -1, -4, 1, -11, -49, -4, 71, 1, 39, -62, 52, -2, -3, 7, -9, -28, -70, 84, 8, 24, -58, 82], "withholdReward": false, "trial_id": "mdp_trial_16", "block": "test", "trialIndex": 17, "score": -64, "costs": 0, "simulationMode": [null, null, null, null, null], "rewards": [-1, -4, 1, -11, -49], "path": ["0", "0", "12", "13", "14", "15", "16"], "rt": [3384, 466, 1236, 7, 506], "actions": ["right", "right", "right", "up", "up"], "actionTimes": [6676, 7676, 9449, 9982, 11026], "queries": {"click": {"state": {"target": [], "time": []}, "edge": {"target": [], "time": []}}, "mouseover": {"state": {"target": ["12", "0", "12"], "time": [4955, 5364, 5647]}, "edge": {"target": [], "time": []}}, "mouseout": {"state": {"target": ["12", "31", "0", "12", "0", "12", "14", "13"], "time": [761, 1058, 3349, 5315, 5618, 5681, 18799, 18831]}, "edge": {"target": [], "time": []}}}, "displayed_time": "17.29", "trialTime": 19706, "trial_type": "mouselab-mdp", "trial_index": 24, "time_elapsed": 1037291, "internal_node_id": "0.0-4.0-1.0-15.0"}}, {"uniqueid": "w24824436:a29279708", "current_trial": 25, "dateTime": 1691143143074, "trialdata": {"revealed_states": [], "clicked_states": ["17", "18", "20", "21", "22", "5", "6", "7", "9", "11", "10"], "num_clicks_accrued": [0, 0, 0, 0, 0, 0, 0, 0, 0, 0, 0, 0, 0], "stateRewards": ["", 2, -4, 4, 9, 69, 9, -75, 12, -86, 66, 25, -1, 3, 2, -13, -88, -3, 1, 4, -69, 49, -84, 2, -1, 4, 2, -18, -81, -52, -15, -69, -54, 25], "withholdReward": false, "trial_id": "mdp_trial_17", "block": "test", "trialIndex": 18, "score": 64.6, "costs": -15.400000000000002, "simulationMode": [null, null, null, null, null], "rewards": [2, -4, 4, 9, 69], "path": ["0", "0", "1", "2", "3", "4", "5"], "rt": [27110, 242, 67, 415, 212], "actions": ["up", "up", "up", "right", "up"], "actionTimes": [29955, 30774, 31363, 32320, 33057], "queries": {"click": {"state": {"target": ["17", "18", "20", "21", "22", "5", "6", "7", "9", "11", "10"], "time": [4639, 7241, 9578, 11457, 13263, 16072, 18018, 20185, 22078, 24011, 26545]}, "edge": {"target": [], "time": []}}, "mouseover": {"state": {"target": ["13", "17", "16", "18", "14", "20", "21", "22", "14", "13", "18", "7", "4", "5", "6", "6", "4", "7", "9", "11", "10"], "time": [2964, 4421, 5506, 6937, 7879, 8306, 10023, 12007, 14643, 14729, 15057, 15124, 15455, 15522, 16634, 17056, 19303, 19677, 21065, 23040, 26309]}, "edge": {"target": [], "time": []}}, "mouseout": {"state": {"target": ["0", "13", "17", "16", "18", "14", "20", "21", "22", "14", "13", "18", "7", "4", "5", "6", "6", "5", "5", "4", "7", "9", "11", "10"], "time": [2894, 3621, 5072, 6209, 7827, 7933, 9974, 11888, 14018, 14686, 14779, 15089, 15203, 15493, 16554, 16680, 18535, 18656, 19242, 19347, 20621, 22888, 25740, 27030]}, "edge": {"target": [], "time": []}}}, "displayed_time": "33.58", "trialTime": 35345, "trial_type": "mouselab-mdp", "trial_index": 25, "time_elapsed": 1074609, "internal_node_id": "0.0-4.0-1.0-16.0"}}, {"uniqueid": "w24824436:a29279708", "current_trial": 26, "dateTime": 1691143171403, "trialdata": {"revealed_states": [], "clicked_states": ["13", "17", "16", "18", "20", "21", "22"], "num_clicks_accrued": [0, 0, 0, 0, 0, 0, 0, 0, 0, 0, 0, 0, 0], "stateRewards": ["", -2, -3, 1, -14, 48, -49, 67, -1, -35, -48, 3, -2, 1, -4, -5, 86, -84, 39, 1, 48, 41, -42, -1, -4, 2, -7, 18, -86, 17, 7, -9, 57, -69], "withholdReward": false, "trial_id": "mdp_trial_18", "block": "test", "trialIndex": 19, "score": 66.2, "costs": -9.8, "simulationMode": [null, null, null, null, null], "rewards": [-2, 1, -4, -5, 86], "path": ["0", "0", "12", "13", "14", "15", "16"], "rt": [17732, 8, 34, 213, 10], "actions": ["right", "right", "right", "up", "up"], "actionTimes": [22283, 22826, 23416, 24187, 24721], "queries": {"click": {"state": {"target": ["13", "17", "16", "18", "20", "21", "22"], "time": [6766, 8635, 10675, 13208, 16006, 17924, 20067]}, "edge": {"target": [], "time": []}}, "mouseover": {"state": {"target": ["12", "14", "13", "17", "16", "18", "15", "14", "20", "21", "21", "22"], "time": [5307, 5378, 6224, 7631, 9221, 12925, 14925, 15325, 15674, 16409, 16825, 19001]}, "edge": {"target": [], "time": []}}, "mouseout": {"state": {"target": ["27", "27", "10", "18", "23", "0", "12", "14", "13", "17", "16", "16", "18", "15", "14", "20", "20", "21", "21"], "time": [1619, 1768, 1804, 2153, 2387, 3186, 5340, 5408, 7112, 9169, 12054, 12507, 14609, 15041, 15368, 16149, 16348, 16505, 18436]}, "edge": {"target": [], "time": []}}}, "displayed_time": "25.27", "trialTime": 26306, "trial_type": "mouselab-mdp", "trial_index": 26, "time_elapsed": 1102938, "internal_node_id": "0.0-4.0-1.0-17.0"}}, {"uniqueid": "w24824436:a29279708", "current_trial": 27, "dateTime": 1691143196573, "trialdata": {"revealed_states": [], "clicked_states": ["23", "29", "27", "28", "33"], "num_clicks_accrued": [0, 0, 0, 0, 0, 0, 0, 0, 0, 0, 0, 0, 0], "stateRewards": ["", -2, 3, -5, -7, 66, 43, -60, -4, -70, -75, 4, -1, 2, 2, -13, 54, 11, -40, -1, 77, 32, 15, -2, 3, -8, -9, -35, 83, -27, 6, -74, -34, 44], "withholdReward": false, "trial_id": "mdp_trial_19", "block": "test", "trialIndex": 20, "score": 60, "costs": -7, "simulationMode": [null, null, null, null, null], "rewards": [-2, 3, -8, -9, 83], "path": ["0", "0", "23", "24", "25", "26", "28"], "rt": [12803, 10, 472, 263, 212], "actions": ["left", "left", "left", "up", "right"], "actionTimes": [15542, 16096, 17108, 17914, 18690], "queries": {"click": {"state": {"target": ["23", "29", "27", "28", "33"], "time": [5040, 7054, 9184, 11139, 13302]}, "edge": {"target": [], "time": []}}, "mouseover": {"state": {"target": ["1", "23", "28", "26", "29", "27", "27", "28", "25", "33", "32"], "time": [3889, 4862, 5593, 5924, 6032, 7522, 8621, 10076, 11610, 11945, 14104]}, "edge": {"target": [], "time": []}}, "mouseout": {"state": {"target": ["22", "0", "1", "23", "28", "26", "29", "27", "27", "27", "28", "25", "33", "33", "32", "12", "0"], "time": [793, 919, 3954, 5462, 5649, 5971, 7436, 7837, 9314, 9749, 11556, 11671, 13413, 13682, 14961, 22106, 22239]}, "edge": {"target": [], "time": []}}}, "displayed_time": "19.22", "trialTime": 22920, "trial_type": "mouselab-mdp", "trial_index": 27, "time_elapsed": 1128107, "internal_node_id": "0.0-4.0-1.0-18.0"}}, {"uniqueid": "w24824436:a29279708", "current_trial": 28, "dateTime": 1691143227718, "trialdata": {"revealed_states": [], "clicked_states": ["17", "16", "18", "6", "7", "5", "9", "11", "10", "27"], "num_clicks_accrued": [0, 0, 0, 0, 0, 0, 0, 0, 0, 0, 0, 0, 0], "stateRewards": ["", 1, -2, -8, -13, 4, 34, -84, -4, -49, 88, -70, -1, 3, -4, 10, -77, 13, -34, 15, -21, -16, 27, 1, -2, 8, -8, -6, 38, -26, 6, -15, 66, -3], "withholdReward": false, "trial_id": "mdp_trial_20", "block": "test", "trialIndex": 21, "score": 61, "costs": -14.000000000000002, "simulationMode": [null, null, null, null, null], "rewards": [1, -2, -8, -4, 88], "path": ["0", "0", "1", "2", "3", "8", "10"], "rt": [20612, 35, 505, 243, 101], "actions": ["up", "up", "up", "left", "down"], "actionTimes": [23909, 24486, 25544, 26331, 26962], "queries": {"click": {"state": {"target": ["17", "16", "18", "6", "7", "5", "9", "11", "10", "27"], "time": [5218, 7044, 8944, 11552, 13128, 14871, 16852, 18485, 20341, 22282]}, "edge": {"target": [], "time": []}}, "mouseover": {"state": {"target": ["12", "13", "14", "17", "16", "18", "6", "7", "4", "5", "9", "11", "10", "27"], "time": [4021, 4521, 4568, 4918, 5661, 7584, 9432, 12349, 13477, 14017, 16211, 17632, 19444, 21481]}, "edge": {"target": [], "time": []}}, "mouseout": {"state": {"target": ["0", "12", "13", "14", "17", "16", "18", "6", "6", "7", "4", "5", "9", "11", "10", "27"], "time": [3970, 4487, 4557, 4834, 5557, 7475, 9322, 11717, 12307, 13175, 13586, 15764, 17217, 19093, 21019, 22391]}, "edge": {"target": [], "time": []}}}, "displayed_time": "27.51", "trialTime": 29327, "trial_type": "mouselab-mdp", "trial_index": 28, "time_elapsed": 1159253, "internal_node_id": "0.0-4.0-1.0-19.0"}}, {"uniqueid": "w24824436:a29279708", "current_trial": 29, "dateTime": 1691143248021, "trialdata": {"revealed_states": [], "clicked_states": ["16", "18", "17"], "num_clicks_accrued": [0, 0, 0, 0, 0, 0, 0, 0, 0, 0, 0, 0, 0], "stateRewards": ["", -1, -4, -3, 1, -45, -67, -24, 14, 32, 22, 22, -1, 1, -5, -7, 72, 84, -79, -5, 19, -40, -2, -1, -2, 8, -3, 84, -25, -28, 11, 64, -66, 77], "withholdReward": false, "trial_id": "mdp_trial_21", "block": "test", "trialIndex": 22, "score": 67.8, "costs": -4.199999999999999, "simulationMode": [null, null, null, null, null, null], "rewards": [-1, 1, -5, -7, 84], "path": ["0", "0", "12", "13", "14", "15", "17"], "rt": [5876, 355, 383, 126, 346, 777], "actions": ["right", "right", "right", "right", "up", "right"], "actionTimes": [9015, 9388, 10304, 10979, 11861, 13172], "queries": {"click": {"state": {"target": ["16", "18", "17"], "time": [4001, 6078, 8081]}, "edge": {"target": [], "time": []}}, "mouseover": {"state": {"target": ["18", "16", "18", "17"], "time": [3286, 3392, 4744, 6542]}, "edge": {"target": [], "time": []}}, "mouseout": {"state": {"target": ["10", "2", "7", "16", "1", "23", "23", "18", "16", "18", "17", "15"], "time": [1061, 1109, 1145, 1181, 1493, 1529, 1742, 3380, 4499, 6464, 14615, 15379]}, "edge": {"target": [], "time": []}}}, "displayed_time": "17.14", "trialTime": 18455, "trial_type": "mouselab-mdp", "trial_index": 29, "time_elapsed": 1179556, "internal_node_id": "0.0-4.0-1.0-20.0"}}, {"uniqueid": "w24824436:a29279708", "current_trial": 30, "dateTime": 1691143275931, "trialdata": {"revealed_states": [], "clicked_states": ["16", "18", "17", "20", "21", "22"], "num_clicks_accrued": [0, 0, 0, 0, 0, 0, 0, 0, 0, 0, 0, 0, 0], "stateRewards": ["", -1, 2, 7, 8, 75, 67, -11, 6, 52, -17, 38, -1, 4, -8, 14, 74, -37, -17, -12, 52, 55, 71, -2, -1, -5, 2, 21, 6, -88, -14, 64, -61, -47], "withholdReward": false, "trial_id": "mdp_trial_22", "block": "test", "trialIndex": 23, "score": 74.6, "costs": -8.4, "simulationMode": [null, null, null, null, null], "rewards": [-1, 4, -8, 14, 74], "path": ["0", "0", "12", "13", "14", "15", "16"], "rt": [14573, 296, 164, 210, 390], "actions": ["right", "right", "right", "up", "up"], "actionTimes": [17586, 18426, 19121, 19850, 20782], "queries": {"click": {"state": {"target": ["16", "18", "17", "20", "21", "22"], "time": [4913, 6743, 9376, 11541, 13806, 15578]}, "edge": {"target": [], "time": []}}, "mouseover": {"state": {"target": ["23", "1", "18", "16", "18", "15", "17", "20", "21", "22"], "time": [3791, 3841, 3890, 4689, 5397, 7234, 7877, 11193, 12021, 14624]}, "edge": {"target": [], "time": []}}, "mouseout": {"state": {"target": ["20", "19", "23", "0", "23", "1", "18", "16", "18", "15", "17", "20", "21", "22"], "time": [553, 737, 1455, 3060, 3826, 3875, 3920, 5315, 7190, 7524, 10681, 11942, 13926, 24098]}, "edge": {"target": [], "time": []}}}, "displayed_time": "21.31", "trialTime": 25974, "trial_type": "mouselab-mdp", "trial_index": 30, "time_elapsed": 1207466, "internal_node_id": "0.0-4.0-1.0-21.0"}}, {"uniqueid": "w24824436:a29279708", "current_trial": 31, "dateTime": 1691143301249, "trialdata": {"revealed_states": [], "clicked_states": ["12", "16", "18", "17", "20", "21"], "num_clicks_accrued": [0, 0, 0, 0, 0, 0, 0, 0, 0, 0, 0, 0, 0], "stateRewards": ["", 2, 3, 8, 14, 69, -27, 17, 2, -71, -65, -10, 2, -3, 7, 8, 65, -10, 65, -12, 73, -12, 13, -2, -2, 6, 10, -79, -69, -18, 10, -85, 67, 74], "withholdReward": false, "trial_id": "mdp_trial_23", "block": "test", "trialIndex": 24, "score": 58.6, "costs": -8.4, "simulationMode": [null, null, null, null, null], "rewards": [2, -3, 7, -12, 73], "path": ["0", "0", "12", "13", "14", "19", "20"], "rt": [13236, 92, 1025, 321, 117], "actions": ["right", "right", "right", "down", "right"], "actionTimes": [16125, 16745, 18299, 19153, 19784], "queries": {"click": {"state": {"target": ["12", "16", "18", "17", "20", "21"], "time": [5146, 6866, 8507, 10184, 12035, 13769]}, "edge": {"target": [], "time": []}}, "mouseover": {"state": {"target": ["12", "16", "18", "15", "17", "20", "21", "22"], "time": [4869, 5949, 7388, 9139, 10083, 11232, 12584, 14278]}, "edge": {"target": [], "time": []}}, "mouseout": {"state": {"target": ["0", "12", "16", "18", "15", "17", "20", "21", "22", "19"], "time": [4800, 5511, 7317, 9090, 9461, 10790, 12444, 14116, 15283, 21569]}, "edge": {"target": [], "time": []}}}, "displayed_time": "20.31", "trialTime": 23297, "trial_type": "mouselab-mdp", "trial_index": 31, "time_elapsed": 1232783, "internal_node_id": "0.0-4.0-1.0-22.0"}}, {"uniqueid": "w24824436:a29279708", "current_trial": 32, "dateTime": 1691143325094, "trialdata": {"revealed_states": [], "clicked_states": ["16", "17", "18", "20", "21", "22"], "num_clicks_accrued": [0, 0, 0, 0, 0, 0, 0, 0, 0, 0, 0, 0, 0], "stateRewards": ["", 1, 3, 3, -10, 52, 68, 59, 12, 7, 49, 21, -2, -3, -4, -2, -2, 63, 63, -4, 44, 43, -76, -2, -3, -6, 13, 48, 36, 12, -5, -36, -33, -11], "withholdReward": false, "trial_id": "mdp_trial_24", "block": "test", "trialIndex": 25, "score": 43.6, "costs": -8.4, "simulationMode": [null, null, null, null, null], "rewards": [-2, -3, -4, -2, 63], "path": ["0", "0", "12", "13", "14", "15", "17"], "rt": [14888, 79, 34, 397, 398], "actions": ["right", "right", "right", "up", "right"], "actionTimes": [17424, 18031, 18593, 19520, 20462], "queries": {"click": {"state": {"target": ["16", "17", "18", "20", "21", "22"], "time": [5536, 7490, 9184, 11153, 12984, 15010]}, "edge": {"target": [], "time": []}}, "mouseover": {"state": {"target": ["0", "12", "13", "16", "16", "17", "15", "18", "15", "14", "20", "21", "22", "22"], "time": [3558, 3939, 4028, 4389, 5174, 6353, 8055, 8300, 9966, 10416, 10974, 12215, 13564, 14098]}, "edge": {"target": [], "time": []}}, "mouseout": {"state": {"target": ["21", "0", "0", "12", "13", "16", "16", "17", "17", "15", "18", "15", "14", "20", "21", "22", "22"], "time": [817, 3339, 3622, 3982, 4274, 4455, 6197, 7650, 8008, 8146, 9845, 10298, 10762, 11722, 13151, 13674, 16505]}, "edge": {"target": [], "time": []}}}, "displayed_time": "21.00", "trialTime": 21630, "trial_type": "mouselab-mdp", "trial_index": 32, "time_elapsed": 1256629, "internal_node_id": "0.0-4.0-1.0-23.0"}}, {"uniqueid": "w24824436:a29279708", "current_trial": 33, "dateTime": 1691143347618, "trialdata": {"revealed_states": [], "clicked_states": ["5", "9", "11", "10", "6", "7"], "num_clicks_accrued": [0, 0, 0, 0, 0, 0, 0, 0, 0, 0, 0, 0, 0], "stateRewards": ["", -1, 1, -1, 2, 19, 85, -18, 2, -3, -26, 36, 2, 4, 7, -9, -18, 70, 72, -5, 35, -20, -28, 1, -2, -4, -3, -59, -11, -63, -2, -72, 59, -69], "withholdReward": false, "trial_id": "mdp_trial_25", "block": "test", "trialIndex": 26, "score": 77.6, "costs": -8.4, "simulationMode": [null, null, null, null, null, null], "rewards": [-1, 1, -1, 2, 85], "path": ["0", "0", "1", "2", "3", "4", "6"], "rt": [13602, 203, 92, 41, 146, 59], "actions": ["up", "up", "up", "up", "right", "right"], "actionTimes": [16247, 16469, 17110, 17697, 18399, 18992], "queries": {"click": {"state": {"target": ["5", "9", "11", "10", "6", "7"], "time": [4074, 6635, 9034, 10976, 13326, 15193]}, "edge": {"target": [], "time": []}}, "mouseover": {"state": {"target": ["15", "4", "5", "9", "11", "10", "2", "7", "6", "7", "7"], "time": [2717, 3185, 3600, 4831, 7556, 9708, 11521, 11584, 12869, 14333, 14736]}, "edge": {"target": [], "time": []}}, "mouseout": {"state": {"target": ["22", "0", "15", "4", "5", "9", "11", "10", "2", "7", "6", "7", "7"], "time": [765, 2707, 3085, 3469, 4711, 7297, 9544, 11470, 11571, 12719, 14252, 14487, 15843]}, "edge": {"target": [], "time": []}}}, "displayed_time": "19.52", "trialTime": 20614, "trial_type": "mouselab-mdp", "trial_index": 33, "time_elapsed": 1279153, "internal_node_id": "0.0-4.0-1.0-24.0"}}, {"uniqueid": "w24824436:a29279708", "current_trial": 34, "dateTime": 1691143375745, "trialdata": {"revealed_states": [], "clicked_states": ["12", "16", "17", "18", "20", "22", "21"], "num_clicks_accrued": [0, 0, 0, 0, 0, 0, 0, 0, 0, 0, 0, 0, 0], "stateRewards": ["", 2, -1, 4, -9, -43, 7, 54, -13, 38, -40, -83, -1, 2, -8, -10, 34, -33, 11, -14, -79, 65, 26, 1, 2, 4, 10, 21, 1, 86, 4, -53, 28, -29], "withholdReward": false, "trial_id": "mdp_trial_26", "block": "test", "trialIndex": 27, "score": 34.2, "costs": -9.8, "simulationMode": [null, null, null, null, null], "rewards": [-1, 2, -8, -14, 65], "path": ["0", "0", "12", "13", "14", "19", "21"], "rt": [17280, 294, 23, 11, 218], "actions": ["right", "right", "right", "down", "down"], "actionTimes": [21759, 22592, 23162, 23722, 24534], "queries": {"click": {"state": {"target": ["12", "16", "17", "18", "20", "22", "21"], "time": [6806, 8379, 10047, 11974, 14141, 16862, 18924]}, "edge": {"target": [], "time": []}}, "mouseover": {"state": {"target": ["23", "0", "12", "13", "12", "12", "15", "16", "17", "15", "18", "18", "14", "20", "21", "21", "22", "21", "13"], "time": [4542, 5444, 5491, 5814, 5884, 6549, 7090, 7662, 9046, 10653, 10714, 11271, 13030, 13698, 14592, 15041, 16467, 17403, 20699]}, "edge": {"target": [], "time": []}}, "mouseout": {"state": {"target": ["3", "10", "0", "0", "23", "0", "12", "13", "12", "12", "15", "16", "17", "15", "18", "18", "14", "20", "21", "21", "22", "21", "13"], "time": [1209, 1278, 2076, 4531, 5432, 5478, 5536, 5852, 5920, 7039, 7134, 8865, 10184, 10700, 10769, 12704, 13117, 14578, 14665, 15933, 17288, 20630, 20734]}, "edge": {"target": [], "time": []}}}, "displayed_time": "25.07", "trialTime": 26218, "trial_type": "mouselab-mdp", "trial_index": 34, "time_elapsed": 1307280, "internal_node_id": "0.0-4.0-1.0-25.0"}}, {"uniqueid": "w24824436:a29279708", "current_trial": 35, "dateTime": 1691143394480, "trialdata": {"revealed_states": [], "clicked_states": ["16", "18", "6"], "num_clicks_accrued": [0, 0, 0, 0, 0, 0, 0, 0, 0, 0, 0, 0, 0], "stateRewards": ["", 2, -3, -5, 5, 11, -9, -33, 6, 67, 6, -30, -1, -2, -6, 13, 55, 13, 72, -14, 75, 21, -66, -2, -4, 6, 15, -1, -35, 60, 2, 51, -73, 12], "withholdReward": false, "trial_id": "mdp_trial_27", "block": "test", "trialIndex": 28, "score": 71.8, "costs": -4.199999999999999, "simulationMode": [null, null, null, null, null, null], "rewards": [-1, -2, -6, 13, 72], "path": ["0", "0", "12", "13", "14", "15", "18"], "rt": [6548, 395, 261, 167, 160, 280], "actions": ["right", "right", "right", "right", "up", "left"], "actionTimes": [8959, 9369, 10164, 10851, 11536, 12356], "queries": {"click": {"state": {"target": ["16", "18", "6"], "time": [4466, 6055, 7631]}, "edge": {"target": [], "time": []}}, "mouseover": {"state": {"target": ["1", "18", "17", "17", "16", "18", "18", "6"], "time": [2622, 3186, 3267, 3735, 4186, 4985, 5411, 7401]}, "edge": {"target": [], "time": []}}, "mouseout": {"state": {"target": ["6", "4", "16", "17", "13", "12", "0", "1", "18", "17", "17", "16", "18", "18", "6", "6"], "time": [155, 194, 466, 764, 831, 1116, 2480, 3060, 3229, 3300, 4102, 4905, 5033, 6852, 7739, 8630]}, "edge": {"target": [], "time": []}}}, "displayed_time": "16.41", "trialTime": 16889, "trial_type": "mouselab-mdp", "trial_index": 35, "time_elapsed": 1326015, "internal_node_id": "0.0-4.0-1.0-26.0"}}, {"uniqueid": "w24824436:a29279708", "current_trial": 36, "dateTime": 1691143413746, "trialdata": {"revealed_states": [], "clicked_states": ["23", "29"], "num_clicks_accrued": [0, 0, 0, 0, 0, 0, 0, 0, 0, 0, 0, 0, 0], "stateRewards": ["", -1, -2, -8, 8, -27, -82, 19, -14, -62, 4, 1, -2, 2, 6, 10, 73, -51, -2, 2, 73, -48, 54, -1, 2, -4, 11, -25, 47, 86, 15, 33, 43, -42], "withholdReward": false, "trial_id": "mdp_trial_28", "block": "test", "trialIndex": 29, "score": 91.2, "costs": -2.8, "simulationMode": [null, null, null, null, null], "rewards": [-1, 2, -4, 11, 86], "path": ["0", "0", "23", "24", "25", "26", "29"], "rt": [7214, 71, 32, 378, 25], "actions": ["left", "left", "left", "up", "left"], "actionTimes": [10179, 10786, 11378, 12289, 12840], "queries": {"click": {"state": {"target": ["23", "29"], "time": [5374, 6955]}, "edge": {"target": [], "time": []}}, "mouseover": {"state": {"target": ["0", "23", "23", "24", "29", "27", "27", "10", "2"], "time": [3900, 4345, 5135, 5724, 6449, 7770, 9367, 9703, 9745]}, "edge": {"target": [], "time": []}}, "mouseout": {"state": {"target": ["20", "22", "0", "0", "23", "23", "24", "29", "27", "27", "10", "2", "7"], "time": [881, 1197, 3451, 3989, 4985, 5681, 5773, 7366, 8801, 9652, 9733, 14239, 14275]}, "edge": {"target": [], "time": []}}}, "displayed_time": "16.97", "trialTime": 17383, "trial_type": "mouselab-mdp", "trial_index": 36, "time_elapsed": 1345280, "internal_node_id": "0.0-4.0-1.0-27.0"}}, {"uniqueid": "w24824436:a29279708", "current_trial": 37, "dateTime": 1691143439864, "trialdata": {"revealed_states": [], "clicked_states": ["25", "27", "29", "28", "33", "32", "31"], "num_clicks_accrued": [0, 0, 0, 0, 0, 0, 0, 0, 0, 0, 0, 0, 0], "stateRewards": ["", 2, -1, -3, 16, -3, -16, -62, -1, 13, -26, 43, -1, 4, 3, -9, -54, -37, -3, -12, -71, -68, -57, 1, -3, 2, -9, 2, -2, -9, -11, 84, -52, 55], "withholdReward": false, "trial_id": "mdp_trial_29", "block": "test", "trialIndex": 30, "score": 63.2, "costs": -9.8, "simulationMode": [null, null, null, null, null, null], "rewards": [1, -3, 2, -11, 84], "path": ["0", "0", "23", "24", "25", "30", "31"], "rt": [15034, 690, 53, 110, 97, 208], "actions": ["left", "left", "left", "left", "down", "right"], "actionTimes": [18026, 18730, 19325, 19977, 20620, 21374], "queries": {"click": {"state": {"target": ["25", "27", "29", "28", "33", "32", "31"], "time": [5055, 6790, 8652, 10643, 12691, 14555, 16460]}, "edge": {"target": [], "time": []}}, "mouseover": {"state": {"target": ["12", "23", "24", "25", "26", "27", "29", "26", "28", "25", "33", "32", "31", "21"], "time": [3827, 4119, 4186, 4618, 5455, 6443, 7425, 9534, 10352, 11107, 11600, 13517, 15043, 17478]}, "edge": {"target": [], "time": []}}, "mouseout": {"state": {"target": ["17", "15", "13", "12", "0", "12", "23", "24", "25", "26", "27", "29", "26", "28", "25", "33", "32", "31", "21"], "time": [798, 836, 1214, 1348, 3785, 4069, 4157, 4484, 5335, 6361, 7377, 9449, 9903, 11050, 11195, 13341, 14692, 16992, 17524]}, "edge": {"target": [], "time": []}}}, "displayed_time": "21.91", "trialTime": 24034, "trial_type": "mouselab-mdp", "trial_index": 37, "time_elapsed": 1371399, "internal_node_id": "0.0-4.0-1.0-28.0"}}, {"uniqueid": "w24824436:a29279708", "current_trial": 38, "dateTime": 1691143472287, "trialdata": {"revealed_states": [], "clicked_states": ["24", "27", "28", "29", "33", "32", "31", "22", "21", "20"], "num_clicks_accrued": [0, 0, 0, 0, 0, 0, 0, 0, 0, 0, 0, 0, 0], "stateRewards": ["", -1, 4, 3, 12, -27, 34, -33, 3, -63, 1, 6, 2, 2, -6, -11, -77, -85, 68, -6, 51, 81, -60, -2, -2, 1, 15, 20, 15, 68, -10, -14, 6, -4], "withholdReward": false, "trial_id": "mdp_trial_30", "block": "test", "trialIndex": 31, "score": 59, "costs": -14.000000000000002, "simulationMode": [null, null, null, null, null, null], "rewards": [2, 2, -6, -6, 81], "path": ["0", "0", "12", "13", "14", "19", "21"], "rt": [21214, 526, 466, 341, 38, 197], "actions": ["right", "right", "right", "right", "down", "down"], "actionTimes": [24907, 25448, 26468, 27358, 27934, 28657], "queries": {"click": {"state": {"target": ["24", "27", "28", "29", "33", "32", "31", "22", "21", "20"], "time": [5666, 7363, 9443, 11285, 13475, 16045, 17763, 20199, 22044, 23972]}, "edge": {"target": [], "time": []}}, "mouseover": {"state": {"target": ["1", "28", "24", "27", "28", "26", "29", "33", "32", "31", "22", "19", "22", "21", "20"], "time": [4681, 5032, 5498, 6441, 8123, 9853, 9960, 12172, 14369, 16662, 19077, 19143, 19966, 21268, 23124]}, "edge": {"target": [], "time": []}}, "mouseout": {"state": {"target": ["0", "1", "28", "24", "27", "28", "26", "29", "29", "33", "32", "31", "22", "19", "22", "21"], "time": [3749, 4737, 5282, 6012, 7928, 9804, 9905, 11450, 11821, 14012, 16209, 18354, 19131, 19669, 20762, 22197]}, "edge": {"target": [], "time": []}}}, "displayed_time": "29.19", "trialTime": 30234, "trial_type": "mouselab-mdp", "trial_index": 38, "time_elapsed": 1403821, "internal_node_id": "0.0-4.0-1.0-29.0"}}, {"uniqueid": "w24824436:a29279708", "current_trial": 39, "dateTime": 1691143494166, "trialdata": {"revealed_states": [], "clicked_states": ["29", "27", "28", "33", "32"], "num_clicks_accrued": [0, 0, 0, 0, 0, 0, 0, 0, 0, 0, 0, 0, 0], "stateRewards": ["", -2, 2, -1, -6, 22, 6, 6, -5, 70, -42, 65, 1, 3, 5, -6, -67, -9, 3, 14, 7, -62, -13, -2, 4, 1, 16, 42, -21, -52, -8, 32, 53, 81], "withholdReward": false, "trial_id": "mdp_trial_31", "block": "test", "trialIndex": 32, "score": 69, "costs": -7, "simulationMode": [null, null, null, null, null, null], "rewards": [-2, 4, 1, -8, 81], "path": ["0", "0", "23", "24", "25", "30", "33"], "rt": [10961, 468, 333, 96, 510, 274], "actions": ["left", "left", "left", "left", "down", "left"], "actionTimes": [13592, 14076, 14941, 15558, 16587, 17397], "queries": {"click": {"state": {"target": ["29", "27", "28", "33", "32"], "time": [4754, 7011, 8893, 10551, 12817]}, "edge": {"target": [], "time": []}}, "mouseover": {"state": {"target": ["24", "24", "26", "29", "27", "28", "25", "33", "30", "32", "16"], "time": [3776, 4042, 4125, 4558, 5162, 7757, 9469, 9904, 11437, 12679, 13340]}, "edge": {"target": [], "time": []}}, "mouseout": {"state": {"target": ["24", "24", "26", "29", "27", "28", "25", "33", "33", "30", "32", "16"], "time": [3820, 4077, 4159, 4890, 7707, 9407, 9518, 10692, 11108, 11489, 12988, 18550]}, "edge": {"target": [], "time": []}}}, "displayed_time": "17.96", "trialTime": 19554, "trial_type": "mouselab-mdp", "trial_index": 39, "time_elapsed": 1425700, "internal_node_id": "0.0-4.0-1.0-30.0"}}, {"uniqueid": "w24824436:a29279708", "current_trial": 40, "dateTime": 1691143518906, "trialdata": {"revealed_states": [], "clicked_states": ["16", "17", "18", "20", "21", "22", "31"], "num_clicks_accrued": [0, 0, 0, 0, 0, 0, 0, 0, 0, 0, 0, 0, 0], "stateRewards": ["", -2, 4, -3, -13, 63, -36, 62, 11, 78, 34, -51, 2, -2, 8, -6, -40, -18, 31, 9, 64, 39, 79, 1, 4, -4, 15, -12, 76, 73, -10, -77, 86, -4], "withholdReward": false, "trial_id": "mdp_trial_32", "block": "test", "trialIndex": 33, "score": 86.2, "costs": -9.8, "simulationMode": [null, null, null, null, null], "rewards": [2, -2, 8, 9, 79], "path": ["0", "0", "12", "13", "14", "19", "22"], "rt": [13440, 291, 38, 724, 923], "actions": ["right", "right", "right", "down", "left"], "actionTimes": [16169, 17007, 17562, 18804, 20261], "queries": {"click": {"state": {"target": ["16", "17", "18", "20", "21", "22", "31"], "time": [4412, 6138, 7717, 9294, 10878, 12452, 14079]}, "edge": {"target": [], "time": []}}, "mouseover": {"state": {"target": ["15", "16", "17", "18", "14", "20", "21", "22", "31"], "time": [3777, 4107, 4821, 6807, 8323, 8742, 10136, 11493, 13593]}, "edge": {"target": [], "time": []}}, "mouseout": {"state": {"target": ["16", "15", "23", "15", "16", "17", "18", "14", "20", "21", "22", "31"], "time": [756, 990, 1367, 4060, 4772, 6642, 8310, 8369, 9804, 11322, 13466, 14718]}, "edge": {"target": [], "time": []}}}, "displayed_time": "20.79", "trialTime": 22577, "trial_type": "mouselab-mdp", "trial_index": 40, "time_elapsed": 1450441, "internal_node_id": "0.0-4.0-1.0-31.0"}}, {"uniqueid": "w24824436:a29279708", "current_trial": 41, "dateTime": 1691143551649, "trialdata": {"revealed_states": [], "clicked_states": ["15", "17", "16", "18", "20", "21", "22", "31", "32", "33"], "num_clicks_accrued": [0, 0, 0, 0, 0, 0, 0, 0, 0, 0, 0, 0, 0], "stateRewards": ["", 2, -4, -4, 13, -80, 62, 13, -11, 57, -13, -44, 1, 4, 3, -4, -29, -88, 15, 16, -58, 68, -45, -1, -3, -1, -9, -44, -86, -19, -7, -36, 59, 66], "withholdReward": false, "trial_id": "mdp_trial_33", "block": "test", "trialIndex": 34, "score": 40, "costs": -14.000000000000002, "simulationMode": [null, null, null, null, null], "rewards": [-1, -3, -1, -7, 66], "path": ["0", "0", "23", "24", "25", "30", "33"], "rt": [23668, 91, 342, 73, 157], "actions": ["left", "left", "left", "down", "left"], "actionTimes": [26692, 27304, 28167, 28800, 29547], "queries": {"click": {"state": {"target": ["15", "17", "16", "18", "20", "21", "22", "31", "32", "33"], "time": [5975, 7792, 9832, 11635, 13552, 15394, 17273, 19846, 21611, 23779]}, "edge": {"target": [], "time": []}}, "mouseover": {"state": {"target": ["24", "23", "12", "13", "15", "17", "16", "13", "18", "20", "21", "22", "31", "30", "31", "32", "33", "29"], "time": [4557, 4807, 5208, 5324, 5791, 6512, 8437, 10532, 11147, 12901, 14236, 16605, 18783, 18871, 19525, 20409, 22248, 25643]}, "edge": {"target": [], "time": []}}, "mouseout": {"state": {"target": ["12", "0", "24", "23", "12", "13", "15", "17", "16", "13", "18", "20", "21", "22", "31", "30", "31", "32", "33", "29"], "time": [1137, 3078, 4641, 4845, 5275, 5363, 6426, 8388, 10339, 10692, 11776, 14105, 15908, 18382, 18860, 19358, 20320, 22051, 24915, 26127]}, "edge": {"target": [], "time": []}}}, "displayed_time": "30.10", "trialTime": 30614, "trial_type": "mouselab-mdp", "trial_index": 41, "time_elapsed": 1483183, "internal_node_id": "0.0-4.0-1.0-32.0"}}, {"uniqueid": "w24824436:a29279708", "current_trial": 42, "dateTime": 1691143583082, "trialdata": {"revealed_states": [], "clicked_states": ["16", "17", "20", "21", "22", "18", "7", "6"], "num_clicks_accrued": [0, 0, 0, 0, 0, 0, 0, 0, 0, 0, 0, 0, 0], "stateRewards": ["", -1, 3, -7, 16, -32, -74, -48, 2, 10, 15, -30, 1, 1, -2, 10, 12, -83, 67, 13, -66, 47, 65, -2, 4, 2, -14, -8, -57, 24, 9, 65, 12, 46], "withholdReward": false, "trial_id": "mdp_trial_34", "block": "test", "trialIndex": 35, "score": 65.8, "costs": -11.200000000000001, "simulationMode": [null, null, null, null, null], "rewards": [1, 1, -2, 10, 67], "path": ["0", "0", "12", "13", "14", "15", "18"], "rt": [18052, 1164, 416, 266, 294], "actions": ["right", "right", "right", "up", "left"], "actionTimes": [21865, 23548, 24496, 25284, 26104], "queries": {"click": {"state": {"target": ["16", "17", "20", "21", "22", "18", "7", "6"], "time": [5296, 7307, 9360, 11403, 13454, 15579, 17444, 19387]}, "edge": {"target": [], "time": []}}, "mouseover": {"state": {"target": ["16", "16", "16", "16", "17", "20", "21", "22", "18", "7", "6", "5"], "time": [3877, 4514, 4767, 5064, 5766, 8314, 10176, 12691, 14115, 16844, 18812, 20112]}, "edge": {"target": [], "time": []}}, "mouseout": {"state": {"target": ["3", "7", "16", "16", "16", "16", "17", "20", "21", "22", "18", "7", "6", "5", "11", "8", "3"], "time": [1378, 1429, 4266, 4552, 4803, 5672, 7859, 9898, 11551, 13976, 16064, 18176, 19861, 27017, 27300, 27416, 27684]}, "edge": {"target": [], "time": []}}}, "displayed_time": "26.63", "trialTime": 29485, "trial_type": "mouselab-mdp", "trial_index": 42, "time_elapsed": 1514617, "internal_node_id": "0.0-4.0-1.0-33.0"}}, {"uniqueid": "w24824436:a29279708", "current_trial": 43, "dateTime": 1691143604298, "trialdata": {"revealed_states": [], "clicked_states": ["6", "7", "5"], "num_clicks_accrued": [0, 0, 0, 0, 0, 0, 0, 0, 0, 0, 0, 0, 0], "stateRewards": ["", -2, 1, -7, 9, 8, 25, 61, -7, -17, 69, -81, 1, 4, -4, -11, 16, 67, 44, 3, 6, -45, -54, -2, 3, 6, -11, -15, 32, -47, 3, -39, -6, -88], "withholdReward": false, "trial_id": "mdp_trial_35", "block": "test", "trialIndex": 36, "score": 57.8, "costs": -4.199999999999999, "simulationMode": [null, null, null, null, null, null], "rewards": [-2, 1, -7, 9, 61], "path": ["0", "0", "1", "2", "3", "4", "7"], "rt": [7405, 348, 342, 79, 176, 450], "actions": ["up", "up", "up", "up", "right", "down"], "actionTimes": [12041, 12404, 13282, 13897, 14620, 15676], "queries": {"click": {"state": {"target": ["6", "7", "5"], "time": [6920, 8783, 10687]}, "edge": {"target": [], "time": []}}, "mouseover": {"state": {"target": ["15", "17", "16", "6", "1", "7", "4", "5", "4"], "time": [5148, 5199, 5707, 6708, 7417, 7901, 9702, 10140, 11320]}, "edge": {"target": [], "time": []}}, "mouseout": {"state": {"target": ["17", "15", "12", "0", "15", "17", "16", "6", "1", "7", "4", "5", "4", "21"], "time": [2221, 2253, 2604, 4738, 5185, 5233, 6374, 7365, 7770, 9606, 9830, 11260, 11371, 17441]}, "edge": {"target": [], "time": []}}}, "displayed_time": "18.64", "trialTime": 19158, "trial_type": "mouselab-mdp", "trial_index": 43, "time_elapsed": 1535833, "internal_node_id": "0.0-4.0-1.0-34.0"}}, {"uniqueid": "w24824436:a29279708", "current_trial": 44, "dateTime": 1691143638940, "trialdata": {"revealed_states": [], "clicked_states": ["27", "29", "28", "33", "32", "31", "22", "21", "20", "17"], "num_clicks_accrued": [0, 0, 0, 0, 0, 0, 0, 0, 0, 0, 0, 0, 0], "stateRewards": ["", 1, -4, 6, -3, 40, 76, -51, 5, -24, -63, 44, -2, -2, 8, 1, 76, -85, -58, 10, 59, 20, 11, -2, 3, -3, 3, -82, -10, 54, -7, -57, -6, -32], "withholdReward": false, "trial_id": "mdp_trial_36", "block": "test", "trialIndex": 37, "score": 59, "costs": -14.000000000000002, "simulationMode": [null, null, null, null, null, null], "rewards": [-2, -2, 8, 10, 59], "path": ["0", "0", "12", "13", "14", "19", "20"], "rt": [19741, 371, 194, 1892, 165, 60], "actions": ["right", "right", "right", "right", "down", "right"], "actionTimes": [24947, 25334, 26082, 28498, 29205, 29821], "queries": {"click": {"state": {"target": ["27", "29", "28", "33", "32", "31", "22", "21", "20", "17"], "time": [7350, 9106, 10692, 12429, 14060, 16101, 18076, 19747, 21896, 23764]}, "edge": {"target": [], "time": []}}, "mouseover": {"state": {"target": ["1", "27", "29", "26", "28", "25", "33", "32", "31", "22", "21", "21", "20", "20", "17", "16"], "time": [5285, 6613, 8199, 9678, 9973, 11391, 11865, 12917, 14879, 16961, 18571, 18897, 20518, 21665, 23173, 24396]}, "edge": {"target": [], "time": []}}, "mouseout": {"state": {"target": ["19", "20", "0", "1", "27", "29", "26", "28", "25", "33", "32", "31", "22", "21", "21", "20", "20", "17", "16"], "time": [1160, 3392, 5274, 6115, 7864, 9628, 9769, 11337, 11448, 12865, 14581, 16518, 18516, 18617, 20077, 21465, 22274, 24117, 27567]}, "edge": {"target": [], "time": []}}}, "displayed_time": "30.38", "trialTime": 32503, "trial_type": "mouselab-mdp", "trial_index": 44, "time_elapsed": 1570475, "internal_node_id": "0.0-4.0-1.0-35.0"}}, {"uniqueid": "w24824436:a29279708", "current_trial": 45, "dateTime": 1691143660920, "trialdata": {"revealed_states": [], "clicked_states": ["17", "16", "18", "20"], "num_clicks_accrued": [0, 0, 0, 0, 0, 0, 0, 0, 0, 0, 0, 0, 0], "stateRewards": ["", -2, 2, 3, -7, 76, 63, 21, 15, 35, -8, -44, 1, 1, -2, -12, 23, 24, 76, -9, 46, 66, -49, -2, -1, 7, 12, 40, -71, -45, -6, 38, -49, 46], "withholdReward": false, "trial_id": "mdp_trial_37", "block": "test", "trialIndex": 38, "score": 58.4, "costs": -5.6, "simulationMode": [null, null, null, null, null, null], "rewards": [1, 1, -2, -12, 76], "path": ["0", "0", "12", "13", "14", "15", "18"], "rt": [8744, 1666, 13, 480, 211, 84], "actions": ["right", "right", "right", "right", "up", "left"], "actionTimes": [12398, 14078, 14616, 15660, 16413, 17016], "queries": {"click": {"state": {"target": ["17", "16", "18", "20"], "time": [5771, 7364, 9243, 11438]}, "edge": {"target": [], "time": []}}, "mouseover": {"state": {"target": ["15", "17", "14", "13", "17", "17", "16", "18", "20", "19"], "time": [4517, 4565, 4818, 4869, 5133, 5550, 6361, 8310, 10345, 11707]}, "edge": {"target": [], "time": []}}, "mouseout": {"state": {"target": ["17", "15", "1", "15", "17", "14", "13", "17", "17", "16", "18", "20", "19"], "time": [1800, 1843, 1945, 4553, 4766, 4857, 5064, 5169, 6078, 8224, 9820, 11472, 11757]}, "edge": {"target": [], "time": []}}}, "displayed_time": "17.66", "trialTime": 19866, "trial_type": "mouselab-mdp", "trial_index": 45, "time_elapsed": 1592454, "internal_node_id": "0.0-4.0-1.0-36.0"}}, {"uniqueid": "w24824436:a29279708", "current_trial": 46, "dateTime": 1691143689366, "trialdata": {"revealed_states": [], "clicked_states": ["16", "18", "17", "20", "21", "22", "31", "32", "33"], "num_clicks_accrued": [0, 0, 0, 0, 0, 0, 0, 0, 0, 0, 0, 0, 0], "stateRewards": ["", 1, 1, 6, -14, -40, 37, 16, -13, 33, -68, 49, 2, 4, 3, 6, 55, 27, 32, 10, -65, 20, -87, 2, 1, -6, -5, -42, 12, 29, -8, 16, 76, -33], "withholdReward": false, "trial_id": "mdp_trial_38", "block": "test", "trialIndex": 39, "score": 52.4, "costs": -12.600000000000001, "simulationMode": [null, null, null, null, null, null], "rewards": [2, 1, -6, -8, 76], "path": ["0", "0", "23", "24", "25", "30", "32"], "rt": [17568, 474, 330, 37, 13, 334], "actions": ["left", "left", "left", "left", "down", "down"], "actionTimes": [20610, 21099, 21974, 22550, 23125, 24001], "queries": {"click": {"state": {"target": ["16", "18", "17", "20", "21", "22", "31", "32", "33"], "time": [5093, 6979, 8537, 10177, 12234, 13899, 15852, 17582, 19744]}, "edge": {"target": [], "time": []}}, "mouseover": {"state": {"target": ["15", "16", "18", "15", "17", "20", "21", "22", "31", "32", "33", "30"], "time": [4371, 5007, 5796, 7467, 7899, 9313, 11195, 12816, 15187, 17068, 18821, 20130]}, "edge": {"target": [], "time": []}}, "mouseout": {"state": {"target": ["12", "15", "16", "18", "15", "17", "20", "20", "21", "22", "31", "32", "33", "30", "14"], "time": [1554, 4484, 5662, 7453, 7571, 9105, 10346, 10654, 12408, 14111, 16335, 17702, 20117, 20176, 25077]}, "edge": {"target": [], "time": []}}}, "displayed_time": "24.54", "trialTime": 26284, "trial_type": "mouselab-mdp", "trial_index": 46, "time_elapsed": 1620901, "internal_node_id": "0.0-4.0-1.0-37.0"}}, {"uniqueid": "w24824436:a29279708", "current_trial": 47, "dateTime": 1691143714155, "trialdata": {"revealed_states": [], "clicked_states": ["20", "21", "22", "16", "18", "17"], "num_clicks_accrued": [0, 0, 0, 0, 0, 0, 0, 0, 0, 0, 0, 0, 0], "stateRewards": ["", 2, -2, -8, 9, -20, 55, -58, 14, 42, 2, 36, 1, -3, -5, 5, -58, 57, 60, 16, 57, 30, -70, -2, 1, 3, 10, 59, 23, 77, -13, -26, 88, -72], "withholdReward": false, "trial_id": "mdp_trial_39", "block": "test", "trialIndex": 40, "score": 49.6, "costs": -8.4, "simulationMode": [null, null, null, null, null, null], "rewards": [1, -3, -5, 5, 60], "path": ["0", "0", "12", "13", "14", "15", "18"], "rt": [13368, 422, 310, 79, 148, 332], "actions": ["right", "right", "right", "right", "up", "left"], "actionTimes": [16228, 16665, 17509, 18146, 18809, 19678], "queries": {"click": {"state": {"target": ["20", "21", "22", "16", "18", "17"], "time": [5682, 7372, 9185, 11094, 12884, 14997]}, "edge": {"target": [], "time": []}}, "mouseover": {"state": {"target": ["19", "20", "20", "21", "22", "14", "16", "18", "15", "17"], "time": [2936, 5197, 5447, 6335, 8479, 9649, 10149, 12097, 13344, 13695]}, "edge": {"target": [], "time": []}}, "mouseout": {"state": {"target": ["19", "22", "0", "19", "20", "20", "21", "22", "14", "16", "18", "15", "17", "15", "15"], "time": [926, 1259, 2924, 3172, 5235, 6203, 7970, 9519, 9702, 11595, 13292, 13394, 21066, 21149, 21482]}, "edge": {"target": [], "time": []}}}, "displayed_time": "20.22", "trialTime": 22709, "trial_type": "mouselab-mdp", "trial_index": 47, "time_elapsed": 1645690, "internal_node_id": "0.0-4.0-1.0-38.0"}}, {"uniqueid": "w24824436:a29279708", "current_trial": 48, "dateTime": 1691143742691, "trialdata": {"revealed_states": [], "clicked_states": ["28", "27", "29", "33", "32", "31", "22"], "num_clicks_accrued": [0, 0, 0, 0, 0, 0, 0, 0, 0, 0, 0, 0, 0], "stateRewards": ["", 1, 1, 5, 6, -29, -7, 3, -16, 9, -46, 65, -1, 4, -1, -16, -63, -77, -87, 8, 80, -50, 43, -1, -1, -5, 5, -38, -71, -62, 9, 81, -50, -52], "withholdReward": false, "trial_id": "mdp_trial_40", "block": "test", "trialIndex": 41, "score": 73.2, "costs": -9.8, "simulationMode": [null, null, null, null, null], "rewards": [-1, -1, -5, 9, 81], "path": ["0", "0", "23", "24", "25", "30", "31"], "rt": [16048, 24, 81, 395, 158], "actions": ["left", "left", "left", "down", "right"], "actionTimes": [22043, 22649, 23257, 24183, 24875], "queries": {"click": {"state": {"target": ["28", "27", "29", "33", "32", "31", "22"], "time": [7596, 9230, 12151, 14347, 16052, 17991, 19958]}, "edge": {"target": [], "time": []}}, "mouseover": {"state": {"target": ["26", "28", "28", "27", "29", "33", "32", "31", "22"], "time": [7122, 7186, 7473, 8083, 9927, 14106, 15553, 16872, 19050]}, "edge": {"target": [], "time": []}}, "mouseout": {"state": {"target": ["12", "0", "26", "28", "28", "27", "29", "33", "32", "31", "22", "31", "31"], "time": [1466, 6085, 7173, 7225, 7944, 9826, 14096, 15184, 16206, 18356, 20463, 20558, 26159]}, "edge": {"target": [], "time": []}}}, "displayed_time": "25.39", "trialTime": 26433, "trial_type": "mouselab-mdp", "trial_index": 48, "time_elapsed": 1674226, "internal_node_id": "0.0-4.0-1.0-39.0"}}, {"uniqueid": "w24824436:a29279708", "current_trial": 49, "dateTime": 1691143828244, "trialdata": {"rt": 84989, "response": {"Q0": "$-2 to $2", "Q1": "$-4 to $4", "Q2": "$-88 to $88", "Q3": "The cost was always $1.4.", "Q4": "Very motivated"}, "question_order": [0, 1, 2, 3, 4], "trial_id": "final_quiz_control", "trial_type": "survey-multi-choice", "trial_index": 49, "time_elapsed": 1759779, "internal_node_id": "0.0-4.0-2.0"}}, {"uniqueid": "w24824436:a29279708", "current_trial": 50, "dateTime": 1691144194373, "trialdata": {"rt": 365661, "response": {"Q0": "Check the end nodes and the moment I see a node above +65 (and above) I moved the spider to it. I did not inspect inner nodes as the cost was the same as the other nodes but the prize too low. I noticed that i would always be a net positive if I continued with my 65 and above. Well even 50 would have been given a net positive ", "Q1": "No, not really by the 5th round i noticed what i mentioned above ", "Q2": "Improving was fairly difficult as its about remembering where the highest value is but still knowing when to stop to avoid getting too many -1.40. To improve is based on memory. There is definitely a finite level of improvement based on this"}, "trial_id": "self_report_control", "trial_type": "survey-text", "trial_index": 50, "time_elapsed": 2125908, "internal_node_id": "0.0-4.0-3.0"}}, {"uniqueid": "w24824436:a29279708", "current_trial": 51, "dateTime": 1691144231574, "trialdata": {"rt": 36938, "response": {"gender": "male", "age": "23", "colorblind": "0", "effort": "0"}, "trial_type": "survey-html-form", "trial_index": 51, "time_elapsed": 2163110, "internal_node_id": "0.0-4.0-4.0"}}, {"uniqueid": "w24824436:a29279708", "current_trial": 52, "dateTime": 1691144300760, "trialdata": {"rt": 69157, "response": {"Q0": "Not at all. It was a very basic game with understandable instructions. Even a 10 year old would understand the game and instructions", "Q1": "Nope, never before ", "Q2": ""}, "trial_type": "survey-text", "trial_index": 52, "time_elapsed": 2232296, "internal_node_id": "0.0-4.0-5.0"}}, {"uniqueid": "w24824436:a29279708", "current_trial": 53, "dateTime": 1691144306240, "trialdata": {"rt": 5377, "stimulus": "Press 'Finish HIT' in order to reach the completion code. Once the data has been saved, you will receive the code either in this window or in the original browser window where you started the experiment.\n", "response": 0, "trial_type": "html-button-response", "trial_index": 53, "time_elapsed": 2237776, "internal_node_id": "0.0-5.0"}}, {"uniqueid": "w24824436:a29279708", "current_trial": 54, "dateTime": 1691144307333, "trialdata": {"success": true, "trial_type": "fullscreen", "trial_index": 54, "time_elapsed": 2238869, "internal_node_id": "0.0-6.0"}}], "questiondata": {"params": {"CODE": "C6DMOQA6", "MIN_TIME": 14, "inspectCost": 1, "startTime": "Fri Aug 04 2023 11:41:06 GMT+0200 (South Africa Standard Time)", "bonusRate": 0.002, "variance": "1_2_4_8_44", "branching": "31123"}, "final_score": 1929.6}, "eventdata": [{"eventtype": "initialized", "value": null, "timestamp": 1691142065556, "interval": 0}, {"eventtype": "window_resize", "value": [1024, 654], "timestamp": 1691142065556, "interval": 0}, {"eventtype": "window_resize", "value": [1024, 654], "timestamp": 1691142066272, "interval": 716}, {"eventtype": "window_resize", "value": [1366, 768], "timestamp": 1691142072783, "interval": 6511}], "useragent": "Mozilla/5.0 (Windows NT 10.0; Win64; x64) AppleWebKit/537.36 (KHTML, like Gecko) Chrome/115.0.0.0 Safari/537.36", "mode": "live", "id": "w24824436:a29279708", "status": "user data saved", "Beginhit": "2023-08-04 09:41:02.468151", "Beginexp": "2023-08-04 09:41:14.701737", "Endhit": "2023-08-04 10:18:35.363672", "psiturkStatus": 3, "browser": "<redacted>", "platform": "windows", "language": "en-ZA"}