{"condition": 0, "counterbalance": 0, "assignmentId": "a97152409", "workerId": "w76728498", "hitId": "h19098720", "currenttrial": 55, "bonus": 0, "data": [{"uniqueid": "w76728498:a97152409", "current_trial": 0, "dateTime": 1693564830143, "trialdata": {"success": true, "trial_type": "fullscreen", "trial_index": 0, "time_elapsed": 3637, "internal_node_id": "0.0-0.0"}}, {"uniqueid": "w76728498:a97152409", "current_trial": 1, "dateTime": 1693564831492, "trialdata": {"view_history": [{"page_index": 0, "viewing_time": 1340}], "rt": 1340, "trial_id": "exp_instructions_control", "trial_type": "instructions", "trial_index": 1, "time_elapsed": 4987, "internal_node_id": "0.0-1.0"}}, {"uniqueid": "w76728498:a97152409", "current_trial": 2, "dateTime": 1693564915707, "trialdata": {"view_history": [{"page_index": 0, "viewing_time": 33197}, {"page_index": 1, "viewing_time": 35252}, {"page_index": 2, "viewing_time": 5624}, {"page_index": 3, "viewing_time": 10137}], "rt": 84210, "trial_id": "mouselab_instructions_1_control", "trial_type": "instructions", "trial_index": 2, "time_elapsed": 89202, "internal_node_id": "0.0-2.0-1.0"}}, {"uniqueid": "w76728498:a97152409", "current_trial": 3, "dateTime": 1693564937461, "trialdata": {"revealed_states": [], "clicked_states": ["24"], "num_clicks_accrued": [0, 0, 0, 0, 0, 0, 0, 0, 0, 0, 0, 0, 0], "stateRewards": ["", -10, 10, -10, 10, 10, -10, 10, -10, 10, 10, -10, 10, -10, -10, 10, 10, 10, -10, 10, 10, 10, -10, 10, 10, 10, 10, -10, -10, 10, 10, -10, -10, -10], "withholdReward": false, "trial_id": "practice_1", "block": "test", "trialIndex": 0, "score": 33, "costs": -0.5, "simulationMode": [null, null, null, null, null], "rewards": [10, 10, 10, 10, -10], "path": ["0", "0", "23", "24", "25", "30", "31"], "rt": [8368, 1418, 1442, 522, 250], "actions": ["left", "left", "left", "down", "right"], "actionTimes": [12497, 14422, 16368, 17390, 18134], "queries": {"click": {"state": {"target": ["24"], "time": [8150]}, "edge": {"target": [], "time": []}}, "mouseover": {"state": {"target": ["23", "24", "23"], "time": [6987, 7590, 8791]}, "edge": {"target": [], "time": []}}, "mouseout": {"state": {"target": ["0", "23", "24", "23"], "time": [6937, 7573, 8708, 9879]}, "edge": {"target": [], "time": []}}}, "displayed_time": "18.64", "trialTime": 20966, "trial_type": "mouselab-mdp", "trial_index": 3, "time_elapsed": 110955, "internal_node_id": "0.0-2.0-2.0-0.0"}}, {"uniqueid": "w76728498:a97152409", "current_trial": 4, "dateTime": 1693564953356, "trialdata": {"revealed_states": [], "clicked_states": ["1", "2"], "num_clicks_accrued": [0, 0, 0, 0, 0, 0, 0, 0, 0, 0, 0, 0, 0], "stateRewards": ["", 10, -10, 10, 10, -10, -10, 10, -10, -10, 10, -10, 10, -10, 10, -10, 10, -10, 10, 10, -10, 10, 10, 10, 10, 10, 10, 10, -10, 10, 10, -10, 10, 10], "withholdReward": false, "trial_id": "practice_2", "block": "test", "trialIndex": 1, "score": -7.5, "costs": -1, "simulationMode": [null, null, null, null, null], "rewards": [10, -10, 10, -10, -10], "path": ["0", "0", "1", "2", "3", "8", "9"], "rt": [3890, 2575, 987, 235, 1317], "actions": ["up", "up", "up", "left", "up"], "actionTimes": [6069, 9147, 10634, 11371, 13187], "queries": {"click": {"state": {"target": ["1", "2"], "time": [2999, 5000]}, "edge": {"target": [], "time": []}}, "mouseover": {"state": {"target": ["1", "2", "3"], "time": [2659, 3464, 5598]}, "edge": {"target": [], "time": []}}, "mouseout": {"state": {"target": ["12", "0", "1", "2", "3", "3", "3"], "time": [1153, 1720, 3375, 5531, 5632, 7422, 8240]}, "edge": {"target": [], "time": []}}}, "displayed_time": "13.69", "trialTime": 15419, "trial_type": "mouselab-mdp", "trial_index": 4, "time_elapsed": 126850, "internal_node_id": "0.0-2.0-2.0-1.0"}}, {"uniqueid": "w76728498:a97152409", "current_trial": 5, "dateTime": 1693564961357, "trialdata": {"view_history": [{"page_index": 0, "viewing_time": 5322}, {"page_index": 1, "viewing_time": 2670}], "rt": 7993, "trial_id": "mouselab_instructions_2_control", "trial_type": "instructions", "trial_index": 5, "time_elapsed": 134852, "internal_node_id": "0.0-2.0-3.0"}}, {"uniqueid": "w76728498:a97152409", "current_trial": 6, "dateTime": 1693565027256, "trialdata": {"rt": 65887, "response": {"Q0": "The cost for clicking on nodes may vary between nodes.", "Q1": "The better I perform the higher my bonus will be.", "Q2": "No, the amount of cash at each node of the web may be different each time.", "Q3": "To get the highest total score.", "Q4": "Only before moving the spider.", "Q5": "3 seconds"}, "question_order": [0, 1, 2, 3, 4, 5], "correct": {"Q0": "The cost for clicking on nodes may vary between nodes.", "Q1": "The better I perform the higher my bonus will be.", "Q2": "No, the amount of cash at each node of the web may be different each time.", "Q3": "To get the highest total score.", "Q4": "Only before moving the spider.", "Q5": "3 seconds"}, "trial_id": "mouselab_quiz_control", "trial_type": "survey-multi-choice", "trial_index": 6, "time_elapsed": 200751, "internal_node_id": "0.0-2.0-4.0"}}, {"uniqueid": "w76728498:a97152409", "current_trial": 7, "dateTime": 1693565031217, "trialdata": {"rt": 3947, "response": {"Q0": "No"}, "question_order": [0], "trial_id": "repeat_check", "trial_type": "survey-multi-choice", "trial_index": 7, "time_elapsed": 204711, "internal_node_id": "0.0-4.0-0.0"}}, {"uniqueid": "w76728498:a97152409", "current_trial": 8, "dateTime": 1693565034615, "trialdata": {"rt": 3388, "stimulus": "\n<h1> Get ready to start the game! </h1>\n\nThank you for reading the instructions. Get ready start with the 40 rounds of this game.\n<br><br>\nIf you need to take a break, feel free to take one after the end of a round, before continuing to the next one.\n<br><br>\nRemember, the more money the spider gets, the bigger your bonus will be!\n<br><br>\n<div style='text-align: center;'>Press <code>space</code> to begin.</div>\n\n<br><br>\n(If, at any point, the <code>space</code> key does not take you to the next page, click once on the text and try again.)", "response": " ", "trial_id": "mdp_ready", "trial_type": "html-keyboard-response", "trial_index": 8, "time_elapsed": 208109, "internal_node_id": "0.0-6.0-0.0"}}, {"uniqueid": "w76728498:a97152409", "current_trial": 9, "dateTime": 1693565052586, "trialdata": {"revealed_states": [], "clicked_states": ["23"], "num_clicks_accrued": [0, 0, 0, 0, 0, 0, 0, 0, 0, 0, 0, 0, 0], "stateRewards": ["", 2, -3, -5, 5, 11, -9, -33, 6, 67, 6, -30, -1, -2, -6, 13, 55, 13, 72, -14, 75, 21, -66, -2, -4, 6, 15, -1, -35, 60, 2, 51, -73, 12], "withholdReward": false, "trial_id": "mdp_trial_1", "block": "test", "trialIndex": 2, "score": -72.4, "costs": -1.4, "simulationMode": [null, null, null, null, null], "rewards": [-2, -4, 6, 2, -73], "path": ["0", "0", "23", "24", "25", "30", "32"], "rt": [4289, 960, 408, 185, 181], "actions": ["left", "left", "left", "down", "down"], "actionTimes": [5675, 7138, 8040, 8720, 9401], "queries": {"click": {"state": {"target": ["23"], "time": [2529]}, "edge": {"target": [], "time": []}}, "mouseover": {"state": {"target": ["23", "24"], "time": [1966, 3233]}, "edge": {"target": [], "time": []}}, "mouseout": {"state": {"target": ["1", "0", "23", "24", "24", "31"], "time": [660, 1916, 3183, 4238, 14248, 16504]}, "edge": {"target": [], "time": []}}}, "displayed_time": "15.39", "trialTime": 17445, "trial_type": "mouselab-mdp", "trial_index": 9, "time_elapsed": 226080, "internal_node_id": "0.0-6.0-1.0-0.0"}}, {"uniqueid": "w76728498:a97152409", "current_trial": 10, "dateTime": 1693565071450, "trialdata": {"revealed_states": [], "clicked_states": [], "num_clicks_accrued": [0, 0, 0, 0, 0, 0, 0, 0, 0, 0, 0, 0, 0], "stateRewards": ["", 1, -2, -3, 14, -42, -87, -37, -11, -50, 33, -44, -2, 4, -7, 13, 48, -75, -66, 12, 23, -2, 82, 1, -4, 3, 12, 51, -15, -26, -11, -52, -29, 82], "withholdReward": false, "trial_id": "mdp_trial_2", "block": "test", "trialIndex": 3, "score": -27, "costs": 0, "simulationMode": [null, null, null, null, null], "rewards": [1, -2, -3, 14, -37], "path": ["0", "0", "1", "2", "3", "4", "7"], "rt": [1300, 182, 297, 207, 132], "actions": ["up", "up", "up", "right", "down"], "actionTimes": [3671, 4360, 5163, 5876, 6519], "queries": {"click": {"state": {"target": [], "time": []}, "edge": {"target": [], "time": []}}, "mouseover": {"state": {"target": [], "time": []}, "edge": {"target": [], "time": []}}, "mouseout": {"state": {"target": ["0", "1", "4", "3", "7", "13", "22"], "time": [8990, 9072, 10059, 10944, 10996, 11062, 17412]}, "edge": {"target": [], "time": []}}}, "displayed_time": "16.38", "trialTime": 18316, "trial_type": "mouselab-mdp", "trial_index": 10, "time_elapsed": 244944, "internal_node_id": "0.0-6.0-1.0-1.0"}}, {"uniqueid": "w76728498:a97152409", "current_trial": 11, "dateTime": 1693565088784, "trialdata": {"revealed_states": [], "clicked_states": ["14"], "num_clicks_accrued": [0, 0, 0, 0, 0, 0, 0, 0, 0, 0, 0, 0, 0], "stateRewards": ["", 2, 3, -6, -5, -3, 55, 40, 11, 61, 11, 51, 2, -4, -6, 9, -25, 29, -15, -6, 7, -77, -2, -2, -4, 1, 14, -43, -1, 56, -12, -54, 41, -74], "withholdReward": false, "trial_id": "mdp_trial_3", "block": "test", "trialIndex": 4, "score": -92.4, "costs": -1.4, "simulationMode": [null, null, null, null, null], "rewards": [2, -4, -6, -6, -77], "path": ["0", "0", "12", "13", "14", "19", "21"], "rt": [3943, 139, 150, 73, 104], "actions": ["right", "right", "right", "down", "down"], "actionTimes": [5383, 6017, 6664, 7238, 7836], "queries": {"click": {"state": {"target": ["14"], "time": [2059]}, "edge": {"target": [], "time": []}}, "mouseover": {"state": {"target": ["12", "13", "14", "2", "3"], "time": [1459, 1497, 1546, 2600, 2833]}, "edge": {"target": [], "time": []}}, "mouseout": {"state": {"target": ["13", "18", "13", "12", "12", "0", "12", "13", "14", "2", "3", "2", "0"], "time": [209, 393, 577, 678, 861, 1457, 1482, 1528, 2532, 2617, 9320, 9435, 9620]}, "edge": {"target": [], "time": []}}}, "displayed_time": "15.45", "trialTime": 16811, "trial_type": "mouselab-mdp", "trial_index": 11, "time_elapsed": 262278, "internal_node_id": "0.0-6.0-1.0-2.0"}}, {"uniqueid": "w76728498:a97152409", "current_trial": 12, "dateTime": 1693565107221, "trialdata": {"revealed_states": [], "clicked_states": ["25", "3", "13"], "num_clicks_accrued": [0, 0, 0, 0, 0, 0, 0, 0, 0, 0, 0, 0, 0], "stateRewards": ["", -2, -1, -6, -14, -55, 78, -13, 11, 14, -71, 59, 2, 2, 6, -6, 9, 38, 14, 7, 85, 11, 68, 1, -4, -1, -3, -63, -85, 9, -2, 63, -86, -10], "withholdReward": false, "trial_id": "mdp_trial_4", "block": "test", "trialIndex": 5, "score": -82.2, "costs": -4.199999999999999, "simulationMode": [null, null, null, null, null], "rewards": [-2, -1, -6, -14, -55], "path": ["0", "0", "1", "2", "3", "4", "5"], "rt": [7096, 314, 252, 33, 344], "actions": ["up", "up", "up", "right", "up"], "actionTimes": [8570, 9388, 10144, 10678, 11524], "queries": {"click": {"state": {"target": ["25", "3", "13"], "time": [3117, 4685, 6804]}, "edge": {"target": [], "time": []}}, "mouseover": {"state": {"target": ["1", "24", "25", "2", "3", "7", "18", "14", "13"], "time": [2038, 2187, 2906, 3990, 4198, 5176, 5209, 5577, 6637]}, "edge": {"target": [], "time": []}}, "mouseout": {"state": {"target": ["1", "2", "1", "1", "24", "25", "2", "3", "7", "18", "14", "13"], "time": [364, 699, 849, 2103, 2822, 3890, 4040, 5159, 5193, 5226, 6330, 7451]}, "edge": {"target": [], "time": []}}}, "displayed_time": "15.48", "trialTime": 17922, "trial_type": "mouselab-mdp", "trial_index": 12, "time_elapsed": 280715, "internal_node_id": "0.0-6.0-1.0-3.0"}}, {"uniqueid": "w76728498:a97152409", "current_trial": 13, "dateTime": 1693565124007, "trialdata": {"revealed_states": [], "clicked_states": ["30", "8", "13"], "num_clicks_accrued": [0, 0, 0, 0, 0, 0, 0, 0, 0, 0, 0, 0, 0], "stateRewards": ["", 2, 4, 7, -6, -76, -81, 2, 5, -66, -3, 36, -2, -4, 6, -2, -69, 4, -49, -6, 67, 38, -67, 2, 1, 1, 6, -68, -21, 52, -16, -16, 6, -70], "withholdReward": false, "trial_id": "mdp_trial_5", "block": "test", "trialIndex": 6, "score": -78.2, "costs": -4.199999999999999, "simulationMode": [null, null, null, null, null, null], "rewards": [2, 4, 7, -6, -81], "path": ["0", "0", "1", "2", "3", "4", "6"], "rt": [5030, 514, 60, 339, 240, 358], "actions": ["up", "up", "up", "up", "right", "right"], "actionTimes": [6293, 6812, 7387, 8231, 8969, 9821], "queries": {"click": {"state": {"target": ["30", "8", "13"], "time": [2051, 3733, 5263]}, "edge": {"target": [], "time": []}}, "mouseover": {"state": {"target": ["23", "24", "25", "30", "28", "10", "8", "8", "7", "18", "22", "13"], "time": [1442, 1472, 1541, 1825, 2465, 2515, 2876, 3565, 4163, 4212, 4548, 5066]}, "edge": {"target": [], "time": []}}, "mouseout": {"state": {"target": ["0", "23", "24", "25", "30", "28", "10", "8", "8", "7", "18", "22"], "time": [1409, 1458, 1504, 1723, 2375, 2488, 2559, 3445, 4098, 4180, 4247, 4982]}, "edge": {"target": [], "time": []}}}, "displayed_time": "15.27", "trialTime": 16248, "trial_type": "mouselab-mdp", "trial_index": 13, "time_elapsed": 297502, "internal_node_id": "0.0-6.0-1.0-4.0"}}, {"uniqueid": "w76728498:a97152409", "current_trial": 14, "dateTime": 1693565144542, "trialdata": {"revealed_states": [], "clicked_states": ["25", "10", "14"], "num_clicks_accrued": [0, 0, 0, 0, 0, 0, 0, 0, 0, 0, 0, 0, 0], "stateRewards": ["", 2, -4, -8, -15, 71, -43, -41, 7, -17, 20, 67, -1, -1, -4, 6, 37, -24, -47, 9, 34, 57, 45, 1, 2, -4, -5, -23, 88, -5, 13, -40, 43, 44], "withholdReward": false, "trial_id": "mdp_trial_6", "block": "test", "trialIndex": 7, "score": 59.8, "costs": -4.199999999999999, "simulationMode": [null, null, null, null, null, null], "rewards": [2, -4, -8, 7, 67], "path": ["0", "0", "1", "2", "3", "8", "11"], "rt": [6671, 447, 19, 531, 122, 56], "actions": ["up", "up", "up", "up", "left", "left"], "actionTimes": [7973, 8425, 8954, 10000, 10627, 11179], "queries": {"click": {"state": {"target": ["25", "10", "14"], "time": [3128, 4814, 6968]}, "edge": {"target": [], "time": []}}, "mouseover": {"state": {"target": ["23", "24", "25", "28", "10", "8", "3", "8", "10", "2", "18", "15", "17", "15", "14"], "time": [1695, 1813, 2967, 3550, 3600, 3818, 4236, 4485, 4619, 5193, 5255, 5287, 5488, 5802, 6776]}, "edge": {"target": [], "time": []}}, "mouseout": {"state": {"target": ["22", "0", "23", "24", "25", "28", "10", "8", "3", "8", "10", "2", "18", "15", "17", "15"], "time": [8, 1646, 1763, 2699, 3517, 3567, 3635, 4135, 4385, 4586, 5172, 5211, 5271, 5405, 5538, 6693]}, "edge": {"target": [], "time": []}}}, "displayed_time": "15.31", "trialTime": 19975, "trial_type": "mouselab-mdp", "trial_index": 14, "time_elapsed": 318036, "internal_node_id": "0.0-6.0-1.0-5.0"}}, {"uniqueid": "w76728498:a97152409", "current_trial": 15, "dateTime": 1693565161424, "trialdata": {"revealed_states": [], "clicked_states": ["11", "19", "26"], "num_clicks_accrued": [0, 0, 0, 0, 0, 0, 0, 0, 0, 0, 0, 0, 0], "stateRewards": ["", -2, -4, -8, 8, 63, -50, -19, -7, -17, -31, 31, 1, 3, -5, 12, -35, -63, -29, -4, -17, -75, -79, -2, -3, -2, 8, -3, -85, 10, -2, -82, -82, 56], "withholdReward": false, "trial_id": "mdp_trial_7", "block": "test", "trialIndex": 8, "score": 6.800000000000001, "costs": -4.199999999999999, "simulationMode": [null, null, null, null, null], "rewards": [-2, -3, -2, 8, 10], "path": ["0", "0", "23", "24", "25", "26", "29"], "rt": [7211, 175, 152, 20, 35], "actions": ["left", "left", "left", "up", "left"], "actionTimes": [8455, 9139, 9799, 10318, 10876], "queries": {"click": {"state": {"target": ["11", "19", "26"], "time": [2099, 4715, 6397]}, "edge": {"target": [], "time": []}}, "mouseover": {"state": {"target": ["10", "11", "7", "15", "14", "14", "19", "19", "22", "24", "26"], "time": [1490, 1842, 2458, 2492, 2894, 3043, 4051, 4584, 5118, 5183, 5467]}, "edge": {"target": [], "time": []}}, "mouseout": {"state": {"target": ["13", "12", "0", "10", "11", "7", "15", "14", "14", "19", "19", "22", "24"], "time": [9, 153, 1408, 1543, 2425, 2476, 2510, 2928, 4034, 4116, 5099, 5135, 5217]}, "edge": {"target": [], "time": []}}}, "displayed_time": "15.24", "trialTime": 16280, "trial_type": "mouselab-mdp", "trial_index": 15, "time_elapsed": 334918, "internal_node_id": "0.0-6.0-1.0-6.0"}}, {"uniqueid": "w76728498:a97152409", "current_trial": 16, "dateTime": 1693565178317, "trialdata": {"revealed_states": [], "clicked_states": ["25", "3", "13"], "num_clicks_accrued": [0, 0, 0, 0, 0, 0, 0, 0, 0, 0, 0, 0, 0], "stateRewards": ["", -2, -3, 1, -14, 48, -49, 67, -1, -35, -48, 3, -2, 1, -4, -5, 86, -84, 39, 1, 48, 41, -42, -1, -4, 2, -7, 18, -86, 17, 7, -9, 57, -69], "withholdReward": false, "trial_id": "mdp_trial_8", "block": "test", "trialIndex": 9, "score": 56.8, "costs": -4.199999999999999, "simulationMode": [null, null, null, null, null], "rewards": [-1, -4, 2, 7, 57], "path": ["0", "0", "23", "24", "25", "30", "32"], "rt": [6702, 79, 70, 30, 45], "actions": ["left", "left", "left", "down", "down"], "actionTimes": [8053, 8637, 9212, 9741, 10290], "queries": {"click": {"state": {"target": ["25", "3", "13"], "time": [2388, 4282, 5946]}, "edge": {"target": [], "time": []}}, "mouseover": {"state": {"target": ["23", "25", "28", "10", "3", "7", "18", "7", "3", "7", "18", "13", "20"], "time": [1503, 1954, 2756, 2805, 3106, 3677, 3774, 3977, 4126, 4695, 4760, 5046, 6415]}, "edge": {"target": [], "time": []}}, "mouseout": {"state": {"target": ["23", "23", "23", "25", "28", "10", "3", "7", "18", "7", "3", "7", "18", "13", "13"], "time": [183, 448, 1521, 2448, 2773, 2823, 3650, 3724, 3927, 4028, 4661, 4728, 4811, 6043, 6348]}, "edge": {"target": [], "time": []}}}, "displayed_time": "15.36", "trialTime": 16323, "trial_type": "mouselab-mdp", "trial_index": 16, "time_elapsed": 351811, "internal_node_id": "0.0-6.0-1.0-7.0"}}, {"uniqueid": "w76728498:a97152409", "current_trial": 17, "dateTime": 1693565197211, "trialdata": {"revealed_states": [], "clicked_states": ["25", "33", "32"], "num_clicks_accrued": [0, 0, 0, 0, 0, 0, 0, 0, 0, 0, 0, 0, 0], "stateRewards": ["", 1, 2, -8, 9, 18, -83, -11, 6, -64, -48, 17, -2, -2, -5, -3, -24, -3, -86, -2, 48, -41, -22, -2, 4, 7, 8, 81, 13, -48, 10, 61, 19, 57], "withholdReward": false, "trial_id": "mdp_trial_9", "block": "test", "trialIndex": 10, "score": 71.8, "costs": -4.199999999999999, "simulationMode": [null, null, null, null, null], "rewards": [-2, 4, 7, 10, 57], "path": ["0", "0", "23", "24", "25", "30", "33"], "rt": [8920, 16, 69, 59, 105], "actions": ["left", "left", "left", "down", "left"], "actionTimes": [9945, 10457, 11045, 11604, 12223], "queries": {"click": {"state": {"target": ["25", "33", "32"], "time": [1833, 4657, 7084]}, "edge": {"target": [], "time": []}}, "mouseover": {"state": {"target": ["23", "25", "30", "31", "30", "33", "32", "32"], "time": [1399, 1567, 2217, 2467, 3956, 4390, 5107, 5486]}, "edge": {"target": [], "time": []}}, "mouseout": {"state": {"target": ["0", "23", "25", "30", "31", "30", "33", "32", "32"], "time": [229, 1433, 2186, 2299, 3905, 4274, 5073, 5141, 7154]}, "edge": {"target": [], "time": []}}}, "displayed_time": "15.03", "trialTime": 18318, "trial_type": "mouselab-mdp", "trial_index": 17, "time_elapsed": 370705, "internal_node_id": "0.0-6.0-1.0-8.0"}}, {"uniqueid": "w76728498:a97152409", "current_trial": 18, "dateTime": 1693565219522, "trialdata": {"revealed_states": [], "clicked_states": ["14", "18"], "num_clicks_accrued": [0, 0, 0, 0, 0, 0, 0, 0, 0, 0, 0, 0, 0], "stateRewards": ["", -1, -2, 8, -6, -79, -6, 87, 9, -5, -66, -38, 2, 2, 5, -6, -82, 74, 85, -8, 67, -30, -15, 1, -2, -2, -2, 87, 64, 49, 7, 2, -38, -9], "withholdReward": false, "trial_id": "mdp_trial_10", "block": "test", "trialIndex": 11, "score": 85.2, "costs": -2.8, "simulationMode": [null, null, null, null, null], "rewards": [2, 2, 5, -6, 85], "path": ["0", "0", "12", "13", "14", "15", "18"], "rt": [5288, 5, 615, 134, 109], "actions": ["right", "right", "right", "up", "left"], "actionTimes": [7451, 7968, 9095, 9734, 10345], "queries": {"click": {"state": {"target": ["14", "18"], "time": [2702, 4935]}, "edge": {"target": [], "time": []}}, "mouseover": {"state": {"target": ["13", "14", "14", "13", "13", "13", "13", "18", "17"], "time": [2199, 2246, 2514, 3180, 3413, 3612, 4384, 4752, 6974]}, "edge": {"target": [], "time": []}}, "mouseout": {"state": {"target": ["13", "13", "14", "14", "13", "13", "13", "13", "18", "17", "15", "12"], "time": [658, 2222, 2277, 3164, 3214, 3498, 3882, 4636, 5386, 21436, 21481, 21549]}, "edge": {"target": [], "time": []}}}, "displayed_time": "16.16", "trialTime": 21755, "trial_type": "mouselab-mdp", "trial_index": 18, "time_elapsed": 393016, "internal_node_id": "0.0-6.0-1.0-9.0"}}, {"uniqueid": "w76728498:a97152409", "current_trial": 19, "dateTime": 1693565235645, "trialdata": {"revealed_states": [], "clicked_states": ["29"], "num_clicks_accrued": [0, 0, 0, 0, 0, 0, 0, 0, 0, 0, 0, 0, 0], "stateRewards": ["", -2, -4, 6, 14, -34, 49, 36, -8, -3, 32, -4, 1, -2, 1, -8, -20, -71, -57, -7, -86, -62, -16, -2, -3, -5, 11, 23, -21, 53, 5, -5, 85, 73], "withholdReward": false, "trial_id": "mdp_trial_11", "block": "test", "trialIndex": 12, "score": 52.6, "costs": -1.4, "simulationMode": [null, null, null, null, null], "rewards": [-2, -3, -5, 11, 53], "path": ["0", "0", "23", "24", "25", "26", "29"], "rt": [3567, 83, 102, 11, 21], "actions": ["left", "left", "left", "up", "left"], "actionTimes": [4282, 4873, 5476, 5987, 6530], "queries": {"click": {"state": {"target": ["29"], "time": [1937]}, "edge": {"target": [], "time": []}}, "mouseover": {"state": {"target": ["23", "24", "25", "29", "25", "31"], "time": [1146, 1177, 1279, 1764, 2663, 2765]}, "edge": {"target": [], "time": []}}, "mouseout": {"state": {"target": ["0", "23", "24", "25", "29", "25"], "time": [1111, 1162, 1194, 1378, 2614, 2696]}, "edge": {"target": [], "time": []}}}, "displayed_time": "14.72", "trialTime": 15554, "trial_type": "mouselab-mdp", "trial_index": 19, "time_elapsed": 409139, "internal_node_id": "0.0-6.0-1.0-10.0"}}, {"uniqueid": "w76728498:a97152409", "current_trial": 20, "dateTime": 1693565253599, "trialdata": {"revealed_states": [], "clicked_states": ["17", "21", "18"], "num_clicks_accrued": [0, 0, 0, 0, 0, 0, 0, 0, 0, 0, 0, 0, 0], "stateRewards": ["", 1, -2, 4, 7, -43, -83, -60, -5, -86, -80, 83, -1, -2, 6, 11, -15, 21, 13, 9, 29, -49, 11, -1, 4, -6, -11, 87, 40, 63, -8, -39, -11, 62], "withholdReward": false, "trial_id": "mdp_trial_12", "block": "test", "trialIndex": 13, "score": 30.8, "costs": -4.199999999999999, "simulationMode": [null, null, null, null, null], "rewards": [-1, -2, 6, 11, 21], "path": ["0", "0", "12", "13", "14", "15", "17"], "rt": [7029, 222, 163, 26, 5], "actions": ["right", "right", "right", "up", "right"], "actionTimes": [7938, 8671, 9331, 9861, 10376], "queries": {"click": {"state": {"target": ["17", "21", "18"], "time": [1678, 3641, 6030]}, "edge": {"target": [], "time": []}}, "mouseover": {"state": {"target": ["12", "13", "14", "17", "19", "21", "19", "18"], "time": [1130, 1167, 1215, 1430, 2278, 2613, 4066, 4719]}, "edge": {"target": [], "time": []}}, "mouseout": {"state": {"target": ["31", "0", "12", "13", "14", "17", "19", "21", "19"], "time": [10, 1114, 1162, 1196, 1262, 2194, 2362, 3712, 4085]}, "edge": {"target": [], "time": []}}}, "displayed_time": "14.91", "trialTime": 17279, "trial_type": "mouselab-mdp", "trial_index": 20, "time_elapsed": 427093, "internal_node_id": "0.0-6.0-1.0-11.0"}}, {"uniqueid": "w76728498:a97152409", "current_trial": 21, "dateTime": 1693565277058, "trialdata": {"revealed_states": [], "clicked_states": ["11"], "num_clicks_accrued": [0, 0, 0, 0, 0, 0, 0, 0, 0, 0, 0, 0, 0], "stateRewards": ["", -2, -3, 8, -4, -30, 31, 69, 9, 66, 87, 64, -2, 2, 8, 5, 47, 16, -39, -8, -54, 51, -19, 1, -2, -2, -11, -25, -26, 43, -9, 19, -84, 86], "withholdReward": false, "trial_id": "mdp_trial_13", "block": "test", "trialIndex": 14, "score": 74.6, "costs": -1.4, "simulationMode": [null, null, null, null, null], "rewards": [-2, -3, 8, 9, 64], "path": ["0", "0", "1", "2", "3", "8", "11"], "rt": [3666, 94, 34, 3, 97], "actions": ["up", "up", "up", "left", "left"], "actionTimes": [5123, 5725, 6264, 6788, 7399], "queries": {"click": {"state": {"target": ["11"], "time": [2164]}, "edge": {"target": [], "time": []}}, "mouseover": {"state": {"target": ["1", "2", "11", "8", "3", "4", "6"], "time": [1586, 1604, 1937, 2536, 2570, 2605, 3054]}, "edge": {"target": [], "time": []}}, "mouseout": {"state": {"target": ["13", "0", "1", "2", "11", "8", "3", "4", "6", "7", "0"], "time": [18, 950, 1602, 1619, 2243, 2554, 2587, 2653, 22309, 22376, 22442]}, "edge": {"target": [], "time": []}}}, "displayed_time": "15.46", "trialTime": 22813, "trial_type": "mouselab-mdp", "trial_index": 21, "time_elapsed": 450552, "internal_node_id": "0.0-6.0-1.0-12.0"}}, {"uniqueid": "w76728498:a97152409", "current_trial": 22, "dateTime": 1693565293707, "trialdata": {"revealed_states": [], "clicked_states": ["29"], "num_clicks_accrued": [0, 0, 0, 0, 0, 0, 0, 0, 0, 0, 0, 0, 0], "stateRewards": ["", -2, 1, -3, -16, -39, -52, 30, -7, -41, -59, 11, 2, 1, 8, 2, -11, -26, -42, -13, 87, -59, -48, -1, -1, -1, 16, -79, 31, 50, -1, -84, 34, -82], "withholdReward": false, "trial_id": "mdp_trial_14", "block": "test", "trialIndex": 15, "score": 61.6, "costs": -1.4, "simulationMode": [null, null, null, null, null], "rewards": [-1, -1, -1, 16, 50], "path": ["0", "0", "23", "24", "25", "26", "29"], "rt": [3664, 98, 60, 5, 3], "actions": ["left", "left", "left", "up", "left"], "actionTimes": [4721, 5327, 5891, 6412, 6937], "queries": {"click": {"state": {"target": ["29"], "time": [1735]}, "edge": {"target": [], "time": []}}, "mouseover": {"state": {"target": ["23", "24", "25", "29", "26", "23", "0", "13", "14", "17"], "time": [1251, 1302, 1349, 1551, 2052, 2102, 2137, 2486, 2537, 2970]}, "edge": {"target": [], "time": []}}, "mouseout": {"state": {"target": ["23", "28", "23", "24", "25", "29", "26", "23", "0", "13", "14"], "time": [264, 498, 1285, 1317, 1418, 1797, 2070, 2120, 2155, 2520, 2555]}, "edge": {"target": [], "time": []}}}, "displayed_time": "15.06", "trialTime": 16115, "trial_type": "mouselab-mdp", "trial_index": 22, "time_elapsed": 467201, "internal_node_id": "0.0-6.0-1.0-13.0"}}, {"uniqueid": "w76728498:a97152409", "current_trial": 23, "dateTime": 1693565312404, "trialdata": {"revealed_states": [], "clicked_states": ["32", "29", "17"], "num_clicks_accrued": [0, 0, 0, 0, 0, 0, 0, 0, 0, 0, 0, 0, 0], "stateRewards": ["", -2, -3, -5, 8, 27, 11, 43, -6, -24, -87, 69, -2, 1, 1, 9, 19, 48, -37, 9, -14, 45, 62, 1, 2, 1, 16, -81, -41, 22, 4, -6, -63, 47], "withholdReward": false, "trial_id": "mdp_trial_15", "block": "test", "trialIndex": 16, "score": 52.8, "costs": -4.199999999999999, "simulationMode": [null, null, null, null, null], "rewards": [-2, 1, 1, 9, 48], "path": ["0", "0", "12", "13", "14", "15", "17"], "rt": [8043, 94, 101, 53, 81], "actions": ["right", "right", "right", "up", "right"], "actionTimes": [11150, 11752, 12360, 12915, 13510], "queries": {"click": {"state": {"target": ["32", "29", "17"], "time": [4160, 6718, 9073]}, "edge": {"target": [], "time": []}}, "mouseover": {"state": {"target": ["0", "31", "32", "24", "25", "29", "26", "28", "18", "15", "17"], "time": [3552, 3670, 3970, 6209, 6227, 6543, 7011, 7031, 7109, 7360, 7461]}, "edge": {"target": [], "time": []}}, "mouseout": {"state": {"target": ["17", "15", "12", "0", "31", "32", "24", "25", "29", "26", "28", "18", "15", "17", "14", "19"], "time": [1378, 1513, 1746, 3587, 3736, 4228, 6225, 6242, 6994, 7028, 7046, 7144, 7427, 17278, 17357, 17392]}, "edge": {"target": [], "time": []}}}, "displayed_time": "17.11", "trialTime": 18097, "trial_type": "mouselab-mdp", "trial_index": 23, "time_elapsed": 485899, "internal_node_id": "0.0-6.0-1.0-14.0"}}, {"uniqueid": "w76728498:a97152409", "current_trial": 24, "dateTime": 1693565333108, "trialdata": {"revealed_states": [], "clicked_states": ["27", "18", "20"], "num_clicks_accrued": [0, 0, 0, 0, 0, 0, 0, 0, 0, 0, 0, 0, 0], "stateRewards": ["", 1, 2, 7, 13, 88, -71, 27, 3, 60, 5, -53, -2, 2, -6, -1, -30, 79, 47, -4, -14, 46, 68, 1, 1, 8, 10, -14, 86, 48, -11, -67, -44, 5], "withholdReward": false, "trial_id": "mdp_trial_16", "block": "test", "trialIndex": 17, "score": 35.8, "costs": -4.199999999999999, "simulationMode": [null, null, null, null, null], "rewards": [-2, 2, -6, -1, 47], "path": ["0", "0", "12", "13", "14", "15", "18"], "rt": [7433, 87, 17, 43, 4], "actions": ["right", "right", "right", "up", "left"], "actionTimes": [8891, 9479, 9993, 10553, 11065], "queries": {"click": {"state": {"target": ["27", "18", "20"], "time": [2732, 4696, 6889]}, "edge": {"target": [], "time": []}}, "mouseover": {"state": {"target": ["23", "24", "25", "29", "27", "7", "18", "13", "22", "21", "19", "22", "19", "20"], "time": [1671, 1704, 1722, 2021, 2455, 3165, 3757, 5090, 5142, 5562, 5646, 5728, 5996, 6596]}, "edge": {"target": [], "time": []}}, "mouseout": {"state": {"target": ["31", "26", "27", "28", "23", "24", "25", "29", "27", "7", "18", "13", "22", "21", "19", "22", "19"], "time": [62, 131, 499, 582, 1689, 1720, 1738, 2137, 3132, 3183, 5066, 5117, 5168, 5612, 5664, 5945, 6537]}, "edge": {"target": [], "time": []}}}, "displayed_time": "15.46", "trialTime": 20055, "trial_type": "mouselab-mdp", "trial_index": 24, "time_elapsed": 506602, "internal_node_id": "0.0-6.0-1.0-15.0"}}, {"uniqueid": "w76728498:a97152409", "current_trial": 25, "dateTime": 1693565355834, "trialdata": {"revealed_states": [], "clicked_states": ["28", "31", "6"], "num_clicks_accrued": [0, 0, 0, 0, 0, 0, 0, 0, 0, 0, 0, 0, 0], "stateRewards": ["", 1, 2, -3, -5, 66, -50, -47, -5, 1, 28, -27, 1, 1, -1, -6, 37, -25, 56, 1, -82, -66, -40, -1, -4, -7, 15, -61, -23, 26, 10, 14, -56, 29], "withholdReward": false, "trial_id": "mdp_trial_17", "block": "test", "trialIndex": 18, "score": 7.800000000000001, "costs": -4.199999999999999, "simulationMode": [null, null, null, null, null], "rewards": [-1, -4, -7, 10, 14], "path": ["0", "0", "23", "24", "25", "30", "31"], "rt": [9147, 480, 105, 68, 128], "actions": ["left", "left", "left", "down", "right"], "actionTimes": [10504, 11492, 12095, 12658, 13287], "queries": {"click": {"state": {"target": ["28", "31", "6"], "time": [4213, 6174, 8139]}, "edge": {"target": [], "time": []}}, "mouseover": {"state": {"target": ["23", "24", "28", "24", "31", "6"], "time": [3584, 3751, 4000, 4584, 4683, 6942]}, "edge": {"target": [], "time": []}}, "mouseout": {"state": {"target": ["12", "7", "12", "0", "23", "24", "28", "24", "31"], "time": [89, 206, 440, 3550, 3617, 3882, 4551, 4618, 6483]}, "edge": {"target": [], "time": []}}}, "displayed_time": "15.36", "trialTime": 22101, "trial_type": "mouselab-mdp", "trial_index": 25, "time_elapsed": 529328, "internal_node_id": "0.0-6.0-1.0-16.0"}}, {"uniqueid": "w76728498:a97152409", "current_trial": 26, "dateTime": 1693565375135, "trialdata": {"revealed_states": [], "clicked_states": ["22"], "num_clicks_accrued": [0, 0, 0, 0, 0, 0, 0, 0, 0, 0, 0, 0, 0], "stateRewards": ["", 1, 1, -3, 2, 22, -25, -11, -5, 50, 49, 3, 1, -1, 8, 14, -85, -30, 57, -6, -39, -16, 59, -2, -1, 5, 5, 59, -16, 8, 4, 67, 56, -9], "withholdReward": false, "trial_id": "mdp_trial_18", "block": "test", "trialIndex": 19, "score": 59.6, "costs": -1.4, "simulationMode": [null, null, null, null, null], "rewards": [1, -1, 8, -6, 59], "path": ["0", "0", "12", "13", "14", "19", "22"], "rt": [4799, 89, 116, 35, 114], "actions": ["right", "right", "right", "down", "left"], "actionTimes": [6178, 6767, 7382, 7916, 8530], "queries": {"click": {"state": {"target": ["22"], "time": [3093]}, "edge": {"target": [], "time": []}}, "mouseover": {"state": {"target": ["14", "20", "19", "22", "0", "3", "3", "5"], "time": [1947, 2081, 2348, 2933, 3518, 4001, 4586, 4856]}, "edge": {"target": [], "time": []}}, "mouseout": {"state": {"target": ["14", "0", "14", "20", "19", "22", "0", "3", "3", "5"], "time": [9, 1612, 2016, 2299, 2467, 3500, 3536, 4330, 4722, 18408]}, "edge": {"target": [], "time": []}}}, "displayed_time": "15.38", "trialTime": 18642, "trial_type": "mouselab-mdp", "trial_index": 26, "time_elapsed": 548629, "internal_node_id": "0.0-6.0-1.0-17.0"}}, {"uniqueid": "w76728498:a97152409", "current_trial": 27, "dateTime": 1693565394590, "trialdata": {"revealed_states": [], "clicked_states": ["10"], "num_clicks_accrued": [0, 0, 0, 0, 0, 0, 0, 0, 0, 0, 0, 0, 0], "stateRewards": ["", 1, 4, -4, 14, 35, 51, 19, -13, 54, 78, -74, -2, -1, -3, 13, -11, -42, -73, -15, -24, -3, -69, 2, -1, 5, 16, -27, 73, 58, 9, -60, 5, -60], "withholdReward": false, "trial_id": "mdp_trial_19", "block": "test", "trialIndex": 20, "score": 64.6, "costs": -1.4, "simulationMode": [null, null, null, null, null], "rewards": [1, 4, -4, -13, 78], "path": ["0", "0", "1", "2", "3", "8", "10"], "rt": [3347, 50, 62, 4, 99], "actions": ["up", "up", "up", "left", "down"], "actionTimes": [5980, 6540, 7103, 7614, 8228], "queries": {"click": {"state": {"target": ["10"], "time": [3461]}, "edge": {"target": [], "time": []}}, "mouseover": {"state": {"target": ["10", "2", "7", "18"], "time": [3048, 3800, 3835, 5471]}, "edge": {"target": [], "time": []}}, "mouseout": {"state": {"target": ["24", "25", "26", "28", "23", "0", "10", "2", "7", "18", "1"], "time": [72, 473, 607, 1041, 1107, 2160, 3798, 3817, 3852, 5505, 18455]}, "edge": {"target": [], "time": []}}}, "displayed_time": "16.64", "trialTime": 18875, "trial_type": "mouselab-mdp", "trial_index": 27, "time_elapsed": 568084, "internal_node_id": "0.0-6.0-1.0-18.0"}}, {"uniqueid": "w76728498:a97152409", "current_trial": 28, "dateTime": 1693565414646, "trialdata": {"revealed_states": [], "clicked_states": ["7"], "num_clicks_accrued": [0, 0, 0, 0, 0, 0, 0, 0, 0, 0, 0, 0, 0], "stateRewards": ["", -1, 2, -6, 6, 43, 78, 78, -2, 55, -29, -17, -2, -4, 1, -15, 13, 7, -79, 8, -28, -68, 36, -1, -3, 3, -16, 84, -18, 87, 10, 32, 13, -81], "withholdReward": false, "trial_id": "mdp_trial_20", "block": "test", "trialIndex": 21, "score": 77.6, "costs": -1.4, "simulationMode": [null, null, null, null, null], "rewards": [-1, 2, -6, 6, 78], "path": ["0", "0", "1", "2", "3", "4", "7"], "rt": [3956, 86, 94, 36, 75], "actions": ["up", "up", "up", "right", "down"], "actionTimes": [5239, 5831, 6424, 6968, 7559], "queries": {"click": {"state": {"target": ["7"], "time": [2564]}, "edge": {"target": [], "time": []}}, "mouseover": {"state": {"target": ["1", "4", "7", "24", "31"], "time": [1867, 2135, 2403, 3137, 3469]}, "edge": {"target": [], "time": []}}, "mouseout": {"state": {"target": ["0", "0", "1", "4", "7", "24"], "time": [44, 1801, 1884, 2154, 3052, 3353]}, "edge": {"target": [], "time": []}}}, "displayed_time": "15.29", "trialTime": 19368, "trial_type": "mouselab-mdp", "trial_index": 28, "time_elapsed": 588140, "internal_node_id": "0.0-6.0-1.0-19.0"}}, {"uniqueid": "w76728498:a97152409", "current_trial": 29, "dateTime": 1693565435562, "trialdata": {"revealed_states": [], "clicked_states": ["31", "9"], "num_clicks_accrued": [0, 0, 0, 0, 0, 0, 0, 0, 0, 0, 0, 0, 0], "stateRewards": ["", 1, 2, 8, -2, 23, -69, -18, -16, 54, -21, 71, -1, -4, 7, 11, 43, -6, 88, 6, -55, 72, 43, 1, -3, -2, -1, 68, -31, -54, 4, -8, 25, -2], "withholdReward": false, "trial_id": "mdp_trial_21", "block": "test", "trialIndex": 22, "score": 46.2, "costs": -2.8, "simulationMode": [null, null, null, null, null], "rewards": [1, 2, 8, -16, 54], "path": ["0", "0", "1", "2", "3", "8", "9"], "rt": [6142, 40, 36, 549, 75], "actions": ["up", "up", "up", "left", "up"], "actionTimes": [7419, 7955, 8485, 9533, 10112], "queries": {"click": {"state": {"target": ["31", "9"], "time": [2123, 4829]}, "edge": {"target": [], "time": []}}, "mouseover": {"state": {"target": ["0", "23", "31", "31", "23", "8", "10", "8", "9", "15"], "time": [1495, 1529, 1695, 1932, 2596, 3048, 3617, 4420, 4620, 5349]}, "edge": {"target": [], "time": []}}, "mouseout": {"state": {"target": ["32", "0", "0", "0", "23", "31", "31", "23", "8", "10", "8", "9", "15"], "time": [59, 642, 859, 1512, 1547, 1763, 2529, 2615, 3315, 4371, 4454, 5287, 5367]}, "edge": {"target": [], "time": []}}}, "displayed_time": "15.28", "trialTime": 20209, "trial_type": "mouselab-mdp", "trial_index": 29, "time_elapsed": 609056, "internal_node_id": "0.0-6.0-1.0-20.0"}}, {"uniqueid": "w76728498:a97152409", "current_trial": 30, "dateTime": 1693565452106, "trialdata": {"revealed_states": [], "clicked_states": ["28"], "num_clicks_accrued": [0, 0, 0, 0, 0, 0, 0, 0, 0, 0, 0, 0, 0], "stateRewards": ["", -2, 3, -5, -7, 66, 43, -60, -4, -70, -75, 4, -1, 2, 2, -13, 54, 11, -40, -1, 77, 32, 15, -2, 3, -8, -9, -35, 83, -27, 6, -74, -34, 44], "withholdReward": false, "trial_id": "mdp_trial_22", "block": "test", "trialIndex": 23, "score": 65.6, "costs": -1.4, "simulationMode": [null, null, null, null, null], "rewards": [-2, 3, -8, -9, 83], "path": ["0", "0", "23", "24", "25", "26", "28"], "rt": [3502, 47, 58, 440, 67], "actions": ["left", "left", "left", "up", "right"], "actionTimes": [4618, 5174, 5736, 6687, 7250], "queries": {"click": {"state": {"target": ["28"], "time": [2005]}, "edge": {"target": [], "time": []}}, "mouseover": {"state": {"target": ["23", "28"], "time": [1550, 1851]}, "edge": {"target": [], "time": []}}, "mouseout": {"state": {"target": ["0", "23", "28"], "time": [747, 1601, 2350]}, "edge": {"target": [], "time": []}}}, "displayed_time": "15.12", "trialTime": 15852, "trial_type": "mouselab-mdp", "trial_index": 30, "time_elapsed": 625600, "internal_node_id": "0.0-6.0-1.0-21.0"}}, {"uniqueid": "w76728498:a97152409", "current_trial": 31, "dateTime": 1693565474781, "trialdata": {"revealed_states": [], "clicked_states": ["31"], "num_clicks_accrued": [0, 0, 0, 0, 0, 0, 0, 0, 0, 0, 0, 0, 0], "stateRewards": ["", 1, 1, 5, 6, -29, -7, 3, -16, 9, -46, 65, -1, 4, -1, -16, -63, -77, -87, 8, 80, -50, 43, -1, -1, -5, 5, -38, -71, -62, 9, 81, -50, -52], "withholdReward": false, "trial_id": "mdp_trial_23", "block": "test", "trialIndex": 24, "score": 81.6, "costs": -1.4, "simulationMode": [null, null, null, null, null], "rewards": [-1, -1, -5, 9, 81], "path": ["0", "0", "23", "24", "25", "30", "31"], "rt": [3656, 72, 96, 78, 96], "actions": ["left", "left", "left", "down", "right"], "actionTimes": [6680, 7268, 7861, 8445, 9048], "queries": {"click": {"state": {"target": ["31"], "time": [4159]}, "edge": {"target": [], "time": []}}, "mouseover": {"state": {"target": ["23", "24", "31", "1", "7", "6", "7"], "time": [3556, 3820, 3936, 4554, 4591, 4671, 5122]}, "edge": {"target": [], "time": []}}, "mouseout": {"state": {"target": ["0", "0", "23", "24", "31", "1", "7", "6", "7", "1", "0"], "time": [2265, 3551, 3587, 3870, 4217, 4573, 4623, 4788, 10124, 10189, 10221]}, "edge": {"target": [], "time": []}}}, "displayed_time": "17.03", "trialTime": 21946, "trial_type": "mouselab-mdp", "trial_index": 31, "time_elapsed": 648276, "internal_node_id": "0.0-6.0-1.0-22.0"}}, {"uniqueid": "w76728498:a97152409", "current_trial": 32, "dateTime": 1693565499198, "trialdata": {"revealed_states": [], "clicked_states": ["11", "21"], "num_clicks_accrued": [0, 0, 0, 0, 0, 0, 0, 0, 0, 0, 0, 0, 0], "stateRewards": ["", 1, -2, 7, -14, 88, -56, -44, -14, 64, -51, -57, -2, 3, -4, -9, -11, 19, -77, -1, 68, 75, -67, -1, 1, -2, 5, -37, 70, -34, -10, -72, 63, -41], "withholdReward": false, "trial_id": "mdp_trial_24", "block": "test", "trialIndex": 25, "score": 68.2, "costs": -2.8, "simulationMode": [null, null, null, null, null], "rewards": [-2, 3, -4, -1, 75], "path": ["0", "0", "12", "13", "14", "19", "21"], "rt": [6020, 445, 57, 56, 104], "actions": ["right", "right", "right", "down", "down"], "actionTimes": [8592, 9534, 10098, 10656, 11265], "queries": {"click": {"state": {"target": ["11", "21"], "time": [3493, 5998]}, "edge": {"target": [], "time": []}}, "mouseover": {"state": {"target": ["28", "11", "2", "14", "19", "20", "21", "31"], "time": [2805, 3189, 3873, 4324, 4392, 5711, 5863, 8052]}, "edge": {"target": [], "time": []}}, "mouseout": {"state": {"target": ["0", "28", "11", "2", "14", "19", "20", "21"], "time": [2133, 2823, 3821, 3891, 4343, 4492, 5747, 6429]}, "edge": {"target": [], "time": []}}}, "displayed_time": "16.57", "trialTime": 23789, "trial_type": "mouselab-mdp", "trial_index": 32, "time_elapsed": 672692, "internal_node_id": "0.0-6.0-1.0-23.0"}}, {"uniqueid": "w76728498:a97152409", "current_trial": 33, "dateTime": 1693565516413, "trialdata": {"revealed_states": [], "clicked_states": ["31", "7"], "num_clicks_accrued": [0, 0, 0, 0, 0, 0, 0, 0, 0, 0, 0, 0, 0], "stateRewards": ["", -1, 3, 1, -7, 56, 76, 57, 3, 11, -9, 14, 1, -2, 2, 8, -77, -3, 79, -5, 88, 24, -66, -2, -1, 7, -7, -30, 14, -76, 11, -36, 28, -6], "withholdReward": false, "trial_id": "mdp_trial_25", "block": "test", "trialIndex": 26, "score": 50.2, "costs": -2.8, "simulationMode": [null, null, null, null, null], "rewards": [-1, 3, 1, -7, 57], "path": ["0", "0", "1", "2", "3", "4", "7"], "rt": [5558, 74, 51, 98, 115], "actions": ["up", "up", "up", "right", "down"], "actionTimes": [6601, 7172, 7717, 8332, 8952], "queries": {"click": {"state": {"target": ["31", "7"], "time": [2189, 4140]}, "edge": {"target": [], "time": []}}, "mouseover": {"state": {"target": ["0", "31", "18", "7", "17"], "time": [1437, 1833, 2733, 3068, 4673]}, "edge": {"target": [], "time": []}}, "mouseout": {"state": {"target": ["19", "22", "0", "0", "0", "31", "18", "7", "17"], "time": [192, 226, 409, 662, 1515, 2599, 2967, 4537, 4708]}, "edge": {"target": [], "time": []}}}, "displayed_time": "15.05", "trialTime": 16467, "trial_type": "mouselab-mdp", "trial_index": 33, "time_elapsed": 689907, "internal_node_id": "0.0-6.0-1.0-24.0"}}, {"uniqueid": "w76728498:a97152409", "current_trial": 34, "dateTime": 1693565533001, "trialdata": {"revealed_states": [], "clicked_states": ["11", "5", "31"], "num_clicks_accrued": [0, 0, 0, 0, 0, 0, 0, 0, 0, 0, 0, 0, 0], "stateRewards": ["", 2, 2, 3, -15, 23, -14, 73, -7, -32, -20, -6, 1, 1, -5, -12, 73, 6, -84, 11, -81, -57, 13, -2, -1, -4, -8, -52, -58, 49, 13, 5, -41, -41], "withholdReward": false, "trial_id": "mdp_trial_26", "block": "test", "trialIndex": 27, "score": 10.8, "costs": -4.199999999999999, "simulationMode": [null, null, null, null, null], "rewards": [2, 2, 3, -15, 23], "path": ["0", "0", "1", "2", "3", "4", "5"], "rt": [8050, 328, 130, 346, 237], "actions": ["up", "up", "up", "right", "up"], "actionTimes": [8929, 9764, 10404, 11255, 11999], "queries": {"click": {"state": {"target": ["11", "5", "31"], "time": [1850, 3771, 6843]}, "edge": {"target": [], "time": []}}, "mouseover": {"state": {"target": ["10", "11", "8", "3", "5", "15", "20", "19", "22", "31", "30", "31"], "time": [1330, 1613, 2251, 2285, 2385, 4203, 4271, 4590, 5891, 6276, 6310, 6677]}, "edge": {"target": [], "time": []}}, "mouseout": {"state": {"target": ["15", "16", "18", "12", "0", "10", "11", "8", "3", "5", "15", "20", "19", "22", "31", "30", "31"], "time": [17, 109, 159, 193, 544, 1348, 2232, 2267, 2319, 4121, 4222, 4539, 5842, 6210, 6293, 6611, 12846]}, "edge": {"target": [], "time": []}}}, "displayed_time": "14.88", "trialTime": 15858, "trial_type": "mouselab-mdp", "trial_index": 34, "time_elapsed": 706495, "internal_node_id": "0.0-6.0-1.0-25.0"}}, {"uniqueid": "w76728498:a97152409", "current_trial": 35, "dateTime": 1693565553823, "trialdata": {"revealed_states": [], "clicked_states": ["33", "20", "11"], "num_clicks_accrued": [0, 0, 0, 0, 0, 0, 0, 0, 0, 0, 0, 0, 0], "stateRewards": ["", -1, -3, 1, 13, -64, -29, 12, -4, -33, 50, 56, 2, -3, 4, 11, -64, -58, -55, 12, 47, 38, -25, -2, 2, 5, -15, 85, 7, 84, 10, 8, 57, 26], "withholdReward": false, "trial_id": "mdp_trial_27", "block": "test", "trialIndex": 28, "score": 44.8, "costs": -4.199999999999999, "simulationMode": [null, null, null, null, null], "rewards": [-1, -3, 1, -4, 56], "path": ["0", "0", "1", "2", "3", "8", "11"], "rt": [8087, 161, 52, 6, 30], "actions": ["up", "up", "up", "left", "left"], "actionTimes": [9309, 9975, 10535, 11061, 11600], "queries": {"click": {"state": {"target": ["33", "20", "11"], "time": [1964, 4086, 6789]}, "edge": {"target": [], "time": []}}, "mouseover": {"state": {"target": ["33", "30", "31", "20", "17", "16", "8", "11"], "time": [1675, 2328, 2348, 2752, 4517, 6086, 6304, 6624]}, "edge": {"target": [], "time": []}}, "mouseout": {"state": {"target": ["0", "33", "30", "31", "20", "17", "16", "8", "11", "23"], "time": [1491, 2325, 2345, 2365, 4448, 4535, 6188, 6354, 12704, 12788]}, "edge": {"target": [], "time": []}}}, "displayed_time": "15.22", "trialTime": 20046, "trial_type": "mouselab-mdp", "trial_index": 35, "time_elapsed": 727317, "internal_node_id": "0.0-6.0-1.0-26.0"}}, {"uniqueid": "w76728498:a97152409", "current_trial": 36, "dateTime": 1693565580625, "trialdata": {"revealed_states": [], "clicked_states": ["7", "28"], "num_clicks_accrued": [0, 0, 0, 0, 0, 0, 0, 0, 0, 0, 0, 0, 0], "stateRewards": ["", -2, -1, -2, -15, 87, 57, 29, -10, 77, -80, -7, 1, -3, 6, 14, -11, 87, -59, 4, -71, 16, -11, 2, 2, -7, 2, -47, 61, 50, 14, -20, 17, 81], "withholdReward": false, "trial_id": "mdp_trial_28", "block": "test", "trialIndex": 29, "score": 57.2, "costs": -2.8, "simulationMode": [null, null, null, null, null], "rewards": [2, 2, -7, 2, 61], "path": ["0", "0", "23", "24", "25", "26", "28"], "rt": [6113, 39, 245, 44, 57], "actions": ["left", "left", "left", "up", "right"], "actionTimes": [7123, 7660, 8400, 8965, 9532], "queries": {"click": {"state": {"target": ["7", "28"], "time": [1734, 4504]}, "edge": {"target": [], "time": []}}, "mouseover": {"state": {"target": ["6", "7", "12", "10", "8", "28", "23"], "time": [1404, 1485, 2189, 3992, 4026, 4328, 4863]}, "edge": {"target": [], "time": []}}, "mouseout": {"state": {"target": ["6", "7", "12", "10", "8", "28", "28", "23"], "time": [1424, 2121, 2206, 4009, 4077, 4573, 4845, 4896]}, "edge": {"target": [], "time": []}}}, "displayed_time": "15.01", "trialTime": 26037, "trial_type": "mouselab-mdp", "trial_index": 36, "time_elapsed": 754119, "internal_node_id": "0.0-6.0-1.0-27.0"}}, {"uniqueid": "w76728498:a97152409", "current_trial": 37, "dateTime": 1693565597858, "trialdata": {"revealed_states": [], "clicked_states": ["31", "18", "27"], "num_clicks_accrued": [0, 0, 0, 0, 0, 0, 0, 0, 0, 0, 0, 0, 0], "stateRewards": ["", -1, 3, 8, 10, -86, 61, -36, 10, 17, -60, 24, -1, -3, 3, 11, 50, 60, 33, -3, -20, 58, -6, 1, -4, -4, 13, -70, -71, 43, 14, 52, 82, -11], "withholdReward": false, "trial_id": "mdp_trial_29", "block": "test", "trialIndex": 30, "score": 54.8, "costs": -4.199999999999999, "simulationMode": [null, null, null, null, null], "rewards": [1, -4, -4, 14, 52], "path": ["0", "0", "23", "24", "25", "30", "31"], "rt": [7920, 116, 57, 608, 71], "actions": ["left", "left", "left", "down", "right"], "actionTimes": [9274, 9884, 10443, 11562, 12129], "queries": {"click": {"state": {"target": ["31", "18", "27"], "time": [2212, 4891, 7333]}, "edge": {"target": [], "time": []}}, "mouseover": {"state": {"target": ["31", "12", "18", "12", "0", "28", "27"], "time": [1929, 2714, 3098, 5775, 6926, 6978, 7010]}, "edge": {"target": [], "time": []}}, "mouseout": {"state": {"target": ["0", "31", "12", "18", "12", "0", "28", "27", "27", "28", "24"], "time": [1778, 2614, 2933, 5739, 5841, 6944, 6993, 7408, 15901, 15950, 15985]}, "edge": {"target": [], "time": []}}}, "displayed_time": "15.35", "trialTime": 16472, "trial_type": "mouselab-mdp", "trial_index": 37, "time_elapsed": 771352, "internal_node_id": "0.0-6.0-1.0-28.0"}}, {"uniqueid": "w76728498:a97152409", "current_trial": 38, "dateTime": 1693565626234, "trialdata": {"revealed_states": [], "clicked_states": ["7", "21", "29"], "num_clicks_accrued": [0, 0, 0, 0, 0, 0, 0, 0, 0, 0, 0, 0, 0], "stateRewards": ["", 2, -2, -8, 9, -20, 55, -58, 14, 42, 2, 36, 1, -3, -5, 5, -58, 57, 60, 16, 57, 30, -70, -2, 1, 3, 10, 59, 23, 77, -13, -26, 88, -72], "withholdReward": false, "trial_id": "mdp_trial_30", "block": "test", "trialIndex": 31, "score": 84.8, "costs": -4.199999999999999, "simulationMode": [null, null, null, null, null], "rewards": [-2, 1, 3, 10, 77], "path": ["0", "0", "23", "24", "25", "26", "29"], "rt": [6866, 79, 45, 134, 125], "actions": ["left", "left", "left", "up", "left"], "actionTimes": [7967, 8545, 9095, 9750, 10378], "queries": {"click": {"state": {"target": ["7", "21", "29"], "time": [2017, 3962, 6080]}, "edge": {"target": [], "time": []}}, "mouseover": {"state": {"target": ["7", "13", "22", "21", "21", "30", "29"], "time": [1762, 2498, 2518, 2615, 2931, 4852, 5305]}, "edge": {"target": [], "time": []}}, "mouseout": {"state": {"target": ["0", "0", "7", "13", "22", "21", "21", "30"], "time": [123, 1396, 2447, 2516, 2534, 2648, 4434, 4904]}, "edge": {"target": [], "time": []}}}, "displayed_time": "15.10", "trialTime": 27670, "trial_type": "mouselab-mdp", "trial_index": 38, "time_elapsed": 799728, "internal_node_id": "0.0-6.0-1.0-29.0"}}, {"uniqueid": "w76728498:a97152409", "current_trial": 39, "dateTime": 1693565643088, "trialdata": {"revealed_states": [], "clicked_states": ["7", "9"], "num_clicks_accrued": [0, 0, 0, 0, 0, 0, 0, 0, 0, 0, 0, 0, 0], "stateRewards": ["", 1, 3, -2, 15, 51, 15, -19, 11, 67, -45, -73, 2, 4, -2, -13, 36, 9, -28, 10, -30, 31, 16, 1, 2, -1, -16, 14, -22, 36, -1, 88, -5, 45], "withholdReward": false, "trial_id": "mdp_trial_31", "block": "test", "trialIndex": 32, "score": 77.2, "costs": -2.8, "simulationMode": [null, null, null, null, null], "rewards": [1, 3, -2, 11, 67], "path": ["0", "0", "1", "2", "3", "8", "9"], "rt": [7081, 47, 48, 14, 158], "actions": ["up", "up", "up", "left", "up"], "actionTimes": [8749, 9304, 9872, 10389, 11068], "queries": {"click": {"state": {"target": ["7", "9"], "time": [3771, 5937]}, "edge": {"target": [], "time": []}}, "mouseover": {"state": {"target": ["1", "7", "4", "7", "3", "9", "9", "8", "24", "31"], "time": [2557, 2604, 2672, 3557, 4193, 4261, 4627, 6316, 6566, 6666]}, "edge": {"target": [], "time": []}}, "mouseout": {"state": {"target": ["0", "1", "7", "4", "7", "3", "9", "9", "8", "24"], "time": [881, 2574, 2640, 2692, 3835, 4227, 4311, 6297, 6334, 6632]}, "edge": {"target": [], "time": []}}}, "displayed_time": "15.67", "trialTime": 16053, "trial_type": "mouselab-mdp", "trial_index": 39, "time_elapsed": 816582, "internal_node_id": "0.0-6.0-1.0-30.0"}}, {"uniqueid": "w76728498:a97152409", "current_trial": 40, "dateTime": 1693565660060, "trialdata": {"revealed_states": [], "clicked_states": ["18", "22"], "num_clicks_accrued": [0, 0, 0, 0, 0, 0, 0, 0, 0, 0, 0, 0, 0], "stateRewards": ["", -2, -4, -6, 12, -58, -70, -80, 2, 16, -88, -62, 1, 2, -5, 11, 77, -35, -44, -5, 18, -83, 87, 1, -3, -5, 13, -44, -21, -86, 10, -52, 8, 29], "withholdReward": false, "trial_id": "mdp_trial_32", "block": "test", "trialIndex": 33, "score": 77.2, "costs": -2.8, "simulationMode": [null, null, null, null, null], "rewards": [1, 2, -5, -5, 87], "path": ["0", "0", "12", "13", "14", "19", "22"], "rt": [6356, 174, 159, 133, 152], "actions": ["right", "right", "right", "down", "left"], "actionTimes": [7815, 8493, 9155, 9780, 10434], "queries": {"click": {"state": {"target": ["18", "22"], "time": [2262, 4768]}, "edge": {"target": [], "time": []}}, "mouseover": {"state": {"target": ["12", "13", "18", "23", "31", "22", "29"], "time": [1659, 1793, 2044, 2822, 3110, 4550, 5603]}, "edge": {"target": [], "time": []}}, "mouseout": {"state": {"target": ["0", "12", "13", "18", "23", "31", "22", "29", "26", "24", "23"], "time": [1626, 1725, 1811, 2661, 2900, 4217, 5183, 12004, 12038, 12087, 12136]}, "edge": {"target": [], "time": []}}}, "displayed_time": "15.46", "trialTime": 16237, "trial_type": "mouselab-mdp", "trial_index": 40, "time_elapsed": 833554, "internal_node_id": "0.0-6.0-1.0-31.0"}}, {"uniqueid": "w76728498:a97152409", "current_trial": 41, "dateTime": 1693565677239, "trialdata": {"revealed_states": [], "clicked_states": ["31", "16", "5"], "num_clicks_accrued": [0, 0, 0, 0, 0, 0, 0, 0, 0, 0, 0, 0, 0], "stateRewards": ["", -1, 1, 8, -3, -24, 11, -65, -6, -77, 48, 44, -2, 1, -2, -7, -55, -35, 33, 8, -28, 19, -53, -1, -1, -5, -5, -70, 10, 44, 8, -58, -70, 51], "withholdReward": false, "trial_id": "mdp_trial_33", "block": "test", "trialIndex": 34, "score": 27.8, "costs": -4.199999999999999, "simulationMode": [null, null, null, null, null], "rewards": [-1, -1, -5, -5, 44], "path": ["0", "0", "23", "24", "25", "26", "29"], "rt": [8018, 121, 131, 84, 68], "actions": ["left", "left", "left", "up", "left"], "actionTimes": [9889, 10529, 11163, 11751, 12319], "queries": {"click": {"state": {"target": ["31", "16", "5"], "time": [3123, 5223, 7186]}, "edge": {"target": [], "time": []}}, "mouseover": {"state": {"target": ["23", "24", "31", "18", "16", "16", "9", "5"], "time": [2490, 2592, 2977, 3678, 3730, 4046, 5768, 6253]}, "edge": {"target": [], "time": []}}, "mouseout": {"state": {"target": ["0", "0", "23", "24", "31", "18", "16", "16", "9", "5", "5", "6", "15", "19"], "time": [969, 2441, 2542, 2895, 3209, 3696, 3747, 5648, 6116, 7238, 13187, 13237, 13286, 13723]}, "edge": {"target": [], "time": []}}}, "displayed_time": "15.88", "trialTime": 16483, "trial_type": "mouselab-mdp", "trial_index": 41, "time_elapsed": 850733, "internal_node_id": "0.0-6.0-1.0-32.0"}}, {"uniqueid": "w76728498:a97152409", "current_trial": 42, "dateTime": 1693565693607, "trialdata": {"revealed_states": [], "clicked_states": ["22", "31"], "num_clicks_accrued": [0, 0, 0, 0, 0, 0, 0, 0, 0, 0, 0, 0, 0], "stateRewards": ["", -1, -3, 4, -10, -5, 79, -87, -2, 53, 29, -20, -2, -1, -5, 10, 27, 86, 46, -16, -29, 40, 3, 2, 4, -1, -6, 37, 79, -29, 7, 86, -62, 29], "withholdReward": false, "trial_id": "mdp_trial_34", "block": "test", "trialIndex": 35, "score": 95.2, "costs": -2.8, "simulationMode": [null, null, null, null, null], "rewards": [2, 4, -1, 7, 86], "path": ["0", "0", "23", "24", "25", "30", "31"], "rt": [5517, 102, 151, 83, 197], "actions": ["left", "left", "left", "down", "right"], "actionTimes": [6832, 7441, 8092, 8674, 9375], "queries": {"click": {"state": {"target": ["22", "31"], "time": [2195, 4217]}, "edge": {"target": [], "time": []}}, "mouseover": {"state": {"target": ["12", "22", "22", "31", "24"], "time": [1481, 1571, 2024, 2660, 6336]}, "edge": {"target": [], "time": []}}, "mouseout": {"state": {"target": ["0", "12", "22", "22", "31"], "time": [1438, 1538, 1606, 2558, 4563]}, "edge": {"target": [], "time": []}}}, "displayed_time": "15.31", "trialTime": 15671, "trial_type": "mouselab-mdp", "trial_index": 42, "time_elapsed": 867101, "internal_node_id": "0.0-6.0-1.0-33.0"}}, {"uniqueid": "w76728498:a97152409", "current_trial": 43, "dateTime": 1693565728545, "trialdata": {"revealed_states": [], "clicked_states": ["28", "33"], "num_clicks_accrued": [0, 0, 0, 0, 0, 0, 0, 0, 0, 0, 0, 0, 0], "stateRewards": ["", 1, -4, -6, -1, -21, 17, -72, 10, 77, 67, -46, -1, 4, -2, 14, -66, -49, -45, -15, -52, 23, -67, 2, -2, -2, 15, -3, 45, -64, 5, -44, 83, 61], "withholdReward": false, "trial_id": "mdp_trial_35", "block": "test", "trialIndex": 36, "score": 61.2, "costs": -2.8, "simulationMode": [null, null, null, null, null], "rewards": [2, -2, -2, 5, 61], "path": ["0", "0", "23", "24", "25", "30", "33"], "rt": [6714, 6, 59, 10, 98], "actions": ["left", "left", "left", "down", "left"], "actionTimes": [8226, 8736, 9306, 9827, 10447], "queries": {"click": {"state": {"target": ["28", "33"], "time": [2682, 5210]}, "edge": {"target": [], "time": []}}, "mouseover": {"state": {"target": ["23", "26", "28", "24", "30", "33", "30", "31"], "time": [1944, 2144, 2495, 3801, 4583, 4751, 5639, 5674]}, "edge": {"target": [], "time": []}}, "mouseout": {"state": {"target": ["24", "0", "23", "26", "28", "24", "30", "33", "30", "31"], "time": [187, 1911, 1978, 2429, 3767, 3821, 4617, 5632, 5669, 5698]}, "edge": {"target": [], "time": []}}}, "displayed_time": "15.52", "trialTime": 34252, "trial_type": "mouselab-mdp", "trial_index": 43, "time_elapsed": 902039, "internal_node_id": "0.0-6.0-1.0-34.0"}}, {"uniqueid": "w76728498:a97152409", "current_trial": 44, "dateTime": 1693565752654, "trialdata": {"revealed_states": [], "clicked_states": ["7", "28", "22"], "num_clicks_accrued": [0, 0, 0, 0, 0, 0, 0, 0, 0, 0, 0, 0, 0], "stateRewards": ["", -1, -3, -7, -7, -76, 30, -49, 11, -70, 56, 2, 1, 4, -3, -14, -59, -83, -25, -9, -21, -67, -73, -2, 4, 4, -9, -11, -32, 60, 9, -87, 22, -64], "withholdReward": false, "trial_id": "mdp_trial_36", "block": "test", "trialIndex": 37, "score": -75.2, "costs": -4.199999999999999, "simulationMode": [null, null, null, null, null], "rewards": [1, 4, -3, -14, -59], "path": ["0", "0", "12", "13", "14", "15", "16"], "rt": [7326, 124, 105, 67, 49], "actions": ["right", "right", "right", "up", "up"], "actionTimes": [15283, 15903, 16505, 17085, 17650], "queries": {"click": {"state": {"target": ["7", "28", "22"], "time": [9055, 10946, 12918]}, "edge": {"target": [], "time": []}}, "mouseover": {"state": {"target": ["12", "13", "22", "13", "18", "7", "1", "23", "31", "24", "28", "22", "21", "21"], "time": [8042, 8106, 8192, 8314, 8332, 8911, 9515, 9552, 9620, 10049, 10103, 11890, 13358, 13959]}, "edge": {"target": [], "time": []}}, "mouseout": {"state": {"target": ["0", "12", "13", "22", "13", "18", "7", "1", "23", "31", "24", "28", "22", "21", "21"], "time": [8020, 8074, 8125, 8292, 8330, 8459, 9463, 9534, 9571, 10033, 10068, 11251, 13323, 13424, 13978]}, "edge": {"target": [], "time": []}}}, "displayed_time": "21.96", "trialTime": 23299, "trial_type": "mouselab-mdp", "trial_index": 44, "time_elapsed": 926148, "internal_node_id": "0.0-6.0-1.0-35.0"}}, {"uniqueid": "w76728498:a97152409", "current_trial": 45, "dateTime": 1693565769159, "trialdata": {"revealed_states": [], "clicked_states": ["31", "11"], "num_clicks_accrued": [0, 0, 0, 0, 0, 0, 0, 0, 0, 0, 0, 0, 0], "stateRewards": ["", 1, -2, -2, 10, -31, -77, 35, 9, -47, 8, 48, -2, 1, -4, -3, -26, -50, 43, -11, 76, -38, 17, 1, -1, 6, 10, 15, -9, 12, -8, 85, 11, -55], "withholdReward": false, "trial_id": "mdp_trial_37", "block": "test", "trialIndex": 38, "score": 80.2, "costs": -2.8, "simulationMode": [null, null, null, null, null, null], "rewards": [1, -1, 6, -8, 85], "path": ["0", "0", "23", "24", "25", "30", "31"], "rt": [3771, 443, 104, 160, 570, 119], "actions": ["left", "left", "left", "left", "down", "right"], "actionTimes": [4871, 5320, 5923, 6581, 7643, 8272], "queries": {"click": {"state": {"target": ["31", "11"], "time": [2005, 3808]}, "edge": {"target": [], "time": []}}, "mouseover": {"state": {"target": ["31", "31", "23", "11"], "time": [1625, 1807, 2429, 3129]}, "edge": {"target": [], "time": []}}, "mouseout": {"state": {"target": ["0", "31", "31", "23", "11", "7", "12"], "time": [1541, 1675, 2394, 2446, 4182, 9395, 9579]}, "edge": {"target": [], "time": []}}}, "displayed_time": "15.10", "trialTime": 15805, "trial_type": "mouselab-mdp", "trial_index": 45, "time_elapsed": 942653, "internal_node_id": "0.0-6.0-1.0-36.0"}}, {"uniqueid": "w76728498:a97152409", "current_trial": 46, "dateTime": 1693565792028, "trialdata": {"revealed_states": [], "clicked_states": ["31", "21", "32"], "num_clicks_accrued": [0, 0, 0, 0, 0, 0, 0, 0, 0, 0, 0, 0, 0], "stateRewards": ["", -1, 2, 5, -6, 13, -64, -47, 8, -79, -80, -33, 1, 2, -2, -16, 56, -71, -10, 3, 29, 44, 85, -1, 4, 5, 4, -36, -56, 19, 8, 52, -13, -2], "withholdReward": false, "trial_id": "mdp_trial_38", "block": "test", "trialIndex": 39, "score": 63.8, "costs": -4.199999999999999, "simulationMode": [null, null, null, null, null], "rewards": [-1, 4, 5, 8, 52], "path": ["0", "0", "23", "24", "25", "30", "31"], "rt": [7972, 109, 94, 45, 94], "actions": ["left", "left", "left", "down", "right"], "actionTimes": [9422, 10027, 10614, 11167, 11784], "queries": {"click": {"state": {"target": ["31", "21", "32"], "time": [2488, 5189, 7544]}, "edge": {"target": [], "time": []}}, "mouseover": {"state": {"target": ["0", "24", "31", "22", "22", "21", "32"], "time": [1645, 2148, 2282, 2934, 3084, 3302, 6341]}, "edge": {"target": [], "time": []}}, "mouseout": {"state": {"target": ["0", "0", "24", "31", "22", "22", "21", "32"], "time": [592, 1694, 2230, 2799, 2968, 3217, 5674, 7612]}, "edge": {"target": [], "time": []}}}, "displayed_time": "15.45", "trialTime": 22084, "trial_type": "mouselab-mdp", "trial_index": 46, "time_elapsed": 965523, "internal_node_id": "0.0-6.0-1.0-37.0"}}, {"uniqueid": "w76728498:a97152409", "current_trial": 47, "dateTime": 1693565813540, "trialdata": {"revealed_states": [], "clicked_states": ["28", "16", "11"], "num_clicks_accrued": [0, 0, 0, 0, 0, 0, 0, 0, 0, 0, 0, 0, 0], "stateRewards": ["", 1, -3, -1, 9, -34, -40, 22, -7, 45, 53, -11, 2, 4, 5, 15, 21, 37, -49, -3, 80, -28, -34, 1, -3, 1, 1, -40, -6, -5, -16, -85, -86, 59], "withholdReward": false, "trial_id": "mdp_trial_39", "block": "test", "trialIndex": 40, "score": 42.8, "costs": -4.199999999999999, "simulationMode": [null, null, null, null, null], "rewards": [2, 4, 5, 15, 21], "path": ["0", "0", "12", "13", "14", "15", "16"], "rt": [8021, 35, 84, 60, 44], "actions": ["right", "right", "right", "up", "up"], "actionTimes": [9691, 10218, 10804, 11363, 11917], "queries": {"click": {"state": {"target": ["28", "16", "11"], "time": [2599, 4521, 7384]}, "edge": {"target": [], "time": []}}, "mouseover": {"state": {"target": ["28", "16", "15", "14", "19", "21", "12", "2", "3", "8", "11", "8", "7"], "time": [2313, 3433, 5037, 5061, 5099, 5137, 6525, 6608, 6675, 6758, 6924, 7914, 7967]}, "edge": {"target": [], "time": []}}, "mouseout": {"state": {"target": ["0", "28", "16", "15", "14", "19", "21", "12", "2", "3", "8", "11", "8", "7", "16", "16", "15", "22"], "time": [2044, 2966, 5020, 5058, 5079, 5115, 5173, 6541, 6627, 6709, 6875, 7896, 7934, 7986, 8097, 19465, 19484, 19559]}, "edge": {"target": [], "time": []}}}, "displayed_time": "15.67", "trialTime": 20732, "trial_type": "mouselab-mdp", "trial_index": 47, "time_elapsed": 987034, "internal_node_id": "0.0-6.0-1.0-38.0"}}, {"uniqueid": "w76728498:a97152409", "current_trial": 48, "dateTime": 1693565830413, "trialdata": {"revealed_states": [], "clicked_states": ["10", "31", "17"], "num_clicks_accrued": [0, 0, 0, 0, 0, 0, 0, 0, 0, 0, 0, 0, 0], "stateRewards": ["", -1, 4, 3, 12, -27, 34, -33, 3, -63, 1, 6, 2, 2, -6, -11, -77, -85, 68, -6, 51, 81, -60, -2, -2, 1, 15, 20, 15, 68, -10, -14, 6, -4], "withholdReward": false, "trial_id": "mdp_trial_40", "block": "test", "trialIndex": 41, "score": 27.8, "costs": -4.199999999999999, "simulationMode": [null, null, null, null, null], "rewards": [-2, -2, 1, 15, 20], "path": ["0", "0", "23", "24", "25", "26", "27"], "rt": [8288, 67, 25, 449, 71], "actions": ["left", "left", "left", "up", "up"], "actionTimes": [9545, 10114, 10644, 11598, 12174], "queries": {"click": {"state": {"target": ["10", "31", "17"], "time": [2820, 4876, 7139]}, "edge": {"target": [], "time": []}}, "mouseover": {"state": {"target": ["10", "31", "17"], "time": [2627, 4199, 6989]}, "edge": {"target": [], "time": []}}, "mouseout": {"state": {"target": ["10", "31", "17"], "time": [3163, 5279, 7701]}, "edge": {"target": [], "time": []}}}, "displayed_time": "15.26", "trialTime": 16112, "trial_type": "mouselab-mdp", "trial_index": 48, "time_elapsed": 1003907, "internal_node_id": "0.0-6.0-1.0-39.0"}}, {"uniqueid": "w76728498:a97152409", "current_trial": 49, "dateTime": 1693565871262, "trialdata": {"rt": 40838, "response": {"Q0": "$-2 to $2", "Q1": "$-16 to $16", "Q2": "$-32 to $32", "Q3": "The cost was always $1.4.", "Q4": "Very motivated"}, "question_order": [0, 1, 2, 3, 4], "trial_id": "final_quiz_control", "trial_type": "survey-multi-choice", "trial_index": 49, "time_elapsed": 1044757, "internal_node_id": "0.0-6.0-2.0"}}, {"uniqueid": "w76728498:a97152409", "current_trial": 50, "dateTime": 1693565962990, "trialdata": {"rt": 91709, "response": {"Q0": "It was mainly risk, if i found one that had a higher payout I would go for it, if I thought I could get better I would click more", "Q1": "Yes, I started following the same ideas, it was better to win than lose so I always tried to go for the one that paid ", "Q2": "not very difficult, I just weighed up my options"}, "trial_id": "self_report_control", "trial_type": "survey-text", "trial_index": 50, "time_elapsed": 1136485, "internal_node_id": "0.0-6.0-3.0"}}, {"uniqueid": "w76728498:a97152409", "current_trial": 51, "dateTime": 1693565989541, "trialdata": {"rt": 26542, "response": {"gender": "female", "age": "29", "colorblind": "0", "effort": "0"}, "trial_type": "survey-html-form", "trial_index": 51, "time_elapsed": 1163036, "internal_node_id": "0.0-6.0-4.0"}}, {"uniqueid": "w76728498:a97152409", "current_trial": 52, "dateTime": 1693565996812, "trialdata": {"rt": 7261, "response": {"Q0": "no", "Q1": "no", "Q2": ""}, "trial_type": "survey-text", "trial_index": 52, "time_elapsed": 1170307, "internal_node_id": "0.0-6.0-5.0"}}, {"uniqueid": "w76728498:a97152409", "current_trial": 53, "dateTime": 1693566000321, "trialdata": {"rt": 3499, "stimulus": "<h1>Completion Code Instructions (1/2)</h1>\n<br><br><br><br>\nYou have reached the end of the experiment! The completion code consists of two parts: (1) a code with 2 characters (2) a code with 6 characters. On this page, you will receive the second part of the code. The first part of the completion code will be on the next page.\n<br><br>\nThe second part of your completion code is: <b>EWEK22</b>\n<br><br>\nPlease note this down. Then, press 'Finish HIT' in order to find the first part of your completion code. Once the data has been saved, you will receive this code either in this window or in the original browser window where you started the experiment.\n", "response": 0, "trial_type": "html-button-response", "trial_index": 53, "time_elapsed": 1173816, "internal_node_id": "0.0-6.0-6.0"}}, {"uniqueid": "w76728498:a97152409", "current_trial": 54, "dateTime": 1693566001329, "trialdata": {"success": true, "trial_type": "fullscreen", "trial_index": 54, "time_elapsed": 1174824, "internal_node_id": "0.0-7.0"}}], "questiondata": {"params": {"CODE": "C6DMOQA6", "MIN_TIME": 14, "inspectCost": 1, "startTime": "Fri Sep 01 2023 11:40:25 GMT+0100 (British Summer Time)", "bonusRate": 0.002, "variance": "1_2_4_8_44", "branching": "31123"}, "final_score": 1488.2}, "eventdata": [{"eventtype": "initialized", "value": null, "timestamp": 1693564824763, "interval": 0}, {"eventtype": "window_resize", "value": [1024, 746], "timestamp": 1693564824763, "interval": 0}, {"eventtype": "window_resize", "value": [1024, 746], "timestamp": 1693564825156, "interval": 393}, {"eventtype": "window_resize", "value": [1440, 900], "timestamp": 1693564829375, "interval": 4219}, {"eventtype": "window_resize", "value": [1024, 746], "timestamp": 1693566000569, "interval": 1171194}], "useragent": "Mozilla/5.0 (Macintosh; Intel Mac OS X 10_12_6) AppleWebKit/537.36 (KHTML, like Gecko) Chrome/103.0.0.0 Safari/537.36", "mode": "live", "id": "w76728498:a97152409", "status": "user data saved", "Beginhit": "2023-09-01 10:40:23.087621", "Beginexp": "2023-09-01 10:40:30.26864", "Endhit": "2023-09-01 11:00:02.061699", "psiturkStatus": 3, "browser": "<redacted>", "platform": "macos", "language": "en-GB"}