{"condition": 1, "counterbalance": 0, "assignmentId": "a51724440", "workerId": "w73948659", "hitId": "h62211683", "currenttrial": 56, "bonus": 0, "data": [{"uniqueid": "w73948659:a51724440", "current_trial": 0, "dateTime": 1693580342230, "trialdata": {"success": true, "trial_type": "fullscreen", "trial_index": 0, "time_elapsed": 4488, "internal_node_id": "0.0-0.0"}}, {"uniqueid": "w73948659:a51724440", "current_trial": 1, "dateTime": 1693580364734, "trialdata": {"view_history": [{"page_index": 0, "viewing_time": 22493}], "rt": 22495, "trial_id": "exp_instructions_misaligned", "trial_type": "instructions", "trial_index": 1, "time_elapsed": 26993, "internal_node_id": "0.0-1.0"}}, {"uniqueid": "w73948659:a51724440", "current_trial": 2, "dateTime": 1693580607375, "trialdata": {"view_history": [{"page_index": 0, "viewing_time": 72492}, {"page_index": 1, "viewing_time": 98120}, {"page_index": 2, "viewing_time": 30315}, {"page_index": 3, "viewing_time": 41709}], "rt": 242636, "trial_id": "mouselab_instructions_1_misaligned", "trial_type": "instructions", "trial_index": 2, "time_elapsed": 269633, "internal_node_id": "0.0-2.0-1.0"}}, {"uniqueid": "w73948659:a51724440", "current_trial": 3, "dateTime": 1693580654356, "trialdata": {"revealed_states": [], "clicked_states": ["23", "24", "28", "1", "2", "12", "31", "25", "27", "26", "7", "5", "4"], "num_clicks_accrued": [0, 0, 0, 0, 0, 0, 0, 0, 0, 0, 0, 0, 0], "stateRewards": ["", -10, -10, 10, -10, 10, -10, 10, 10, -10, -10, 10, -10, 10, 10, 10, -10, -10, -10, 10, -10, -10, -10, -10, 10, -10, -10, -10, 10, 10, -10, -10, -10, 10], "withholdReward": false, "trial_id": "practice_1", "block": "test", "trialIndex": 0, "score": -13, "costs": -6.5, "simulationMode": [null, null, null, null, null], "rewards": [-10, -10, 10, -10, 10], "path": ["0", "0", "1", "2", "3", "4", "5"], "rt": [30130, 348, 1982, 177, 123], "actions": ["up", "up", "up", "right", "up"], "actionTimes": [31686, 32558, 35061, 35800, 36463], "queries": {"click": {"state": {"target": ["23", "24", "28", "1", "2", "12", "31", "25", "27", "26", "7", "5", "4"], "time": [4187, 5398, 6441, 8391, 10396, 11862, 14857, 16349, 17810, 18936, 22744, 24567, 27327]}, "edge": {"target": [], "time": []}}, "mouseover": {"state": {"target": ["0", "0", "0", "23", "24", "28", "1", "2", "12", "0", "31", "30", "25", "26", "27", "26", "16", "15", "1", "7", "4", "5", "4", "2", "4", "1", "2", "7"], "time": [2819, 3019, 3518, 3786, 5091, 5777, 6673, 8906, 11552, 12817, 14385, 15240, 15977, 16830, 17475, 18590, 21417, 21618, 22136, 22567, 23316, 23940, 25371, 25638, 26668, 28085, 28783, 29867]}, "edge": {"target": [], "time": []}}, "mouseout": {"state": {"target": ["25", "9", "3", "2", "1", "0", "0", "0", "0", "23", "24", "28", "1", "2", "12", "0", "31", "30", "25", "26", "27", "27", "26", "16", "15", "1", "7", "4", "5", "4", "2", "4", "1", "2", "4", "7", "13", "12"], "time": [null, 44, 103, 153, 254, 1870, 2844, 3051, 3654, 5041, 5652, 6500, 8423, 10808, 12741, 12859, 15127, 15913, 16433, 17432, 17890, 18498, 19415, 21451, 21785, 22318, 23193, 23901, 25241, 25416, 26516, 27663, 28655, 28850, 29817, 29892, 43082, 44814]}, "edge": {"target": [], "time": []}}}, "displayed_time": "37.01", "trialTime": 45412, "trial_type": "mouselab-mdp", "trial_index": 3, "time_elapsed": 316614, "internal_node_id": "0.0-2.0-2.0-0.0"}}, {"uniqueid": "w73948659:a51724440", "current_trial": 4, "dateTime": 1693580678400, "trialdata": {"revealed_states": [], "clicked_states": ["1", "2", "7", "3", "4", "5"], "num_clicks_accrued": [0, 0, 0, 0, 0, 0, 0, 0, 0, 0, 0, 0, 0], "stateRewards": ["", 10, 10, 10, 10, 10, -10, 10, -10, 10, 10, 10, -10, 10, 10, -10, -10, 10, -10, 10, -10, -10, -10, 10, -10, 10, -10, 10, -10, 10, -10, -10, -10, 10], "withholdReward": false, "trial_id": "practice_2", "block": "test", "trialIndex": 1, "score": 50.5, "costs": -3, "simulationMode": [null, null, null, null, null], "rewards": [10, 10, 10, 10, 10], "path": ["0", "0", "1", "2", "3", "4", "5"], "rt": [13891, 272, 30, 74, 21], "actions": ["up", "up", "up", "right", "up"], "actionTimes": [18269, 19091, 19650, 20263, 20805], "queries": {"click": {"state": {"target": ["1", "2", "7", "3", "4", "5"], "time": [7866, 9412, 10916, 12398, 13867, 15417]}, "edge": {"target": [], "time": []}}, "mouseover": {"state": {"target": ["0", "4", "4", "1", "2", "7", "3", "4", "5", "5"], "time": [4408, 5559, 6227, 6642, 8438, 9973, 11457, 12775, 14694, 14894]}, "edge": {"target": [], "time": []}}, "mouseout": {"state": {"target": ["0", "4", "4", "1", "2", "7", "3", "4", "5", "5", "4", "7", "0"], "time": [5509, 5624, 6269, 8297, 9811, 11149, 12669, 14578, 14726, 17025, 17125, 23258, 23308]}, "edge": {"target": [], "time": []}}}, "displayed_time": "21.34", "trialTime": 23650, "trial_type": "mouselab-mdp", "trial_index": 4, "time_elapsed": 340658, "internal_node_id": "0.0-2.0-2.0-1.0"}}, {"uniqueid": "w73948659:a51724440", "current_trial": 5, "dateTime": 1693580725322, "trialdata": {"view_history": [{"page_index": 0, "viewing_time": 31834}, {"page_index": 1, "viewing_time": 15081}], "rt": 46916, "trial_id": "mouselab_instructions_2_misaligned", "trial_type": "instructions", "trial_index": 5, "time_elapsed": 387581, "internal_node_id": "0.0-2.0-3.0"}}, {"uniqueid": "w73948659:a51724440", "current_trial": 6, "dateTime": 1693580770253, "trialdata": {"rt": 44923, "response": {"Q0": "The cost for clicking on nodes may vary between nodes.", "Q1": "The better I perform the higher my bonus will be.", "Q2": "No, the amount of cash at each node of the web may be different each time.", "Q3": "To get the highest total score.", "Q4": "Only before moving the spider.", "Q5": "3 seconds"}, "question_order": [0, 1, 2, 3, 4, 5], "correct": {"Q0": "The cost for clicking on nodes may vary between nodes.", "Q1": "The better I perform the higher my bonus will be.", "Q2": "No, the amount of cash at each node of the web may be different each time.", "Q3": "To get the highest total score.", "Q4": "Only before moving the spider.", "Q5": "3 seconds"}, "trial_id": "mouselab_quiz_misaligned", "trial_type": "survey-multi-choice", "trial_index": 6, "time_elapsed": 432512, "internal_node_id": "0.0-2.0-4.0"}}, {"uniqueid": "w73948659:a51724440", "current_trial": 7, "dateTime": 1693580781145, "trialdata": {"rt": 10877, "response": {"Q0": "No"}, "question_order": [0], "trial_id": "repeat_check", "trial_type": "survey-multi-choice", "trial_index": 7, "time_elapsed": 443404, "internal_node_id": "0.0-4.0-0.0"}}, {"uniqueid": "w73948659:a51724440", "current_trial": 8, "dateTime": 1693580790366, "trialdata": {"rt": 9204, "stimulus": "\n<h1> Get ready to start the game! </h1>\n\nThank you for reading the instructions. Get ready start with the 40 rounds of this game.\n<br><br>\nIf you need to take a break, feel free to take one after the end of a round, before continuing to the next one.\n<br><br>\nRemember, the more money the spider gets, the bigger your bonus will be!\n<br><br>\n<div style='text-align: center;'>Press <code>space</code> to begin.</div>\n\n<br><br>\n(If, at any point, the <code>space</code> key does not take you to the next page, click once on the text and try again.)", "response": " ", "trial_id": "mdp_ready", "trial_type": "html-keyboard-response", "trial_index": 8, "time_elapsed": 452625, "internal_node_id": "0.0-6.0-0.0"}}, {"uniqueid": "w73948659:a51724440", "current_trial": 9, "dateTime": 1693580837800, "trialdata": {"revealed_states": [], "clicked_states": ["1", "2", "7", "23", "24", "25", "26", "27", "30", "32", "33", "31", "12", "13", "14", "19", "21", "20"], "num_clicks_accrued": [0, 0, 0, 0, 0, 0, 0, 0, 0, 0, 0, 0, 0], "stateRewards": ["", -1, -2, 4, 9, 10, -75, 39, 16, -43, 88, -19, -1, 1, 2, 4, -31, 10, 73, 12, 41, -64, -81, -2, 2, -6, 1, -81, -1, -26, 3, -59, -3, -20], "withholdReward": false, "trial_id": "mdp_trial_1", "block": "test", "trialIndex": 2, "score": 33.1, "costs": -21.9, "simulationMode": [null, null, null, null, null], "rewards": [-1, 1, 2, 12, 41], "path": ["0", "0", "12", "13", "14", "19", "20"], "rt": [39689, 233, 254, 110, 19], "actions": ["right", "right", "right", "down", "right"], "actionTimes": [42046, 42810, 43624, 44278, 44833], "queries": {"click": {"state": {"target": ["1", "2", "7", "23", "24", "25", "26", "27", "30", "32", "33", "31", "12", "13", "14", "19", "21", "20"], "time": [3419, 5530, 6589, 10224, 11786, 13027, 13976, 15063, 18006, 19373, 23404, 27335, 30543, 31468, 32251, 32944, 33973, 37509]}, "edge": {"target": [], "time": []}}, "mouseover": {"state": {"target": ["1", "2", "7", "4", "23", "24", "23", "24", "24", "25", "26", "27", "30", "30", "32", "33", "30", "31", "30", "33", "30", "31", "31", "0", "19", "12", "13", "12", "13", "14", "19", "21", "21", "20", "22", "22", "19", "20", "19", "22"], "time": [3076, 3824, 5820, 6872, 7646, 8312, 8701, 10734, 11079, 12831, 13468, 14686, 15965, 16503, 18480, 20310, 22408, 22693, 22981, 23158, 23677, 23773, 27092, 28061, 28444, 28798, 29971, 30094, 31026, 31849, 32625, 33518, 33728, 35247, 36020, 36233, 36398, 36477, 37940, 38099]}, "edge": {"target": [], "time": []}}, "mouseout": {"state": {"target": ["4", "7", "12", "0", "1", "2", "7", "4", "2", "23", "24", "23", "24", "24", "25", "26", "27", "26", "25", "30", "30", "32", "33", "30", "31", "30", "33", "30", "31", "31", "0", "19", "12", "13", "12", "13", "14", "19", "21", "21", "20", "19", "22", "22", "19", "20", "19"], "time": [659, 710, 1143, 2694, 3787, 5758, 6744, 7151, 7229, 8232, 8669, 10701, 10917, 12401, 13335, 14547, 15375, 15522, 15635, 16343, 18416, 20219, 22362, 22625, 22959, 23078, 23644, 23739, 26891, 27661, 28095, 28542, 29801, 30060, 30958, 31737, 32556, 33369, 33644, 34780, 35734, 35837, 36052, 36296, 36434, 37936, 38018]}, "edge": {"target": [], "time": []}}}, "displayed_time": "45.37", "trialTime": 47031, "trial_type": "mouselab-mdp", "trial_index": 9, "time_elapsed": 500057, "internal_node_id": "0.0-6.0-1.0-0.0"}}, {"uniqueid": "w73948659:a51724440", "current_trial": 10, "dateTime": 1693580858450, "trialdata": {"revealed_states": [], "clicked_states": ["12", "13", "14", "15", "16", "17"], "num_clicks_accrued": [0, 0, 0, 0, 0, 0, 0, 0, 0, 0, 0, 0, 0], "stateRewards": ["", 1, 1, 1, -3, -7, -1, -41, -10, 20, -72, -63, 1, -4, -2, 2, -66, 30, -84, -2, 49, 23, 71, -1, -4, 4, -12, 67, 5, 18, -16, 88, 56, -5], "withholdReward": false, "trial_id": "mdp_trial_2", "block": "test", "trialIndex": 3, "score": 20.1, "costs": -6.9, "simulationMode": [null, null, null, null, null], "rewards": [1, -4, -2, 2, 30], "path": ["0", "0", "12", "13", "14", "15", "17"], "rt": [12503, 99, 136, 1178, 677], "actions": ["right", "right", "right", "up", "right"], "actionTimes": [14225, 14907, 15575, 17297, 18508], "queries": {"click": {"state": {"target": ["12", "13", "14", "15", "16", "17"], "time": [3045, 3965, 4784, 5603, 6252, 9918]}, "edge": {"target": [], "time": []}}, "mouseover": {"state": {"target": ["12", "13", "14", "15", "16", "17", "18", "18", "17", "15", "18", "18", "14", "18", "15", "18", "15", "18"], "time": [2789, 3446, 4343, 5180, 5915, 6696, 8026, 8531, 9155, 10164, 10326, 10632, 11550, 12004, 12114, 12317, 12546, 12745]}, "edge": {"target": [], "time": []}}, "mouseout": {"state": {"target": ["22", "0", "12", "13", "14", "15", "16", "17", "15", "18", "18", "17", "15", "18", "18", "14", "18", "15", "18", "15", "18", "0"], "time": [722, 2641, 3412, 4309, 5117, 5681, 6487, 7860, 7956, 8205, 8945, 10129, 10233, 10461, 11360, 11833, 12051, 12280, 12483, 12711, 19738, 19821]}, "edge": {"target": [], "time": []}}}, "displayed_time": "19.04", "trialTime": 20266, "trial_type": "mouselab-mdp", "trial_index": 10, "time_elapsed": 520708, "internal_node_id": "0.0-6.0-1.0-1.0"}}, {"uniqueid": "w73948659:a51724440", "current_trial": 11, "dateTime": 1693580881845, "trialdata": {"revealed_states": [], "clicked_states": ["1", "2", "3", "4", "5", "6", "7"], "num_clicks_accrued": [0, 0, 0, 0, 0, 0, 0, 0, 0, 0, 0, 0, 0], "stateRewards": ["", 2, 4, 4, 9, -88, -10, 44, 16, -54, 64, 78, 1, 2, 5, 16, 80, 36, 7, -4, 9, -47, -70, -1, -3, 6, -16, 11, 80, 28, 8, -1, 34, -17], "withholdReward": false, "trial_id": "mdp_trial_3", "block": "test", "trialIndex": 4, "score": 53.95, "costs": -9.05, "simulationMode": [null, null, null, null, null], "rewards": [2, 4, 4, 9, 44], "path": ["0", "0", "1", "2", "3", "4", "7"], "rt": [16056, 623, 111, 120, 166], "actions": ["up", "up", "up", "right", "down"], "actionTimes": [17858, 19034, 19683, 20323, 21014], "queries": {"click": {"state": {"target": ["1", "2", "3", "4", "5", "6", "7"], "time": [3369, 4093, 5042, 5888, 6659, 10119, 13577]}, "edge": {"target": [], "time": []}}, "mouseover": {"state": {"target": ["0", "23", "1", "2", "3", "4", "5", "6", "7", "6", "7", "10"], "time": [2609, 2682, 3077, 3818, 4699, 5567, 6201, 7051, 8522, 8839, 10438, 14893]}, "edge": {"target": [], "time": []}}, "mouseout": {"state": {"target": ["0", "0", "23", "1", "2", "3", "4", "5", "6", "7", "6", "7", "10"], "time": [2092, 2641, 2909, 3699, 4422, 5085, 6036, 6891, 8336, 8749, 10373, 14126, 22557]}, "edge": {"target": [], "time": []}}}, "displayed_time": "21.54", "trialTime": 23032, "trial_type": "mouselab-mdp", "trial_index": 11, "time_elapsed": 544103, "internal_node_id": "0.0-6.0-1.0-2.0"}}, {"uniqueid": "w73948659:a51724440", "current_trial": 12, "dateTime": 1693580916532, "trialdata": {"revealed_states": [], "clicked_states": ["23", "24", "28", "25", "26", "27", "29", "30", "33", "32", "31"], "num_clicks_accrued": [0, 0, 0, 0, 0, 0, 0, 0, 0, 0, 0, 0, 0], "stateRewards": ["", 1, 1, -6, -2, 7, 77, 3, 16, -16, 66, 31, -1, 3, -8, -6, 33, -50, -48, 7, -60, -66, 36, 2, -3, 3, -7, -12, -61, -79, -4, 8, 74, -70], "withholdReward": false, "trial_id": "mdp_trial_4", "block": "test", "trialIndex": 5, "score": 54.95, "costs": -17.05, "simulationMode": [null, null, null, null, null, null], "rewards": [2, -3, 3, -4, 74], "path": ["0", "0", "23", "24", "25", "30", "32"], "rt": [24779, 2045, 331, 593, 277, 123], "actions": ["left", "left", "left", "left", "down", "down"], "actionTimes": [27177, 29228, 30100, 31232, 32060, 32720], "queries": {"click": {"state": {"target": ["23", "24", "28", "25", "26", "27", "29", "30", "33", "32", "31"], "time": [4157, 4975, 5675, 9131, 10037, 11017, 14519, 18010, 18917, 22838, 25902]}, "edge": {"target": [], "time": []}}, "mouseover": {"state": {"target": ["23", "24", "28", "26", "25", "26", "27", "29", "25", "30", "33", "32", "31", "31"], "time": [3818, 4652, 5322, 6198, 6984, 9744, 10617, 11516, 15099, 15437, 18363, 19368, 23418, 24401]}, "edge": {"target": [], "time": []}}, "mouseout": {"state": {"target": ["0", "23", "24", "28", "26", "25", "26", "27", "29", "25", "30", "33", "32", "31"], "time": [3618, 4519, 5247, 6046, 6920, 9639, 10556, 11360, 15037, 15135, 18322, 19281, 23191, 24205]}, "edge": {"target": [], "time": []}}}, "displayed_time": "33.25", "trialTime": 34298, "trial_type": "mouselab-mdp", "trial_index": 12, "time_elapsed": 578790, "internal_node_id": "0.0-6.0-1.0-3.0"}}, {"uniqueid": "w73948659:a51724440", "current_trial": 13, "dateTime": 1693580938380, "trialdata": {"revealed_states": [], "clicked_states": ["23", "24", "25", "30", "33"], "num_clicks_accrued": [0, 0, 0, 0, 0, 0, 0, 0, 0, 0, 0, 0, 0], "stateRewards": ["", -1, 3, 1, -7, 56, 76, 57, 3, 11, -9, 14, 1, -2, 2, 8, -77, -3, 79, -5, 88, 24, -66, -2, -1, 7, -7, -30, 14, -76, 11, -36, 28, -6], "withholdReward": false, "trial_id": "mdp_trial_5", "block": "test", "trialIndex": 6, "score": 4.25, "costs": -4.75, "simulationMode": [null, null, null, null, null], "rewards": [-2, -1, 7, 11, -6], "path": ["0", "0", "23", "24", "25", "30", "33"], "rt": [15032, 268, 488, 594, 21], "actions": ["left", "left", "left", "down", "left"], "actionTimes": [16583, 17388, 18402, 19534, 20102], "queries": {"click": {"state": {"target": ["23", "24", "25", "30", "33"], "time": [4133, 4811, 5448, 6499, 7372]}, "edge": {"target": [], "time": []}}, "mouseover": {"state": {"target": ["12", "22", "12", "23", "24", "23", "0", "12", "23", "23", "24", "25", "30", "33", "33", "32", "31", "32", "32", "32", "31", "32", "31"], "time": [2740, 2765, 3075, 3144, 3240, 3402, 3437, 3478, 3645, 3974, 4577, 5142, 6262, 6746, 7165, 7837, 10639, 11494, 11885, 12258, 13856, 15307, 15931]}, "edge": {"target": [], "time": []}}, "mouseout": {"state": {"target": ["31", "23", "0", "0", "12", "22", "12", "23", "24", "23", "0", "12", "23", "23", "24", "25", "30", "33", "33", "32", "31", "32", "32", "32", "31", "32"], "time": [722, 774, 991, 2334, 2761, 2974, 3140, 3173, 3375, 3433, 3474, 3607, 3708, 4486, 5068, 6124, 6742, 6903, 7713, 10549, 11441, 11740, 12109, 13706, 14791, 15840]}, "edge": {"target": [], "time": []}}}, "displayed_time": "20.64", "trialTime": 21472, "trial_type": "mouselab-mdp", "trial_index": 13, "time_elapsed": 600638, "internal_node_id": "0.0-6.0-1.0-4.0"}}, {"uniqueid": "w73948659:a51724440", "current_trial": 14, "dateTime": 1693580960601, "trialdata": {"revealed_states": [], "clicked_states": ["12", "13", "14", "19", "20", "21", "22"], "num_clicks_accrued": [0, 0, 0, 0, 0, 0, 0, 0, 0, 0, 0, 0, 0], "stateRewards": ["", -2, -3, 1, -7, 39, -67, 16, 5, -20, 73, 66, -1, 4, 5, -3, 23, -68, -87, -8, 3, -3, 17, 1, -4, -2, -13, -32, 34, 61, -5, -11, -18, 12], "withholdReward": false, "trial_id": "mdp_trial_6", "block": "test", "trialIndex": 7, "score": 7.949999999999999, "costs": -9.05, "simulationMode": [null, null, null, null, null], "rewards": [-1, 4, 5, -8, 17], "path": ["0", "0", "12", "13", "14", "19", "22"], "rt": [15446, 281, 745, 36, 21], "actions": ["right", "right", "right", "down", "left"], "actionTimes": [16764, 17602, 18889, 19444, 20009], "queries": {"click": {"state": {"target": ["12", "13", "14", "19", "20", "21", "22"], "time": [2921, 3838, 4716, 5615, 6430, 9674, 12908]}, "edge": {"target": [], "time": []}}, "mouseover": {"state": {"target": ["12", "13", "13", "14", "19", "20", "20", "21", "21", "22", "15"], "time": [2634, 3290, 3540, 4182, 5221, 5880, 6159, 6866, 8726, 10224, 14973]}, "edge": {"target": [], "time": []}}, "mouseout": {"state": {"target": ["31", "23", "0", "12", "13", "13", "14", "19", "20", "20", "21", "21", "22"], "time": [400, 433, 1999, 3256, 3328, 4150, 5184, 5868, 5952, 6759, 8398, 9941, 13555]}, "edge": {"target": [], "time": []}}}, "displayed_time": "20.57", "trialTime": 21837, "trial_type": "mouselab-mdp", "trial_index": 14, "time_elapsed": 622859, "internal_node_id": "0.0-6.0-1.0-5.0"}}, {"uniqueid": "w73948659:a51724440", "current_trial": 15, "dateTime": 1693580980964, "trialdata": {"revealed_states": [], "clicked_states": ["12", "13", "14", "15", "17", "16", "18"], "num_clicks_accrued": [0, 0, 0, 0, 0, 0, 0, 0, 0, 0, 0, 0, 0], "stateRewards": ["", 2, 3, 3, 10, 19, -21, 6, 9, 54, 68, 16, 2, 2, -6, -8, 40, -2, -75, -2, -42, 55, 59, -1, 2, 4, -14, 11, -34, -30, -6, 61, -53, 13], "withholdReward": false, "trial_id": "mdp_trial_7", "block": "test", "trialIndex": 8, "score": 20.95, "costs": -9.05, "simulationMode": [null, null, null, null, null, null], "rewards": [2, 2, -6, -8, 40], "path": ["0", "0", "12", "13", "14", "15", "16"], "rt": [11246, 2301, 277, 640, 401, 39], "actions": ["right", "right", "right", "right", "up", "up"], "actionTimes": [12842, 15150, 15959, 17125, 18056, 18620], "queries": {"click": {"state": {"target": ["12", "13", "14", "15", "17", "16", "18"], "time": [2689, 3365, 4020, 4717, 5440, 8821, 12068]}, "edge": {"target": [], "time": []}}, "mouseover": {"state": {"target": ["1", "12", "13", "14", "15", "17", "16", "16", "18"], "time": [2084, 2434, 3038, 3736, 4310, 4997, 5816, 7211, 9301]}, "edge": {"target": [], "time": []}}, "mouseout": {"state": {"target": ["15", "18", "0", "0", "1", "12", "13", "14", "15", "17", "16", "16"], "time": [566, 599, 1068, 1799, 2251, 2887, 3698, 4267, 4810, 5653, 6631, 9153]}, "edge": {"target": [], "time": []}}}, "displayed_time": "19.16", "trialTime": 19986, "trial_type": "mouselab-mdp", "trial_index": 15, "time_elapsed": 643222, "internal_node_id": "0.0-6.0-1.0-6.0"}}, {"uniqueid": "w73948659:a51724440", "current_trial": 16, "dateTime": 1693580999505, "trialdata": {"revealed_states": [], "clicked_states": ["1", "2", "3", "8", "10", "11"], "num_clicks_accrued": [0, 0, 0, 0, 0, 0, 0, 0, 0, 0, 0, 0, 0], "stateRewards": ["", 1, 4, 5, 8, -55, -11, 8, 16, -37, 77, -22, -2, 3, -8, -10, 45, 87, -67, 4, 17, -33, -22, -1, -3, 7, 6, -39, -85, 75, -1, 7, -48, 45], "withholdReward": false, "trial_id": "mdp_trial_8", "block": "test", "trialIndex": 9, "score": 96.1, "costs": -6.9, "simulationMode": [null, null, null, null, null, null], "rewards": [1, 4, 5, 16, 77], "path": ["0", "0", "1", "2", "3", "8", "10"], "rt": [8790, 765, 360, 51, 268, 2265], "actions": ["up", "up", "up", "up", "left", "down"], "actionTimes": [10354, 11124, 12009, 12579, 13388, 16198], "queries": {"click": {"state": {"target": ["1", "2", "3", "8", "10", "11"], "time": [2671, 3556, 4728, 5559, 6302, 9490]}, "edge": {"target": [], "time": []}}, "mouseover": {"state": {"target": ["1", "2", "10", "3", "8", "10", "11"], "time": [2340, 3296, 3929, 4409, 5167, 6049, 6858]}, "edge": {"target": [], "time": []}}, "mouseout": {"state": {"target": ["18", "0", "1", "2", "10", "3", "8", "10"], "time": [689, 2271, 3057, 3878, 4341, 5075, 5980, 6597]}, "edge": {"target": [], "time": []}}}, "displayed_time": "16.74", "trialTime": 18102, "trial_type": "mouselab-mdp", "trial_index": 16, "time_elapsed": 661763, "internal_node_id": "0.0-6.0-1.0-7.0"}}, {"uniqueid": "w73948659:a51724440", "current_trial": 17, "dateTime": 1693581016561, "trialdata": {"revealed_states": [], "clicked_states": ["1", "2", "3", "4", "7"], "num_clicks_accrued": [0, 0, 0, 0, 0, 0, 0, 0, 0, 0, 0, 0, 0], "stateRewards": ["", 1, 2, 7, 13, 88, -71, 27, 3, 60, 5, -53, -2, 2, -6, -1, -30, 79, 47, -4, -14, 46, 68, 1, 1, 8, 10, -14, 86, 48, -11, -67, -44, 5], "withholdReward": false, "trial_id": "mdp_trial_9", "block": "test", "trialIndex": 10, "score": 45.25, "costs": -4.75, "simulationMode": [null, null, null, null, null], "rewards": [1, 2, 7, 13, 27], "path": ["0", "0", "1", "2", "3", "4", "7"], "rt": [9737, 264, 556, 81, 20], "actions": ["up", "up", "up", "right", "down"], "actionTimes": [11924, 12720, 13810, 14427, 14980], "queries": {"click": {"state": {"target": ["1", "2", "3", "4", "7"], "time": [4060, 5415, 6212, 6997, 7827]}, "edge": {"target": [], "time": []}}, "mouseover": {"state": {"target": ["2", "1", "23", "1", "2", "3", "4", "7", "6"], "time": [2997, 3196, 3529, 3863, 4913, 5746, 6824, 7546, 8237]}, "edge": {"target": [], "time": []}}, "mouseout": {"state": {"target": ["11", "12", "0", "2", "1", "23", "1", "2", "3", "4", "7"], "time": [1195, 1245, 2713, 3061, 3379, 3696, 4365, 5652, 6527, 7386, 8065]}, "edge": {"target": [], "time": []}}}, "displayed_time": "16.19", "trialTime": 16666, "trial_type": "mouselab-mdp", "trial_index": 17, "time_elapsed": 678819, "internal_node_id": "0.0-6.0-1.0-8.0"}}, {"uniqueid": "w73948659:a51724440", "current_trial": 18, "dateTime": 1693581033885, "trialdata": {"revealed_states": [], "clicked_states": ["23", "24", "25", "26", "28"], "num_clicks_accrued": [0, 0, 0, 0, 0, 0, 0, 0, 0, 0, 0, 0, 0], "stateRewards": ["", 2, 3, -1, 6, 44, -4, -59, -14, -3, 64, 16, 1, -3, 3, 6, 3, 49, 19, 3, -49, -14, -86, 1, 2, -3, -8, -33, 14, 32, -13, -77, -47, -67], "withholdReward": false, "trial_id": "mdp_trial_10", "block": "test", "trialIndex": 11, "score": 1.25, "costs": -4.75, "simulationMode": [null, null, null, null, null], "rewards": [1, 2, -3, -8, 14], "path": ["0", "0", "23", "24", "25", "26", "28"], "rt": [10047, 158, 64, 431, 776], "actions": ["left", "left", "left", "up", "right"], "actionTimes": [11843, 12530, 13140, 14124, 15429], "queries": {"click": {"state": {"target": ["23", "24", "25", "26", "28"], "time": [2917, 3632, 4731, 5432, 6774]}, "edge": {"target": [], "time": []}}, "mouseover": {"state": {"target": ["1", "23", "24", "28", "25", "26", "28", "28", "27"], "time": [2262, 2662, 3328, 3922, 4553, 5129, 5888, 6495, 7344]}, "edge": {"target": [], "time": []}}, "mouseout": {"state": {"target": ["6", "1", "0", "1", "23", "24", "28", "25", "26", "28", "24", "28", "27"], "time": [810, 1078, 2045, 2544, 3263, 3839, 4374, 4936, 5807, 5979, 6103, 7213, 10045]}, "edge": {"target": [], "time": []}}}, "displayed_time": "15.96", "trialTime": 16924, "trial_type": "mouselab-mdp", "trial_index": 18, "time_elapsed": 696143, "internal_node_id": "0.0-6.0-1.0-9.0"}}, {"uniqueid": "w73948659:a51724440", "current_trial": 19, "dateTime": 1693581049879, "trialdata": {"revealed_states": [], "clicked_states": ["23", "24", "25", "30", "31", "32"], "num_clicks_accrued": [0, 0, 0, 0, 0, 0, 0, 0, 0, 0, 0, 0, 0], "stateRewards": ["", 1, -3, -2, 14, 49, -40, -39, 2, 26, -61, 73, 1, -4, -8, 12, 79, 29, -65, -13, 55, -26, 27, -1, 3, 3, 9, -17, -60, -18, -8, 35, -88, 69], "withholdReward": false, "trial_id": "mdp_trial_11", "block": "test", "trialIndex": 12, "score": 25.1, "costs": -6.9, "simulationMode": [null, null, null, null, null, null], "rewards": [-1, 3, 3, -8, 35], "path": ["0", "0", "23", "24", "25", "30", "31"], "rt": [9490, 285, 179, 508, 22, 98], "actions": ["left", "left", "left", "left", "down", "right"], "actionTimes": [10831, 11121, 11832, 12849, 13395, 14014], "queries": {"click": {"state": {"target": ["23", "24", "25", "30", "31", "32"], "time": [3008, 3914, 4605, 5305, 5925, 9025]}, "edge": {"target": [], "time": []}}, "mouseover": {"state": {"target": ["0", "23", "24", "24", "25", "30", "31", "32", "33", "32", "33"], "time": [1676, 2577, 3394, 3684, 4209, 4960, 5665, 6351, 7555, 7683, 9864]}, "edge": {"target": [], "time": []}}, "mouseout": {"state": {"target": ["10", "2", "0", "0", "23", "24", "24", "25", "25", "30", "31", "32", "33", "32"], "time": [475, 525, 1405, 2043, 3359, 3492, 4171, 4699, 4914, 5588, 6313, 7392, 7619, 9358]}, "edge": {"target": [], "time": []}}}, "displayed_time": "15.34", "trialTime": 15568, "trial_type": "mouselab-mdp", "trial_index": 19, "time_elapsed": 712137, "internal_node_id": "0.0-6.0-1.0-10.0"}}, {"uniqueid": "w73948659:a51724440", "current_trial": 20, "dateTime": 1693581067898, "trialdata": {"revealed_states": [], "clicked_states": ["23", "24", "25", "30", "33", "32"], "num_clicks_accrued": [0, 0, 0, 0, 0, 0, 0, 0, 0, 0, 0, 0, 0], "stateRewards": ["", 1, -4, -6, 11, -20, 8, -30, 1, -38, 88, 42, 2, 3, 5, -12, -8, -74, 30, -8, 67, -19, 42, 2, -1, 4, 13, 50, -68, 2, -8, -15, 87, -46], "withholdReward": false, "trial_id": "mdp_trial_12", "block": "test", "trialIndex": 13, "score": 77.1, "costs": -6.9, "simulationMode": [null, null, null, null, null], "rewards": [2, -1, 4, -8, 87], "path": ["0", "0", "23", "24", "25", "30", "32"], "rt": [11035, 129, 1287, 31, 155], "actions": ["left", "left", "left", "down", "down"], "actionTimes": [12673, 13338, 15157, 15720, 16400], "queries": {"click": {"state": {"target": ["23", "24", "25", "30", "33", "32"], "time": [2685, 3460, 4035, 4744, 5477, 8763]}, "edge": {"target": [], "time": []}}, "mouseover": {"state": {"target": ["23", "24", "25", "30", "33", "32", "32", "31"], "time": [2359, 3078, 3783, 4490, 5078, 5956, 7498, 9144]}, "edge": {"target": [], "time": []}}, "mouseout": {"state": {"target": ["33", "24", "23", "0", "23", "24", "25", "30", "33", "32", "32"], "time": [691, 757, 1025, 2302, 2982, 3682, 4372, 4999, 5859, 6896, 8995]}, "edge": {"target": [], "time": []}}}, "displayed_time": "16.93", "trialTime": 17571, "trial_type": "mouselab-mdp", "trial_index": 20, "time_elapsed": 730156, "internal_node_id": "0.0-6.0-1.0-11.0"}}, {"uniqueid": "w73948659:a51724440", "current_trial": 21, "dateTime": 1693581084760, "trialdata": {"revealed_states": [], "clicked_states": ["12", "13", "14", "19", "22"], "num_clicks_accrued": [0, 0, 0, 0, 0, 0, 0, 0, 0, 0, 0, 0, 0], "stateRewards": ["", -1, 3, -7, 16, -32, -74, -48, 2, 10, 15, -30, 1, 1, -2, 10, 12, -83, 67, 13, -66, 47, 65, -2, 4, 2, -14, -8, -57, 24, 9, 65, 12, 46], "withholdReward": false, "trial_id": "mdp_trial_13", "block": "test", "trialIndex": 14, "score": 73.25, "costs": -4.75, "simulationMode": [null, null, null, null, null], "rewards": [1, 1, -2, 13, 65], "path": ["0", "0", "12", "13", "14", "19", "22"], "rt": [7696, 190, 298, 165, 46], "actions": ["right", "right", "right", "down", "left"], "actionTimes": [9433, 10162, 10996, 11712, 12285], "queries": {"click": {"state": {"target": ["12", "13", "14", "19", "22"], "time": [3085, 3681, 4313, 5001, 5530]}, "edge": {"target": [], "time": []}}, "mouseover": {"state": {"target": ["0", "12", "13", "14", "19", "22", "21"], "time": [2003, 2737, 3352, 3979, 4775, 5290, 5801]}, "edge": {"target": [], "time": []}}, "mouseout": {"state": {"target": ["31", "23", "1", "0", "0", "12", "13", "14", "14", "19", "22"], "time": [835, 868, 951, 1886, 2542, 3176, 3782, 4406, 4627, 5252, 5796]}, "edge": {"target": [], "time": []}}}, "displayed_time": "15.74", "trialTime": 16413, "trial_type": "mouselab-mdp", "trial_index": 21, "time_elapsed": 747019, "internal_node_id": "0.0-6.0-1.0-12.0"}}, {"uniqueid": "w73948659:a51724440", "current_trial": 22, "dateTime": 1693581101361, "trialdata": {"revealed_states": [], "clicked_states": ["12", "13", "14", "15", "17"], "num_clicks_accrued": [0, 0, 0, 0, 0, 0, 0, 0, 0, 0, 0, 0, 0], "stateRewards": ["", 2, -2, 7, -11, -76, -65, -23, 16, -58, 30, 81, 1, 2, 7, 14, 9, 55, -2, 6, 11, -15, 31, -1, -1, -3, 2, 15, 2, 46, 15, 18, 45, -34], "withholdReward": false, "trial_id": "mdp_trial_14", "block": "test", "trialIndex": 15, "score": 74.25, "costs": -4.75, "simulationMode": [null, null, null, null, null], "rewards": [1, 2, 7, 14, 55], "path": ["0", "0", "12", "13", "14", "15", "17"], "rt": [7917, 235, 98, 213, 28], "actions": ["right", "right", "right", "up", "right"], "actionTimes": [9596, 10373, 11024, 11771, 12327], "queries": {"click": {"state": {"target": ["12", "13", "14", "15", "17"], "time": [2855, 3515, 4139, 4914, 5705]}, "edge": {"target": [], "time": []}}, "mouseover": {"state": {"target": ["12", "13", "14", "15", "17", "16"], "time": [2341, 3192, 3809, 4581, 5437, 6147]}, "edge": {"target": [], "time": []}}, "mouseout": {"state": {"target": ["21", "0", "12", "13", "14", "15", "17"], "time": [723, 2307, 3091, 3805, 4238, 5360, 6025]}, "edge": {"target": [], "time": []}}}, "displayed_time": "15.68", "trialTime": 16153, "trial_type": "mouselab-mdp", "trial_index": 22, "time_elapsed": 763619, "internal_node_id": "0.0-6.0-1.0-13.0"}}, {"uniqueid": "w73948659:a51724440", "current_trial": 23, "dateTime": 1693581117991, "trialdata": {"revealed_states": [], "clicked_states": [], "num_clicks_accrued": [0, 0, 0, 0, 0, 0, 0, 0, 0, 0, 0, 0, 0], "stateRewards": ["", -1, -3, -5, -14, -13, -47, 79, 8, -60, -64, 41, -1, 2, 3, 13, -46, 61, -79, -11, -64, -65, 23, 1, -2, 6, -14, 46, 32, 21, 7, 75, -66, 15], "withholdReward": false, "trial_id": "mdp_trial_15", "block": "test", "trialIndex": 16, "score": -71, "costs": 0, "simulationMode": [null, null, null, null, null], "rewards": [-1, 2, 3, -11, -64], "path": ["0", "0", "12", "13", "14", "19", "20"], "rt": [7441, 35, 36, 306, 229], "actions": ["right", "right", "right", "down", "right"], "actionTimes": [9060, 9621, 10183, 11030, 11796], "queries": {"click": {"state": {"target": [], "time": []}, "edge": {"target": [], "time": []}}, "mouseover": {"state": {"target": ["12", "1", "1", "12", "12", "13"], "time": [2989, 3471, 3772, 4289, 7273, 7711]}, "edge": {"target": [], "time": []}}, "mouseout": {"state": {"target": ["16", "0", "12", "1", "1", "12", "12"], "time": [788, 2922, 3440, 3523, 4205, 6973, 7688]}, "edge": {"target": [], "time": []}}}, "displayed_time": "15.62", "trialTime": 16216, "trial_type": "mouselab-mdp", "trial_index": 23, "time_elapsed": 780249, "internal_node_id": "0.0-6.0-1.0-14.0"}}, {"uniqueid": "w73948659:a51724440", "current_trial": 24, "dateTime": 1693581135185, "trialdata": {"revealed_states": [], "clicked_states": ["12", "13", "15", "14", "19", "21", "22"], "num_clicks_accrued": [0, 0, 0, 0, 0, 0, 0, 0, 0, 0, 0, 0, 0], "stateRewards": ["", 2, -3, 5, -14, -63, -9, -24, -11, -54, -43, 68, 2, -2, -4, 7, -64, 30, 47, 12, -74, 11, 86, 1, -3, 3, 10, -71, -42, -52, -1, -29, -16, 69], "withholdReward": false, "trial_id": "mdp_trial_16", "block": "test", "trialIndex": 17, "score": 85.55, "costs": -8.45, "simulationMode": [null, null, null, null, null, null], "rewards": [2, -2, -4, 12, 86], "path": ["0", "0", "12", "13", "14", "19", "22"], "rt": [8885, 219, 228, 557, 78, 696], "actions": ["right", "right", "right", "right", "down", "left"], "actionTimes": [10654, 10878, 11645, 12715, 13333, 14567], "queries": {"click": {"state": {"target": ["12", "13", "15", "14", "19", "21", "22"], "time": [2575, 3272, 4108, 4719, 5480, 6241, 9288]}, "edge": {"target": [], "time": []}}, "mouseover": {"state": {"target": ["12", "12", "13", "14", "15", "14", "19", "21", "22"], "time": [2206, 2348, 2908, 3680, 3788, 4378, 4989, 5817, 7051]}, "edge": {"target": [], "time": []}}, "mouseout": {"state": {"target": ["13", "12", "0", "12", "12", "13", "14", "15", "14", "19", "21", "22"], "time": [998, 1081, 2182, 2266, 2774, 3370, 3747, 4328, 4951, 5748, 6455, 15529]}, "edge": {"target": [], "time": []}}}, "displayed_time": "15.77", "trialTime": 16688, "trial_type": "mouselab-mdp", "trial_index": 24, "time_elapsed": 797443, "internal_node_id": "0.0-6.0-1.0-15.0"}}, {"uniqueid": "w73948659:a51724440", "current_trial": 25, "dateTime": 1693581152085, "trialdata": {"revealed_states": [], "clicked_states": ["1", "2", "3", "4", "7"], "num_clicks_accrued": [0, 0, 0, 0, 0, 0, 0, 0, 0, 0, 0, 0, 0], "stateRewards": ["", -2, -1, -4, -15, -14, -67, 32, -3, -59, 63, 31, 2, -1, -7, -15, 71, -66, -27, -3, -54, -39, 72, 2, 1, 1, -13, 77, -40, 35, -9, 35, 75, 57], "withholdReward": false, "trial_id": "mdp_trial_17", "block": "test", "trialIndex": 18, "score": 5.25, "costs": -4.75, "simulationMode": [null, null, null, null, null], "rewards": [-2, -1, -4, -15, 32], "path": ["0", "0", "1", "2", "3", "4", "7"], "rt": [8056, 68, 63, 529, 518], "actions": ["up", "up", "up", "right", "down"], "actionTimes": [9491, 10106, 10714, 11785, 12851], "queries": {"click": {"state": {"target": ["1", "2", "3", "4", "7"], "time": [2442, 3282, 3991, 4669, 5449]}, "edge": {"target": [], "time": []}}, "mouseover": {"state": {"target": ["1", "2", "2", "3", "4", "7", "6", "5", "5", "6"], "time": [2116, 2738, 3024, 3648, 4330, 5064, 5705, 6411, 6590, 8205]}, "edge": {"target": [], "time": []}}, "mouseout": {"state": {"target": ["0", "1", "2", "2", "3", "4", "7", "6", "5", "5", "6", "7"], "time": [2038, 2700, 2774, 3478, 4256, 4982, 5622, 6374, 6451, 8046, 14684, 14733]}, "edge": {"target": [], "time": []}}}, "displayed_time": "15.44", "trialTime": 16425, "trial_type": "mouselab-mdp", "trial_index": 25, "time_elapsed": 814343, "internal_node_id": "0.0-6.0-1.0-16.0"}}, {"uniqueid": "w73948659:a51724440", "current_trial": 26, "dateTime": 1693581171300, "trialdata": {"revealed_states": [], "clicked_states": ["1", "2", "3", "4", "7", "6", "5"], "num_clicks_accrued": [0, 0, 0, 0, 0, 0, 0, 0, 0, 0, 0, 0, 0], "stateRewards": ["", -2, 3, 8, -9, 59, 41, -50, -1, 82, 66, 33, 2, -2, 7, 8, 1, -38, 12, -16, 24, -37, 67, 1, 4, -2, 5, 35, -83, 28, 8, -27, 69, -64], "withholdReward": false, "trial_id": "mdp_trial_18", "block": "test", "trialIndex": 19, "score": 49.95, "costs": -9.05, "simulationMode": [null, null, null, null, null, null], "rewards": [-2, 3, 8, -9, 59], "path": ["0", "0", "1", "2", "3", "4", "5"], "rt": [10789, 391, 108, 662, 544, 590], "actions": ["up", "up", "up", "up", "right", "up"], "actionTimes": [12168, 12563, 13214, 14416, 15526, 16664], "queries": {"click": {"state": {"target": ["1", "2", "3", "4", "7", "6", "5"], "time": [2251, 2937, 3664, 4296, 4990, 8158, 11133]}, "edge": {"target": [], "time": []}}, "mouseover": {"state": {"target": ["1", "2", "3", "4", "7", "6", "5"], "time": [1766, 2595, 3403, 3977, 4594, 5391, 8970]}, "edge": {"target": [], "time": []}}, "mouseout": {"state": {"target": ["0", "1", "2", "3", "4", "7", "6"], "time": [1583, 2350, 3267, 3882, 4577, 5240, 8751]}, "edge": {"target": [], "time": []}}}, "displayed_time": "17.21", "trialTime": 18723, "trial_type": "mouselab-mdp", "trial_index": 26, "time_elapsed": 833557, "internal_node_id": "0.0-6.0-1.0-17.0"}}, {"uniqueid": "w73948659:a51724440", "current_trial": 27, "dateTime": 1693581190105, "trialdata": {"revealed_states": [], "clicked_states": ["23", "24", "25", "26", "28", "29", "27"], "num_clicks_accrued": [0, 0, 0, 0, 0, 0, 0, 0, 0, 0, 0, 0, 0], "stateRewards": ["", -2, -3, -6, -7, 9, 16, 65, 5, -41, 20, -25, -1, -4, 1, -11, -49, -4, 71, 1, 39, -62, 52, -2, -3, 7, -9, -28, -70, 84, 8, 24, -58, 82], "withholdReward": false, "trial_id": "mdp_trial_19", "block": "test", "trialIndex": 20, "score": 67.95, "costs": -9.05, "simulationMode": [null, null, null, null, null, null], "rewards": [-2, -3, 7, -9, 84], "path": ["0", "0", "23", "24", "25", "26", "29"], "rt": [11000, 236, 215, 545, 33, 539], "actions": ["left", "left", "left", "left", "up", "left"], "actionTimes": [12886, 13127, 13890, 14968, 15529, 16615], "queries": {"click": {"state": {"target": ["23", "24", "25", "26", "28", "29", "27"], "time": [3026, 3734, 4309, 4975, 5515, 8926, 11866]}, "edge": {"target": [], "time": []}}, "mouseover": {"state": {"target": ["23", "24", "25", "26", "28", "27", "29", "27"], "time": [2802, 3451, 4151, 4662, 5302, 5708, 7002, 9827]}, "edge": {"target": [], "time": []}}, "mouseout": {"state": {"target": ["5", "1", "23", "24", "25", "26", "28", "27", "29", "27"], "time": [951, 1034, 3399, 4009, 4480, 5235, 5667, 6603, 9607, 17947]}, "edge": {"target": [], "time": []}}}, "displayed_time": "17.15", "trialTime": 18333, "trial_type": "mouselab-mdp", "trial_index": 27, "time_elapsed": 852363, "internal_node_id": "0.0-6.0-1.0-18.0"}}, {"uniqueid": "w73948659:a51724440", "current_trial": 28, "dateTime": 1693581207342, "trialdata": {"revealed_states": [], "clicked_states": ["12", "13", "14", "19", "22"], "num_clicks_accrued": [0, 0, 0, 0, 0, 0, 0, 0, 0, 0, 0, 0, 0], "stateRewards": ["", 1, 2, 3, 16, 63, -25, 16, -4, -14, 82, -66, -1, -3, -3, -11, -14, 19, 46, 3, -34, -82, 66, -2, -3, 4, -5, -63, 77, -37, -1, -45, -41, 84], "withholdReward": false, "trial_id": "mdp_trial_20", "block": "test", "trialIndex": 21, "score": 57.25, "costs": -4.75, "simulationMode": [null, null, null, null, null], "rewards": [-1, -3, -3, 3, 66], "path": ["0", "0", "12", "13", "14", "19", "22"], "rt": [7095, 137, 448, 353, 620], "actions": ["right", "right", "right", "down", "left"], "actionTimes": [8754, 9422, 10411, 11312, 12468], "queries": {"click": {"state": {"target": ["12", "13", "14", "19", "22"], "time": [2590, 3289, 3858, 4490, 5096]}, "edge": {"target": [], "time": []}}, "mouseover": {"state": {"target": ["12", "13", "14", "19", "22", "21"], "time": [2390, 2955, 3503, 4184, 4782, 5556]}, "edge": {"target": [], "time": []}}, "mouseout": {"state": {"target": ["10", "1", "0", "0", "12", "13", "14", "19", "22", "21", "12"], "time": [687, 755, 839, 2272, 2921, 3463, 4058, 4743, 5286, 14010, 14194]}, "edge": {"target": [], "time": []}}}, "displayed_time": "15.66", "trialTime": 16743, "trial_type": "mouselab-mdp", "trial_index": 28, "time_elapsed": 869600, "internal_node_id": "0.0-6.0-1.0-19.0"}}, {"uniqueid": "w73948659:a51724440", "current_trial": 29, "dateTime": 1693581235349, "trialdata": {"revealed_states": [], "clicked_states": ["12", "13", "14", "15", "16", "18", "17", "20", "21"], "num_clicks_accrued": [0, 0, 0, 0, 0, 0, 0, 0, 0, 0, 0, 0, 0], "stateRewards": ["", -2, -1, -1, 5, -54, -87, 35, 2, -8, 20, -22, 1, 3, 6, 13, -75, -32, -55, -3, 56, 62, -22, -1, -4, -1, -7, -51, 84, 70, 7, -15, 5, 55], "withholdReward": false, "trial_id": "mdp_trial_21", "block": "test", "trialIndex": 22, "score": 55.65, "costs": -13.350000000000001, "simulationMode": [null, null, null, null, null], "rewards": [1, 3, 6, -3, 62], "path": ["0", "0", "12", "13", "14", "19", "21"], "rt": [20511, 188, 93, 19, 93], "actions": ["right", "right", "right", "down", "down"], "actionTimes": [21726, 22429, 23071, 23630, 24268], "queries": {"click": {"state": {"target": ["12", "13", "14", "15", "16", "18", "17", "20", "21"], "time": [2224, 2773, 3416, 4145, 5100, 8078, 10980, 14398, 17586]}, "edge": {"target": [], "time": []}}, "mouseover": {"state": {"target": ["12", "13", "14", "15", "16", "18", "17", "17", "20", "19", "21", "22"], "time": [1903, 2455, 3045, 3825, 4932, 5420, 8706, 9191, 12656, 14899, 15323, 18564]}, "edge": {"target": [], "time": []}}, "mouseout": {"state": {"target": ["12", "0", "12", "13", "14", "15", "16", "18", "17", "17", "20", "19", "21"], "time": [620, 1770, 2419, 3040, 3752, 4609, 5318, 8668, 8841, 11890, 14771, 15276, 18202]}, "edge": {"target": [], "time": []}}}, "displayed_time": "24.80", "trialTime": 27532, "trial_type": "mouselab-mdp", "trial_index": 29, "time_elapsed": 897607, "internal_node_id": "0.0-6.0-1.0-20.0"}}, {"uniqueid": "w73948659:a51724440", "current_trial": 30, "dateTime": 1693581256330, "trialdata": {"revealed_states": [], "clicked_states": ["12", "13", "14", "19", "20", "21", "22"], "num_clicks_accrued": [0, 0, 0, 0, 0, 0, 0, 0, 0, 0, 0, 0, 0], "stateRewards": ["", 2, -1, 5, 6, 10, 86, 55, 10, -45, 63, -71, 1, -2, 5, -8, -50, -72, 36, 15, 61, 12, 33, -1, -4, 6, 5, 79, -56, -21, -16, -87, 60, -81], "withholdReward": false, "trial_id": "mdp_trial_22", "block": "test", "trialIndex": 23, "score": 70.95, "costs": -9.05, "simulationMode": [null, null, null, null, null, null], "rewards": [1, -2, 5, 15, 61], "path": ["0", "0", "12", "13", "14", "19", "20"], "rt": [11084, 208, 52, 123, 348, 125], "actions": ["right", "right", "right", "right", "down", "right"], "actionTimes": [12557, 12772, 13351, 14006, 14898, 15558], "queries": {"click": {"state": {"target": ["12", "13", "14", "19", "20", "21", "22"], "time": [2609, 3211, 3816, 4481, 5243, 8300, 11763]}, "edge": {"target": [], "time": []}}, "mouseover": {"state": {"target": ["1", "12", "13", "14", "19", "20", "21", "22"], "time": [1836, 2334, 2799, 3501, 4206, 5048, 5547, 8915]}, "edge": {"target": [], "time": []}}, "mouseout": {"state": {"target": ["22", "12", "0", "1", "12", "13", "14", "19", "20", "21", "22", "14", "17"], "time": [752, 801, 1690, 1986, 2795, 3497, 4152, 4715, 5473, 8751, 17321, 17368, 18001]}, "edge": {"target": [], "time": []}}}, "displayed_time": "16.10", "trialTime": 20398, "trial_type": "mouselab-mdp", "trial_index": 30, "time_elapsed": 918589, "internal_node_id": "0.0-6.0-1.0-21.0"}}, {"uniqueid": "w73948659:a51724440", "current_trial": 31, "dateTime": 1693581283926, "trialdata": {"revealed_states": [], "clicked_states": ["17", "16", "18", "22", "21", "20"], "num_clicks_accrued": [0, 0, 0, 0, 0, 0, 0, 0, 0, 0, 0, 0, 0], "stateRewards": ["", 1, -1, 4, 5, -32, 18, 20, 6, -88, -74, 9, -2, 1, -2, -14, 34, -77, -38, -1, 80, -36, 73, 2, 3, -8, 10, -48, -73, -71, -11, -22, 20, 54], "withholdReward": false, "trial_id": "mdp_trial_23", "block": "test", "trialIndex": 24, "score": 63.1, "costs": -12.9, "simulationMode": [null, null, null, null, null, null], "rewards": [-2, 1, -2, -1, 80], "path": ["0", "0", "12", "13", "14", "19", "20"], "rt": [17548, 233, 85, 90, 803, 28], "actions": ["right", "right", "right", "right", "down", "right"], "actionTimes": [21627, 21869, 22541, 23173, 24509, 25063], "queries": {"click": {"state": {"target": ["17", "16", "18", "22", "21", "20"], "time": [4841, 7847, 10698, 13594, 16570, 19559]}, "edge": {"target": [], "time": []}}, "mouseover": {"state": {"target": ["17", "16", "18", "13", "22", "21", "20"], "time": [4610, 5160, 8656, 11496, 11740, 14527, 17102]}, "edge": {"target": [], "time": []}}, "mouseout": {"state": {"target": ["17", "12", "0", "17", "16", "18", "13", "22", "21"], "time": [3241, 3407, 4145, 5061, 8343, 11464, 11536, 13692, 16887]}, "edge": {"target": [], "time": []}}}, "displayed_time": "25.61", "trialTime": 27070, "trial_type": "mouselab-mdp", "trial_index": 31, "time_elapsed": 946184, "internal_node_id": "0.0-6.0-1.0-22.0"}}, {"uniqueid": "w73948659:a51724440", "current_trial": 32, "dateTime": 1693581317995, "trialdata": {"revealed_states": [], "clicked_states": ["5", "9", "11", "10", "7", "6", "16", "17", "18"], "num_clicks_accrued": [0, 0, 0, 0, 0, 0, 0, 0, 0, 0, 0, 0, 0], "stateRewards": ["", 2, -1, 3, -12, -83, 6, -33, 9, 28, 24, -50, -2, -1, -2, -5, -87, 37, 82, 12, 80, -5, 10, -2, -3, -6, 9, 22, -1, 16, 9, 77, -62, 58], "withholdReward": false, "trial_id": "mdp_trial_24", "block": "test", "trialIndex": 25, "score": 52.650000000000006, "costs": -19.349999999999998, "simulationMode": [null, null, null, null, null, null], "rewards": [-2, -1, -2, -5, 82], "path": ["0", "0", "12", "13", "14", "15", "18"], "rt": [26727, 284, 208, 408, 625, 573], "actions": ["right", "right", "right", "right", "up", "left"], "actionTimes": [28106, 28397, 29152, 30103, 31275, 32376], "queries": {"click": {"state": {"target": ["5", "9", "11", "10", "7", "6", "16", "17", "18"], "time": [2573, 5594, 8514, 11577, 14400, 17387, 20482, 23833, 26944]}, "edge": {"target": [], "time": []}}, "mouseover": {"state": {"target": ["10", "8", "5", "5", "9", "11", "10", "2", "7", "6", "6", "15", "17", "16", "17", "15", "18", "18"], "time": [1742, 1859, 1993, 2293, 2917, 6363, 9265, 12310, 12432, 15438, 15931, 18312, 18445, 18754, 21310, 24440, 24519, 24924]}, "edge": {"target": [], "time": []}}, "mouseout": {"state": {"target": ["20", "12", "0", "10", "8", "5", "5", "9", "9", "11", "10", "2", "7", "6", "6", "15", "17", "16", "17", "15", "18", "18"], "time": [624, 708, 1681, 1810, 1888, 2159, 2683, 5709, 6227, 9127, 12270, 12391, 14563, 15507, 18184, 18345, 18516, 21097, 24435, 24478, 24627, 30989]}, "edge": {"target": [], "time": []}}}, "displayed_time": "32.90", "trialTime": 33576, "trial_type": "mouselab-mdp", "trial_index": 32, "time_elapsed": 980254, "internal_node_id": "0.0-6.0-1.0-23.0"}}, {"uniqueid": "w73948659:a51724440", "current_trial": 33, "dateTime": 1693581334831, "trialdata": {"revealed_states": [], "clicked_states": ["1", "7"], "num_clicks_accrued": [0, 0, 0, 0, 0, 0, 0, 0, 0, 0, 0, 0, 0], "stateRewards": ["", 2, -3, -2, 14, -4, 85, 46, 15, -28, 41, 31, -1, -1, -1, 5, 62, 79, 57, 12, -73, -64, 86, -1, 1, -3, -5, 68, 11, -32, 8, -80, -21, -56], "withholdReward": false, "trial_id": "mdp_trial_25", "block": "test", "trialIndex": 26, "score": 55.1, "costs": -1.9, "simulationMode": [null, null, null, null, null], "rewards": [2, -3, -2, 14, 46], "path": ["0", "0", "1", "2", "3", "4", "7"], "rt": [5785, 56, 26, 416, 696], "actions": ["up", "up", "up", "right", "down"], "actionTimes": [7270, 7867, 8443, 9387, 10602], "queries": {"click": {"state": {"target": ["1", "7"], "time": [2447, 3316]}, "edge": {"target": [], "time": []}}, "mouseover": {"state": {"target": ["1", "2", "7", "6", "5", "6"], "time": [2180, 2780, 2922, 3857, 4588, 5153]}, "edge": {"target": [], "time": []}}, "mouseout": {"state": {"target": ["7", "0", "1", "2", "7", "6", "5"], "time": [695, 2063, 2678, 2850, 3672, 4350, 5119]}, "edge": {"target": [], "time": []}}}, "displayed_time": "15.49", "trialTime": 16285, "trial_type": "mouselab-mdp", "trial_index": 33, "time_elapsed": 997089, "internal_node_id": "0.0-6.0-1.0-24.0"}}, {"uniqueid": "w73948659:a51724440", "current_trial": 34, "dateTime": 1693581369531, "trialdata": {"revealed_states": [], "clicked_states": ["20", "21", "22", "17", "16", "18", "31", "32", "33"], "num_clicks_accrued": [0, 0, 0, 0, 0, 0, 0, 0, 0, 0, 0, 0, 0], "stateRewards": ["", 2, 3, -6, -5, -3, 55, 40, 11, 61, 11, 51, 2, -4, -6, 9, -25, 29, -15, -6, 7, -77, -2, -2, -4, 1, 14, -43, -1, 56, -12, -54, 41, -74], "withholdReward": false, "trial_id": "mdp_trial_26", "block": "test", "trialIndex": 27, "score": 4.650000000000006, "costs": -19.349999999999998, "simulationMode": [null, null, null, null, null, null], "rewards": [-2, -4, 1, -12, 41], "path": ["0", "0", "23", "24", "25", "30", "32"], "rt": [27432, 320, 116, 862, 227, 65], "actions": ["left", "left", "left", "left", "down", "down"], "actionTimes": [28928, 29256, 29912, 31293, 32043, 32643], "queries": {"click": {"state": {"target": ["20", "21", "22", "17", "16", "18", "31", "32", "33"], "time": [3090, 6119, 9152, 12239, 15162, 18006, 21001, 23809, 26709]}, "edge": {"target": [], "time": []}}, "mouseover": {"state": {"target": ["18", "14", "20", "20", "21", "22", "17", "16", "18", "23", "31", "31", "32", "33"], "time": [2123, 2442, 2708, 2957, 3544, 6961, 10052, 13044, 16071, 19102, 19303, 19379, 21560, 24645]}, "edge": {"target": [], "time": []}}, "mouseout": {"state": {"target": ["6", "2", "0", "18", "14", "20", "20", "21", "22", "17", "16", "18", "23", "31", "31", "32", "33"], "time": [673, 739, 1741, 2341, 2508, 2823, 3360, 6806, 9699, 12898, 15942, 18907, 19174, 19340, 21424, 24566, 33923]}, "edge": {"target": [], "time": []}}}, "displayed_time": "33.17", "trialTime": 34198, "trial_type": "mouselab-mdp", "trial_index": 34, "time_elapsed": 1031789, "internal_node_id": "0.0-6.0-1.0-25.0"}}, {"uniqueid": "w73948659:a51724440", "current_trial": 35, "dateTime": 1693581399473, "trialdata": {"revealed_states": [], "clicked_states": ["6", "7", "5", "16", "17", "18", "22"], "num_clicks_accrued": [0, 0, 0, 0, 0, 0, 0, 0, 0, 0, 0, 0, 0], "stateRewards": ["", -2, 2, -2, -7, -50, -62, -45, 7, 36, -24, -72, -1, -1, 8, -1, -67, 20, -52, 2, 35, -50, 80, -1, 1, 6, -6, -70, 6, 88, 8, -47, 74, -19], "withholdReward": false, "trial_id": "mdp_trial_27", "block": "test", "trialIndex": 28, "score": 72.95, "costs": -15.05, "simulationMode": [null, null, null, null, null], "rewards": [-1, -1, 8, 2, 80], "path": ["0", "0", "12", "13", "14", "19", "22"], "rt": [23144, 105, 795, 428, 383], "actions": ["right", "right", "right", "down", "left"], "actionTimes": [24379, 25017, 26332, 27297, 28228], "queries": {"click": {"state": {"target": ["6", "7", "5", "16", "17", "18", "22"], "time": [2221, 5535, 8490, 11298, 14276, 17397, 20324]}, "edge": {"target": [], "time": []}}, "mouseover": {"state": {"target": ["1", "2", "7", "6", "7", "4", "5", "16", "17", "15", "18", "13", "22", "19", "20"], "time": [1304, 1419, 1599, 1981, 2795, 5819, 6024, 9545, 12283, 14949, 14993, 18125, 18367, 20985, 21125]}, "edge": {"target": [], "time": []}}, "mouseout": {"state": {"target": ["23", "1", "2", "7", "6", "7", "4", "5", "16", "17", "15", "18", "13", "22", "19"], "time": [296, 1374, 1452, 1748, 2606, 5815, 5853, 9216, 12133, 14945, 14989, 18120, 18162, 20950, 21019]}, "edge": {"target": [], "time": []}}}, "displayed_time": "28.77", "trialTime": 29416, "trial_type": "mouselab-mdp", "trial_index": 35, "time_elapsed": 1061731, "internal_node_id": "0.0-6.0-1.0-26.0"}}, {"uniqueid": "w73948659:a51724440", "current_trial": 36, "dateTime": 1693581436733, "trialdata": {"revealed_states": [], "clicked_states": ["22", "21", "20", "17", "16", "18", "31", "32", "33", "29"], "num_clicks_accrued": [0, 0, 0, 0, 0, 0, 0, 0, 0, 0, 0, 0, 0], "stateRewards": ["", -1, 2, -6, 6, -82, -19, -39, -16, -83, 11, -33, -2, -2, 4, -6, -82, -1, -19, -6, -10, -67, -41, -2, 1, -7, 16, -23, -78, -52, 14, 31, -71, 74], "withholdReward": false, "trial_id": "mdp_trial_28", "block": "test", "trialIndex": 29, "score": 58.5, "costs": -21.499999999999996, "simulationMode": [null, null, null, null, null, null], "rewards": [-2, 1, -7, 14, 74], "path": ["0", "0", "23", "24", "25", "30", "33"], "rt": [30615, 226, 195, 619, 38, 115], "actions": ["left", "left", "left", "left", "down", "left"], "actionTimes": [32066, 32296, 33034, 34190, 34749, 35391], "queries": {"click": {"state": {"target": ["22", "21", "20", "17", "16", "18", "31", "32", "33", "29"], "time": [2401, 5936, 8974, 11954, 14984, 17855, 20811, 25219, 28087, 30995]}, "edge": {"target": [], "time": []}}, "mouseover": {"state": {"target": ["18", "14", "22", "21", "21", "20", "14", "15", "17", "16", "18", "31", "32", "31", "32", "33", "32", "33", "29"], "time": [1574, 1734, 2168, 2589, 2816, 6433, 9829, 9996, 10106, 12708, 15694, 18678, 18786, 18995, 21786, 24314, 24790, 26051, 29459]}, "edge": {"target": [], "time": []}}, "mouseout": {"state": {"target": ["20", "13", "1", "0", "18", "14", "22", "21", "21", "20", "14", "15", "17", "16", "18", "31", "32", "31", "32", "33", "32", "33"], "time": [415, 465, 683, 1112, 1634, 1818, 2585, 2626, 6208, 9618, 9931, 10030, 12517, 15592, 18600, 18711, 18852, 21480, 23948, 24765, 25303, 29135]}, "edge": {"target": [], "time": []}}}, "displayed_time": "35.93", "trialTime": 36700, "trial_type": "mouselab-mdp", "trial_index": 36, "time_elapsed": 1098992, "internal_node_id": "0.0-6.0-1.0-27.0"}}, {"uniqueid": "w73948659:a51724440", "current_trial": 37, "dateTime": 1693581478106, "trialdata": {"revealed_states": [], "clicked_states": ["20", "21", "22", "17", "16", "18", "31", "32", "33", "29", "27"], "num_clicks_accrued": [0, 0, 0, 0, 0, 0, 0, 0, 0, 0, 0, 0, 0], "stateRewards": ["", -1, -3, -7, -7, -76, 30, -49, 11, -70, 56, 2, 1, 4, -3, -14, -59, -83, -25, -9, -21, -67, -73, -2, 4, 4, -9, -11, -32, 60, 9, -87, 22, -64], "withholdReward": false, "trial_id": "mdp_trial_29", "block": "test", "trialIndex": 30, "score": 33.35000000000001, "costs": -23.649999999999995, "simulationMode": [null, null, null, null, null, null], "rewards": [-2, 4, 4, -9, 60], "path": ["0", "0", "23", "24", "25", "26", "29"], "rt": [33898, 214, 117, 81, 85, 384], "actions": ["left", "left", "left", "left", "up", "left"], "actionTimes": [35856, 36076, 36733, 37339, 37964, 38889], "queries": {"click": {"state": {"target": ["20", "21", "22", "17", "16", "18", "31", "32", "33", "29", "27"], "time": [3881, 6681, 9549, 12569, 15659, 18678, 21721, 24801, 27662, 30827, 33854]}, "edge": {"target": [], "time": []}}, "mouseover": {"state": {"target": ["12", "13", "14", "20", "21", "21", "22", "17", "16", "18", "23", "24", "30", "31", "32", "33", "25", "26", "29", "27"], "time": [2689, 3089, 3224, 3573, 4382, 4739, 7575, 10655, 13242, 16167, 19564, 19634, 19789, 20057, 22439, 25348, 29184, 29449, 29684, 31414]}, "edge": {"target": [], "time": []}}, "mouseout": {"state": {"target": ["29", "26", "28", "0", "12", "13", "14", "20", "21", "21", "22", "17", "16", "18", "23", "24", "30", "31", "32", "33", "25", "26", "29"], "time": [887, 906, 938, 1188, 2856, 3172, 3405, 4005, 4512, 7406, 10285, 12682, 15999, 19399, 19600, 19717, 20023, 22245, 25278, 29081, 29223, 29484, 31379]}, "edge": {"target": [], "time": []}}}, "displayed_time": "39.42", "trialTime": 40697, "trial_type": "mouselab-mdp", "trial_index": 37, "time_elapsed": 1140364, "internal_node_id": "0.0-6.0-1.0-28.0"}}, {"uniqueid": "w73948659:a51724440", "current_trial": 38, "dateTime": 1693581494966, "trialdata": {"revealed_states": [], "clicked_states": ["20", "21"], "num_clicks_accrued": [0, 0, 0, 0, 0, 0, 0, 0, 0, 0, 0, 0, 0], "stateRewards": ["", -2, -3, 7, -13, 60, 9, 37, -6, 37, 20, 1, 2, -2, -8, 6, -80, -31, -10, -7, 70, -65, -44, -1, 1, 7, 6, -11, 73, -85, 16, -21, 47, 34], "withholdReward": false, "trial_id": "mdp_trial_30", "block": "test", "trialIndex": 31, "score": 50.7, "costs": -4.3, "simulationMode": [null, null, null, null, null, null], "rewards": [2, -2, -8, -7, 70], "path": ["0", "0", "12", "13", "14", "19", "20"], "rt": [5118, 218, 21, 20, 52, 128], "actions": ["right", "right", "right", "right", "down", "right"], "actionTimes": [6523, 6747, 7321, 7900, 8592, 9244], "queries": {"click": {"state": {"target": ["20", "21"], "time": [2680, 5638]}, "edge": {"target": [], "time": []}}, "mouseover": {"state": {"target": ["12", "13", "19", "20", "21"], "time": [1997, 2063, 2207, 2523, 3298]}, "edge": {"target": [], "time": []}}, "mouseout": {"state": {"target": ["27", "0", "12", "13", "19", "20", "21", "21", "20"], "time": [573, 1963, 2033, 2107, 2407, 2994, 12891, 13939, 15462]}, "edge": {"target": [], "time": []}}}, "displayed_time": "15.41", "trialTime": 16328, "trial_type": "mouselab-mdp", "trial_index": 38, "time_elapsed": 1157223, "internal_node_id": "0.0-6.0-1.0-29.0"}}, {"uniqueid": "w73948659:a51724440", "current_trial": 39, "dateTime": 1693581510991, "trialdata": {"revealed_states": [], "clicked_states": ["16", "17"], "num_clicks_accrued": [0, 0, 0, 0, 0, 0, 0, 0, 0, 0, 0, 0, 0], "stateRewards": ["", 1, 3, 1, -13, 52, -28, 67, -14, 3, 63, -70, -1, -4, 7, -11, -10, 47, -18, 6, 69, -9, -61, 2, 3, -6, 10, 63, -34, 40, -6, -79, -35, -32], "withholdReward": false, "trial_id": "mdp_trial_31", "block": "test", "trialIndex": 32, "score": 33.7, "costs": -4.3, "simulationMode": [null, null, null, null, null], "rewards": [-1, -4, 7, -11, 47], "path": ["0", "0", "12", "13", "14", "15", "17"], "rt": [8104, 141, 110, 62, 61], "actions": ["right", "right", "right", "up", "right"], "actionTimes": [9496, 10176, 10828, 11430, 12031], "queries": {"click": {"state": {"target": ["16", "17"], "time": [2478, 5444]}, "edge": {"target": [], "time": []}}, "mouseover": {"state": {"target": ["16", "16", "17", "20"], "time": [2034, 2251, 3017, 6126]}, "edge": {"target": [], "time": []}}, "mouseout": {"state": {"target": ["14", "16", "16", "17"], "time": [683, 2060, 2703, 5988]}, "edge": {"target": [], "time": []}}}, "displayed_time": "15.39", "trialTime": 15468, "trial_type": "mouselab-mdp", "trial_index": 39, "time_elapsed": 1173250, "internal_node_id": "0.0-6.0-1.0-30.0"}}, {"uniqueid": "w73948659:a51724440", "current_trial": 40, "dateTime": 1693581541744, "trialdata": {"revealed_states": [], "clicked_states": ["16", "18", "6", "7", "5", "9", "11", "10"], "num_clicks_accrued": [0, 0, 0, 0, 0, 0, 0, 0, 0, 0, 0, 0, 0], "stateRewards": ["", 1, 1, 5, 6, -29, -7, 3, -16, 9, -46, 65, -1, 4, -1, -16, -63, -77, -87, 8, 80, -50, 43, -1, -1, -5, 5, -38, -71, -62, 9, 81, -50, -52], "withholdReward": false, "trial_id": "mdp_trial_32", "block": "test", "trialIndex": 33, "score": 38.8, "costs": -17.2, "simulationMode": [null, null, null, null, null, null], "rewards": [1, 1, 5, -16, 65], "path": ["0", "0", "1", "2", "3", "8", "11"], "rt": [23453, 228, 73, 501, 100, 126], "actions": ["up", "up", "up", "up", "left", "left"], "actionTimes": [25369, 25613, 26235, 27372, 28013, 28666], "queries": {"click": {"state": {"target": ["16", "18", "6", "7", "5", "9", "11", "10"], "time": [3354, 6241, 9258, 12204, 15265, 18327, 21319, 24147]}, "edge": {"target": [], "time": []}}, "mouseover": {"state": {"target": ["13", "15", "16", "18", "6", "7", "4", "5", "9", "11", "10"], "time": [2590, 2742, 3108, 3712, 6957, 9877, 12879, 13232, 16318, 18960, 21870]}, "edge": {"target": [], "time": []}}, "mouseout": {"state": {"target": ["20", "22", "12", "0", "13", "15", "16", "18", "6", "7", "4", "5", "9", "11"], "time": [857, 906, 957, 1191, 2614, 3057, 3602, 6916, 9775, 12874, 12915, 15346, 18861, 21647]}, "edge": {"target": [], "time": []}}}, "displayed_time": "29.20", "trialTime": 30295, "trial_type": "mouselab-mdp", "trial_index": 40, "time_elapsed": 1204002, "internal_node_id": "0.0-6.0-1.0-31.0"}}, {"uniqueid": "w73948659:a51724440", "current_trial": 41, "dateTime": 1693581558311, "trialdata": {"revealed_states": [], "clicked_states": ["31", "32", "33"], "num_clicks_accrued": [0, 0, 0, 0, 0, 0, 0, 0, 0, 0, 0, 0, 0], "stateRewards": ["", 2, 4, -5, 7, 81, 35, 6, 11, 14, -72, 42, -1, 2, 3, -7, -77, -44, -40, -15, -85, 51, -32, -2, -1, -5, 7, -74, 47, 52, 16, -49, 48, -46], "withholdReward": false, "trial_id": "mdp_trial_33", "block": "test", "trialIndex": 34, "score": 49.55, "costs": -6.449999999999999, "simulationMode": [null, null, null, null, null, null], "rewards": [-2, -1, -5, 16, 48], "path": ["0", "0", "23", "24", "25", "30", "32"], "rt": [9029, 236, 32, 406, 87, 52], "actions": ["left", "left", "left", "left", "down", "down"], "actionTimes": [10583, 10825, 11412, 12409, 13067, 13665], "queries": {"click": {"state": {"target": ["31", "32", "33"], "time": [2708, 5650, 8560]}, "edge": {"target": [], "time": []}}, "mouseover": {"state": {"target": ["31", "32", "33"], "time": [2411, 3126, 6539]}, "edge": {"target": [], "time": []}}, "mouseout": {"state": {"target": ["10", "0", "31", "32"], "time": [777, 2146, 2990, 6216]}, "edge": {"target": [], "time": []}}}, "displayed_time": "15.55", "trialTime": 16052, "trial_type": "mouselab-mdp", "trial_index": 41, "time_elapsed": 1220569, "internal_node_id": "0.0-6.0-1.0-32.0"}}, {"uniqueid": "w73948659:a51724440", "current_trial": 42, "dateTime": 1693581575081, "trialdata": {"revealed_states": [], "clicked_states": ["5", "7"], "num_clicks_accrued": [0, 0, 0, 0, 0, 0, 0, 0, 0, 0, 0, 0, 0], "stateRewards": ["", -2, 3, -1, -9, 44, 48, -37, -3, 71, -39, 87, -1, 3, -4, 4, -21, 59, -15, -8, -1, 28, -38, 2, 4, 4, 8, -85, -72, -63, 14, 58, 63, -46], "withholdReward": false, "trial_id": "mdp_trial_34", "block": "test", "trialIndex": 35, "score": 30.7, "costs": -4.3, "simulationMode": [null, null, null, null, null, null], "rewards": [-2, 3, -1, -9, 44], "path": ["0", "0", "1", "2", "3", "4", "5"], "rt": [5825, 218, 60, 112, 428, 190], "actions": ["up", "up", "up", "up", "right", "up"], "actionTimes": [7365, 7590, 8192, 8829, 9791, 10527], "queries": {"click": {"state": {"target": ["5", "7"], "time": [2796, 5647]}, "edge": {"target": [], "time": []}}, "mouseover": {"state": {"target": ["1", "7", "4", "5", "4", "7", "6"], "time": [1844, 1968, 2135, 2685, 3089, 3293, 6424]}, "edge": {"target": [], "time": []}}, "mouseout": {"state": {"target": ["33", "25", "1", "0", "1", "7", "4", "5", "4", "7", "6"], "time": [285, 304, 533, 1819, 1876, 2019, 2200, 3054, 3124, 6386, 12917]}, "edge": {"target": [], "time": []}}}, "displayed_time": "15.54", "trialTime": 16316, "trial_type": "mouselab-mdp", "trial_index": 42, "time_elapsed": 1237340, "internal_node_id": "0.0-6.0-1.0-33.0"}}, {"uniqueid": "w73948659:a51724440", "current_trial": 43, "dateTime": 1693581596883, "trialdata": {"revealed_states": [], "clicked_states": ["5", "6", "7", "18", "16"], "num_clicks_accrued": [0, 0, 0, 0, 0, 0, 0, 0, 0, 0, 0, 0, 0], "stateRewards": ["", 1, 1, -3, 2, 22, -25, -11, -5, 50, 49, 3, 1, -1, 8, 14, -85, -30, 57, -6, -39, -16, 59, -2, -1, 5, 5, 59, -16, 8, 4, 67, 56, -9], "withholdReward": false, "trial_id": "mdp_trial_35", "block": "test", "trialIndex": 36, "score": 68.25, "costs": -10.75, "simulationMode": [null, null, null, null, null, null], "rewards": [1, -1, 8, 14, 57], "path": ["0", "0", "12", "13", "14", "15", "18"], "rt": [13628, 168, 48, 112, 323, 443], "actions": ["right", "right", "right", "right", "up", "left"], "actionTimes": [15113, 15287, 15878, 16548, 17388, 18366], "queries": {"click": {"state": {"target": ["5", "6", "7", "18", "16"], "time": [2429, 5400, 8361, 11280, 14202]}, "edge": {"target": [], "time": []}}, "mouseover": {"state": {"target": ["7", "6", "4", "5", "6", "7", "18", "16"], "time": [1543, 1606, 1838, 2170, 2907, 6300, 9025, 11962]}, "edge": {"target": [], "time": []}}, "mouseout": {"state": {"target": ["0", "7", "6", "4", "5", "5", "6", "7", "18", "16"], "time": [1537, 1599, 1813, 2127, 2528, 2674, 6233, 8926, 11373, 14288]}, "edge": {"target": [], "time": []}}}, "displayed_time": "18.88", "trialTime": 21210, "trial_type": "mouselab-mdp", "trial_index": 43, "time_elapsed": 1259141, "internal_node_id": "0.0-6.0-1.0-34.0"}}, {"uniqueid": "w73948659:a51724440", "current_trial": 44, "dateTime": 1693581628065, "trialdata": {"revealed_states": [], "clicked_states": ["17", "20", "21", "22", "18", "16", "6", "7"], "num_clicks_accrued": [0, 0, 0, 0, 0, 0, 0, 0, 0, 0, 0, 0, 0], "stateRewards": ["", -2, -3, 8, 14, -73, 73, 84, -12, -2, -50, -17, 2, 1, -2, -9, -44, -27, -33, 16, -63, -47, -66, -2, 1, 4, -5, -33, -11, 50, 9, 38, -79, 31], "withholdReward": false, "trial_id": "mdp_trial_36", "block": "test", "trialIndex": 37, "score": 83.8, "costs": -17.2, "simulationMode": [null, null, null, null, null, null], "rewards": [-2, -3, 8, 14, 84], "path": ["0", "0", "1", "2", "3", "4", "7"], "rt": [23599, 211, 103, 555, 116, 221], "actions": ["up", "up", "up", "up", "right", "down"], "actionTimes": [25307, 25524, 26168, 27254, 27896, 28668], "queries": {"click": {"state": {"target": ["17", "20", "21", "22", "18", "16", "6", "7"], "time": [3044, 5882, 8744, 12060, 15344, 18344, 21305, 24312]}, "edge": {"target": [], "time": []}}, "mouseover": {"state": {"target": ["1", "7", "6", "16", "17", "19", "20", "21", "22", "15", "18", "16", "16", "6", "7"], "time": [1911, 2037, 2421, 2538, 2838, 3665, 3800, 6630, 9452, 12703, 13046, 16041, 16374, 18971, 22060]}, "edge": {"target": [], "time": []}}, "mouseout": {"state": {"target": ["16", "18", "12", "1", "7", "6", "16", "17", "17", "19", "20", "20", "21", "22", "15", "18", "16", "16", "6", "7", "16"], "time": [924, 1003, 1119, 1954, 2369, 2487, 2603, 3159, 3312, 3764, 5938, 6591, 9353, 12669, 12911, 16006, 16078, 18422, 21916, 29283, 29352]}, "edge": {"target": [], "time": []}}}, "displayed_time": "29.20", "trialTime": 30688, "trial_type": "mouselab-mdp", "trial_index": 44, "time_elapsed": 1290323, "internal_node_id": "0.0-6.0-1.0-35.0"}}, {"uniqueid": "w73948659:a51724440", "current_trial": 45, "dateTime": 1693581644604, "trialdata": {"revealed_states": [], "clicked_states": ["9", "11"], "num_clicks_accrued": [0, 0, 0, 0, 0, 0, 0, 0, 0, 0, 0, 0, 0], "stateRewards": ["", -1, -3, -7, -4, -85, -70, 79, 8, 84, -66, 42, 2, -2, -3, -16, -54, -66, 68, -3, 21, -14, 7, -2, -1, -3, -8, 75, 80, 86, -7, -84, 73, -16], "withholdReward": false, "trial_id": "mdp_trial_37", "block": "test", "trialIndex": 38, "score": 76.7, "costs": -4.3, "simulationMode": [null, null, null, null, null, null], "rewards": [-1, -3, -7, 8, 84], "path": ["0", "0", "1", "2", "3", "8", "9"], "rt": [5122, 324, 157, 481, 540, 454], "actions": ["up", "up", "up", "up", "left", "up"], "actionTimes": [6516, 6848, 7548, 8572, 9654, 10654], "queries": {"click": {"state": {"target": ["9", "11"], "time": [2539, 5526]}, "edge": {"target": [], "time": []}}, "mouseover": {"state": {"target": ["1", "4", "3", "8", "9", "11", "11", "8", "3"], "time": [1476, 1590, 2024, 2090, 2269, 2945, 3080, 5957, 6016]}, "edge": {"target": [], "time": []}}, "mouseout": {"state": {"target": ["6", "0", "1", "4", "3", "8", "9", "11", "11", "11", "8", "3", "10", "29"], "time": [636, 1469, 1528, 2002, 2054, 2156, 2776, 2985, 5616, 5953, 6010, 6050, 11537, 11602]}, "edge": {"target": [], "time": []}}}, "displayed_time": "15.39", "trialTime": 15898, "trial_type": "mouselab-mdp", "trial_index": 45, "time_elapsed": 1306863, "internal_node_id": "0.0-6.0-1.0-36.0"}}, {"uniqueid": "w73948659:a51724440", "current_trial": 46, "dateTime": 1693581661095, "trialdata": {"revealed_states": [], "clicked_states": ["27", "29", "28"], "num_clicks_accrued": [0, 0, 0, 0, 0, 0, 0, 0, 0, 0, 0, 0, 0], "stateRewards": ["", 2, -1, -1, 7, 11, -40, -22, -2, 69, 37, 8, -2, 4, -8, -12, -2, -72, -3, -12, 17, 63, 12, 1, 3, -7, 6, 25, 61, 61, -9, 28, -17, 27], "withholdReward": false, "trial_id": "mdp_trial_38", "block": "test", "trialIndex": 39, "score": 57.55, "costs": -6.449999999999999, "simulationMode": [null, null, null, null, null, null], "rewards": [1, 3, -7, 6, 61], "path": ["0", "0", "23", "24", "25", "26", "28"], "rt": [8749, 238, 132, 72, 162, 693], "actions": ["left", "left", "left", "left", "up", "right"], "actionTimes": [10367, 10610, 11286, 11890, 12578, 13826], "queries": {"click": {"state": {"target": ["27", "29", "28"], "time": [3151, 6177, 9091]}, "edge": {"target": [], "time": []}}, "mouseover": {"state": {"target": ["27", "27", "29", "28"], "time": [2287, 2853, 3566, 7022]}, "edge": {"target": [], "time": []}}, "mouseout": {"state": {"target": ["27", "27", "28", "23", "0", "27", "27", "29"], "time": [184, 751, 770, 850, 1667, 2418, 3459, 6731]}, "edge": {"target": [], "time": []}}}, "displayed_time": "15.62", "trialTime": 15987, "trial_type": "mouselab-mdp", "trial_index": 46, "time_elapsed": 1323353, "internal_node_id": "0.0-6.0-1.0-37.0"}}, {"uniqueid": "w73948659:a51724440", "current_trial": 47, "dateTime": 1693581677729, "trialdata": {"revealed_states": [], "clicked_states": ["33", "32"], "num_clicks_accrued": [0, 0, 0, 0, 0, 0, 0, 0, 0, 0, 0, 0, 0], "stateRewards": ["", -1, -4, -1, -5, -28, -23, -15, -15, -38, 59, -87, 2, 2, -5, 9, -55, -39, -71, -6, 85, -85, -11, -1, -2, 5, -10, 1, 25, 41, -4, 69, -35, 86], "withholdReward": false, "trial_id": "mdp_trial_39", "block": "test", "trialIndex": 40, "score": 79.7, "costs": -4.3, "simulationMode": [null, null, null, null, null, null], "rewards": [-1, -2, 5, -4, 86], "path": ["0", "0", "23", "24", "25", "30", "33"], "rt": [5280, 243, 56, 87, 107, 92], "actions": ["left", "left", "left", "left", "down", "left"], "actionTimes": [7008, 7257, 7855, 8482, 9106, 9729], "queries": {"click": {"state": {"target": ["33", "32"], "time": [2954, 6079]}, "edge": {"target": [], "time": []}}, "mouseover": {"state": {"target": ["28", "24", "31", "33", "32", "32"], "time": [1932, 2357, 2464, 2724, 3314, 3668]}, "edge": {"target": [], "time": []}}, "mouseout": {"state": {"target": ["28", "0", "28", "24", "31", "33", "32", "32"], "time": [922, 1289, 2106, 2440, 2513, 3251, 3420, 10648]}, "edge": {"target": [], "time": []}}}, "displayed_time": "15.73", "trialTime": 16113, "trial_type": "mouselab-mdp", "trial_index": 47, "time_elapsed": 1339987, "internal_node_id": "0.0-6.0-1.0-38.0"}}, {"uniqueid": "w73948659:a51724440", "current_trial": 48, "dateTime": 1693581694636, "trialdata": {"revealed_states": [], "clicked_states": ["22", "21"], "num_clicks_accrued": [0, 0, 0, 0, 0, 0, 0, 0, 0, 0, 0, 0, 0], "stateRewards": ["", -2, -3, -3, 9, 79, 67, 22, -15, -56, 27, -85, -2, 4, -4, -15, -20, -32, 60, 15, 71, 57, 17, 1, 2, -8, 15, -37, -81, 82, 15, 21, -3, 2], "withholdReward": false, "trial_id": "mdp_trial_40", "block": "test", "trialIndex": 41, "score": 65.7, "costs": -4.3, "simulationMode": [null, null, null, null, null], "rewards": [-2, 4, -4, 15, 57], "path": ["0", "0", "12", "13", "14", "19", "21"], "rt": [7891, 120, 591, 172, 119], "actions": ["right", "right", "right", "down", "down"], "actionTimes": [9382, 10049, 11201, 11909, 12565], "queries": {"click": {"state": {"target": ["22", "21"], "time": [2270, 5731]}, "edge": {"target": [], "time": []}}, "mouseover": {"state": {"target": ["22", "21", "20", "20"], "time": [2036, 2650, 6151, 6499]}, "edge": {"target": [], "time": []}}, "mouseout": {"state": {"target": ["19", "22", "13", "12", "0", "22", "21", "20"], "time": [321, 372, 602, 985, 1540, 2550, 5824, 6213]}, "edge": {"target": [], "time": []}}}, "displayed_time": "15.49", "trialTime": 16365, "trial_type": "mouselab-mdp", "trial_index": 48, "time_elapsed": 1356894, "internal_node_id": "0.0-6.0-1.0-39.0"}}, {"uniqueid": "w73948659:a51724440", "current_trial": 49, "dateTime": 1693581756087, "trialdata": {"rt": 61441, "response": {"Q0": "$-16 to 16", "Q1": "$-32 to $32", "Q2": "$-88 to $88", "Q3": "The cost for clicking on nodes varied between nodes.", "Q4": "Very motivated"}, "question_order": [0, 1, 2, 3, 4], "trial_id": "final_quiz_control", "trial_type": "survey-multi-choice", "trial_index": 49, "time_elapsed": 1418345, "internal_node_id": "0.0-6.0-2.0"}}, {"uniqueid": "w73948659:a51724440", "current_trial": 50, "dateTime": 1693581844915, "trialdata": {"rt": 88811, "response": {"Q0": "I just clicked or opened that nodes at the end, it cost more but i was able to avoid guessing alot", "Q1": "Yes, at first id randomly open nodes, but at the end i only opened nodes at the edge to save costs", "Q2": "it was easy to improve, starting out was harder"}, "trial_id": "self_report_control", "trial_type": "survey-text", "trial_index": 50, "time_elapsed": 1507174, "internal_node_id": "0.0-6.0-3.0"}}, {"uniqueid": "w73948659:a51724440", "current_trial": 51, "dateTime": 1693581904308, "trialdata": {"rt": 59383, "response": {"Q0": "Strongly disagree", "Q1": "Disagree", "Q2": "Disagree", "Q3": "Strongly agree", "Q4": "Strongly disagree", "Q5": "Strongly disagree", "Q6": "Strongly agree"}, "question_order": [0, 1, 2, 3, 4, 5, 6], "trial_id": "self_report_2", "trial_type": "survey-multi-choice", "trial_index": 51, "time_elapsed": 1566567, "internal_node_id": "0.0-6.0-4.0"}}, {"uniqueid": "w73948659:a51724440", "current_trial": 52, "dateTime": 1693581934274, "trialdata": {"rt": 29952, "response": {"gender": "male", "age": "27", "colorblind": "0", "effort": "0"}, "trial_type": "survey-html-form", "trial_index": 52, "time_elapsed": 1596533, "internal_node_id": "0.0-6.0-5.0"}}, {"uniqueid": "w73948659:a51724440", "current_trial": 53, "dateTime": 1693581991709, "trialdata": {"rt": 57423, "response": {"Q0": "just that i had 5 moves to finish and 14 seconds. i didnt see how that applied. it was just confusing to know that", "Q1": "no", "Q2": ""}, "trial_type": "survey-text", "trial_index": 53, "time_elapsed": 1653967, "internal_node_id": "0.0-6.0-6.0"}}, {"uniqueid": "w73948659:a51724440", "current_trial": 54, "dateTime": 1693582033390, "trialdata": {"rt": 41672, "stimulus": "<h1>Completion Code Instructions (1/2)</h1>\n<br><br><br><br>\nYou have reached the end of the experiment! The completion code consists of two parts: (1) a code with 2 characters (2) a code with 6 characters. On this page, you will receive the second part of the code. The first part of the completion code will be on the next page.\n<br><br>\nThe second part of your completion code is: <b>EWEK22</b>\n<br><br>\nPlease note this down. Then, press 'Next' in order to find the first part of your completion code. Once the data has been saved, you will receive this code either in this window or in the original browser window where you started the experiment.\n <br><br>\n<h2 style='color: red;'>Note: this is <strong>NOT</strong> the full completion code. Copy this down and click 'Next' to get the full completion code on the next page.</h2>", "response": 0, "trial_type": "html-button-response", "trial_index": 54, "time_elapsed": 1695648, "internal_node_id": "0.0-6.0-7.0"}}, {"uniqueid": "w73948659:a51724440", "current_trial": 55, "dateTime": 1693582034396, "trialdata": {"success": true, "trial_type": "fullscreen", "trial_index": 55, "time_elapsed": 1696654, "internal_node_id": "0.0-7.0"}}], "questiondata": {"params": {"CODE": "C6DMOQA6", "MIN_TIME": 14, "inspectCost": 1, "startTime": "Fri Sep 01 2023 16:58:54 GMT+0200 (South Africa Standard Time)", "bonusRate": 0.002, "variance": "1_2_4_8_44", "branching": "31123"}, "final_score": 1884.55}, "eventdata": [{"eventtype": "initialized", "value": null, "timestamp": 1693580333836, "interval": 0}, {"eventtype": "window_resize", "value": [1024, 668], "timestamp": 1693580333837, "interval": 1}, {"eventtype": "focus", "value": "off", "timestamp": 1693580334439, "interval": 602}, {"eventtype": "window_resize", "value": [1024, 668], "timestamp": 1693580334449, "interval": 10}, {"eventtype": "focus", "value": "on", "timestamp": 1693580338971, "interval": 4522}, {"eventtype": "window_resize", "value": [1366, 768], "timestamp": 1693580341447, "interval": 2476}, {"eventtype": "focus", "value": "off", "timestamp": 1693582024860, "interval": 1683413}, {"eventtype": "focus", "value": "on", "timestamp": 1693582027142, "interval": 2282}, {"eventtype": "focus", "value": "off", "timestamp": 1693582028282, "interval": 1140}, {"eventtype": "focus", "value": "on", "timestamp": 1693582031794, "interval": 3512}, {"eventtype": "window_resize", "value": [1024, 668], "timestamp": 1693582033657, "interval": 1863}, {"eventtype": "window_resize", "value": [1366, 304], "timestamp": 1693582039101, "interval": 5444}, {"eventtype": "window_resize", "value": [1024, 668], "timestamp": 1693582042930, "interval": 3829}, {"eventtype": "window_resize", "value": [1366, 304], "timestamp": 1693582044240, "interval": 1310}, {"eventtype": "window_resize", "value": [1366, 668], "timestamp": 1693582053751, "interval": 9511}, {"eventtype": "focus", "value": "off", "timestamp": 1693582056330, "interval": 2579}, {"eventtype": "focus", "value": "on", "timestamp": 1693582060458, "interval": 4128}], "useragent": "Mozilla/5.0 (X11; Linux x86_64) AppleWebKit/537.36 (KHTML, like Gecko) Chrome/102.0.5005.61 Safari/537.36", "mode": "live", "id": "w73948659:a51724440", "status": "user data saved", "Beginhit": "2023-09-01 14:58:47.007601", "Beginexp": "2023-09-01 14:59:02.476511", "Endhit": null, "psiturkStatus": 6, "browser": "<redacted>", "platform": "linux", "language": "en-GB", "excludeReason": "invalidClickStrats"}