{"condition": 1, "counterbalance": 0, "assignmentId": "a17974588", "workerId": "w28795148", "hitId": "h64558724", "currenttrial": 56, "bonus": 0, "data": [{"uniqueid": "w28795148:a17974588", "current_trial": 0, "dateTime": 1693580759641, "trialdata": {"success": true, "trial_type": "fullscreen", "trial_index": 0, "time_elapsed": 8944, "internal_node_id": "0.0-0.0"}}, {"uniqueid": "w28795148:a17974588", "current_trial": 1, "dateTime": 1693580776948, "trialdata": {"view_history": [{"page_index": 0, "viewing_time": 17301}], "rt": 17301, "trial_id": "exp_instructions_misaligned", "trial_type": "instructions", "trial_index": 1, "time_elapsed": 26252, "internal_node_id": "0.0-1.0"}}, {"uniqueid": "w28795148:a17974588", "current_trial": 2, "dateTime": 1693580963088, "trialdata": {"view_history": [{"page_index": 0, "viewing_time": 53335}, {"page_index": 1, "viewing_time": 31996}, {"page_index": 2, "viewing_time": 32664}, {"page_index": 3, "viewing_time": 68142}], "rt": 186137, "trial_id": "mouselab_instructions_1_misaligned", "trial_type": "instructions", "trial_index": 2, "time_elapsed": 212392, "internal_node_id": "0.0-2.0-1.0"}}, {"uniqueid": "w28795148:a17974588", "current_trial": 3, "dateTime": 1693581106188, "trialdata": {"revealed_states": [], "clicked_states": ["12", "13", "14", "15", "17", "18", "16", "19", "22", "20", "21", "1", "2", "3", "4", "7", "23", "24", "25", "26", "28", "27", "29", "30", "31", "33", "32", "10", "8", "11", "9", "5", "6"], "num_clicks_accrued": [0, 0, 0, 0, 0, 0, 0, 0, 0, 0, 0, 0, 0], "stateRewards": ["", 10, 10, -10, -10, -10, -10, -10, -10, -10, 10, -10, -10, -10, 10, 10, -10, 10, 10, 10, 10, 10, -10, -10, -10, 10, 10, 10, -10, -10, -10, -10, 10, 10], "withholdReward": false, "trial_id": "practice_1", "block": "test", "trialIndex": 0, "score": -23, "costs": -16.5, "simulationMode": [null, null, null, null, null], "rewards": [-10, -10, 10, 10, -10], "path": ["0", "0", "12", "13", "14", "15", "16"], "rt": [123021, 3511, 467, 854, 342], "actions": ["right", "right", "right", "up", "up"], "actionTimes": [129713, 133714, 134703, 136056, 136896], "queries": {"click": {"state": {"target": ["12", "13", "14", "15", "17", "18", "16", "19", "22", "20", "21", "1", "2", "3", "4", "7", "23", "24", "25", "26", "28", "27", "29", "30", "31", "33", "32", "10", "8", "11", "9", "5", "6"], "time": [7777, 8992, 12226, 14158, 15957, 25263, 28601, 36897, 38068, 39328, 40881, 47736, 50019, 52470, 53671, 55054, 56961, 58127, 59491, 60629, 61967, 64018, 65503, 67948, 69354, 70767, 72718, 74252, 75541, 77393, 78664, 80665, 83873]}, "edge": {"target": [], "time": []}}, "mouseover": {"state": {"target": ["12", "13", "14", "15", "17", "20", "21", "22", "14", "15", "17", "14", "13", "13", "18", "15", "16", "15", "13", "12", "13", "14", "15", "15", "17", "15", "18", "13", "19", "22", "20", "21", "22", "13", "14", "15", "18", "12", "1", "2", "3", "4", "7", "0", "23", "24", "25", "26", "28", "27", "29", "25", "30", "31", "33", "32", "24", "10", "8", "11", "9", "3", "5", "6", "18", "13", "22", "6", "14", "0", "12", "13", "22", "21", "21", "20", "19", "0", "12", "1", "28", "27", "27", "26", "24", "30", "24", "10", "3", "2", "12"], "time": [7509, 8491, 10008, 12808, 14744, 20593, 21044, 22031, 22393, 22895, 23178, 24077, 24110, 24413, 24797, 27462, 27930, 30661, 30928, 31012, 31395, 31861, 32412, 33296, 35564, 35646, 35746, 36095, 36525, 37665, 38948, 40365, 43414, 44051, 46031, 46349, 46415, 46717, 47131, 49650, 51887, 53369, 54583, 56018, 56301, 57803, 59091, 60237, 61542, 63437, 65119, 67021, 67422, 68688, 70371, 71906, 73354, 73521, 75255, 76188, 78089, 79458, 80273, 81140, 82340, 82440, 82523, 83642, 86023, 87008, 88975, 89074, 90161, 93734, 98659, 108463, 108495, 109081, 110249, 118114, 118633, 118932, 119548, 120497, 120580, 121681, 121898, 122398, 122650, 126998, 127098]}, "edge": {"target": [], "time": []}}, "mouseout": {"state": {"target": ["31", "30", "29", "18", "12", "0", "12", "13", "13", "12", "12", "13", "14", "15", "17", "20", "21", "22", "14", "15", "17", "14", "13", "13", "18", "15", "16", "15", "13", "12", "13", "14", "15", "15", "17", "15", "18", "13", "19", "22", "19", "20", "21", "22", "13", "14", "15", "18", "12", "1", "2", "3", "4", "7", "7", "0", "23", "24", "25", "26", "28", "27", "29", "25", "30", "31", "30", "33", "32", "31", "24", "10", "8", "11", "9", "3", "5", "6", "18", "13", "22", "6", "14", "0", "12", "13", "22", "21", "21", "20", "19", "0", "12", "1", "28", "27", "27", "26", "24", "30", "24", "10", "3", "2", "12"], "time": [null, null, null, 1161, 1446, 2892, 3023, 3073, 3972, 4207, 8193, 9709, 12641, 14544, 17361, 20726, 21278, 22110, 22459, 23031, 24018, 24093, 24211, 24445, 27297, 27494, 30595, 30728, 30961, 31378, 31829, 32313, 32783, 33312, 35614, 35696, 35848, 36112, 37483, 38881, 38931, 40148, 43231, 43448, 46000, 46081, 46399, 46448, 46784, 48917, 51537, 53136, 54267, 55101, 55901, 56235, 57636, 58855, 60020, 61455, 63088, 64619, 66602, 67153, 68489, 69955, 70155, 71391, 73221, 73321, 73371, 74924, 76089, 77739, 79323, 80008, 81040, 82139, 82389, 82473, 82590, 84775, 86073, 88958, 89040, 89108, 90194, 94509, 98776, 108479, 108561, 109145, 110979, 118146, 118663, 119165, 119847, 120530, 120615, 121798, 121913, 122482, 126966, 127031, 127115]}, "edge": {"target": [], "time": []}}}, "displayed_time": "137.39", "trialTime": 141991, "trial_type": "mouselab-mdp", "trial_index": 3, "time_elapsed": 355489, "internal_node_id": "0.0-2.0-2.0-0.0"}}, {"uniqueid": "w28795148:a17974588", "current_trial": 4, "dateTime": 1693581135304, "trialdata": {"revealed_states": [], "clicked_states": [], "num_clicks_accrued": [0, 0, 0, 0, 0, 0, 0, 0, 0, 0, 0, 0, 0], "stateRewards": ["", 10, 10, 10, 10, 10, 10, -10, 10, 10, -10, 10, 10, 10, 10, 10, -10, -10, -10, -10, 10, 10, -10, 10, -10, -10, 10, 10, -10, 10, -10, -10, 10, 10], "withholdReward": false, "trial_id": "practice_2", "block": "test", "trialIndex": 1, "score": 53.5, "costs": 0, "simulationMode": [null, null, null, null, null], "rewards": [10, 10, 10, 10, 10], "path": ["0", "0", "1", "2", "3", "4", "6"], "rt": [3201, 629, 912, 1342, 487], "actions": ["up", "up", "up", "right", "right"], "actionTimes": [11773, 12921, 14337, 16200, 17180], "queries": {"click": {"state": {"target": [], "time": []}, "edge": {"target": [], "time": []}}, "mouseover": {"state": {"target": ["12", "13", "12"], "time": [9143, 9254, 9839]}, "edge": {"target": [], "time": []}}, "mouseout": {"state": {"target": ["20", "19", "12", "12", "13", "12"], "time": [7220, 7404, 7470, 9238, 9774, 24399]}, "edge": {"target": [], "time": []}}}, "displayed_time": "17.68", "trialTime": 28826, "trial_type": "mouselab-mdp", "trial_index": 4, "time_elapsed": 384606, "internal_node_id": "0.0-2.0-2.0-1.0"}}, {"uniqueid": "w28795148:a17974588", "current_trial": 5, "dateTime": 1693581263591, "trialdata": {"view_history": [{"page_index": 0, "viewing_time": 88298}, {"page_index": 1, "viewing_time": 39977}], "rt": 128276, "trial_id": "mouselab_instructions_2_misaligned", "trial_type": "instructions", "trial_index": 5, "time_elapsed": 512895, "internal_node_id": "0.0-2.0-3.0"}}, {"uniqueid": "w28795148:a17974588", "current_trial": 6, "dateTime": 1693581350505, "trialdata": {"rt": 86909, "response": {"Q0": "The cost for clicking on nodes may vary between nodes.", "Q1": "The better I perform the higher my bonus will be.", "Q2": "No, the amount of cash at each node of the web may be different each time.", "Q3": "To get the highest total score.", "Q4": "Only before moving the spider.", "Q5": "3 seconds"}, "question_order": [0, 1, 2, 3, 4, 5], "correct": {"Q0": "The cost for clicking on nodes may vary between nodes.", "Q1": "The better I perform the higher my bonus will be.", "Q2": "No, the amount of cash at each node of the web may be different each time.", "Q3": "To get the highest total score.", "Q4": "Only before moving the spider.", "Q5": "3 seconds"}, "trial_id": "mouselab_quiz_misaligned", "trial_type": "survey-multi-choice", "trial_index": 6, "time_elapsed": 599809, "internal_node_id": "0.0-2.0-4.0"}}, {"uniqueid": "w28795148:a17974588", "current_trial": 7, "dateTime": 1693581371640, "trialdata": {"rt": 21127, "response": {"Q0": "No"}, "question_order": [0], "trial_id": "repeat_check", "trial_type": "survey-multi-choice", "trial_index": 7, "time_elapsed": 620944, "internal_node_id": "0.0-4.0-0.0"}}, {"uniqueid": "w28795148:a17974588", "current_trial": 8, "dateTime": 1693581400136, "trialdata": {"rt": 28489, "stimulus": "\n<h1> Get ready to start the game! </h1>\n\nThank you for reading the instructions. Get ready start with the 40 rounds of this game.\n<br><br>\nIf you need to take a break, feel free to take one after the end of a round, before continuing to the next one.\n<br><br>\nRemember, the more money the spider gets, the bigger your bonus will be!\n<br><br>\n<div style='text-align: center;'>Press <code>space</code> to begin.</div>\n\n<br><br>\n(If, at any point, the <code>space</code> key does not take you to the next page, click once on the text and try again.)", "response": " ", "trial_id": "mdp_ready", "trial_type": "html-keyboard-response", "trial_index": 8, "time_elapsed": 649440, "internal_node_id": "0.0-6.0-0.0"}}, {"uniqueid": "w28795148:a17974588", "current_trial": 9, "dateTime": 1693581422581, "trialdata": {"revealed_states": [], "clicked_states": [], "num_clicks_accrued": [0, 0, 0, 0, 0, 0, 0, 0, 0, 0, 0, 0, 0], "stateRewards": ["", -2, 3, -5, -7, 66, 43, -60, -4, -70, -75, 4, -1, 2, 2, -13, 54, 11, -40, -1, 77, 32, 15, -2, 3, -8, -9, -35, 83, -27, 6, -74, -34, 44], "withholdReward": false, "trial_id": "mdp_trial_1", "block": "test", "trialIndex": 2, "score": 32, "costs": 0, "simulationMode": [null, null, null, null, null], "rewards": [-2, 3, -5, -7, 43], "path": ["0", "0", "1", "2", "3", "4", "6"], "rt": [1896, 571, 425, 968, 370], "actions": ["up", "up", "up", "right", "right"], "actionTimes": [6457, 7528, 8447, 9923, 10791], "queries": {"click": {"state": {"target": [], "time": []}, "edge": {"target": [], "time": []}}, "mouseover": {"state": {"target": ["12", "13"], "time": [5068, 5103]}, "edge": {"target": [], "time": []}}, "mouseout": {"state": {"target": ["4", "0", "0", "0", "12", "13", "15", "17", "19"], "time": [3533, 3918, 4035, 4934, 5101, 5118, 15403, 15504, 17087]}, "edge": {"target": [], "time": []}}}, "displayed_time": "18.57", "trialTime": 22160, "trial_type": "mouselab-mdp", "trial_index": 9, "time_elapsed": 671885, "internal_node_id": "0.0-6.0-1.0-0.0"}}, {"uniqueid": "w28795148:a17974588", "current_trial": 10, "dateTime": 1693581440406, "trialdata": {"revealed_states": [], "clicked_states": [], "num_clicks_accrued": [0, 0, 0, 0, 0, 0, 0, 0, 0, 0, 0, 0, 0], "stateRewards": ["", 1, -3, -4, -11, -56, 61, -47, -16, -28, -9, 69, -2, -3, -4, -8, 40, -86, 59, -4, 80, 27, 54, -1, 3, -1, 8, 67, 23, 50, 6, 83, -43, -29], "withholdReward": false, "trial_id": "mdp_trial_2", "block": "test", "trialIndex": 3, "score": 32, "costs": 0, "simulationMode": [null, null, null, null, null], "rewards": [-1, 3, -1, 8, 23], "path": ["0", "0", "23", "24", "25", "26", "28"], "rt": [1820, 446, 690, 1969, 1729], "actions": ["left", "left", "left", "up", "right"], "actionTimes": [3494, 4444, 5655, 8121, 10364], "queries": {"click": {"state": {"target": [], "time": []}, "edge": {"target": [], "time": []}}, "mouseover": {"state": {"target": ["23"], "time": [2264]}, "edge": {"target": [], "time": []}}, "mouseout": {"state": {"target": ["31", "0", "23", "0", "12", "18", "15", "17"], "time": [596, 2080, 12963, 12998, 13048, 13098, 13255, 13332]}, "edge": {"target": [], "time": []}}}, "displayed_time": "15.68", "trialTime": 17516, "trial_type": "mouselab-mdp", "trial_index": 10, "time_elapsed": 689706, "internal_node_id": "0.0-6.0-1.0-1.0"}}, {"uniqueid": "w28795148:a17974588", "current_trial": 11, "dateTime": 1693581459158, "trialdata": {"revealed_states": [], "clicked_states": [], "num_clicks_accrued": [0, 0, 0, 0, 0, 0, 0, 0, 0, 0, 0, 0, 0], "stateRewards": ["", 2, 3, -1, 16, -78, -11, 46, 2, -20, 79, -67, 2, 3, 2, 11, -83, -42, -58, -11, -67, -22, 55, 2, -1, -1, -16, -83, -82, 23, -11, -29, 13, 13], "withholdReward": false, "trial_id": "mdp_trial_3", "block": "test", "trialIndex": 4, "score": -14, "costs": 0, "simulationMode": [null, null, null, null, null], "rewards": [2, 3, -1, 2, -20], "path": ["0", "0", "1", "2", "3", "8", "9"], "rt": [2166, 461, 985, 1344, 764], "actions": ["up", "up", "up", "left", "up"], "actionTimes": [4222, 5181, 6687, 8531, 9787], "queries": {"click": {"state": {"target": [], "time": []}, "edge": {"target": [], "time": []}}, "mouseover": {"state": {"target": [], "time": []}, "edge": {"target": [], "time": []}}, "mouseout": {"state": {"target": ["20", "13", "12", "0", "14", "22"], "time": [932, 1115, 1199, 11870, 17403, 17637]}, "edge": {"target": [], "time": []}}}, "displayed_time": "16.06", "trialTime": 18443, "trial_type": "mouselab-mdp", "trial_index": 11, "time_elapsed": 708462, "internal_node_id": "0.0-6.0-1.0-2.0"}}, {"uniqueid": "w28795148:a17974588", "current_trial": 12, "dateTime": 1693581480084, "trialdata": {"revealed_states": [], "clicked_states": [], "num_clicks_accrued": [0, 0, 0, 0, 0, 0, 0, 0, 0, 0, 0, 0, 0], "stateRewards": ["", -2, 2, -5, 1, 42, -63, -58, -6, 2, 16, 81, -2, 4, 7, -10, 33, 3, -33, -2, -52, -84, -27, 2, -3, -3, 15, -74, -14, -5, -5, -84, 79, -31], "withholdReward": false, "trial_id": "mdp_trial_4", "block": "test", "trialIndex": 5, "score": -20, "costs": 0, "simulationMode": [null, null, null, null, null], "rewards": [-2, 4, 7, -2, -27], "path": ["0", "0", "12", "13", "14", "19", "22"], "rt": [2458, 401, 717, 1743, 756], "actions": ["right", "right", "right", "down", "left"], "actionTimes": [6037, 6955, 8174, 10415, 11663], "queries": {"click": {"state": {"target": [], "time": []}, "edge": {"target": [], "time": []}}, "mouseover": {"state": {"target": ["0", "12"], "time": [4754, 4952]}, "edge": {"target": [], "time": []}}, "mouseout": {"state": {"target": ["17", "15", "23", "23", "0", "0", "12", "13", "15", "17", "14", "19"], "time": [2484, 2501, 2685, 2884, 4369, 4869, 13286, 13320, 13454, 18589, 18921, 19038]}, "edge": {"target": [], "time": []}}}, "displayed_time": "17.59", "trialTime": 20600, "trial_type": "mouselab-mdp", "trial_index": 12, "time_elapsed": 729387, "internal_node_id": "0.0-6.0-1.0-3.0"}}, {"uniqueid": "w28795148:a17974588", "current_trial": 13, "dateTime": 1693581498924, "trialdata": {"revealed_states": [], "clicked_states": [], "num_clicks_accrued": [0, 0, 0, 0, 0, 0, 0, 0, 0, 0, 0, 0, 0], "stateRewards": ["", -2, -1, -6, -14, -55, 78, -13, 11, 14, -71, 59, 2, 2, 6, -6, 9, 38, 14, 7, 85, 11, 68, 1, -4, -1, -3, -63, -85, 9, -2, 63, -86, -10], "withholdReward": false, "trial_id": "mdp_trial_5", "block": "test", "trialIndex": 6, "score": -16, "costs": 0, "simulationMode": [null, null, null, null, null], "rewards": [1, -4, -1, -2, -10], "path": ["0", "0", "23", "24", "25", "30", "33"], "rt": [3318, 666, 633, 659, 1689], "actions": ["left", "left", "left", "down", "left"], "actionTimes": [5782, 6952, 8103, 9279, 11477], "queries": {"click": {"state": {"target": [], "time": []}, "edge": {"target": [], "time": []}}, "mouseover": {"state": {"target": ["0", "12"], "time": [3293, 3484]}, "edge": {"target": [], "time": []}}, "mouseout": {"state": {"target": ["0", "0", "12", "20", "21"], "time": [2541, 3333, 3617, 13201, 17371]}, "edge": {"target": [], "time": []}}}, "displayed_time": "16.46", "trialTime": 18511, "trial_type": "mouselab-mdp", "trial_index": 13, "time_elapsed": 748225, "internal_node_id": "0.0-6.0-1.0-4.0"}}, {"uniqueid": "w28795148:a17974588", "current_trial": 14, "dateTime": 1693581517421, "trialdata": {"revealed_states": [], "clicked_states": [], "num_clicks_accrued": [0, 0, 0, 0, 0, 0, 0, 0, 0, 0, 0, 0, 0], "stateRewards": ["", -1, -3, 1, 13, -64, -29, 12, -4, -33, 50, 56, 2, -3, 4, 11, -64, -58, -55, 12, 47, 38, -25, -2, 2, 5, -15, 85, 7, 84, 10, 8, 57, 26], "withholdReward": false, "trial_id": "mdp_trial_6", "block": "test", "trialIndex": 7, "score": 43, "costs": 0, "simulationMode": [null, null, null, null, null], "rewards": [-1, -3, 1, -4, 50], "path": ["0", "0", "1", "2", "3", "8", "10"], "rt": [2085, 407, 434, 961, 1530], "actions": ["up", "up", "up", "left", "down"], "actionTimes": [4252, 5161, 6090, 7552, 9585], "queries": {"click": {"state": {"target": [], "time": []}, "edge": {"target": [], "time": []}}, "mouseover": {"state": {"target": [], "time": []}, "edge": {"target": [], "time": []}}, "mouseout": {"state": {"target": ["0", "19", "20"], "time": [2793, 10669, 10686]}, "edge": {"target": [], "time": []}}}, "displayed_time": "16.17", "trialTime": 18157, "trial_type": "mouselab-mdp", "trial_index": 14, "time_elapsed": 766723, "internal_node_id": "0.0-6.0-1.0-5.0"}}, {"uniqueid": "w28795148:a17974588", "current_trial": 15, "dateTime": 1693581535732, "trialdata": {"revealed_states": [], "clicked_states": [], "num_clicks_accrued": [0, 0, 0, 0, 0, 0, 0, 0, 0, 0, 0, 0, 0], "stateRewards": ["", -2, -3, -7, 7, -54, -69, -4, -14, -77, 22, 40, -2, -1, 5, 6, -35, 50, -60, 10, -28, 75, 57, 1, -4, -2, 2, 68, 34, -18, 12, 3, -21, -43], "withholdReward": false, "trial_id": "mdp_trial_7", "block": "test", "trialIndex": 8, "score": -27, "costs": 0, "simulationMode": [null, null, null, null, null], "rewards": [-2, -1, 5, 6, -35], "path": ["0", "0", "12", "13", "14", "15", "16"], "rt": [1925, 453, 647, 914, 350], "actions": ["right", "right", "right", "up", "up"], "actionTimes": [3727, 4696, 5859, 7292, 8163], "queries": {"click": {"state": {"target": [], "time": []}, "edge": {"target": [], "time": []}}, "mouseover": {"state": {"target": ["12"], "time": [2379]}, "edge": {"target": [], "time": []}}, "mouseout": {"state": {"target": ["0", "12", "13", "19", "20"], "time": [1290, 9109, 9143, 9192, 9209]}, "edge": {"target": [], "time": []}}}, "displayed_time": "15.81", "trialTime": 17954, "trial_type": "mouselab-mdp", "trial_index": 15, "time_elapsed": 785035, "internal_node_id": "0.0-6.0-1.0-6.0"}}, {"uniqueid": "w28795148:a17974588", "current_trial": 16, "dateTime": 1693581556339, "trialdata": {"revealed_states": [], "clicked_states": [], "num_clicks_accrued": [0, 0, 0, 0, 0, 0, 0, 0, 0, 0, 0, 0, 0], "stateRewards": ["", -1, 2, 6, 11, 21, -21, -21, -6, 48, -71, 88, -1, -3, 3, 7, 64, 2, 9, -4, 37, -67, 72, 2, 2, -8, -8, -10, 71, -40, -3, 73, 80, 47], "withholdReward": false, "trial_id": "mdp_trial_8", "block": "test", "trialIndex": 9, "score": -3, "costs": 0, "simulationMode": [null, null, null, null, null], "rewards": [-1, 2, 6, 11, -21], "path": ["0", "0", "1", "2", "3", "4", "6"], "rt": [2107, 453, 340, 822, 318], "actions": ["up", "up", "up", "right", "right"], "actionTimes": [4549, 5502, 6355, 7672, 8501], "queries": {"click": {"state": {"target": [], "time": []}, "edge": {"target": [], "time": []}}, "mouseover": {"state": {"target": [], "time": []}, "edge": {"target": [], "time": []}}, "mouseout": {"state": {"target": ["20", "19", "12", "0", "12", "13", "14"], "time": [1144, 1177, 1628, 10120, 10146, 10179, 10246]}, "edge": {"target": [], "time": []}}}, "displayed_time": "16.45", "trialTime": 20263, "trial_type": "mouselab-mdp", "trial_index": 16, "time_elapsed": 805642, "internal_node_id": "0.0-6.0-1.0-7.0"}}, {"uniqueid": "w28795148:a17974588", "current_trial": 17, "dateTime": 1693581581670, "trialdata": {"revealed_states": [], "clicked_states": [], "num_clicks_accrued": [0, 0, 0, 0, 0, 0, 0, 0, 0, 0, 0, 0, 0], "stateRewards": ["", -1, 1, 8, -3, -24, 11, -65, -6, -77, 48, 44, -2, 1, -2, -7, -55, -35, 33, 8, -28, 19, -53, -1, -1, -5, -5, -70, 10, 44, 8, -58, -70, 51], "withholdReward": false, "trial_id": "mdp_trial_9", "block": "test", "trialIndex": 10, "score": 24, "costs": 0, "simulationMode": [null, null, null, null, null], "rewards": [-2, 1, -2, 8, 19], "path": ["0", "0", "12", "13", "14", "19", "21"], "rt": [2286, 599, 895, 995, 257], "actions": ["right", "right", "right", "down", "down"], "actionTimes": [11616, 12737, 14151, 15651, 16414], "queries": {"click": {"state": {"target": [], "time": []}, "edge": {"target": [], "time": []}}, "mouseover": {"state": {"target": ["12"], "time": [10169]}, "edge": {"target": [], "time": []}}, "mouseout": {"state": {"target": ["13", "12", "0", "0", "12", "12"], "time": [7769, 7902, 8053, 10153, 10370, 17904]}, "edge": {"target": [], "time": []}}}, "displayed_time": "23.33", "trialTime": 24979, "trial_type": "mouselab-mdp", "trial_index": 17, "time_elapsed": 830974, "internal_node_id": "0.0-6.0-1.0-8.0"}}, {"uniqueid": "w28795148:a17974588", "current_trial": 18, "dateTime": 1693581600945, "trialdata": {"revealed_states": [], "clicked_states": [], "num_clicks_accrued": [0, 0, 0, 0, 0, 0, 0, 0, 0, 0, 0, 0, 0], "stateRewards": ["", -1, -3, -5, -14, -13, -47, 79, 8, -60, -64, 41, -1, 2, 3, 13, -46, 61, -79, -11, -64, -65, 23, 1, -2, 6, -14, 46, 32, 21, 7, 75, -66, 15], "withholdReward": false, "trial_id": "mdp_trial_10", "block": "test", "trialIndex": 11, "score": 12, "costs": 0, "simulationMode": [null, null, null, null, null], "rewards": [1, -2, 6, -14, 21], "path": ["0", "0", "23", "24", "25", "26", "29"], "rt": [1390, 581, 744, 2564, 593], "actions": ["left", "left", "left", "up", "left"], "actionTimes": [3115, 4193, 5437, 8493, 9587], "queries": {"click": {"state": {"target": [], "time": []}, "edge": {"target": [], "time": []}}, "mouseover": {"state": {"target": [], "time": []}, "edge": {"target": [], "time": []}}, "mouseout": {"state": {"target": ["12", "0", "12", "13", "20"], "time": [1075, 11492, 11525, 11575, 11675]}, "edge": {"target": [], "time": []}}}, "displayed_time": "15.73", "trialTime": 18921, "trial_type": "mouselab-mdp", "trial_index": 18, "time_elapsed": 850248, "internal_node_id": "0.0-6.0-1.0-9.0"}}, {"uniqueid": "w28795148:a17974588", "current_trial": 19, "dateTime": 1693581656609, "trialdata": {"revealed_states": [], "clicked_states": [], "num_clicks_accrued": [0, 0, 0, 0, 0, 0, 0, 0, 0, 0, 0, 0, 0], "stateRewards": ["", 1, 2, -3, 6, -88, 74, -45, 7, -46, 40, -77, 1, -4, 4, 3, 22, -25, -59, 8, -83, 19, -60, -1, -1, -1, -8, 26, -29, 64, -7, -88, -51, -55], "withholdReward": false, "trial_id": "mdp_trial_11", "block": "test", "trialIndex": 12, "score": -74, "costs": 0, "simulationMode": [null, null, null, null, null], "rewards": [1, -4, 4, 8, -83], "path": ["0", "0", "12", "13", "14", "19", "20"], "rt": [1547, 380, 454, 711, 1006], "actions": ["right", "right", "right", "down", "right"], "actionTimes": [39904, 40786, 41744, 42967, 44494], "queries": {"click": {"state": {"target": [], "time": []}, "edge": {"target": [], "time": []}}, "mouseover": {"state": {"target": [], "time": []}, "edge": {"target": [], "time": []}}, "mouseout": {"state": {"target": ["20", "19", "0", "12", "13", "13", "14"], "time": [36767, 36850, 46070, 46153, 46219, 46486, 46502]}, "edge": {"target": [], "time": []}}}, "displayed_time": "52.36", "trialTime": 55302, "trial_type": "mouselab-mdp", "trial_index": 19, "time_elapsed": 905913, "internal_node_id": "0.0-6.0-1.0-10.0"}}, {"uniqueid": "w28795148:a17974588", "current_trial": 20, "dateTime": 1693581675574, "trialdata": {"revealed_states": [], "clicked_states": [], "num_clicks_accrued": [0, 0, 0, 0, 0, 0, 0, 0, 0, 0, 0, 0, 0], "stateRewards": ["", -2, 2, 3, -7, 76, 63, 21, 15, 35, -8, -44, 1, 1, -2, -12, 23, 24, 76, -9, 46, 66, -49, -2, -1, 7, 12, 40, -71, -45, -6, 38, -49, 46], "withholdReward": false, "trial_id": "mdp_trial_12", "block": "test", "trialIndex": 13, "score": -29, "costs": 0, "simulationMode": [null, null, null, null, null], "rewards": [-2, -1, 7, 12, -45], "path": ["0", "0", "23", "24", "25", "26", "29"], "rt": [3797, 447, 383, 1131, 947], "actions": ["left", "left", "left", "up", "left"], "actionTimes": [6563, 7528, 8431, 10081, 11545], "queries": {"click": {"state": {"target": [], "time": []}, "edge": {"target": [], "time": []}}, "mouseover": {"state": {"target": ["0"], "time": [5745]}, "edge": {"target": [], "time": []}}, "mouseout": {"state": {"target": ["21", "23", "0", "0", "18", "15", "17"], "time": [1560, 2094, 4288, 13263, 13379, 13430, 13679]}, "edge": {"target": [], "time": []}}}, "displayed_time": "16.77", "trialTime": 18604, "trial_type": "mouselab-mdp", "trial_index": 20, "time_elapsed": 924877, "internal_node_id": "0.0-6.0-1.0-11.0"}}, {"uniqueid": "w28795148:a17974588", "current_trial": 21, "dateTime": 1693581694277, "trialdata": {"revealed_states": [], "clicked_states": ["1"], "num_clicks_accrued": [0, 0, 0, 0, 0, 0, 0, 0, 0, 0, 0, 0, 0], "stateRewards": ["", -2, 4, -7, -3, -76, 39, -28, 10, 14, 12, 60, 2, -3, 6, -10, 88, -34, -41, -3, 72, -13, -56, 1, 3, 2, 8, -51, 23, -57, 1, 14, -46, -16], "withholdReward": false, "trial_id": "mdp_trial_13", "block": "test", "trialIndex": 14, "score": 83.25, "costs": 0.25, "simulationMode": [null, null, null, null, null], "rewards": [2, -3, 6, -10, 88], "path": ["0", "0", "12", "13", "14", "15", "16"], "rt": [5322, 557, 478, 795, 285], "actions": ["right", "right", "right", "up", "up"], "actionTimes": [7584, 8650, 9621, 10937, 11726], "queries": {"click": {"state": {"target": ["1"], "time": [3957]}, "edge": {"target": [], "time": []}}, "mouseover": {"state": {"target": ["1", "0", "12"], "time": [3373, 5674, 6039]}, "edge": {"target": [], "time": []}}, "mouseout": {"state": {"target": ["17", "15", "12", "1", "0", "12", "14"], "time": [1172, 1222, 1404, 5174, 5988, 13173, 13223]}, "edge": {"target": [], "time": []}}}, "displayed_time": "16.27", "trialTime": 18334, "trial_type": "mouselab-mdp", "trial_index": 21, "time_elapsed": 943580, "internal_node_id": "0.0-6.0-1.0-12.0"}}, {"uniqueid": "w28795148:a17974588", "current_trial": 22, "dateTime": 1693581714016, "trialdata": {"revealed_states": [], "clicked_states": ["23"], "num_clicks_accrued": [0, 0, 0, 0, 0, 0, 0, 0, 0, 0, 0, 0, 0], "stateRewards": ["", 1, -4, -6, 11, -20, 8, -30, 1, -38, 88, 42, 2, 3, 5, -12, -8, -74, 30, -8, 67, -19, 42, 2, -1, 4, 13, 50, -68, 2, -8, -15, 87, -46], "withholdReward": false, "trial_id": "mdp_trial_14", "block": "test", "trialIndex": 15, "score": -17.75, "costs": 0.25, "simulationMode": [null, null, null, null, null], "rewards": [1, -4, -6, 11, -20], "path": ["0", "0", "1", "2", "3", "4", "5"], "rt": [4950, 418, 365, 1122, 626], "actions": ["up", "up", "up", "right", "up"], "actionTimes": [8666, 9582, 10447, 12069, 13193], "queries": {"click": {"state": {"target": ["23"], "time": [5913]}, "edge": {"target": [], "time": []}}, "mouseover": {"state": {"target": ["23", "0", "12", "22", "19"], "time": [5444, 6748, 6815, 6946, 7295]}, "edge": {"target": [], "time": []}}, "mouseout": {"state": {"target": ["19", "0", "0", "23", "0", "12", "22", "19"], "time": [2542, 2676, 5294, 6084, 6779, 6865, 6980, 14912]}, "edge": {"target": [], "time": []}}}, "displayed_time": "17.72", "trialTime": 19391, "trial_type": "mouselab-mdp", "trial_index": 22, "time_elapsed": 963319, "internal_node_id": "0.0-6.0-1.0-13.0"}}, {"uniqueid": "w28795148:a17974588", "current_trial": 23, "dateTime": 1693581747312, "trialdata": {"revealed_states": [], "clicked_states": [], "num_clicks_accrued": [0, 0, 0, 0, 0, 0, 0, 0, 0, 0, 0, 0, 0], "stateRewards": ["", -2, -1, -3, -1, -78, -6, 2, -1, 22, -88, 32, 2, 2, -7, -8, -51, -17, 54, 2, -44, 54, 75, 2, -2, -8, -15, -29, 12, -67, 15, -1, -47, -47], "withholdReward": false, "trial_id": "mdp_trial_15", "block": "test", "trialIndex": 16, "score": -52, "costs": 0, "simulationMode": [null, null, null, null, null], "rewards": [2, -2, -8, -15, -29], "path": ["0", "0", "23", "24", "25", "26", "27"], "rt": [1872, 425, 407, 1313, 434], "actions": ["left", "left", "left", "up", "up"], "actionTimes": [4007, 4934, 5835, 7641, 8580], "queries": {"click": {"state": {"target": [], "time": []}, "edge": {"target": [], "time": []}}, "mouseover": {"state": {"target": ["0"], "time": [2973]}, "edge": {"target": [], "time": []}}, "mouseout": {"state": {"target": ["31", "0", "0", "14", "12"], "time": [1223, 1722, 3039, 10091, 25278]}, "edge": {"target": [], "time": []}}}, "displayed_time": "16.14", "trialTime": 32826, "trial_type": "mouselab-mdp", "trial_index": 23, "time_elapsed": 996615, "internal_node_id": "0.0-6.0-1.0-14.0"}}, {"uniqueid": "w28795148:a17974588", "current_trial": 24, "dateTime": 1693581768441, "trialdata": {"revealed_states": [], "clicked_states": ["27"], "num_clicks_accrued": [0, 0, 0, 0, 0, 0, 0, 0, 0, 0, 0, 0, 0], "stateRewards": ["", 1, 1, -6, -2, 7, 77, 3, 16, -16, 66, 31, -1, 3, -8, -6, 33, -50, -48, 7, -60, -66, 36, 2, -3, 3, -7, -12, -61, -79, -4, 8, 74, -70], "withholdReward": false, "trial_id": "mdp_trial_16", "block": "test", "trialIndex": 17, "score": 69.85, "costs": -2.15, "simulationMode": [null, null, null, null, null], "rewards": [2, -3, 3, -4, 74], "path": ["0", "0", "23", "24", "25", "30", "32"], "rt": [4833, 453, 401, 831, 336], "actions": ["left", "left", "left", "down", "down"], "actionTimes": [7405, 8365, 9281, 10611, 11449], "queries": {"click": {"state": {"target": ["27"], "time": [4572]}, "edge": {"target": [], "time": []}}, "mouseover": {"state": {"target": ["23", "28", "27", "26", "23", "12"], "time": [3674, 3741, 4124, 5927, 6026, 6427]}, "edge": {"target": [], "time": []}}, "mouseout": {"state": {"target": ["20", "19", "22", "0", "23", "28", "27", "26", "23", "12", "17"], "time": [1590, 1639, 1690, 3642, 3692, 3791, 5677, 5960, 6178, 6477, 13293]}, "edge": {"target": [], "time": []}}}, "displayed_time": "16.58", "trialTime": 20765, "trial_type": "mouselab-mdp", "trial_index": 24, "time_elapsed": 1017744, "internal_node_id": "0.0-6.0-1.0-15.0"}}, {"uniqueid": "w28795148:a17974588", "current_trial": 25, "dateTime": 1693581820937, "trialdata": {"revealed_states": [], "clicked_states": [], "num_clicks_accrued": [0, 0, 0, 0, 0, 0, 0, 0, 0, 0, 0, 0, 0], "stateRewards": ["", -1, -4, -6, -15, 21, -67, -63, 9, 51, 69, -14, -1, 3, 8, -8, 39, 72, 63, 15, 19, 47, 15, 1, 4, 5, 16, -18, 34, 35, -14, -80, 40, 1], "withholdReward": false, "trial_id": "mdp_trial_17", "block": "test", "trialIndex": 18, "score": 67, "costs": 0, "simulationMode": [null, null, null, null, null], "rewards": [-1, -4, -6, 9, 69], "path": ["0", "0", "1", "2", "3", "8", "10"], "rt": [1664, 273, 325, 896, 764], "actions": ["up", "up", "up", "left", "down"], "actionTimes": [38108, 38887, 39709, 41096, 42380], "queries": {"click": {"state": {"target": [], "time": []}, "edge": {"target": [], "time": []}}, "mouseover": {"state": {"target": [], "time": []}, "edge": {"target": [], "time": []}}, "mouseout": {"state": {"target": ["17", "15", "18", "12", "0", "0", "12", "15"], "time": [2256, 2304, 2337, 2754, 3238, 44263, 44312, 44396]}, "edge": {"target": [], "time": []}}}, "displayed_time": "50.45", "trialTime": 52137, "trial_type": "mouselab-mdp", "trial_index": 25, "time_elapsed": 1070241, "internal_node_id": "0.0-6.0-1.0-16.0"}}, {"uniqueid": "w28795148:a17974588", "current_trial": 26, "dateTime": 1693581839581, "trialdata": {"revealed_states": [], "clicked_states": [], "num_clicks_accrued": [0, 0, 0, 0, 0, 0, 0, 0, 0, 0, 0, 0, 0], "stateRewards": ["", 1, -1, 8, 4, 76, -33, -17, -3, -1, -54, -74, -2, 2, -5, 13, -51, 63, 83, 1, 84, 29, -36, 2, -1, 7, -12, -10, -44, -43, -14, 8, -69, 19], "withholdReward": false, "trial_id": "mdp_trial_18", "block": "test", "trialIndex": 19, "score": 2, "costs": 0, "simulationMode": [null, null, null, null, null], "rewards": [2, -1, 7, -14, 8], "path": ["0", "0", "23", "24", "25", "30", "31"], "rt": [1461, 337, 515, 663, 1049], "actions": ["left", "left", "left", "down", "right"], "actionTimes": [3961, 4798, 5810, 6974, 8526], "queries": {"click": {"state": {"target": [], "time": []}, "edge": {"target": [], "time": []}}, "mouseover": {"state": {"target": [], "time": []}, "edge": {"target": [], "time": []}}, "mouseout": {"state": {"target": ["17", "15", "0", "20"], "time": [1207, 1257, 10045, 10159]}, "edge": {"target": [], "time": []}}}, "displayed_time": "16.50", "trialTime": 18259, "trial_type": "mouselab-mdp", "trial_index": 26, "time_elapsed": 1088884, "internal_node_id": "0.0-6.0-1.0-17.0"}}, {"uniqueid": "w28795148:a17974588", "current_trial": 27, "dateTime": 1693581858046, "trialdata": {"revealed_states": [], "clicked_states": [], "num_clicks_accrued": [0, 0, 0, 0, 0, 0, 0, 0, 0, 0, 0, 0, 0], "stateRewards": ["", -1, -2, -8, 8, -27, -82, 19, -14, -62, 4, 1, -2, 2, 6, 10, 73, -51, -2, 2, 73, -48, 54, -1, 2, -4, 11, -25, 47, 86, 15, 33, 43, -42], "withholdReward": false, "trial_id": "mdp_trial_19", "block": "test", "trialIndex": 20, "score": -40, "costs": 0, "simulationMode": [null, null, null, null, null], "rewards": [-2, 2, 6, 2, -48], "path": ["0", "0", "12", "13", "14", "19", "21"], "rt": [4085, 357, 516, 730, 238], "actions": ["right", "right", "right", "down", "down"], "actionTimes": [6667, 7524, 8535, 9764, 10505], "queries": {"click": {"state": {"target": [], "time": []}, "edge": {"target": [], "time": []}}, "mouseover": {"state": {"target": [], "time": []}, "edge": {"target": [], "time": []}}, "mouseout": {"state": {"target": ["13", "12", "0", "0", "12"], "time": [1112, 1413, 1745, 11855, 11868]}, "edge": {"target": [], "time": []}}}, "displayed_time": "16.58", "trialTime": 18075, "trial_type": "mouselab-mdp", "trial_index": 27, "time_elapsed": 1107349, "internal_node_id": "0.0-6.0-1.0-18.0"}}, {"uniqueid": "w28795148:a17974588", "current_trial": 28, "dateTime": 1693581892113, "trialdata": {"revealed_states": [], "clicked_states": [], "num_clicks_accrued": [0, 0, 0, 0, 0, 0, 0, 0, 0, 0, 0, 0, 0], "stateRewards": ["", 2, 3, -1, 6, 44, -4, -59, -14, -3, 64, 16, 1, -3, 3, 6, 3, 49, 19, 3, -49, -14, -86, 1, 2, -3, -8, -33, 14, 32, -13, -77, -47, -67], "withholdReward": false, "trial_id": "mdp_trial_20", "block": "test", "trialIndex": 21, "score": 10, "costs": 0, "simulationMode": [null, null, null, null, null], "rewards": [1, -3, 3, 6, 3], "path": ["0", "0", "12", "13", "14", "15", "16"], "rt": [3981, 297, 376, 619, 103], "actions": ["right", "right", "right", "up", "up"], "actionTimes": [21812, 22607, 23487, 24597, 25199], "queries": {"click": {"state": {"target": [], "time": []}, "edge": {"target": [], "time": []}}, "mouseover": {"state": {"target": ["1", "2", "13", "14", "13", "12", "12"], "time": [18307, 18390, 19341, 19424, 19824, 19957, 20331]}, "edge": {"target": [], "time": []}}, "mouseout": {"state": {"target": ["14", "13", "12", "0", "1", "2", "13", "14", "13", "12", "12", "14", "17"], "time": [16739, 16855, 17006, 18255, 18324, 18942, 19391, 19740, 19890, 20139, 27577, 27609, 27659]}, "edge": {"target": [], "time": []}}}, "displayed_time": "31.83", "trialTime": 33672, "trial_type": "mouselab-mdp", "trial_index": 28, "time_elapsed": 1141414, "internal_node_id": "0.0-6.0-1.0-19.0"}}, {"uniqueid": "w28795148:a17974588", "current_trial": 29, "dateTime": 1693582016684, "trialdata": {"revealed_states": [], "clicked_states": [], "num_clicks_accrued": [0, 0, 0, 0, 0, 0, 0, 0, 0, 0, 0, 0, 0], "stateRewards": ["", 1, 4, -8, -5, -15, -7, 21, 13, -30, 40, -65, 1, 1, 5, -14, 35, 27, -38, -11, 36, -58, -47, -2, 4, -3, 13, -16, -49, 22, 15, -56, -44, -10], "withholdReward": false, "trial_id": "mdp_trial_21", "block": "test", "trialIndex": 22, "score": -20, "costs": 0, "simulationMode": [null, null, null, null, null], "rewards": [1, 4, -8, 13, -30], "path": ["0", "0", "1", "2", "3", "8", "9"], "rt": [7550, 626, 315, 612, 264], "actions": ["up", "up", "up", "left", "up"], "actionTimes": [115358, 116482, 117318, 118449, 119219], "queries": {"click": {"state": {"target": [], "time": []}, "edge": {"target": [], "time": []}}, "mouseover": {"state": {"target": ["13", "1"], "time": [109731, 110149]}, "edge": {"target": [], "time": []}}, "mouseout": {"state": {"target": ["13", "13", "15", "23", "23", "0", "13", "1"], "time": [2075, 3277, 106430, 106880, 106998, 108418, 109765, 121068]}, "edge": {"target": [], "time": []}}}, "displayed_time": "121.81", "trialTime": 124166, "trial_type": "mouselab-mdp", "trial_index": 29, "time_elapsed": 1265988, "internal_node_id": "0.0-6.0-1.0-20.0"}}, {"uniqueid": "w28795148:a17974588", "current_trial": 30, "dateTime": 1693582035171, "trialdata": {"revealed_states": [], "clicked_states": ["2"], "num_clicks_accrued": [0, 0, 0, 0, 0, 0, 0, 0, 0, 0, 0, 0, 0], "stateRewards": ["", -2, 2, -4, -4, -59, 88, 62, -3, 69, -15, -34, 1, -2, -5, 7, -54, -20, 78, -16, -74, -53, -21, 2, -4, 2, 13, -8, -44, 26, 9, 72, 4, 17], "withholdReward": false, "trial_id": "mdp_trial_22", "block": "test", "trialIndex": 23, "score": 79.65, "costs": -0.35, "simulationMode": [null, null, null, null, null], "rewards": [-2, 2, -4, -4, 88], "path": ["0", "0", "1", "2", "3", "4", "6"], "rt": [3141, 473, 515, 826, 731], "actions": ["up", "up", "up", "right", "right"], "actionTimes": [5641, 6610, 7619, 8963, 10217], "queries": {"click": {"state": {"target": ["2"], "time": [3836]}, "edge": {"target": [], "time": []}}, "mouseover": {"state": {"target": ["1", "2", "20"], "time": [2981, 3382, 4584]}, "edge": {"target": [], "time": []}}, "mouseout": {"state": {"target": ["0", "0", "1", "2", "20"], "time": [1649, 2514, 3048, 4467, 4601]}, "edge": {"target": [], "time": []}}}, "displayed_time": "16.50", "trialTime": 18078, "trial_type": "mouselab-mdp", "trial_index": 30, "time_elapsed": 1284474, "internal_node_id": "0.0-6.0-1.0-21.0"}}, {"uniqueid": "w28795148:a17974588", "current_trial": 31, "dateTime": 1693582056316, "trialdata": {"revealed_states": [], "clicked_states": [], "num_clicks_accrued": [0, 0, 0, 0, 0, 0, 0, 0, 0, 0, 0, 0, 0], "stateRewards": ["", -2, -3, 8, 14, -73, 73, 84, -12, -2, -50, -17, 2, 1, -2, -9, -44, -27, -33, 16, -63, -47, -66, -2, 1, 4, -5, -33, -11, 50, 9, 38, -79, 31], "withholdReward": false, "trial_id": "mdp_trial_23", "block": "test", "trialIndex": 24, "score": 48, "costs": 0, "simulationMode": [null, null, null, null, null], "rewards": [-2, 1, 4, -5, 50], "path": ["0", "0", "23", "24", "25", "26", "29"], "rt": [1889, 469, 386, 681, 755], "actions": ["left", "left", "left", "up", "left"], "actionTimes": [3854, 4825, 5709, 6904, 8160], "queries": {"click": {"state": {"target": [], "time": []}, "edge": {"target": [], "time": []}}, "mouseover": {"state": {"target": ["23", "0"], "time": [2641, 2886]}, "edge": {"target": [], "time": []}}, "mouseout": {"state": {"target": ["0", "23", "0"], "time": [2505, 2871, 2902]}, "edge": {"target": [], "time": []}}}, "displayed_time": "15.97", "trialTime": 20743, "trial_type": "mouselab-mdp", "trial_index": 31, "time_elapsed": 1305619, "internal_node_id": "0.0-6.0-1.0-22.0"}}, {"uniqueid": "w28795148:a17974588", "current_trial": 32, "dateTime": 1693582076351, "trialdata": {"revealed_states": [], "clicked_states": [], "num_clicks_accrued": [0, 0, 0, 0, 0, 0, 0, 0, 0, 0, 0, 0, 0], "stateRewards": ["", -2, 1, -8, 12, -65, -79, 16, 7, -80, -17, -45, -2, 2, -5, -2, -85, 23, -4, -7, 48, 27, -76, 2, 3, 5, 2, 43, 71, -13, 7, -49, 59, -31], "withholdReward": false, "trial_id": "mdp_trial_24", "block": "test", "trialIndex": 25, "score": -76, "costs": 0, "simulationMode": [null, null, null, null, null], "rewards": [-2, 1, -8, 12, -79], "path": ["0", "0", "1", "2", "3", "4", "6"], "rt": [2525, 188, 307, 703, 179], "actions": ["up", "up", "up", "right", "right"], "actionTimes": [5165, 5867, 6670, 7883, 8575], "queries": {"click": {"state": {"target": [], "time": []}, "edge": {"target": [], "time": []}}, "mouseover": {"state": {"target": [], "time": []}, "edge": {"target": [], "time": []}}, "mouseout": {"state": {"target": ["14", "13", "12", "23", "0", "13"], "time": [1074, 1190, 1224, 1542, 10094, 10126]}, "edge": {"target": [], "time": []}}}, "displayed_time": "16.64", "trialTime": 19627, "trial_type": "mouselab-mdp", "trial_index": 32, "time_elapsed": 1325655, "internal_node_id": "0.0-6.0-1.0-23.0"}}, {"uniqueid": "w28795148:a17974588", "current_trial": 33, "dateTime": 1693582106546, "trialdata": {"revealed_states": [], "clicked_states": [], "num_clicks_accrued": [0, 0, 0, 0, 0, 0, 0, 0, 0, 0, 0, 0, 0], "stateRewards": ["", 2, -3, 5, 11, -79, 54, 11, -9, -78, 33, 22, -2, -1, 2, 14, 43, 34, 1, 10, 49, -65, 39, -1, 1, -1, 3, -16, -2, 11, 2, 12, 48, -65], "withholdReward": false, "trial_id": "mdp_trial_25", "block": "test", "trialIndex": 26, "score": 69, "costs": 0, "simulationMode": [null, null, null, null, null], "rewards": [2, -3, 5, 11, 54], "path": ["0", "0", "1", "2", "3", "4", "6"], "rt": [3216, 479, 447, 927, 257], "actions": ["up", "up", "up", "right", "right"], "actionTimes": [17598, 18576, 19525, 20972, 21721], "queries": {"click": {"state": {"target": [], "time": []}, "edge": {"target": [], "time": []}}, "mouseover": {"state": {"target": ["1", "1", "12"], "time": [14925, 15494, 16058]}, "edge": {"target": [], "time": []}}, "mouseout": {"state": {"target": ["20", "19", "22", "0", "1", "1", "12"], "time": [1304, 1422, 1522, 13797, 15144, 16025, 16092]}, "edge": {"target": [], "time": []}}}, "displayed_time": "28.39", "trialTime": 29782, "trial_type": "mouselab-mdp", "trial_index": 33, "time_elapsed": 1355849, "internal_node_id": "0.0-6.0-1.0-24.0"}}, {"uniqueid": "w28795148:a17974588", "current_trial": 34, "dateTime": 1693582194754, "trialdata": {"revealed_states": [], "clicked_states": [], "num_clicks_accrued": [0, 0, 0, 0, 0, 0, 0, 0, 0, 0, 0, 0, 0], "stateRewards": ["", -1, 1, -6, -1, 80, 23, 2, -11, 73, -81, 59, 1, 3, 5, -1, -26, 28, -3, 16, -59, -13, -50, -2, -2, 2, 15, -50, 86, 17, -4, 37, 35, 44], "withholdReward": false, "trial_id": "mdp_trial_26", "block": "test", "trialIndex": 27, "score": -34, "costs": 0, "simulationMode": [null, null, null, null, null], "rewards": [1, 3, 5, 16, -59], "path": ["0", "0", "12", "13", "14", "19", "20"], "rt": [2348, 239, 560, 694, 634], "actions": ["right", "right", "right", "down", "right"], "actionTimes": [74543, 75284, 76336, 77552, 78694], "queries": {"click": {"state": {"target": [], "time": []}, "edge": {"target": [], "time": []}}, "mouseover": {"state": {"target": ["0", "12"], "time": [72980, 73306]}, "edge": {"target": [], "time": []}}, "mouseout": {"state": {"target": ["21", "0", "0", "12", "22", "19"], "time": [71037, 71320, 73021, 73324, 83908, 83941]}, "edge": {"target": [], "time": []}}}, "displayed_time": "86.20", "trialTime": 87784, "trial_type": "mouselab-mdp", "trial_index": 34, "time_elapsed": 1444058, "internal_node_id": "0.0-6.0-1.0-25.0"}}, {"uniqueid": "w28795148:a17974588", "current_trial": 35, "dateTime": 1693582256957, "trialdata": {"revealed_states": [], "clicked_states": [], "num_clicks_accrued": [0, 0, 0, 0, 0, 0, 0, 0, 0, 0, 0, 0, 0], "stateRewards": ["", 1, -2, -3, 14, -42, -87, -37, -11, -50, 33, -44, -2, 4, -7, 13, 48, -75, -66, 12, 23, -2, 82, 1, -4, 3, 12, 51, -15, -26, -11, -52, -29, 82], "withholdReward": false, "trial_id": "mdp_trial_27", "block": "test", "trialIndex": 28, "score": 56, "costs": 0, "simulationMode": [null, null, null, null, null], "rewards": [-2, 4, -7, 13, 48], "path": ["0", "0", "12", "13", "14", "15", "16"], "rt": [3462, 402, 321, 800, 421], "actions": ["right", "right", "right", "up", "up"], "actionTimes": [36385, 37290, 38110, 39423, 40344], "queries": {"click": {"state": {"target": [], "time": []}, "edge": {"target": [], "time": []}}, "mouseover": {"state": {"target": ["0", "12", "12"], "time": [33735, 33968, 34675]}, "edge": {"target": [], "time": []}}, "mouseout": {"state": {"target": ["13", "12", "0", "12", "12", "13"], "time": [31517, 31749, 33768, 34018, 42148, 42161]}, "edge": {"target": [], "time": []}}}, "displayed_time": "46.92", "trialTime": 61785, "trial_type": "mouselab-mdp", "trial_index": 35, "time_elapsed": 1506258, "internal_node_id": "0.0-6.0-1.0-26.0"}}, {"uniqueid": "w28795148:a17974588", "current_trial": 36, "dateTime": 1693582281803, "trialdata": {"revealed_states": [], "clicked_states": ["1"], "num_clicks_accrued": [0, 0, 0, 0, 0, 0, 0, 0, 0, 0, 0, 0, 0], "stateRewards": ["", -1, 1, -5, -6, -78, 47, -13, 12, 48, -88, 20, 2, -3, -2, 13, -20, 37, -57, 14, -38, 30, 31, -2, -2, 8, 2, -23, 78, 28, 12, -74, -88, 8], "withholdReward": false, "trial_id": "mdp_trial_28", "block": "test", "trialIndex": 29, "score": -88.75, "costs": 0.25, "simulationMode": [null, null, null, null, null], "rewards": [-1, 1, -5, -6, -78], "path": ["0", "0", "1", "2", "3", "4", "5"], "rt": [2776, 285, 291, 780, 779], "actions": ["up", "up", "up", "right", "up"], "actionTimes": [5119, 5902, 6689, 7962, 9243], "queries": {"click": {"state": {"target": ["1"], "time": [3492]}, "edge": {"target": [], "time": []}}, "mouseover": {"state": {"target": ["1", "18"], "time": [2715, 4162]}, "edge": {"target": [], "time": []}}, "mouseout": {"state": {"target": ["21", "0", "1", "18"], "time": [679, 2412, 4067, 4179]}, "edge": {"target": [], "time": []}}}, "displayed_time": "16.35", "trialTime": 24403, "trial_type": "mouselab-mdp", "trial_index": 36, "time_elapsed": 1531107, "internal_node_id": "0.0-6.0-1.0-27.0"}}, {"uniqueid": "w28795148:a17974588", "current_trial": 37, "dateTime": 1693582300319, "trialdata": {"revealed_states": [], "clicked_states": [], "num_clicks_accrued": [0, 0, 0, 0, 0, 0, 0, 0, 0, 0, 0, 0, 0], "stateRewards": ["", 2, 3, 6, -12, -29, 12, 87, 4, 35, -30, 67, 2, 3, -5, -9, 44, 69, -8, 1, 45, -8, 28, -2, -1, -8, 11, -12, -5, 81, 9, 87, 82, 88], "withholdReward": false, "trial_id": "mdp_trial_29", "block": "test", "trialIndex": 30, "score": 80, "costs": 0, "simulationMode": [null, null, null, null, null], "rewards": [-2, -1, -8, 9, 82], "path": ["0", "0", "23", "24", "25", "30", "32"], "rt": [2023, 262, 290, 605, 193], "actions": ["left", "left", "left", "down", "down"], "actionTimes": [4628, 5388, 6182, 7282, 7970], "queries": {"click": {"state": {"target": [], "time": []}, "edge": {"target": [], "time": []}}, "mouseover": {"state": {"target": ["0", "0"], "time": [2907, 3054]}, "edge": {"target": [], "time": []}}, "mouseout": {"state": {"target": ["12", "0", "0", "0", "0", "0", "22", "19", "20"], "time": [1554, 2070, 2816, 3025, 3138, 11823, 11957, 12023, 12090]}, "edge": {"target": [], "time": []}}}, "displayed_time": "16.61", "trialTime": 18093, "trial_type": "mouselab-mdp", "trial_index": 37, "time_elapsed": 1549623, "internal_node_id": "0.0-6.0-1.0-28.0"}}, {"uniqueid": "w28795148:a17974588", "current_trial": 38, "dateTime": 1693582318672, "trialdata": {"revealed_states": [], "clicked_states": ["12"], "num_clicks_accrued": [0, 0, 0, 0, 0, 0, 0, 0, 0, 0, 0, 0, 0], "stateRewards": ["", 1, 3, 1, -13, 52, -28, 67, -14, 3, 63, -70, -1, -4, 7, -11, -10, 47, -18, 6, 69, -9, -61, 2, 3, -6, 10, 63, -34, 40, -6, -79, -35, -32], "withholdReward": false, "trial_id": "mdp_trial_30", "block": "test", "trialIndex": 31, "score": -26.75, "costs": 0.25, "simulationMode": [null, null, null, null, null], "rewards": [-1, -4, 7, -11, -18], "path": ["0", "0", "12", "13", "14", "15", "18"], "rt": [3006, 418, 470, 606, 734], "actions": ["right", "right", "right", "up", "left"], "actionTimes": [5289, 6199, 7168, 8271, 9500], "queries": {"click": {"state": {"target": ["12"], "time": [3730]}, "edge": {"target": [], "time": []}}, "mouseover": {"state": {"target": ["12", "13"], "time": [3160, 4347]}, "edge": {"target": [], "time": []}}, "mouseout": {"state": {"target": ["14", "13", "12", "0", "12", "13"], "time": [1078, 1160, 1276, 3132, 4262, 4428]}, "edge": {"target": [], "time": []}}}, "displayed_time": "16.29", "trialTime": 17929, "trial_type": "mouselab-mdp", "trial_index": 38, "time_elapsed": 1567974, "internal_node_id": "0.0-6.0-1.0-29.0"}}, {"uniqueid": "w28795148:a17974588", "current_trial": 39, "dateTime": 1693582337411, "trialdata": {"revealed_states": [], "clicked_states": [], "num_clicks_accrued": [0, 0, 0, 0, 0, 0, 0, 0, 0, 0, 0, 0, 0], "stateRewards": ["", 1, -4, 6, -3, 40, 76, -51, 5, -24, -63, 44, -2, -2, 8, 1, 76, -85, -58, 10, 59, 20, 11, -2, 3, -3, 3, -82, -10, 54, -7, -57, -6, -32], "withholdReward": false, "trial_id": "mdp_trial_31", "block": "test", "trialIndex": 32, "score": 76, "costs": 0, "simulationMode": [null, null, null, null, null], "rewards": [1, -4, 6, -3, 76], "path": ["0", "0", "1", "2", "3", "4", "6"], "rt": [1514, 77, 674, 771, 339], "actions": ["up", "up", "up", "right", "right"], "actionTimes": [4084, 4666, 5863, 7128, 7978], "queries": {"click": {"state": {"target": [], "time": []}, "edge": {"target": [], "time": []}}, "mouseover": {"state": {"target": [], "time": []}, "edge": {"target": [], "time": []}}, "mouseout": {"state": {"target": ["0", "13"], "time": [9386, 9403]}, "edge": {"target": [], "time": []}}}, "displayed_time": "16.57", "trialTime": 18306, "trial_type": "mouselab-mdp", "trial_index": 39, "time_elapsed": 1586714, "internal_node_id": "0.0-6.0-1.0-30.0"}}, {"uniqueid": "w28795148:a17974588", "current_trial": 40, "dateTime": 1693582357224, "trialdata": {"revealed_states": [], "clicked_states": [], "num_clicks_accrued": [0, 0, 0, 0, 0, 0, 0, 0, 0, 0, 0, 0, 0], "stateRewards": ["", 2, -3, -5, 5, 11, -9, -33, 6, 67, 6, -30, -1, -2, -6, 13, 55, 13, 72, -14, 75, 21, -66, -2, -4, 6, 15, -1, -35, 60, 2, 51, -73, 12], "withholdReward": false, "trial_id": "mdp_trial_32", "block": "test", "trialIndex": 33, "score": 6, "costs": 0, "simulationMode": [null, null, null, null, null], "rewards": [2, -3, -5, 6, 6], "path": ["0", "0", "1", "2", "3", "8", "10"], "rt": [1924, 225, 326, 694, 885], "actions": ["up", "up", "up", "left", "down"], "actionTimes": [3866, 4596, 5434, 6632, 8010], "queries": {"click": {"state": {"target": [], "time": []}, "edge": {"target": [], "time": []}}, "mouseover": {"state": {"target": [], "time": []}, "edge": {"target": [], "time": []}}, "mouseout": {"state": {"target": ["21", "22", "0", "12", "13", "14"], "time": [937, 1036, 2822, 12955, 13070, 13104]}, "edge": {"target": [], "time": []}}}, "displayed_time": "15.94", "trialTime": 19381, "trial_type": "mouselab-mdp", "trial_index": 40, "time_elapsed": 1606526, "internal_node_id": "0.0-6.0-1.0-31.0"}}, {"uniqueid": "w28795148:a17974588", "current_trial": 41, "dateTime": 1693582415592, "trialdata": {"revealed_states": [], "clicked_states": ["12"], "num_clicks_accrued": [0, 0, 0, 0, 0, 0, 0, 0, 0, 0, 0, 0, 0], "stateRewards": ["", -1, -3, -6, -2, -7, 80, -45, -3, -38, -72, 76, 2, 1, 7, 4, -62, 14, -74, 14, -87, -21, -88, -2, 1, -7, -10, 66, 56, -76, 10, -29, -72, -70], "withholdReward": false, "trial_id": "mdp_trial_33", "block": "test", "trialIndex": 34, "score": -62.75, "costs": 0.25, "simulationMode": [null, null, null, null, null], "rewards": [2, 1, 7, 14, -87], "path": ["0", "0", "12", "13", "14", "19", "20"], "rt": [3079, 308, 347, 778, 587], "actions": ["right", "right", "right", "down", "right"], "actionTimes": [44839, 45651, 46508, 47787, 48881], "queries": {"click": {"state": {"target": ["12"], "time": [43160]}, "edge": {"target": [], "time": []}}, "mouseover": {"state": {"target": ["0", "0", "12", "13", "19"], "time": [42186, 42243, 42941, 43611, 43659]}, "edge": {"target": [], "time": []}}, "mouseout": {"state": {"target": ["14", "13", "12", "0", "0", "0", "1", "1", "1", "1", "0", "0", "12", "13", "19", "20"], "time": [2947, 3063, 3396, 8915, 9450, 13819, 29870, 30487, 31239, 37480, 42227, 42658, 43591, 43627, 43692, 50690]}, "edge": {"target": [], "time": []}}}, "displayed_time": "55.77", "trialTime": 57929, "trial_type": "mouselab-mdp", "trial_index": 41, "time_elapsed": 1664895, "internal_node_id": "0.0-6.0-1.0-32.0"}}, {"uniqueid": "w28795148:a17974588", "current_trial": 42, "dateTime": 1693582433996, "trialdata": {"revealed_states": [], "clicked_states": [], "num_clicks_accrued": [0, 0, 0, 0, 0, 0, 0, 0, 0, 0, 0, 0, 0], "stateRewards": ["", 1, 2, -3, -6, 50, -7, 7, -7, -80, 21, -1, 2, 2, 4, -1, 33, 84, 1, 14, -53, 81, 6, -2, -2, -3, -9, -87, -38, -59, -5, -74, -3, -71], "withholdReward": false, "trial_id": "mdp_trial_34", "block": "test", "trialIndex": 35, "score": -8, "costs": 0, "simulationMode": [null, null, null, null, null], "rewards": [1, 2, -3, -7, -1], "path": ["0", "0", "1", "2", "3", "8", "11"], "rt": [1563, 97, 2840, 977, 131], "actions": ["up", "up", "up", "left", "left"], "actionTimes": [3390, 3994, 7364, 8841, 9483], "queries": {"click": {"state": {"target": [], "time": []}, "edge": {"target": [], "time": []}}, "mouseover": {"state": {"target": ["18", "15", "17"], "time": [2594, 2659, 2759]}, "edge": {"target": [], "time": []}}, "mouseout": {"state": {"target": ["0", "18", "15", "17", "14", "22", "21"], "time": [1141, 2626, 2709, 2775, 5277, 5662, 10211]}, "edge": {"target": [], "time": []}}}, "displayed_time": "15.83", "trialTime": 17980, "trial_type": "mouselab-mdp", "trial_index": 42, "time_elapsed": 1683299, "internal_node_id": "0.0-6.0-1.0-33.0"}}, {"uniqueid": "w28795148:a17974588", "current_trial": 43, "dateTime": 1693582453068, "trialdata": {"revealed_states": [], "clicked_states": ["12", "13", "14", "15"], "num_clicks_accrued": [0, 0, 0, 0, 0, 0, 0, 0, 0, 0, 0, 0, 0], "stateRewards": ["", 2, 4, -5, 7, 81, 35, 6, 11, 14, -72, 42, -1, 2, 3, -7, -77, -44, -40, -15, -85, 51, -32, -2, -1, -5, 7, -74, 47, 52, 16, -49, 48, -46], "withholdReward": false, "trial_id": "mdp_trial_35", "block": "test", "trialIndex": 36, "score": -77.6, "costs": -2.5999999999999996, "simulationMode": [null, null, null, null, null], "rewards": [-2, -1, -5, 7, -74], "path": ["0", "0", "23", "24", "25", "26", "27"], "rt": [7172, 65, 286, 874, 67], "actions": ["left", "left", "left", "up", "up"], "actionTimes": [9892, 10451, 11239, 12611, 13171], "queries": {"click": {"state": {"target": ["12", "13", "14", "15"], "time": [4147, 4960, 6107, 7486]}, "edge": {"target": [], "time": []}}, "mouseover": {"state": {"target": ["12", "13", "14", "15"], "time": [3932, 4731, 5419, 7157]}, "edge": {"target": [], "time": []}}, "mouseout": {"state": {"target": ["14", "13", "12", "12", "13", "14", "15", "15", "14", "14", "21"], "time": [865, 1148, 1413, 4483, 5283, 6433, 7883, 8217, 8383, 8573, 17334]}, "edge": {"target": [], "time": []}}}, "displayed_time": "16.72", "trialTime": 18635, "trial_type": "mouselab-mdp", "trial_index": 43, "time_elapsed": 1702372, "internal_node_id": "0.0-6.0-1.0-34.0"}}, {"uniqueid": "w28795148:a17974588", "current_trial": 44, "dateTime": 1693582470925, "trialdata": {"revealed_states": [], "clicked_states": [], "num_clicks_accrued": [0, 0, 0, 0, 0, 0, 0, 0, 0, 0, 0, 0, 0], "stateRewards": ["", -2, -4, 2, 10, -17, 18, 73, 11, -32, 23, -13, -2, -4, 7, 12, -25, 66, -23, 15, 40, -76, -9, 1, 2, -7, -5, -20, 24, 3, -5, 16, -73, 70], "withholdReward": false, "trial_id": "mdp_trial_36", "block": "test", "trialIndex": 37, "score": -11, "costs": 0, "simulationMode": [null, null, null, null, null], "rewards": [-2, -4, 2, 10, -17], "path": ["0", "0", "1", "2", "3", "4", "5"], "rt": [1289, 83, 212, 748, 940], "actions": ["up", "up", "up", "right", "up"], "actionTimes": [2944, 3524, 4235, 5508, 6947], "queries": {"click": {"state": {"target": [], "time": []}, "edge": {"target": [], "time": []}}, "mouseover": {"state": {"target": ["0"], "time": [1686]}, "edge": {"target": [], "time": []}}, "mouseout": {"state": {"target": ["0", "0", "22"], "time": [1202, 1730, 7936]}, "edge": {"target": [], "time": []}}}, "displayed_time": "15.66", "trialTime": 17440, "trial_type": "mouselab-mdp", "trial_index": 44, "time_elapsed": 1720227, "internal_node_id": "0.0-6.0-1.0-35.0"}}, {"uniqueid": "w28795148:a17974588", "current_trial": 45, "dateTime": 1693582489229, "trialdata": {"revealed_states": [], "clicked_states": [], "num_clicks_accrued": [0, 0, 0, 0, 0, 0, 0, 0, 0, 0, 0, 0, 0], "stateRewards": ["", 2, -3, -2, 14, -4, 85, 46, 15, -28, 41, 31, -1, -1, -1, 5, 62, 79, 57, 12, -73, -64, 86, -1, 1, -3, -5, 68, 11, -32, 8, -80, -21, -56], "withholdReward": false, "trial_id": "mdp_trial_37", "block": "test", "trialIndex": 38, "score": 96, "costs": 0, "simulationMode": [null, null, null, null, null], "rewards": [2, -3, -2, 14, 85], "path": ["0", "0", "1", "2", "3", "4", "6"], "rt": [1196, 2029, 47, 490, 73], "actions": ["up", "up", "up", "right", "right"], "actionTimes": [3566, 6106, 6656, 7649, 8218], "queries": {"click": {"state": {"target": [], "time": []}, "edge": {"target": [], "time": []}}, "mouseover": {"state": {"target": ["0"], "time": [2385]}, "edge": {"target": [], "time": []}}, "mouseout": {"state": {"target": ["14", "0", "0", "18", "17"], "time": [1057, 2022, 2398, 9958, 10009]}, "edge": {"target": [], "time": []}}}, "displayed_time": "16.37", "trialTime": 17861, "trial_type": "mouselab-mdp", "trial_index": 45, "time_elapsed": 1738530, "internal_node_id": "0.0-6.0-1.0-36.0"}}, {"uniqueid": "w28795148:a17974588", "current_trial": 46, "dateTime": 1693582509436, "trialdata": {"revealed_states": [], "clicked_states": [], "num_clicks_accrued": [0, 0, 0, 0, 0, 0, 0, 0, 0, 0, 0, 0, 0], "stateRewards": ["", -1, -1, 7, -15, -43, -21, -84, -9, -45, -66, 2, 1, -2, 2, 8, -27, 44, -52, -5, -84, 11, 53, 1, 4, -4, 16, 83, -82, -15, -16, 68, -43, 81], "withholdReward": false, "trial_id": "mdp_trial_38", "block": "test", "trialIndex": 39, "score": -65, "costs": 0, "simulationMode": [null, null, null, null, null], "rewards": [1, 4, -4, 16, -82], "path": ["0", "0", "23", "24", "25", "26", "28"], "rt": [1656, 143, 153, 590, 560], "actions": ["left", "left", "left", "up", "right"], "actionTimes": [4377, 5022, 5683, 6770, 7851], "queries": {"click": {"state": {"target": [], "time": []}, "edge": {"target": [], "time": []}}, "mouseover": {"state": {"target": [], "time": []}, "edge": {"target": [], "time": []}}, "mouseout": {"state": {"target": ["17", "14", "13", "12", "0", "12"], "time": [1258, 1358, 1524, 1591, 12610, 12625]}, "edge": {"target": [], "time": []}}}, "displayed_time": "16.73", "trialTime": 19770, "trial_type": "mouselab-mdp", "trial_index": 46, "time_elapsed": 1758740, "internal_node_id": "0.0-6.0-1.0-37.0"}}, {"uniqueid": "w28795148:a17974588", "current_trial": 47, "dateTime": 1693582535283, "trialdata": {"revealed_states": [], "clicked_states": [], "num_clicks_accrued": [0, 0, 0, 0, 0, 0, 0, 0, 0, 0, 0, 0, 0], "stateRewards": ["", -2, -4, 6, 14, -34, 49, 36, -8, -3, 32, -4, 1, -2, 1, -8, -20, -71, -57, -7, -86, -62, -16, -2, -3, -5, 11, 23, -21, 53, 5, -5, 85, 73], "withholdReward": false, "trial_id": "mdp_trial_39", "block": "test", "trialIndex": 40, "score": -28, "costs": 0, "simulationMode": [null, null, null, null, null], "rewards": [1, -2, 1, -8, -20], "path": ["0", "0", "12", "13", "14", "15", "16"], "rt": [6141, 90, 133, 518, 19], "actions": ["right", "right", "right", "up", "up"], "actionTimes": [15977, 16573, 17217, 18236, 18753], "queries": {"click": {"state": {"target": [], "time": []}, "edge": {"target": [], "time": []}}, "mouseover": {"state": {"target": [], "time": []}, "edge": {"target": [], "time": []}}, "mouseout": {"state": {"target": ["12", "0"], "time": [8644, 20031]}, "edge": {"target": [], "time": []}}}, "displayed_time": "23.84", "trialTime": 25411, "trial_type": "mouselab-mdp", "trial_index": 47, "time_elapsed": 1784584, "internal_node_id": "0.0-6.0-1.0-38.0"}}, {"uniqueid": "w28795148:a17974588", "current_trial": 48, "dateTime": 1693582553240, "trialdata": {"revealed_states": [], "clicked_states": [], "num_clicks_accrued": [0, 0, 0, 0, 0, 0, 0, 0, 0, 0, 0, 0, 0], "stateRewards": ["", 2, -1, 1, 10, -52, 86, -22, -2, -14, -63, 38, 1, 3, 7, -8, 11, -32, -27, 9, -71, 40, -87, -2, -1, 5, -7, 12, 31, -57, 13, 86, -58, 29], "withholdReward": false, "trial_id": "mdp_trial_40", "block": "test", "trialIndex": 41, "score": -40, "costs": 0, "simulationMode": [null, null, null, null, null], "rewards": [2, -1, 1, 10, -52], "path": ["0", "0", "1", "2", "3", "4", "5"], "rt": [1365, 848, 217, 446, 874], "actions": ["up", "up", "up", "right", "up"], "actionTimes": [3131, 4496, 5215, 6163, 7558], "queries": {"click": {"state": {"target": [], "time": []}, "edge": {"target": [], "time": []}}, "mouseover": {"state": {"target": ["0"], "time": [2253]}, "edge": {"target": [], "time": []}}, "mouseout": {"state": {"target": ["14", "13", "12", "0", "0", "12", "13", "14"], "time": [910, 1044, 1110, 2105, 2268, 9197, 9229, 9246]}, "edge": {"target": [], "time": []}}}, "displayed_time": "15.77", "trialTime": 17498, "trial_type": "mouselab-mdp", "trial_index": 48, "time_elapsed": 1802542, "internal_node_id": "0.0-6.0-1.0-39.0"}}, {"uniqueid": "w28795148:a17974588", "current_trial": 49, "dateTime": 1693582660489, "trialdata": {"rt": 107236, "response": {"Q0": "$-2 to $2", "Q1": "$-16 to $16", "Q2": "$-32 to $32", "Q3": "The cost for clicking on nodes varied between nodes.", "Q4": "Very motivated"}, "question_order": [0, 1, 2, 3, 4], "trial_id": "final_quiz_control", "trial_type": "survey-multi-choice", "trial_index": 49, "time_elapsed": 1909793, "internal_node_id": "0.0-6.0-2.0"}}, {"uniqueid": "w28795148:a17974588", "current_trial": 50, "dateTime": 1693583033447, "trialdata": {"rt": 372949, "response": {"Q0": "I was multiplying and guessing while as I moved  the spider", "Q1": "I am hoping to come across another one to perfect the strategy", "Q2": "it was not that difficult "}, "trial_id": "self_report_control", "trial_type": "survey-text", "trial_index": 50, "time_elapsed": 2282751, "internal_node_id": "0.0-6.0-3.0"}}, {"uniqueid": "w28795148:a17974588", "current_trial": 51, "dateTime": 1693583106140, "trialdata": {"rt": 72688, "response": {"Q0": "Agree", "Q1": "Agree", "Q2": "Neither disagree nor agree", "Q3": "Disagree", "Q4": "Strongly agree", "Q5": "Agree", "Q6": "Disagree"}, "question_order": [0, 1, 2, 3, 4, 5, 6], "trial_id": "self_report_2", "trial_type": "survey-multi-choice", "trial_index": 51, "time_elapsed": 2355444, "internal_node_id": "0.0-6.0-4.0"}}, {"uniqueid": "w28795148:a17974588", "current_trial": 52, "dateTime": 1693583160821, "trialdata": {"rt": 54674, "response": {"gender": "female", "age": "28", "colorblind": "0", "effort": "0"}, "trial_type": "survey-html-form", "trial_index": 52, "time_elapsed": 2410125, "internal_node_id": "0.0-6.0-5.0"}}, {"uniqueid": "w28795148:a17974588", "current_trial": 53, "dateTime": 1693583240785, "trialdata": {"rt": 79956, "response": {"Q0": "Nothing", "Q1": "I had never participated in any Web of cash ", "Q2": "none"}, "trial_type": "survey-text", "trial_index": 53, "time_elapsed": 2490089, "internal_node_id": "0.0-6.0-6.0"}}, {"uniqueid": "w28795148:a17974588", "current_trial": 54, "dateTime": 1693583307883, "trialdata": {"rt": 67093, "stimulus": "<h1>Completion Code Instructions (1/2)</h1>\n<br><br><br><br>\nYou have reached the end of the experiment! The completion code consists of two parts: (1) a code with 2 characters (2) a code with 6 characters. On this page, you will receive the second part of the code. The first part of the completion code will be on the next page.\n<br><br>\nThe second part of your completion code is: <b>EWEK22</b>\n<br><br>\nPlease note this down. Then, press 'Next' in order to find the first part of your completion code. Once the data has been saved, you will receive this code either in this window or in the original browser window where you started the experiment.\n <br><br>\n<h2 style='color: red;'>Note: this is <strong>NOT</strong> the full completion code. Copy this down and click 'Next' to get the full completion code on the next page.</h2>", "response": 0, "trial_type": "html-button-response", "trial_index": 54, "time_elapsed": 2557187, "internal_node_id": "0.0-6.0-7.0"}}, {"uniqueid": "w28795148:a17974588", "current_trial": 55, "dateTime": 1693583308902, "trialdata": {"success": true, "trial_type": "fullscreen", "trial_index": 55, "time_elapsed": 2558205, "internal_node_id": "0.0-7.0"}}], "questiondata": {"params": {"CODE": "C6DMOQA6", "MIN_TIME": 14, "inspectCost": 1, "startTime": "Fri Sep 01 2023 17:05:49 GMT+0200 (South Africa Standard Time)", "bonusRate": 0.002, "variance": "1_2_4_8_44", "branching": "31123"}}, "eventdata": [{"eventtype": "initialized", "value": null, "timestamp": 1693580748417, "interval": 0}, {"eventtype": "window_resize", "value": [1024, 654], "timestamp": 1693580748417, "interval": 0}, {"eventtype": "window_resize", "value": [1024, 654], "timestamp": 1693580748961, "interval": 544}, {"eventtype": "window_resize", "value": [1366, 768], "timestamp": 1693580758860, "interval": 9899}, {"eventtype": "window_resize", "value": [1024, 654], "timestamp": 1693583308224, "interval": 2549364}], "useragent": "Mozilla/5.0 (Windows NT 10.0; Win64; x64) AppleWebKit/537.36 (KHTML, like Gecko) Chrome/116.0.0.0 Safari/537.36", "mode": "live", "id": "w28795148:a17974588", "status": "user data saved", "Beginhit": "2023-09-01 15:05:46.496037", "Beginexp": "2023-09-01 15:06:00.928245", "Endhit": "2023-09-01 15:48:32.262837", "psiturkStatus": 3, "browser": "<redacted>", "platform": "windows", "language": "en-ZA"}