{"condition": 0, "counterbalance": 0, "assignmentId": "a83886465", "workerId": "w43080959", "hitId": "h72815602", "currenttrial": 55, "bonus": 0, "data": [{"uniqueid": "w43080959:a83886465", "current_trial": 0, "dateTime": 1691159549262, "trialdata": {"success": true, "trial_type": "fullscreen", "trial_index": 0, "time_elapsed": 13761, "internal_node_id": "0.0-0.0"}}, {"uniqueid": "w43080959:a83886465", "current_trial": 1, "dateTime": 1691159585020, "trialdata": {"view_history": [{"page_index": 0, "viewing_time": 35737}], "rt": 35742, "trial_id": "exp_instructions_control", "trial_type": "instructions", "trial_index": 1, "time_elapsed": 49519, "internal_node_id": "0.0-1.0"}}, {"uniqueid": "w43080959:a83886465", "current_trial": 2, "dateTime": 1691159587915, "trialdata": {"success": true, "trial_type": "fullscreen", "trial_index": 2, "time_elapsed": 52414, "internal_node_id": "0.0-2.0-0.0"}}, {"uniqueid": "w43080959:a83886465", "current_trial": 3, "dateTime": 1691159959749, "trialdata": {"view_history": [{"page_index": 0, "viewing_time": 164365}, {"page_index": 1, "viewing_time": 114409}, {"page_index": 2, "viewing_time": 39289}, {"page_index": 3, "viewing_time": 53758}], "rt": 371824, "trial_id": "mouselab_instructions_1_control", "trial_type": "instructions", "trial_index": 3, "time_elapsed": 424248, "internal_node_id": "0.0-2.0-1.0"}}, {"uniqueid": "w43080959:a83886465", "current_trial": 4, "dateTime": 1691160120532, "trialdata": {"revealed_states": [], "clicked_states": ["1", "12", "13", "14", "15", "16", "23", "24", "26", "25", "28", "30", "32", "2", "3", "4"], "num_clicks_accrued": [0, 0, 0, 0, 0, 0, 0, 0, 0, 0, 0, 0, 0], "stateRewards": ["", -10, 10, 10, -10, 10, -10, -10, 10, -10, 10, -10, -10, -10, 10, 10, 10, 10, -10, -10, 10, -10, -10, 10, 10, 10, -10, -10, -10, -10, -10, -10, 10, -10], "withholdReward": false, "trial_id": "practice_1", "block": "test", "trialIndex": 0, "score": -34.5, "costs": -8, "simulationMode": [null, null, null, null, null], "rewards": [-10, -10, 10, -10, -10], "path": ["0", "0", "12", "13", "14", "19", "21"], "rt": [126405, 1522, 1034, 1487, 607], "actions": ["right", "right", "right", "down", "down"], "actionTimes": [129699, 131723, 133298, 135307, 136438], "queries": {"click": {"state": {"target": ["1", "12", "13", "14", "15", "16", "23", "24", "26", "25", "28", "30", "32", "2", "3", "4"], "time": [6212, 9539, 11051, 12441, 13827, 16542, 22185, 23489, 25640, 27478, 28890, 30629, 32695, 34168, 35872, 36923]}, "edge": {"target": [], "time": []}}, "mouseover": {"state": {"target": ["1", "7", "12", "13", "14", "15", "16", "18", "23", "24", "25", "26", "25", "28", "30", "31", "32", "31", "23", "1", "2", "3", "4", "2", "1", "12", "0", "12", "0", "13", "12", "0", "1", "7", "2", "10", "8", "4", "1", "24", "30", "24", "23", "23"], "time": [5800, 8583, 9067, 10617, 12051, 13248, 16083, 20633, 21861, 22921, 24052, 25249, 27116, 28454, 30332, 31220, 32216, 33434, 33470, 33599, 33833, 34604, 36567, 39315, 52859, 55037, 58739, 59115, 64210, 67931, 68912, 69680, 70663, 70846, 72223, 72280, 73021, 74263, 75213, 75413, 75596, 76446, 77130, 79597]}, "edge": {"target": [], "time": []}}, "mouseout": {"state": {"target": ["0", "1", "7", "12", "13", "14", "15", "16", "18", "23", "24", "25", "26", "25", "28", "30", "31", "32", "31", "23", "1", "2", "3", "4", "4", "2", "1", "12", "0", "12", "0", "13", "12", "0", "1", "7", "2", "10", "8", "4", "1", "24", "30", "24", "23", "23", "0", "23"], "time": [5467, 7867, 8916, 10488, 12001, 13218, 16014, 20383, 20667, 22854, 24017, 25196, 27020, 27675, 29687, 31183, 32132, 33400, 33452, 33486, 33721, 34568, 36073, 37148, 38649, 39815, 52931, 55764, 58749, 63849, 64264, 68893, 69630, 70613, 70679, 72210, 72263, 72981, 73064, 75119, 75263, 75463, 76346, 77107, 77196, 81537, 146344, 147093]}, "edge": {"target": [], "time": []}}}, "displayed_time": "136.96", "trialTime": 159256, "trial_type": "mouselab-mdp", "trial_index": 4, "time_elapsed": 585030, "internal_node_id": "0.0-2.0-2.0-0.0"}}, {"uniqueid": "w43080959:a83886465", "current_trial": 5, "dateTime": 1691160179820, "trialdata": {"revealed_states": [], "clicked_states": ["1", "3", "2", "12", "13", "14", "15", "19", "21"], "num_clicks_accrued": [0, 0, 0, 0, 0, 0, 0, 0, 0, 0, 0, 0, 0], "stateRewards": ["", 10, -10, 10, 10, 10, 10, -10, -10, -10, -10, 10, 10, 10, -10, 10, -10, -10, 10, 10, 10, 10, -10, -10, -10, -10, 10, 10, 10, -10, -10, 10, -10, -10], "withholdReward": false, "trial_id": "practice_2", "block": "test", "trialIndex": 1, "score": 29, "costs": -4.5, "simulationMode": [null, null, null, null, null], "rewards": [10, 10, -10, 10, 10], "path": ["0", "0", "12", "13", "14", "19", "21"], "rt": [29881, 893, 947, 843, 426], "actions": ["right", "right", "right", "down", "down"], "actionTimes": [47376, 48783, 50253, 51615, 52565], "queries": {"click": {"state": {"target": ["1", "3", "2", "12", "13", "14", "15", "19", "21"], "time": [20203, 22182, 24048, 25148, 26190, 28007, 29116, 30255, 31430]}, "edge": {"target": [], "time": []}}, "mouseover": {"state": {"target": ["1", "2", "3", "2", "12", "13", "14", "15", "19", "21", "20", "13", "0", "0", "21"], "time": [19169, 20731, 21722, 22684, 24705, 25835, 26772, 28705, 29788, 31156, 32822, 33786, 44723, 45567, 45951]}, "edge": {"target": [], "time": []}}, "mouseout": {"state": {"target": ["0", "1", "2", "3", "2", "12", "13", "14", "15", "14", "19", "21", "20", "13", "0", "0", "21"], "time": [19086, 20656, 21676, 22587, 24588, 25785, 26723, 28572, 29719, 29769, 31043, 31658, 33675, 33802, 45067, 45687, 46068]}, "edge": {"target": [], "time": []}}}, "displayed_time": "53.09", "trialTime": 58723, "trial_type": "mouselab-mdp", "trial_index": 5, "time_elapsed": 644319, "internal_node_id": "0.0-2.0-2.0-1.0"}}, {"uniqueid": "w43080959:a83886465", "current_trial": 6, "dateTime": 1691160254131, "trialdata": {"view_history": [{"page_index": 0, "viewing_time": 59019}, {"page_index": 1, "viewing_time": 15277}], "rt": 74297, "trial_id": "mouselab_instructions_2_control", "trial_type": "instructions", "trial_index": 6, "time_elapsed": 718631, "internal_node_id": "0.0-2.0-3.0"}}, {"uniqueid": "w43080959:a83886465", "current_trial": 7, "dateTime": 1691160303835, "trialdata": {"rt": 49695, "response": {"Q0": "The cost for clicking on nodes may vary between nodes.", "Q1": "The better I perform the higher my bonus will be.", "Q2": "No, the amount of cash at each node of the web may be different each time.", "Q3": "To get the highest total score.", "Q4": "Only before moving the spider.", "Q5": "3 seconds"}, "question_order": [0, 1, 2, 3, 4, 5], "correct": {"Q0": "The cost for clicking on nodes may vary between nodes.", "Q1": "The better I perform the higher my bonus will be.", "Q2": "No, the amount of cash at each node of the web may be different each time.", "Q3": "To get the highest total score.", "Q4": "Only before moving the spider.", "Q5": "3 seconds"}, "trial_id": "mouselab_quiz_control", "trial_type": "survey-multi-choice", "trial_index": 7, "time_elapsed": 768335, "internal_node_id": "0.0-2.0-4.0"}}, {"uniqueid": "w43080959:a83886465", "current_trial": 8, "dateTime": 1691160327826, "trialdata": {"rt": 23976, "stimulus": "\n<h1> Get ready to start the game! </h1>\n\nThank you for reading the instructions. Get ready start with the 40 rounds of this game.\n<br><br>\nIf you need to take a break, feel free to take one after the end of a round, before continuing to the next one.\n<br><br>\nRemember, the more money the spider gets, the bigger your bonus will be!\n<br><br>\n<div style='text-align: center;'>Press <code>space</code> to begin.</div>\n\n<br><br>\n(If, at any point, the <code>space</code> key does not take you to the next page, click once on the text and try again.)", "response": " ", "trial_id": "mdp_ready", "trial_type": "html-keyboard-response", "trial_index": 8, "time_elapsed": 792325, "internal_node_id": "0.0-4.0-0.0"}}, {"uniqueid": "w43080959:a83886465", "current_trial": 9, "dateTime": 1691160390017, "trialdata": {"revealed_states": [], "clicked_states": ["1", "24", "26", "30", "25", "32", "31", "33", "12", "13", "14", "3", "8", "10", "2", "7"], "num_clicks_accrued": [0, 0, 0, 0, 0, 0, 0, 0, 0, 0, 0, 0, 0], "stateRewards": ["", 1, -3, -4, -11, -56, 61, -47, -16, -28, -9, 69, -2, -3, -4, -8, 40, -86, 59, -4, 80, 27, 54, -1, 3, -1, 8, 67, 23, 50, 6, 83, -43, -29], "withholdReward": false, "trial_id": "mdp_trial_1", "block": "test", "trialIndex": 2, "score": -58.39999999999999, "costs": -22.399999999999995, "simulationMode": [null, null, null, null, null], "rewards": [-1, 3, -1, 6, -43], "path": ["0", "0", "23", "24", "25", "30", "32"], "rt": [41046, 1067, 807, 794, 740], "actions": ["left", "left", "left", "down", "down"], "actionTimes": [49527, 51119, 52423, 53726, 54973], "queries": {"click": {"state": {"target": ["1", "24", "26", "30", "25", "32", "31", "33", "12", "13", "14", "3", "8", "10", "2", "7"], "time": [9600, 11154, 13682, 15762, 17977, 19641, 21469, 24148, 26162, 27878, 29624, 32316, 35977, 37801, 39461, 41041]}, "edge": {"target": [], "time": []}}, "mouseover": {"state": {"target": ["1", "23", "24", "26", "10", "10", "28", "26", "25", "30", "25", "32", "31", "30", "33", "13", "12", "13", "14", "18", "2", "2", "3", "8", "10", "2", "7", "4", "1", "23"], "time": [9232, 10118, 10850, 11717, 12930, 13147, 13232, 13296, 14244, 14365, 16536, 19348, 21131, 22148, 22217, 25546, 25862, 26746, 28372, 30249, 30374, 30630, 31929, 33132, 37384, 38915, 40480, 41815, 43646, 48361]}, "edge": {"target": [], "time": []}}, "mouseout": {"state": {"target": ["23", "1", "0", "1", "23", "24", "26", "10", "10", "28", "26", "25", "30", "25", "30", "32", "31", "30", "33", "13", "12", "13", "14", "18", "2", "2", "3", "3", "8", "10", "2", "7", "4", "1", "23", "0", "12", "13", "20"], "time": [6929, 7029, 9165, 10020, 10815, 11377, 12781, 12947, 13180, 13251, 14184, 14298, 16464, 18632, 18800, 20623, 22114, 22182, 24634, 25746, 26682, 28330, 30214, 30283, 30482, 31879, 32521, 33098, 37184, 38864, 40313, 41263, 43537, 43678, 57849, 57877, 57911, 57944, 58012]}, "edge": {"target": [], "time": []}}}, "displayed_time": "55.50", "trialTime": 61489, "trial_type": "mouselab-mdp", "trial_index": 9, "time_elapsed": 854515, "internal_node_id": "0.0-4.0-1.0-0.0"}}, {"uniqueid": "w43080959:a83886465", "current_trial": 10, "dateTime": 1691160438127, "trialdata": {"revealed_states": [], "clicked_states": ["23", "26", "30", "19", "15", "8", "13", "14"], "num_clicks_accrued": [0, 0, 0, 0, 0, 0, 0, 0, 0, 0, 0, 0, 0], "stateRewards": ["", -1, -3, -6, -2, -7, 80, -45, -3, -38, -72, 76, 2, 1, 7, 4, -62, 14, -74, 14, -87, -21, -88, -2, 1, -7, -10, 66, 56, -76, 10, -29, -72, -70], "withholdReward": false, "trial_id": "mdp_trial_2", "block": "test", "trialIndex": 3, "score": -75.2, "costs": -11.200000000000001, "simulationMode": [null, null, null, null, null], "rewards": [2, 1, 7, 14, -88], "path": ["0", "0", "12", "13", "14", "19", "22"], "rt": [29629, 523, 521, 469, 1946], "actions": ["right", "right", "right", "down", "left"], "actionTimes": [36072, 37141, 38171, 39137, 41626], "queries": {"click": {"state": {"target": ["23", "26", "30", "19", "15", "8", "13", "14"], "time": [7493, 9914, 12591, 15155, 17698, 20697, 23068, 25493]}, "edge": {"target": [], "time": []}}, "mouseover": {"state": {"target": ["0", "23", "24", "26", "25", "30", "31", "22", "19", "19", "14", "15", "7", "3", "8", "2", "13", "14", "12", "0", "0"], "time": [7098, 7130, 8117, 9129, 10660, 10767, 13258, 13341, 13390, 13563, 15850, 15945, 19779, 19912, 20312, 22117, 22316, 24796, 27513, 28476, 31829]}, "edge": {"target": [], "time": []}}, "mouseout": {"state": {"target": ["19", "22", "12", "0", "0", "23", "24", "26", "25", "30", "31", "22", "19", "19", "14", "15", "7", "3", "8", "2", "13", "14", "13", "12", "0", "0", "12", "20"], "time": [1679, 1711, 3299, 3828, 7115, 8085, 8930, 10652, 10737, 13251, 13278, 13360, 13424, 15800, 15925, 19685, 19800, 20231, 22050, 22152, 24566, 27412, 27478, 27630, 28529, 44758, 44778, 44846]}, "edge": {"target": [], "time": []}}}, "displayed_time": "42.14", "trialTime": 47371, "trial_type": "mouselab-mdp", "trial_index": 10, "time_elapsed": 902626, "internal_node_id": "0.0-4.0-1.0-1.0"}}, {"uniqueid": "w43080959:a83886465", "current_trial": 11, "dateTime": 1691160469477, "trialdata": {"revealed_states": [], "clicked_states": ["1", "8", "4", "11"], "num_clicks_accrued": [0, 0, 0, 0, 0, 0, 0, 0, 0, 0, 0, 0, 0], "stateRewards": ["", 2, -3, -2, 14, -4, 85, 46, 15, -28, 41, 31, -1, -1, -1, 5, 62, 79, 57, 12, -73, -64, 86, -1, 1, -3, -5, 68, 11, -32, 8, -80, -21, -56], "withholdReward": false, "trial_id": "mdp_trial_3", "block": "test", "trialIndex": 4, "score": 37.4, "costs": -5.6, "simulationMode": [null, null, null, null, null], "rewards": [2, -3, -2, 15, 31], "path": ["0", "0", "1", "2", "3", "8", "11"], "rt": [16545, 491, 461, 616, 342], "actions": ["up", "up", "up", "left", "left"], "actionTimes": [19177, 20188, 21148, 22273, 23113], "queries": {"click": {"state": {"target": ["1", "8", "4", "11"], "time": [4323, 6817, 9091, 13463]}, "edge": {"target": [], "time": []}}, "mouseover": {"state": {"target": ["1", "2", "8", "3", "4", "4", "3", "3", "8", "11"], "time": [3601, 4891, 5135, 8025, 8433, 8718, 11902, 12200, 12901, 13001]}, "edge": {"target": [], "time": []}}, "mouseout": {"state": {"target": ["0", "1", "2", "8", "3", "4", "4", "3", "3", "8", "11", "7", "15"], "time": [1832, 4848, 4925, 7988, 8106, 8468, 11817, 11981, 12883, 12934, 25292, 25365, 25416]}, "edge": {"target": [], "time": []}}}, "displayed_time": "23.62", "trialTime": 30608, "trial_type": "mouselab-mdp", "trial_index": 11, "time_elapsed": 933976, "internal_node_id": "0.0-4.0-1.0-2.0"}}, {"uniqueid": "w43080959:a83886465", "current_trial": 12, "dateTime": 1691160517475, "trialdata": {"revealed_states": [], "clicked_states": ["24", "30", "25", "2", "14", "15", "18", "8", "4", "11"], "num_clicks_accrued": [0, 0, 0, 0, 0, 0, 0, 0, 0, 0, 0, 0, 0], "stateRewards": ["", -2, 2, 8, -6, -25, 3, 87, 2, -62, -2, 74, -2, -1, 2, -1, 79, 49, -37, -14, 5, 67, -9, -1, 2, -2, 5, 15, 38, 32, -14, -38, -38, 30], "withholdReward": false, "trial_id": "mdp_trial_4", "block": "test", "trialIndex": 5, "score": 70, "costs": -14.000000000000002, "simulationMode": [null, null, null, null, null], "rewards": [-2, 2, 8, 2, 74], "path": ["0", "0", "1", "2", "3", "8", "11"], "rt": [32133, 261, 305, 403, 219], "actions": ["up", "up", "up", "left", "left"], "actionTimes": [38918, 39705, 40537, 41452, 42167], "queries": {"click": {"state": {"target": ["24", "30", "25", "2", "14", "15", "18", "8", "4", "11"], "time": [9143, 10696, 13008, 16426, 18587, 21415, 24135, 27267, 29455, 32742]}, "edge": {"target": [], "time": []}}, "mouseover": {"state": {"target": ["23", "24", "24", "30", "25", "26", "28", "2", "18", "14", "15", "18", "12", "2", "3", "8", "3", "4", "3", "8", "11", "9", "8"], "time": [7329, 8062, 8820, 9824, 12428, 15146, 15629, 15960, 17440, 17816, 21046, 23646, 25934, 26629, 26744, 26895, 28847, 29044, 31765, 31845, 32311, 34112, 35228]}, "edge": {"target": [], "time": []}}, "mouseout": {"state": {"target": ["25", "24", "23", "0", "23", "24", "24", "30", "25", "26", "28", "2", "18", "14", "15", "18", "12", "2", "3", "8", "3", "4", "4", "3", "8", "11", "9", "8", "12", "13", "20", "21"], "time": [5410, 5479, 5761, 7296, 7430, 8128, 9743, 12040, 15029, 15597, 15680, 17166, 17475, 20924, 23580, 25744, 26528, 26661, 26844, 28733, 28944, 31590, 31749, 31826, 31894, 33803, 35203, 35262, 43827, 43879, 43979, 45744]}, "edge": {"target": [], "time": []}}}, "displayed_time": "42.68", "trialTime": 47240, "trial_type": "mouselab-mdp", "trial_index": 12, "time_elapsed": 981974, "internal_node_id": "0.0-4.0-1.0-3.0"}}, {"uniqueid": "w43080959:a83886465", "current_trial": 13, "dateTime": 1691160556675, "trialdata": {"revealed_states": [], "clicked_states": ["24", "26", "30", "15", "13", "19", "4", "8", "9", "7"], "num_clicks_accrued": [0, 0, 0, 0, 0, 0, 0, 0, 0, 0, 0, 0, 0], "stateRewards": ["", 1, 1, -5, 8, -6, 45, 16, -6, -7, -22, -38, -1, -4, 8, -11, -16, 21, -45, -15, -59, -32, 42, -1, 3, 6, 11, -7, 34, -27, -8, 85, 43, -9], "withholdReward": false, "trial_id": "mdp_trial_5", "block": "test", "trialIndex": 6, "score": 7, "costs": -14.000000000000002, "simulationMode": [null, null, null, null, null], "rewards": [1, 1, -5, 8, 16], "path": ["0", "0", "1", "2", "3", "4", "7"], "rt": [26190, 145, 132, 597, 101], "actions": ["up", "up", "up", "right", "down"], "actionTimes": [30480, 31143, 31781, 32894, 33497], "queries": {"click": {"state": {"target": ["24", "26", "30", "15", "13", "19", "4", "8", "9", "7"], "time": [5531, 7610, 9688, 12716, 14731, 16742, 19685, 21935, 24493, 26824]}, "edge": {"target": [], "time": []}}, "mouseover": {"state": {"target": ["23", "24", "26", "25", "30", "31", "12", "13", "15", "13", "19", "18", "7", "4", "4", "3", "8", "9", "4", "7", "1"], "time": [4959, 5027, 6661, 8338, 8977, 11706, 11860, 11963, 12296, 13883, 15529, 18825, 18892, 18926, 19313, 20979, 21325, 24093, 25745, 26275, 29359]}, "edge": {"target": [], "time": []}}, "mouseout": {"state": {"target": ["32", "31", "0", "23", "24", "26", "25", "30", "31", "12", "13", "15", "13", "19", "18", "7", "4", "4", "3", "8", "9", "4", "7", "1"], "time": [2659, 2826, 4927, 4992, 6382, 8248, 8674, 11681, 11728, 11898, 12150, 13515, 15382, 18783, 18859, 18909, 19109, 20879, 21212, 23345, 25347, 26108, 29192, 35628]}, "edge": {"target": [], "time": []}}}, "displayed_time": "34.00", "trialTime": 38335, "trial_type": "mouselab-mdp", "trial_index": 13, "time_elapsed": 1021173, "internal_node_id": "0.0-4.0-1.0-4.0"}}, {"uniqueid": "w43080959:a83886465", "current_trial": 14, "dateTime": 1691160605414, "trialdata": {"revealed_states": [], "clicked_states": ["1", "8", "4", "15", "21", "25", "26", "28"], "num_clicks_accrued": [0, 0, 0, 0, 0, 0, 0, 0, 0, 0, 0, 0, 0], "stateRewards": ["", -2, -2, -3, -6, -15, -11, 41, -12, -63, -76, 2, -2, -3, 8, 9, -36, -2, -18, -16, -32, -85, -17, -2, 1, 5, -16, 82, 35, -88, -1, 80, -82, -20], "withholdReward": false, "trial_id": "mdp_trial_6", "block": "test", "trialIndex": 7, "score": 11.799999999999997, "costs": -11.200000000000001, "simulationMode": [null, null, null, null, null], "rewards": [-2, 1, 5, -16, 35], "path": ["0", "0", "23", "24", "25", "26", "28"], "rt": [25130, 209, 169, 388, 342], "actions": ["left", "left", "left", "up", "right"], "actionTimes": [39003, 39721, 40411, 41313, 42151], "queries": {"click": {"state": {"target": ["1", "8", "4", "15", "21", "25", "26", "28"], "time": [15025, 17585, 19553, 22334, 24570, 28305, 30555, 33907]}, "edge": {"target": [], "time": []}}, "mouseover": {"state": {"target": ["1", "2", "3", "8", "3", "4", "7", "18", "13", "14", "15", "14", "19", "21", "24", "25", "26", "29", "28", "25", "30", "30", "25", "24"], "time": [14638, 15646, 15809, 17189, 18510, 18602, 21141, 21238, 21471, 21621, 21896, 23279, 23555, 23908, 27007, 27271, 30038, 33004, 33554, 34809, 34958, 35621, 36320, 36371]}, "edge": {"target": [], "time": []}}, "mouseout": {"state": {"target": ["0", "1", "2", "3", "8", "3", "4", "7", "18", "13", "14", "15", "14", "19", "21", "24", "25", "26", "29", "28", "25", "30", "30", "25", "24", "23", "0", "22"], "time": [2821, 15596, 15759, 17039, 18476, 18575, 21078, 21171, 21338, 21488, 21825, 23210, 23392, 23861, 26574, 27071, 29762, 32720, 33271, 34674, 34873, 35189, 35688, 36337, 36438, 44038, 44087, 44220]}, "edge": {"target": [], "time": []}}}, "displayed_time": "42.67", "trialTime": 47971, "trial_type": "mouselab-mdp", "trial_index": 14, "time_elapsed": 1069911, "internal_node_id": "0.0-4.0-1.0-5.0"}}, {"uniqueid": "w43080959:a83886465", "current_trial": 15, "dateTime": 1691160648365, "trialdata": {"revealed_states": [], "clicked_states": [], "num_clicks_accrued": [0, 0, 0, 0, 0, 0, 0, 0, 0, 0, 0, 0, 0], "stateRewards": ["", 1, 1, 1, 15, -76, 52, -32, 14, -57, 37, 49, 1, -4, -3, 6, 83, -76, 25, 9, 36, -1, -17, -1, 4, 4, -2, -22, -21, 58, -15, -57, 49, -24], "withholdReward": false, "trial_id": "mdp_trial_7", "block": "test", "trialIndex": 8, "score": -58, "costs": 0, "simulationMode": [null, null, null, null, null], "rewards": [1, 1, 1, 15, -76], "path": ["0", "0", "1", "2", "3", "4", "5"], "rt": [9968, 306, 269, 821, 103], "actions": ["up", "up", "up", "right", "up"], "actionTimes": [34047, 34865, 35645, 36970, 37578], "queries": {"click": {"state": {"target": [], "time": []}, "edge": {"target": [], "time": []}}, "mouseover": {"state": {"target": ["1", "2", "3", "2", "1", "0"], "time": [28286, 28436, 28605, 29580, 29624, 29672]}, "edge": {"target": [], "time": []}}, "mouseout": {"state": {"target": ["0", "1", "2", "3", "2", "1"], "time": [28141, 28370, 28570, 29574, 29597, 29654]}, "edge": {"target": [], "time": []}}}, "displayed_time": "38.11", "trialTime": 42090, "trial_type": "mouselab-mdp", "trial_index": 15, "time_elapsed": 1112863, "internal_node_id": "0.0-4.0-1.0-6.0"}}, {"uniqueid": "w43080959:a83886465", "current_trial": 16, "dateTime": 1691160682998, "trialdata": {"revealed_states": [], "clicked_states": ["23", "26", "15", "19", "4", "8", "30", "21", "22"], "num_clicks_accrued": [0, 0, 0, 0, 0, 0, 0, 0, 0, 0, 0, 0, 0], "stateRewards": ["", -1, 4, -6, -5, -22, -38, -38, -2, -56, 88, 14, -1, -1, -7, -6, 61, -60, 21, 11, 57, 31, -30, -2, -2, 6, -9, -44, -70, -44, -15, 34, 16, -78], "withholdReward": false, "trial_id": "mdp_trial_8", "block": "test", "trialIndex": 9, "score": 20.4, "costs": -12.600000000000001, "simulationMode": [null, null, null, null, null], "rewards": [-1, -1, -7, 11, 31], "path": ["0", "0", "12", "13", "14", "19", "21"], "rt": [22426, 247, 244, 337, 256], "actions": ["right", "right", "right", "down", "down"], "actionTimes": [25909, 26683, 27445, 28298, 29073], "queries": {"click": {"state": {"target": ["23", "26", "15", "19", "4", "8", "30", "21", "22"], "time": [4210, 6262, 9275, 11825, 14017, 16079, 18729, 21075, 23260]}, "edge": {"target": [], "time": []}}, "mouseover": {"state": {"target": ["23", "24", "25", "26", "25", "30", "30", "12", "13", "15", "15", "14", "19", "4", "3", "8", "8", "10", "23", "30", "32", "21", "22"], "time": [3881, 4760, 4933, 5929, 6770, 6831, 7316, 8413, 8464, 8663, 8781, 9968, 10078, 12567, 15000, 15166, 15534, 17333, 17963, 18230, 19828, 20613, 22002]}, "edge": {"target": [], "time": []}}, "mouseout": {"state": {"target": ["0", "23", "24", "25", "26", "26", "25", "30", "30", "12", "13", "15", "15", "14", "19", "4", "3", "8", "8", "10", "23", "30", "32", "21", "22", "20"], "time": [3798, 4755, 4788, 5897, 6472, 6750, 6805, 6916, 8248, 8448, 8497, 8734, 9960, 10050, 12300, 14950, 15116, 15287, 17165, 17528, 18031, 19778, 19999, 21715, 31143, 31162]}, "edge": {"target": [], "time": []}}}, "displayed_time": "29.62", "trialTime": 33768, "trial_type": "mouselab-mdp", "trial_index": 16, "time_elapsed": 1147496, "internal_node_id": "0.0-4.0-1.0-7.0"}}, {"uniqueid": "w43080959:a83886465", "current_trial": 17, "dateTime": 1691160722224, "trialdata": {"revealed_states": [], "clicked_states": ["8", "4", "15", "19", "26", "30", "33", "29", "9", "7"], "num_clicks_accrued": [0, 0, 0, 0, 0, 0, 0, 0, 0, 0, 0, 0, 0], "stateRewards": ["", 1, 4, 5, -5, 58, -80, 75, 6, 25, -39, 46, 2, -2, 4, 2, 59, 31, -22, -12, -61, 15, 72, 1, -2, -7, 8, 77, 76, -23, -7, 71, -15, -3], "withholdReward": false, "trial_id": "mdp_trial_9", "block": "test", "trialIndex": 10, "score": 66, "costs": -14.000000000000002, "simulationMode": [null, null, null, null, null], "rewards": [1, 4, 5, -5, 75], "path": ["0", "0", "1", "2", "3", "4", "7"], "rt": [23120, 239, 322, 405, 129], "actions": ["up", "up", "up", "right", "down"], "actionTimes": [31456, 32210, 33021, 33920, 34560], "queries": {"click": {"state": {"target": ["8", "4", "15", "19", "26", "30", "33", "29", "9", "7"], "time": [9447, 11073, 12740, 14788, 16680, 18734, 20873, 23127, 25691, 27672]}, "edge": {"target": [], "time": []}}, "mouseover": {"state": {"target": ["1", "8", "4", "4", "18", "15", "14", "19", "21", "19", "22", "23", "24", "25", "26", "25", "30", "33", "29", "27", "11", "8", "9", "4", "7", "1", "1"], "time": [8760, 9061, 10306, 10730, 11948, 12263, 13499, 13598, 13913, 14413, 15583, 15781, 15842, 16051, 16264, 17845, 18226, 19747, 21997, 24199, 24694, 24944, 25309, 26865, 27116, 29879, 30275]}, "edge": {"target": [], "time": []}}, "mouseout": {"state": {"target": ["0", "1", "8", "4", "4", "18", "15", "14", "19", "21", "19", "22", "23", "24", "25", "26", "26", "25", "30", "33", "29", "27", "11", "8", "9", "4", "7", "7", "1", "1", "13", "14"], "time": [8636, 8777, 10209, 10343, 11863, 11983, 13464, 13549, 13697, 14269, 15563, 15628, 15806, 15940, 16180, 16903, 17679, 17948, 18960, 21646, 24130, 24227, 24909, 24999, 26679, 26927, 27901, 29776, 30076, 35992, 36075, 36094]}, "edge": {"target": [], "time": []}}}, "displayed_time": "35.06", "trialTime": 38307, "trial_type": "mouselab-mdp", "trial_index": 17, "time_elapsed": 1186721, "internal_node_id": "0.0-4.0-1.0-8.0"}}, {"uniqueid": "w43080959:a83886465", "current_trial": 18, "dateTime": 1691160744838, "trialdata": {"revealed_states": [], "clicked_states": ["16", "20"], "num_clicks_accrued": [0, 0, 0, 0, 0, 0, 0, 0, 0, 0, 0, 0, 0], "stateRewards": ["", 2, 3, 3, 10, 19, -21, 6, 9, 54, 68, 16, 2, 2, -6, -8, 40, -2, -75, -2, -42, 55, 59, -1, 2, 4, -14, 11, -34, -30, -6, 61, -53, 13], "withholdReward": false, "trial_id": "mdp_trial_10", "block": "test", "trialIndex": 11, "score": 27.2, "costs": -2.8, "simulationMode": [null, null, null, null, null], "rewards": [2, 2, -6, -8, 40], "path": ["0", "0", "12", "13", "14", "15", "16"], "rt": [7203, 428, 473, 424, 265], "actions": ["right", "right", "right", "up", "up"], "actionTimes": [9839, 10797, 11775, 12708, 13499], "queries": {"click": {"state": {"target": ["16", "20"], "time": [4565, 6353]}, "edge": {"target": [], "time": []}}, "mouseover": {"state": {"target": ["12", "13", "15", "16", "15", "14", "20", "13", "12"], "time": [3463, 3579, 3846, 4146, 5303, 5373, 5514, 8395, 8512]}, "edge": {"target": [], "time": []}}, "mouseout": {"state": {"target": ["21", "0", "12", "13", "15", "16", "15", "14", "20", "13", "12", "19", "20", "21"], "time": [1182, 3429, 3528, 3737, 4079, 5283, 5353, 5393, 8262, 8446, 18228, 18279, 18299, 20478]}, "edge": {"target": [], "time": []}}}, "displayed_time": "16.64", "trialTime": 21627, "trial_type": "mouselab-mdp", "trial_index": 18, "time_elapsed": 1209336, "internal_node_id": "0.0-4.0-1.0-9.0"}}, {"uniqueid": "w43080959:a83886465", "current_trial": 19, "dateTime": 1691160771501, "trialdata": {"revealed_states": [], "clicked_states": ["26", "27", "33", "24", "32"], "num_clicks_accrued": [0, 0, 0, 0, 0, 0, 0, 0, 0, 0, 0, 0, 0], "stateRewards": ["", -2, 3, 8, -9, 59, 41, -50, -1, 82, 66, 33, 2, -2, 7, 8, 1, -38, 12, -16, 24, -37, 67, 1, 4, -2, 5, 35, -83, 28, 8, -27, 69, -64], "withholdReward": false, "trial_id": "mdp_trial_11", "block": "test", "trialIndex": 12, "score": 73, "costs": -7, "simulationMode": [null, null, null, null, null], "rewards": [1, 4, -2, 8, 69], "path": ["0", "0", "23", "24", "25", "30", "32"], "rt": [13662, 327, 298, 270, 389], "actions": ["left", "left", "left", "down", "down"], "actionTimes": [16251, 17105, 17927, 18715, 19601], "queries": {"click": {"state": {"target": ["26", "27", "33", "24", "32"], "time": [4138, 6280, 8568, 10675, 12841]}, "edge": {"target": [], "time": []}}, "mouseover": {"state": {"target": ["23", "25", "26", "27", "25", "33", "25", "24", "32", "31"], "time": [3081, 3207, 3409, 4896, 7003, 7566, 9522, 9789, 12174, 15224]}, "edge": {"target": [], "time": []}}, "mouseout": {"state": {"target": ["0", "23", "25", "26", "27", "26", "25", "33", "25", "24", "32", "31", "22"], "time": [3066, 3107, 3382, 4747, 6863, 6965, 7459, 9401, 9646, 11713, 15127, 15259, 22306]}, "edge": {"target": [], "time": []}}}, "displayed_time": "20.14", "trialTime": 25403, "trial_type": "mouselab-mdp", "trial_index": 19, "time_elapsed": 1235999, "internal_node_id": "0.0-4.0-1.0-10.0"}}, {"uniqueid": "w43080959:a83886465", "current_trial": 20, "dateTime": 1691160796608, "trialdata": {"revealed_states": [], "clicked_states": ["13", "20"], "num_clicks_accrued": [0, 0, 0, 0, 0, 0, 0, 0, 0, 0, 0, 0, 0], "stateRewards": ["", 1, -1, 8, 4, 76, -33, -17, -3, -1, -54, -74, -2, 2, -5, 13, -51, 63, 83, 1, 84, 29, -36, 2, -1, 7, -12, -10, -44, -43, -14, 8, -69, 19], "withholdReward": false, "trial_id": "mdp_trial_12", "block": "test", "trialIndex": 13, "score": 77.2, "costs": -2.8, "simulationMode": [null, null, null, null, null], "rewards": [-2, 2, -5, 1, 84], "path": ["0", "0", "12", "13", "14", "19", "20"], "rt": [7763, 688, 244, 809, 351], "actions": ["right", "right", "right", "down", "right"], "actionTimes": [10965, 12185, 12924, 14238, 15098], "queries": {"click": {"state": {"target": ["13", "20"], "time": [4760, 6912]}, "edge": {"target": [], "time": []}}, "mouseover": {"state": {"target": ["12", "13", "19", "20", "19"], "time": [3838, 3975, 6179, 6392, 9275]}, "edge": {"target": [], "time": []}}, "mouseout": {"state": {"target": ["20", "0", "12", "13", "19", "20", "19", "20"], "time": [908, 3822, 3892, 6046, 6298, 9212, 18358, 18410]}, "edge": {"target": [], "time": []}}}, "displayed_time": "17.20", "trialTime": 24178, "trial_type": "mouselab-mdp", "trial_index": 20, "time_elapsed": 1261106, "internal_node_id": "0.0-4.0-1.0-11.0"}}, {"uniqueid": "w43080959:a83886465", "current_trial": 21, "dateTime": 1691160826438, "trialdata": {"revealed_states": [], "clicked_states": ["11", "6", "17", "22", "31", "29"], "num_clicks_accrued": [0, 0, 0, 0, 0, 0, 0, 0, 0, 0, 0, 0, 0], "stateRewards": ["", -1, 3, 8, 9, -53, 20, -84, 2, -28, -62, -31, -1, -2, -7, 2, 51, 58, 45, -4, -17, -41, 36, 2, -2, -7, -15, 29, -54, -37, -16, -43, 65, -17], "withholdReward": false, "trial_id": "mdp_trial_13", "block": "test", "trialIndex": 14, "score": 41.6, "costs": -8.4, "simulationMode": [null, null, null, null, null], "rewards": [-1, -2, -7, 2, 58], "path": ["0", "0", "12", "13", "14", "15", "17"], "rt": [18843, 53, 242, 251, 95], "actions": ["right", "right", "right", "up", "right"], "actionTimes": [21606, 22158, 22931, 23689, 24324], "queries": {"click": {"state": {"target": ["11", "6", "17", "22", "31", "29"], "time": [5304, 7314, 9558, 11594, 14635, 17321]}, "edge": {"target": [], "time": []}}, "mouseover": {"state": {"target": ["31", "30", "25", "27", "11", "8", "11", "8", "3", "4", "6", "15", "17", "22", "31", "25", "29", "26", "18", "15", "15"], "time": [3415, 3601, 4232, 4449, 4582, 4665, 4899, 5966, 6057, 6149, 6258, 8154, 8622, 10854, 14299, 16715, 16982, 19532, 19813, 19931, 20315]}, "edge": {"target": [], "time": []}}, "mouseout": {"state": {"target": ["22", "0", "31", "30", "25", "27", "11", "8", "11", "8", "3", "4", "6", "15", "17", "22", "31", "25", "29", "26", "18", "15", "15", "13"], "time": [1481, 3324, 3499, 4049, 4266, 4532, 4602, 4682, 5509, 6020, 6110, 6204, 8036, 8240, 10253, 13854, 16671, 16782, 19498, 19550, 19850, 20032, 20548, 28264]}, "edge": {"target": [], "time": []}}}, "displayed_time": "24.84", "trialTime": 28818, "trial_type": "mouselab-mdp", "trial_index": 21, "time_elapsed": 1290937, "internal_node_id": "0.0-4.0-1.0-12.0"}}, {"uniqueid": "w43080959:a83886465", "current_trial": 22, "dateTime": 1691160870386, "trialdata": {"revealed_states": [], "clicked_states": ["25", "27", "16", "21", "30", "8", "4", "5", "9"], "num_clicks_accrued": [0, 0, 0, 0, 0, 0, 0, 0, 0, 0, 0, 0, 0], "stateRewards": ["", -2, -2, -7, -13, -10, 49, -68, -1, 84, 70, 88, 1, 4, 4, 12, -57, 25, 30, 8, -1, -77, 57, 2, 3, 2, 3, -18, -80, 23, -15, -41, 70, 11], "withholdReward": false, "trial_id": "mdp_trial_14", "block": "test", "trialIndex": 15, "score": 59.4, "costs": -12.600000000000001, "simulationMode": [null, null, null, null, null], "rewards": [-2, -2, -7, -1, 84], "path": ["0", "0", "1", "2", "3", "8", "9"], "rt": [25971, 237, 387, 427, 429], "actions": ["up", "up", "up", "left", "up"], "actionTimes": [34814, 35574, 36514, 37464, 38399], "queries": {"click": {"state": {"target": ["25", "27", "16", "21", "30", "8", "4", "5", "9"], "time": [9900, 12366, 14249, 17959, 20770, 23264, 25919, 28344, 30830]}, "edge": {"target": [], "time": []}}, "mouseover": {"state": {"target": ["23", "24", "25", "26", "27", "27", "27", "10", "7", "16", "15", "14", "19", "21", "31", "30", "33", "30", "10", "8", "8", "3", "4", "4", "5", "9", "8", "10", "1", "0"], "time": [9218, 9386, 9518, 10490, 10722, 11851, 12083, 12852, 12883, 12961, 14820, 14892, 14977, 15489, 18686, 18922, 19582, 20467, 22399, 22512, 22899, 25052, 25199, 25599, 28016, 30448, 32932, 32999, 33315, 33598]}, "edge": {"target": [], "time": []}}, "mouseout": {"state": {"target": ["14", "13", "0", "0", "23", "24", "25", "26", "27", "27", "27", "10", "7", "16", "15", "14", "19", "21", "31", "30", "33", "30", "10", "8", "8", "3", "4", "4", "5", "9", "8", "10", "1", "0"], "time": [6809, 6848, 7215, 8971, 9351, 9468, 10437, 10576, 11618, 11935, 12825, 12878, 12905, 14799, 14849, 14952, 15437, 18535, 18754, 19412, 19766, 22077, 22433, 22534, 23481, 25132, 25399, 27864, 30315, 32716, 32966, 33033, 33449, 33648]}, "edge": {"target": [], "time": []}}}, "displayed_time": "38.91", "trialTime": 42983, "trial_type": "mouselab-mdp", "trial_index": 22, "time_elapsed": 1334884, "internal_node_id": "0.0-4.0-1.0-13.0"}}, {"uniqueid": "w43080959:a83886465", "current_trial": 23, "dateTime": 1691160893141, "trialdata": {"revealed_states": [], "clicked_states": ["8", "6"], "num_clicks_accrued": [0, 0, 0, 0, 0, 0, 0, 0, 0, 0, 0, 0, 0], "stateRewards": ["", 1, -1, 1, -14, -10, 67, -28, -11, 72, 40, -65, -1, 1, 1, -2, 8, -55, 34, -10, 61, 33, -15, 2, -4, 7, 4, -75, 63, -21, -16, 61, 19, 21], "withholdReward": false, "trial_id": "mdp_trial_15", "block": "test", "trialIndex": 16, "score": 51.2, "costs": -2.8, "simulationMode": [null, null, null, null, null], "rewards": [1, -1, 1, -14, 67], "path": ["0", "0", "1", "2", "3", "4", "6"], "rt": [8311, 257, 238, 159, 121], "actions": ["up", "up", "up", "right", "right"], "actionTimes": [12344, 13087, 13841, 14520, 15165], "queries": {"click": {"state": {"target": ["8", "6"], "time": [5985, 7800]}, "edge": {"target": [], "time": []}}, "mouseover": {"state": {"target": ["1", "2", "8", "3", "4", "6", "15", "17", "15", "13", "12"], "time": [4989, 5390, 5539, 6764, 6953, 7413, 9606, 9840, 10160, 10240, 10306]}, "edge": {"target": [], "time": []}}, "mouseout": {"state": {"target": ["21", "13", "12", "1", "2", "8", "3", "4", "6", "15", "17", "15", "13", "12"], "time": [306, 2857, 2941, 5340, 5489, 6729, 6947, 6981, 9406, 9757, 10125, 10207, 10259, 10390]}, "edge": {"target": [], "time": []}}}, "displayed_time": "18.04", "trialTime": 21848, "trial_type": "mouselab-mdp", "trial_index": 23, "time_elapsed": 1357639, "internal_node_id": "0.0-4.0-1.0-14.0"}}, {"uniqueid": "w43080959:a83886465", "current_trial": 24, "dateTime": 1691160922473, "trialdata": {"revealed_states": [], "clicked_states": ["17", "11", "29", "33", "22"], "num_clicks_accrued": [0, 0, 0, 0, 0, 0, 0, 0, 0, 0, 0, 0, 0], "stateRewards": ["", -2, -1, -4, -15, -14, -67, 32, -3, -59, 63, 31, 2, -1, -7, -15, 71, -66, -27, -3, -54, -39, 72, 2, 1, 1, -13, 77, -40, 35, -9, 35, 75, 57], "withholdReward": false, "trial_id": "mdp_trial_16", "block": "test", "trialIndex": 17, "score": 56, "costs": -7, "simulationMode": [null, null, null, null, null], "rewards": [2, -1, -7, -3, 72], "path": ["0", "0", "12", "13", "14", "19", "22"], "rt": [14256, 332, 283, 417, 425], "actions": ["right", "right", "right", "down", "left"], "actionTimes": [19114, 19962, 20764, 21682, 22622], "queries": {"click": {"state": {"target": ["17", "11", "29", "33", "22"], "time": [6407, 8538, 10728, 13083, 15365]}, "edge": {"target": [], "time": []}}, "mouseover": {"state": {"target": ["12", "13", "14", "17", "15", "2", "10", "11", "25", "29", "33", "30", "31", "22", "19", "19", "22"], "time": [5444, 5493, 5575, 6042, 7277, 7356, 7383, 7796, 9629, 10092, 12592, 13760, 13796, 13908, 14302, 14626, 14708]}, "edge": {"target": [], "time": []}}, "mouseout": {"state": {"target": ["0", "12", "13", "14", "17", "15", "2", "10", "11", "25", "29", "33", "30", "31", "22", "19", "19"], "time": [5426, 5476, 5526, 5892, 7272, 7299, 7378, 7437, 9313, 9733, 12288, 13755, 13790, 13817, 14280, 14391, 14676]}, "edge": {"target": [], "time": []}}}, "displayed_time": "23.15", "trialTime": 28367, "trial_type": "mouselab-mdp", "trial_index": 24, "time_elapsed": 1386971, "internal_node_id": "0.0-4.0-1.0-15.0"}}, {"uniqueid": "w43080959:a83886465", "current_trial": 25, "dateTime": 1691160954053, "trialdata": {"revealed_states": [], "clicked_states": ["29", "33", "17", "20", "11", "6"], "num_clicks_accrued": [0, 0, 0, 0, 0, 0, 0, 0, 0, 0, 0, 0, 0], "stateRewards": ["", 1, -4, 6, -3, 40, 76, -51, 5, -24, -63, 44, -2, -2, 8, 1, 76, -85, -58, 10, 59, 20, 11, -2, 3, -3, 3, -82, -10, 54, -7, -57, -6, -32], "withholdReward": false, "trial_id": "mdp_trial_17", "block": "test", "trialIndex": 18, "score": 67.6, "costs": -8.4, "simulationMode": [null, null, null, null, null], "rewards": [1, -4, 6, -3, 76], "path": ["0", "0", "1", "2", "3", "4", "6"], "rt": [17236, 257, 243, 332, 193], "actions": ["up", "up", "up", "right", "right"], "actionTimes": [20133, 20902, 21672, 22527, 23221], "queries": {"click": {"state": {"target": ["29", "33", "17", "20", "11", "6"], "time": [5851, 8077, 9677, 11749, 13979, 16141]}, "edge": {"target": [], "time": []}}, "mouseover": {"state": {"target": ["23", "26", "29", "33", "30", "12", "17", "20", "14", "2", "3", "8", "11", "8", "3", "4", "6", "5", "3", "2", "1"], "time": [5146, 5243, 5457, 6516, 8701, 8765, 9049, 10799, 12484, 12549, 12578, 12879, 13091, 15032, 15161, 15315, 15624, 18190, 19340, 19376, 19474]}, "edge": {"target": [], "time": []}}, "mouseout": {"state": {"target": ["0", "23", "26", "29", "33", "30", "12", "17", "20", "14", "2", "3", "8", "11", "8", "3", "4", "6", "5", "3", "2"], "time": [5128, 5181, 5357, 6379, 8679, 8726, 8787, 10529, 12460, 12508, 12572, 12609, 12957, 14993, 15106, 15254, 15508, 17545, 19291, 19359, 19441]}, "edge": {"target": [], "time": []}}}, "displayed_time": "23.76", "trialTime": 30497, "trial_type": "mouselab-mdp", "trial_index": 25, "time_elapsed": 1418551, "internal_node_id": "0.0-4.0-1.0-16.0"}}, {"uniqueid": "w43080959:a83886465", "current_trial": 26, "dateTime": 1691160995768, "trialdata": {"revealed_states": [], "clicked_states": ["9", "7", "18", "21", "32", "29", "27", "31", "6", "11", "5"], "num_clicks_accrued": [0, 0, 0, 0, 0, 0, 0, 0, 0, 0, 0, 0, 0], "stateRewards": ["", -2, -1, 3, -3, 71, -58, -21, 7, -10, -75, -37, 2, 4, -1, -12, -79, -29, -48, 3, -41, -10, -30, -1, -2, 1, -15, 13, 66, 22, -1, -42, -86, -55], "withholdReward": false, "trial_id": "mdp_trial_18", "block": "test", "trialIndex": 19, "score": 52.599999999999994, "costs": -15.400000000000002, "simulationMode": [null, null, null, null, null], "rewards": [-2, -1, 3, -3, 71], "path": ["0", "0", "1", "2", "3", "4", "5"], "rt": [29679, 98, 105, 438, 152], "actions": ["up", "up", "up", "right", "up"], "actionTimes": [32535, 33147, 33813, 34753, 35448], "queries": {"click": {"state": {"target": ["9", "7", "18", "21", "32", "29", "27", "31", "6", "11", "5"], "time": [4095, 6185, 8385, 11027, 13781, 16098, 18479, 21101, 23832, 26427, 29114]}, "edge": {"target": [], "time": []}}, "mouseover": {"state": {"target": ["8", "9", "3", "7", "18", "14", "19", "20", "21", "30", "32", "30", "25", "26", "29", "26", "27", "26", "25", "30", "31", "23", "1", "6", "4", "3", "8", "11", "8", "5", "6", "16", "15"], "time": [3485, 3729, 4815, 5003, 7227, 9144, 9403, 9836, 10727, 13279, 13412, 14608, 14737, 14971, 15729, 17626, 18061, 19814, 19950, 20129, 20544, 23095, 23130, 23361, 25335, 25727, 25877, 26144, 28579, 28694, 30437, 30695, 31327]}, "edge": {"target": [], "time": []}}, "mouseout": {"state": {"target": ["0", "8", "9", "3", "7", "18", "14", "19", "20", "21", "30", "32", "30", "25", "26", "29", "26", "27", "26", "25", "30", "31", "23", "1", "6", "4", "3", "8", "11", "8", "5", "6", "16", "15", "13", "20", "21"], "time": [1312, 3503, 4750, 4895, 7100, 9070, 9234, 9744, 10628, 11246, 13296, 14567, 14663, 14828, 15362, 17350, 17946, 19722, 19908, 20045, 20380, 23077, 23112, 23147, 25265, 25578, 25827, 26045, 28560, 28641, 30248, 30477, 30745, 31361, 36844, 36944, 39680]}, "edge": {"target": [], "time": []}}}, "displayed_time": "35.96", "trialTime": 40217, "trial_type": "mouselab-mdp", "trial_index": 26, "time_elapsed": 1460266, "internal_node_id": "0.0-4.0-1.0-17.0"}}, {"uniqueid": "w43080959:a83886465", "current_trial": 27, "dateTime": 1691161022726, "trialdata": {"revealed_states": [], "clicked_states": ["29", "7"], "num_clicks_accrued": [0, 0, 0, 0, 0, 0, 0, 0, 0, 0, 0, 0, 0], "stateRewards": ["", -2, -3, -6, -7, 9, 16, 65, 5, -41, 20, -25, -1, -4, 1, -11, -49, -4, 71, 1, 39, -62, 52, -2, -3, 7, -9, -28, -70, 84, 8, 24, -58, 82], "withholdReward": false, "trial_id": "mdp_trial_19", "block": "test", "trialIndex": 20, "score": 74.2, "costs": -2.8, "simulationMode": [null, null, null, null, null], "rewards": [-2, -3, 7, -9, 84], "path": ["0", "0", "23", "24", "25", "26", "29"], "rt": [6797, 181, 273, 397, 112], "actions": ["left", "left", "left", "up", "left"], "actionTimes": [13815, 14522, 15312, 16238, 16851], "queries": {"click": {"state": {"target": ["29", "7"], "time": [8511, 10140]}, "edge": {"target": [], "time": []}}, "mouseover": {"state": {"target": ["23", "24", "25", "26", "29", "26", "2", "7", "1", "23"], "time": [7551, 7602, 7701, 8035, 8150, 9059, 9450, 9565, 12534, 12702]}, "edge": {"target": [], "time": []}}, "mouseout": {"state": {"target": ["0", "23", "24", "25", "26", "29", "26", "2", "7", "1", "23", "22", "20"], "time": [7518, 7584, 7651, 7817, 8068, 9037, 9085, 9490, 12468, 12618, 23070, 23286, 23619]}, "edge": {"target": [], "time": []}}}, "displayed_time": "21.02", "trialTime": 25933, "trial_type": "mouselab-mdp", "trial_index": 27, "time_elapsed": 1487224, "internal_node_id": "0.0-4.0-1.0-18.0"}}, {"uniqueid": "w43080959:a83886465", "current_trial": 28, "dateTime": 1691161055395, "trialdata": {"revealed_states": [], "clicked_states": ["26", "15", "17", "11", "5", "32", "21"], "num_clicks_accrued": [0, 0, 0, 0, 0, 0, 0, 0, 0, 0, 0, 0, 0], "stateRewards": ["", -1, 3, 1, -7, 56, 76, 57, 3, 11, -9, 14, 1, -2, 2, 8, -77, -3, 79, -5, 88, 24, -66, -2, -1, 7, -7, -30, 14, -76, 11, -36, 28, -6], "withholdReward": false, "trial_id": "mdp_trial_20", "block": "test", "trialIndex": 21, "score": 42.2, "costs": -9.8, "simulationMode": [null, null, null, null, null], "rewards": [-1, 3, 1, -7, 56], "path": ["0", "0", "1", "2", "3", "4", "5"], "rt": [18318, 142, 257, 299, 83], "actions": ["up", "up", "up", "right", "up"], "actionTimes": [22041, 22705, 23470, 24327, 24935], "queries": {"click": {"state": {"target": ["26", "15", "17", "11", "5", "32", "21"], "time": [5127, 7309, 9193, 10932, 13021, 15713, 18328]}, "edge": {"target": [], "time": []}}, "mouseover": {"state": {"target": ["23", "24", "25", "26", "28", "1", "18", "15", "17", "8", "11", "8", "3", "4", "5", "4", "2", "31", "32", "32", "21", "21", "22", "0", "23", "28", "10", "3", "4", "4", "0"], "time": [4325, 4390, 4556, 4774, 5915, 5997, 6275, 6511, 7972, 10026, 10482, 11786, 11862, 11925, 12506, 14076, 14198, 14560, 14723, 15273, 17591, 17976, 20426, 20463, 20489, 20541, 20760, 20866, 21023, 21173, 21473]}, "edge": {"target": [], "time": []}}, "mouseout": {"state": {"target": ["0", "23", "24", "25", "26", "28", "1", "18", "15", "17", "8", "11", "8", "3", "4", "5", "4", "2", "31", "32", "32", "21", "21", "22", "0", "23", "28", "10", "3", "4", "4", "0"], "time": [4307, 4357, 4439, 4575, 5893, 5939, 6019, 6331, 7930, 9913, 10049, 11762, 11827, 11882, 12092, 14001, 14118, 14243, 14606, 15121, 16641, 17656, 20394, 20457, 20482, 20508, 20690, 20857, 20923, 21042, 21225, 21492]}, "edge": {"target": [], "time": []}}}, "displayed_time": "25.45", "trialTime": 31458, "trial_type": "mouselab-mdp", "trial_index": 28, "time_elapsed": 1519891, "internal_node_id": "0.0-4.0-1.0-19.0"}}, {"uniqueid": "w43080959:a83886465", "current_trial": 29, "dateTime": 1691161107619, "trialdata": {"revealed_states": [], "clicked_states": ["29", "16", "21", "31", "11", "5", "9", "33", "32", "18", "20", "27", "17", "28"], "num_clicks_accrued": [0, 0, 0, 0, 0, 0, 0, 0, 0, 0, 0, 0, 0], "stateRewards": ["", 1, 4, -4, 14, 35, 51, 19, -13, 54, 78, -74, -2, -1, -3, 13, -11, -42, -73, -15, -24, -3, -69, 2, -1, 5, 16, -27, 73, 58, 9, -60, 5, -60], "withholdReward": false, "trial_id": "mdp_trial_21", "block": "test", "trialIndex": 22, "score": 75.4, "costs": -19.599999999999998, "simulationMode": [null, null, null, null, null], "rewards": [2, -1, 5, 16, 73], "path": ["0", "0", "23", "24", "25", "26", "28"], "rt": [37977, 656, 217, 408, 254], "actions": ["left", "left", "left", "up", "right"], "actionTimes": [40869, 42037, 42798, 43713, 44477], "queries": {"click": {"state": {"target": ["29", "16", "21", "31", "11", "5", "9", "33", "32", "18", "20", "27", "17", "28"], "time": [5477, 8383, 10543, 12673, 15104, 17717, 20293, 22447, 24608, 27334, 29559, 32205, 35035, 37501]}, "edge": {"target": [], "time": []}}, "mouseover": {"state": {"target": ["23", "24", "25", "26", "29", "26", "7", "16", "19", "21", "30", "31", "11", "5", "9", "25", "33", "33", "32", "18", "14", "20", "13", "27", "27", "10", "2", "15", "17", "0", "24", "28"], "time": [3953, 4037, 4935, 5020, 5169, 6050, 6138, 6298, 9550, 9952, 11976, 12031, 14652, 17335, 19767, 21213, 21298, 21608, 23763, 26901, 28415, 29051, 30359, 31185, 31818, 34302, 34327, 34450, 34601, 35871, 35990, 36967]}, "edge": {"target": [], "time": []}}, "mouseout": {"state": {"target": ["0", "23", "24", "25", "26", "29", "26", "7", "16", "19", "21", "30", "31", "11", "5", "9", "25", "33", "33", "32", "18", "14", "20", "13", "27", "27", "10", "2", "15", "17", "0", "24", "28", "28", "14"], "time": [3922, 4002, 4905, 4955, 5052, 6022, 6074, 6168, 9241, 9599, 11393, 12007, 14156, 16605, 19540, 21138, 21237, 21342, 23345, 25982, 28313, 28620, 29767, 30384, 31202, 34268, 34321, 34357, 34484, 35864, 35896, 36584, 39400, 47312, 47400]}, "edge": {"target": [], "time": []}}}, "displayed_time": "44.99", "trialTime": 50330, "trial_type": "mouselab-mdp", "trial_index": 29, "time_elapsed": 1572117, "internal_node_id": "0.0-4.0-1.0-20.0"}}, {"uniqueid": "w43080959:a83886465", "current_trial": 30, "dateTime": 1691161141924, "trialdata": {"revealed_states": [], "clicked_states": ["27", "5", "6", "17", "11", "22", "31", "33", "28"], "num_clicks_accrued": [0, 0, 0, 0, 0, 0, 0, 0, 0, 0, 0, 0, 0], "stateRewards": ["", 2, -1, -2, -5, -47, -57, -33, -11, 31, -18, -72, -2, 1, -4, -8, -46, -53, -50, 15, -85, -9, 39, -2, -2, 1, 14, -1, -8, 53, -12, -41, -74, 62], "withholdReward": false, "trial_id": "mdp_trial_22", "block": "test", "trialIndex": 23, "score": 34.4, "costs": -12.600000000000001, "simulationMode": [null, null, null, null, null], "rewards": [-2, -2, 1, -12, 62], "path": ["0", "0", "23", "24", "25", "30", "33"], "rt": [22878, 147, 249, 436, 306], "actions": ["left", "left", "left", "down", "left"], "actionTimes": [25756, 26430, 27183, 28137, 28941], "queries": {"click": {"state": {"target": ["27", "5", "6", "17", "11", "22", "31", "33", "28"], "time": [4635, 6596, 8639, 10700, 12765, 15414, 17756, 20578, 22793]}, "edge": {"target": [], "time": []}}, "mouseover": {"state": {"target": ["23", "24", "28", "27", "4", "5", "6", "17", "2", "11", "2", "18", "13", "19", "20", "19", "22", "31", "30", "33", "25", "28"], "time": [3682, 3749, 3996, 4296, 5525, 5801, 7377, 9982, 11379, 11798, 13508, 13868, 13921, 14140, 14290, 14779, 15079, 17263, 19996, 20196, 21517, 21668]}, "edge": {"target": [], "time": []}}, "mouseout": {"state": {"target": ["0", "23", "24", "28", "27", "4", "5", "5", "6", "17", "2", "11", "2", "18", "13", "19", "20", "19", "22", "31", "30", "33", "25", "28", "1"], "time": [3663, 3713, 3767, 4096, 5286, 5770, 6813, 7284, 9395, 11371, 11409, 13397, 13565, 13895, 13988, 14168, 14749, 14863, 16319, 19955, 20097, 21454, 21585, 30399, 30445]}, "edge": {"target": [], "time": []}}}, "displayed_time": "29.45", "trialTime": 32965, "trial_type": "mouselab-mdp", "trial_index": 30, "time_elapsed": 1606422, "internal_node_id": "0.0-4.0-1.0-21.0"}}, {"uniqueid": "w43080959:a83886465", "current_trial": 31, "dateTime": 1691161182887, "trialdata": {"revealed_states": [], "clicked_states": [], "num_clicks_accrued": [0, 0, 0, 0, 0, 0, 0, 0, 0, 0, 0, 0, 0], "stateRewards": ["", 2, 3, -2, -8, -8, -41, 74, 15, -23, -80, 1, 1, 3, 3, -15, -63, -78, 67, 13, 75, -41, 86, 2, -2, 6, -3, -8, -49, 50, -6, 83, 74, 80], "withholdReward": false, "trial_id": "mdp_trial_23", "block": "test", "trialIndex": 24, "score": -62, "costs": 0, "simulationMode": [null, null, null, null, null], "rewards": [2, 3, -2, 15, -80], "path": ["0", "0", "1", "2", "3", "8", "10"], "rt": [7800, 233, 233, 605, 320], "actions": ["up", "up", "up", "left", "down"], "actionTimes": [27987, 28719, 29463, 30619, 31438], "queries": {"click": {"state": {"target": [], "time": []}, "edge": {"target": [], "time": []}}, "mouseover": {"state": {"target": ["23", "24", "26", "29", "26", "24"], "time": [21748, 21816, 22515, 23630, 24981, 25447]}, "edge": {"target": [], "time": []}}, "mouseout": {"state": {"target": ["0", "23", "24", "26", "29", "26", "24", "22", "19"], "time": [21714, 21797, 21881, 23565, 24914, 25080, 34942, 35049, 35096]}, "edge": {"target": [], "time": []}}}, "displayed_time": "34.19", "trialTime": 39880, "trial_type": "mouselab-mdp", "trial_index": 31, "time_elapsed": 1647385, "internal_node_id": "0.0-4.0-1.0-22.0"}}, {"uniqueid": "w43080959:a83886465", "current_trial": 32, "dateTime": 1691161228951, "trialdata": {"revealed_states": [], "clicked_states": ["21", "17", "6", "11", "9", "32", "33", "20", "29", "27", "28", "31"], "num_clicks_accrued": [0, 0, 0, 0, 0, 0, 0, 0, 0, 0, 0, 0, 0], "stateRewards": ["", -1, 2, 5, -6, 13, -64, -47, 8, -79, -80, -33, 1, 2, -2, -16, 56, -71, -10, 3, 29, 44, 85, -1, 4, 5, 4, -36, -56, 19, 8, 52, -13, -2], "withholdReward": false, "trial_id": "mdp_trial_24", "block": "test", "trialIndex": 25, "score": 51.2, "costs": -16.8, "simulationMode": [null, null, null, null, null], "rewards": [-1, 4, 5, 8, 52], "path": ["0", "0", "23", "24", "25", "30", "31"], "rt": [28683, 376, 264, 1177, 272], "actions": ["left", "left", "left", "down", "right"], "actionTimes": [30774, 31655, 32423, 34101, 34880], "queries": {"click": {"state": {"target": ["21", "17", "6", "11", "9", "32", "33", "20", "29", "27", "28", "31"], "time": [3308, 6580, 8524, 10629, 12684, 14733, 16895, 19023, 21216, 23454, 25524, 27490]}, "edge": {"target": [], "time": []}}, "mouseover": {"state": {"target": ["22", "21", "19", "17", "16", "6", "4", "3", "8", "11", "9", "28", "30", "32", "33", "25", "24", "21", "20", "19", "23", "29", "26", "27", "28", "24", "31", "22"], "time": [2687, 2853, 3951, 4121, 7155, 7357, 9491, 9559, 9796, 10065, 12219, 13539, 13773, 14022, 16118, 17875, 17935, 18073, 18452, 19706, 19815, 20437, 22432, 22869, 24225, 26242, 26518, 28795]}, "edge": {"target": [], "time": []}}, "mouseout": {"state": {"target": ["22", "0", "22", "21", "19", "17", "16", "6", "4", "3", "8", "11", "9", "28", "30", "32", "33", "25", "24", "21", "20", "19", "23", "29", "26", "27", "28", "28", "24", "31", "22", "19"], "time": [784, 2603, 2720, 3907, 3977, 6807, 7202, 8760, 9517, 9661, 9921, 11780, 13386, 13565, 13977, 15809, 17791, 17908, 17959, 18420, 19675, 19730, 20157, 22080, 22614, 24080, 25723, 26195, 26288, 28245, 42485, 42601]}, "edge": {"target": [], "time": []}}}, "displayed_time": "35.40", "trialTime": 44856, "trial_type": "mouselab-mdp", "trial_index": 32, "time_elapsed": 1693450, "internal_node_id": "0.0-4.0-1.0-23.0"}}, {"uniqueid": "w43080959:a83886465", "current_trial": 33, "dateTime": 1691161256849, "trialdata": {"revealed_states": [], "clicked_states": ["8", "4", "6", "17", "33", "27"], "num_clicks_accrued": [0, 0, 0, 0, 0, 0, 0, 0, 0, 0, 0, 0, 0], "stateRewards": ["", -2, 2, 3, -7, -31, -33, 29, -8, -57, 50, -83, -1, -1, 5, 13, -23, -62, 25, 5, -66, -85, 14, 1, -2, -1, 16, 71, 33, -19, -14, 5, -43, 79], "withholdReward": false, "trial_id": "mdp_trial_25", "block": "test", "trialIndex": 26, "score": 54.6, "costs": -8.4, "simulationMode": [null, null, null, null, null], "rewards": [1, -2, -1, -14, 79], "path": ["0", "0", "23", "24", "25", "30", "33"], "rt": [13813, 186, 226, 651, 1156], "actions": ["left", "left", "left", "down", "left"], "actionTimes": [17861, 18603, 19350, 20510, 22164], "queries": {"click": {"state": {"target": ["8", "4", "6", "17", "33", "27"], "time": [6108, 8204, 9884, 11803, 13590, 15611]}, "edge": {"target": [], "time": []}}, "mouseover": {"state": {"target": ["1", "2", "8", "3", "4", "6", "16", "17", "15", "12", "23", "24", "30", "33", "29", "27"], "time": [4936, 5585, 5769, 6701, 6950, 9021, 11114, 11414, 12501, 12569, 12638, 12690, 12905, 13235, 14860, 15022]}, "edge": {"target": [], "time": []}}, "mouseout": {"state": {"target": ["32", "33", "30", "23", "0", "1", "2", "8", "3", "4", "6", "16", "17", "15", "12", "23", "24", "30", "33", "29", "27", "8", "4", "6"], "time": [1500, 1884, 1918, 2286, 4596, 5555, 5635, 6669, 6785, 8976, 11074, 11158, 12475, 12525, 12593, 12666, 12761, 12988, 14554, 14904, 15801, 24053, 24089, 24108]}, "edge": {"target": [], "time": []}}}, "displayed_time": "22.70", "trialTime": 26802, "trial_type": "mouselab-mdp", "trial_index": 33, "time_elapsed": 1721348, "internal_node_id": "0.0-4.0-1.0-24.0"}}, {"uniqueid": "w43080959:a83886465", "current_trial": 34, "dateTime": 1691161280901, "trialdata": {"revealed_states": [], "clicked_states": ["17", "11", "7", "28"], "num_clicks_accrued": [0, 0, 0, 0, 0, 0, 0, 0, 0, 0, 0, 0, 0], "stateRewards": ["", 2, -1, -1, 7, 11, -40, -22, -2, 69, 37, 8, -2, 4, -8, -12, -2, -72, -3, -12, 17, 63, 12, 1, 3, -7, 6, 25, 61, 61, -9, 28, -17, 27], "withholdReward": false, "trial_id": "mdp_trial_26", "block": "test", "trialIndex": 27, "score": 58.4, "costs": -5.6, "simulationMode": [null, null, null, null, null], "rewards": [1, 3, -7, 6, 61], "path": ["0", "0", "23", "24", "25", "26", "28"], "rt": [11556, 202, 834, 230, 104], "actions": ["left", "left", "left", "up", "right"], "actionTimes": [14183, 14904, 16254, 17053, 17673], "queries": {"click": {"state": {"target": ["17", "11", "7", "28"], "time": [4244, 6163, 8371, 10460]}, "edge": {"target": [], "time": []}}, "mouseover": {"state": {"target": ["12", "13", "15", "17", "15", "18", "2", "11", "8", "2", "7", "1", "28", "26", "27", "29"], "time": [3481, 3549, 3681, 3897, 5002, 5052, 5187, 5419, 6963, 7191, 7450, 9135, 9356, 11932, 12197, 12580]}, "edge": {"target": [], "time": []}}, "mouseout": {"state": {"target": ["0", "12", "13", "15", "17", "15", "18", "2", "11", "8", "2", "7", "1", "28", "26", "27", "29", "28", "0", "20"], "time": [1514, 3516, 3613, 3764, 4973, 5028, 5083, 5265, 6918, 6987, 7292, 9088, 9161, 11888, 12137, 12397, 20570, 20597, 20630, 20712]}, "edge": {"target": [], "time": []}}}, "displayed_time": "18.17", "trialTime": 22866, "trial_type": "mouselab-mdp", "trial_index": 34, "time_elapsed": 1745399, "internal_node_id": "0.0-4.0-1.0-25.0"}}, {"uniqueid": "w43080959:a83886465", "current_trial": 35, "dateTime": 1691161305265, "trialdata": {"revealed_states": [], "clicked_states": ["29", "17", "22", "9"], "num_clicks_accrued": [0, 0, 0, 0, 0, 0, 0, 0, 0, 0, 0, 0, 0], "stateRewards": ["", -2, -3, 1, -7, 39, -67, 16, 5, -20, 73, 66, -1, 4, 5, -3, 23, -68, -87, -8, 3, -3, 17, 1, -4, -2, -13, -32, 34, 61, -5, -11, -18, 12], "withholdReward": false, "trial_id": "mdp_trial_27", "block": "test", "trialIndex": 28, "score": 37.4, "costs": -5.6, "simulationMode": [null, null, null, null, null], "rewards": [1, -4, -2, -13, 61], "path": ["0", "0", "23", "24", "25", "26", "29"], "rt": [11593, 105, 164, 271, 533], "actions": ["left", "left", "left", "up", "left"], "actionTimes": [14511, 15118, 15793, 16583, 17612], "queries": {"click": {"state": {"target": ["29", "17", "22", "9"], "time": [4535, 6169, 8732, 11581]}, "edge": {"target": [], "time": []}}, "mouseover": {"state": {"target": ["23", "24", "25", "26", "29", "26", "15", "17", "14", "19", "22", "12", "1", "9"], "time": [3507, 3545, 3623, 3874, 4175, 5112, 5337, 5688, 8057, 8241, 8357, 10841, 10892, 11107]}, "edge": {"target": [], "time": []}}, "mouseout": {"state": {"target": ["0", "23", "24", "25", "26", "29", "26", "15", "17", "14", "19", "22", "12", "1", "9", "5", "14", "22"], "time": [3482, 3526, 3590, 3642, 4075, 4750, 5143, 5609, 7807, 8077, 8259, 10790, 10874, 10924, 11789, 19323, 21456, 21676]}, "edge": {"target": [], "time": []}}}, "displayed_time": "18.13", "trialTime": 23275, "trial_type": "mouselab-mdp", "trial_index": 35, "time_elapsed": 1769764, "internal_node_id": "0.0-4.0-1.0-26.0"}}, {"uniqueid": "w43080959:a83886465", "current_trial": 36, "dateTime": 1691161325211, "trialdata": {"revealed_states": [], "clicked_states": ["28", "31"], "num_clicks_accrued": [0, 0, 0, 0, 0, 0, 0, 0, 0, 0, 0, 0, 0], "stateRewards": ["", -2, -3, 4, 1, 33, -53, 15, 9, -12, 61, -6, -2, 4, 6, -11, 47, -43, -7, -11, 46, 23, -28, -1, -1, 3, -10, 11, 76, -76, 10, 18, -38, 87], "withholdReward": false, "trial_id": "mdp_trial_28", "block": "test", "trialIndex": 29, "score": 64.2, "costs": -2.8, "simulationMode": [null, null, null, null, null], "rewards": [-1, -1, 3, -10, 76], "path": ["0", "0", "23", "24", "25", "26", "28"], "rt": [5913, 162, 240, 350, 75], "actions": ["left", "left", "left", "up", "right"], "actionTimes": [8227, 8886, 9632, 10491, 11065], "queries": {"click": {"state": {"target": ["28", "31"], "time": [3843, 5812]}, "edge": {"target": [], "time": []}}, "mouseover": {"state": {"target": ["23", "28", "28", "24", "31", "31"], "time": [3003, 3152, 3503, 4640, 4986, 5197]}, "edge": {"target": [], "time": []}}, "mouseout": {"state": {"target": ["20", "22", "0", "23", "28", "28", "24", "31", "31", "21"], "time": [651, 1070, 1451, 3035, 3287, 4578, 4670, 5009, 13358, 17193]}, "edge": {"target": [], "time": []}}}, "displayed_time": "16.32", "trialTime": 18800, "trial_type": "mouselab-mdp", "trial_index": 36, "time_elapsed": 1789709, "internal_node_id": "0.0-4.0-1.0-27.0"}}, {"uniqueid": "w43080959:a83886465", "current_trial": 37, "dateTime": 1691161363728, "trialdata": {"revealed_states": [], "clicked_states": ["17", "22", "29", "31", "9", "5", "6", "11", "21", "33"], "num_clicks_accrued": [0, 0, 0, 0, 0, 0, 0, 0, 0, 0, 0, 0, 0], "stateRewards": ["", -1, 1, 8, -3, -24, 11, -65, -6, -77, 48, 44, -2, 1, -2, -7, -55, -35, 33, 8, -28, 19, -53, -1, -1, -5, -5, -70, 10, 44, 8, -58, -70, 51], "withholdReward": false, "trial_id": "mdp_trial_29", "block": "test", "trialIndex": 30, "score": 38, "costs": -14.000000000000002, "simulationMode": [null, null, null, null, null], "rewards": [-1, -1, -5, 8, 51], "path": ["0", "0", "23", "24", "25", "30", "33"], "rt": [26851, 848, 315, 687, 269], "actions": ["left", "left", "left", "down", "left"], "actionTimes": [29239, 30612, 31428, 32617, 33383], "queries": {"click": {"state": {"target": ["17", "22", "29", "31", "9", "5", "6", "11", "21", "33"], "time": [3881, 5843, 7923, 10072, 13521, 16214, 18543, 20752, 22891, 25420]}, "edge": {"target": [], "time": []}}, "mouseover": {"state": {"target": ["12", "15", "17", "14", "22", "25", "26", "29", "25", "31", "10", "9", "4", "4", "5", "4", "4", "6", "4", "3", "8", "11", "10", "1", "12", "22", "21", "31", "30", "33", "25", "28", "10", "10"], "time": [3150, 3275, 3491, 4533, 4724, 6583, 7225, 7333, 8792, 9077, 12560, 13174, 15458, 15825, 15924, 17445, 17958, 18242, 19205, 19284, 19336, 20028, 21461, 21512, 21542, 21595, 22291, 24387, 24824, 25057, 26411, 26479, 26569, 27711]}, "edge": {"target": [], "time": []}}, "mouseout": {"state": {"target": ["19", "22", "12", "0", "12", "15", "17", "14", "22", "25", "26", "29", "29", "25", "31", "10", "9", "4", "4", "5", "4", "4", "6", "4", "3", "8", "11", "10", "1", "12", "22", "21", "31", "30", "33", "25", "28", "10", "10", "31", "21"], "time": [865, 948, 1223, 1273, 3170, 3391, 4447, 4600, 6480, 7162, 7271, 8161, 8649, 8854, 12482, 12581, 15375, 15558, 15857, 17349, 17469, 18091, 19177, 19256, 19311, 19457, 21399, 21485, 21537, 21569, 22065, 23548, 24425, 24890, 26345, 26436, 26524, 26730, 27839, 35476, 36958]}, "edge": {"target": [], "time": []}}}, "displayed_time": "33.90", "trialTime": 37424, "trial_type": "mouselab-mdp", "trial_index": 37, "time_elapsed": 1828227, "internal_node_id": "0.0-4.0-1.0-28.0"}}, {"uniqueid": "w43080959:a83886465", "current_trial": 38, "dateTime": 1691161394185, "trialdata": {"revealed_states": [], "clicked_states": ["32", "22", "29", "11", "5", "6", "9"], "num_clicks_accrued": [0, 0, 0, 0, 0, 0, 0, 0, 0, 0, 0, 0, 0], "stateRewards": ["", 2, -3, 5, 11, -79, 54, 11, -9, -78, 33, 22, -2, -1, 2, 14, 43, 34, 1, 10, 49, -65, 39, -1, 1, -1, 3, -16, -2, 11, 2, 12, 48, -65], "withholdReward": false, "trial_id": "mdp_trial_30", "block": "test", "trialIndex": 31, "score": 59.2, "costs": -9.8, "simulationMode": [null, null, null, null, null], "rewards": [2, -3, 5, 11, 54], "path": ["0", "0", "1", "2", "3", "4", "6"], "rt": [19890, 8, 115, 467, 229], "actions": ["up", "up", "up", "right", "right"], "actionTimes": [21867, 22416, 23071, 24040, 24787], "queries": {"click": {"state": {"target": ["32", "22", "29", "11", "5", "6", "9"], "time": [3023, 5089, 8055, 10658, 12950, 16819, 19436]}, "edge": {"target": [], "time": []}}, "mouseover": {"state": {"target": ["31", "30", "32", "22", "25", "29", "27", "11", "8", "3", "4", "6", "5", "9", "4", "6", "6", "4", "9"], "time": [2386, 2469, 2670, 4324, 6869, 7752, 9936, 10232, 11384, 11434, 11503, 11736, 12568, 15118, 15935, 15986, 16488, 18702, 19002]}, "edge": {"target": [], "time": []}}, "mouseout": {"state": {"target": ["0", "31", "30", "32", "22", "25", "29", "27", "11", "8", "3", "4", "6", "5", "9", "4", "6", "6", "4", "9", "3", "7", "17"], "time": [2287, 2436, 2620, 3792, 6199, 6919, 9575, 10002, 11359, 11408, 11458, 11652, 12369, 15003, 15885, 15955, 16019, 18636, 18721, 27636, 27735, 27853, 28036]}, "edge": {"target": [], "time": []}}}, "displayed_time": "25.29", "trialTime": 29113, "trial_type": "mouselab-mdp", "trial_index": 38, "time_elapsed": 1858684, "internal_node_id": "0.0-4.0-1.0-29.0"}}, {"uniqueid": "w43080959:a83886465", "current_trial": 39, "dateTime": 1691161416704, "trialdata": {"revealed_states": [], "clicked_states": ["29", "5", "17", "22"], "num_clicks_accrued": [0, 0, 0, 0, 0, 0, 0, 0, 0, 0, 0, 0, 0], "stateRewards": ["", 2, 3, -1, 16, -78, -11, 46, 2, -20, 79, -67, 2, 3, 2, 11, -83, -42, -58, -11, -67, -22, 55, 2, -1, -1, -16, -83, -82, 23, -11, -29, 13, 13], "withholdReward": false, "trial_id": "mdp_trial_31", "block": "test", "trialIndex": 32, "score": 45.4, "costs": -5.6, "simulationMode": [null, null, null, null, null], "rewards": [2, 3, 2, -11, 55], "path": ["0", "0", "12", "13", "14", "19", "22"], "rt": [10877, 207, 212, 242, 86], "actions": ["right", "right", "right", "down", "left"], "actionTimes": [14130, 14835, 15555, 16320, 16913], "queries": {"click": {"state": {"target": ["29", "5", "17", "22"], "time": [4919, 6675, 8831, 10930]}, "edge": {"target": [], "time": []}}, "mouseover": {"state": {"target": ["23", "24", "26", "29", "27", "8", "3", "5", "17", "14", "22", "31", "31", "31"], "time": [3941, 4092, 4205, 4622, 5713, 6060, 6128, 6209, 8455, 10078, 10564, 12554, 13021, 13340]}, "edge": {"target": [], "time": []}}, "mouseout": {"state": {"target": ["13", "12", "0", "23", "24", "26", "29", "27", "8", "3", "5", "5", "17", "17", "14", "22", "31", "31", "31", "20"], "time": [1388, 1454, 3893, 4055, 4158, 4555, 5534, 5859, 6115, 6175, 6904, 7842, 9068, 9732, 10230, 11155, 12788, 13158, 13372, 18622]}, "edge": {"target": [], "time": []}}}, "displayed_time": "17.41", "trialTime": 20833, "trial_type": "mouselab-mdp", "trial_index": 39, "time_elapsed": 1881202, "internal_node_id": "0.0-4.0-1.0-30.0"}}, {"uniqueid": "w43080959:a83886465", "current_trial": 40, "dateTime": 1691161441024, "trialdata": {"revealed_states": [], "clicked_states": ["27", "16", "5", "9"], "num_clicks_accrued": [0, 0, 0, 0, 0, 0, 0, 0, 0, 0, 0, 0, 0], "stateRewards": ["", -1, 3, -4, -14, 78, 67, 2, 13, -32, 28, 39, -2, 1, -4, -4, -4, -42, -86, 11, 64, -29, -32, -1, -4, 2, -7, 5, 68, -61, 2, -21, 85, 50], "withholdReward": false, "trial_id": "mdp_trial_32", "block": "test", "trialIndex": 33, "score": 56.4, "costs": -5.6, "simulationMode": [null, null, null, null, null], "rewards": [-1, 3, -4, -14, 78], "path": ["0", "0", "1", "2", "3", "4", "5"], "rt": [11664, 797, 266, 328, 166], "actions": ["up", "up", "up", "right", "up"], "actionTimes": [13881, 15188, 15954, 16784, 17484], "queries": {"click": {"state": {"target": ["27", "16", "5", "9"], "time": [3944, 7043, 9645, 11654]}, "edge": {"target": [], "time": []}}, "mouseover": {"state": {"target": ["23", "28", "26", "27", "7", "16", "5", "9"], "time": [2650, 2861, 2951, 3633, 4622, 5025, 8034, 10688]}, "edge": {"target": [], "time": []}}, "mouseout": {"state": {"target": ["0", "23", "28", "26", "27", "7", "16", "5", "9", "6"], "time": [1367, 2704, 2918, 3583, 4490, 4724, 7780, 10466, 19853, 19953]}, "edge": {"target": [], "time": []}}}, "displayed_time": "17.99", "trialTime": 23132, "trial_type": "mouselab-mdp", "trial_index": 40, "time_elapsed": 1905522, "internal_node_id": "0.0-4.0-1.0-31.0"}}, {"uniqueid": "w43080959:a83886465", "current_trial": 41, "dateTime": 1691161470959, "trialdata": {"revealed_states": [], "clicked_states": ["31", "21", "16"], "num_clicks_accrued": [0, 0, 0, 0, 0, 0, 0, 0, 0, 0, 0, 0, 0], "stateRewards": ["", -1, -4, -3, 1, -45, -67, -24, 14, 32, 22, 22, -1, 1, -5, -7, 72, 84, -79, -5, 19, -40, -2, -1, -2, 8, -3, 84, -25, -28, 11, 64, -66, 77], "withholdReward": false, "trial_id": "mdp_trial_33", "block": "test", "trialIndex": 34, "score": 55.8, "costs": -4.199999999999999, "simulationMode": [null, null, null, null, null], "rewards": [-1, 1, -5, -7, 72], "path": ["0", "0", "12", "13", "14", "15", "16"], "rt": [9203, 152, 184, 89, 135], "actions": ["right", "right", "right", "up", "up"], "actionTimes": [19839, 20515, 21199, 21785, 22431], "queries": {"click": {"state": {"target": ["31", "21", "16"], "time": [11646, 13797, 16672]}, "edge": {"target": [], "time": []}}, "mouseover": {"state": {"target": ["30", "31", "21", "19", "14", "15", "16"], "time": [11040, 11273, 12851, 15974, 16033, 16076, 16240]}, "edge": {"target": [], "time": []}}, "mouseout": {"state": {"target": ["0", "30", "31", "21", "19", "14", "15", "16", "21"], "time": [9096, 11190, 12412, 15940, 16007, 16055, 16139, 18773, 28106]}, "edge": {"target": [], "time": []}}}, "displayed_time": "24.64", "trialTime": 28759, "trial_type": "mouselab-mdp", "trial_index": 41, "time_elapsed": 1935457, "internal_node_id": "0.0-4.0-1.0-32.0"}}, {"uniqueid": "w43080959:a83886465", "current_trial": 42, "dateTime": 1691161494349, "trialdata": {"revealed_states": [], "clicked_states": ["29", "31", "22"], "num_clicks_accrued": [0, 0, 0, 0, 0, 0, 0, 0, 0, 0, 0, 0, 0], "stateRewards": ["", 1, 2, -8, 9, 18, -83, -11, 6, -64, -48, 17, -2, -2, -5, -3, -24, -3, -86, -2, 48, -41, -22, -2, 4, 7, 8, 81, 13, -48, 10, 61, 19, 57], "withholdReward": false, "trial_id": "mdp_trial_34", "block": "test", "trialIndex": 35, "score": 75.8, "costs": -4.199999999999999, "simulationMode": [null, null, null, null, null], "rewards": [-2, 4, 7, 10, 61], "path": ["0", "0", "23", "24", "25", "30", "31"], "rt": [8684, 187, 230, 275, 114], "actions": ["left", "left", "left", "down", "right"], "actionTimes": [11372, 12072, 12831, 13576, 14225], "queries": {"click": {"state": {"target": ["29", "31", "22"], "time": [4389, 6370, 8292]}, "edge": {"target": [], "time": []}}, "mouseover": {"state": {"target": ["23", "24", "26", "29", "26", "25", "30", "31", "22"], "time": [3627, 3711, 3927, 4013, 4985, 5079, 5300, 5853, 7237]}, "edge": {"target": [], "time": []}}, "mouseout": {"state": {"target": ["22", "0", "23", "24", "26", "29", "26", "25", "30", "31", "22", "20"], "time": [1159, 3595, 3678, 3744, 3947, 4601, 5033, 5172, 5713, 7002, 17615, 17696]}, "edge": {"target": [], "time": []}}}, "displayed_time": "16.69", "trialTime": 21920, "trial_type": "mouselab-mdp", "trial_index": 42, "time_elapsed": 1958847, "internal_node_id": "0.0-4.0-1.0-33.0"}}, {"uniqueid": "w43080959:a83886465", "current_trial": 43, "dateTime": 1691161527454, "trialdata": {"revealed_states": [], "clicked_states": ["16", "10", "28", "33", "17", "21", "5", "9", "6"], "num_clicks_accrued": [0, 0, 0, 0, 0, 0, 0, 0, 0, 0, 0, 0, 0], "stateRewards": ["", 1, -1, -7, -7, -22, 15, -13, 13, 26, -32, 38, -1, 1, -7, -4, 16, -62, 86, 12, -54, 56, 64, -2, -1, 6, 14, -57, 37, 62, -6, -25, 50, -70], "withholdReward": false, "trial_id": "mdp_trial_35", "block": "test", "trialIndex": 36, "score": 48.4, "costs": -12.600000000000001, "simulationMode": [null, null, null, null, null], "rewards": [-1, 1, -7, 12, 56], "path": ["0", "0", "12", "13", "14", "19", "21"], "rt": [23219, 450, 250, 530, 151], "actions": ["right", "right", "right", "down", "down"], "actionTimes": [25830, 26799, 27548, 28577, 29232], "queries": {"click": {"state": {"target": ["16", "10", "28", "33", "17", "21", "5", "9", "6"], "time": [4092, 6341, 8351, 9915, 11822, 13930, 16688, 19003, 22796]}, "edge": {"target": [], "time": []}}, "mouseover": {"state": {"target": ["16", "7", "2", "10", "28", "24", "30", "33", "23", "14", "17", "21", "19", "18", "4", "5", "9", "8", "2", "1", "0", "6", "18", "13"], "time": [3593, 5165, 5237, 5393, 7573, 9058, 9154, 9441, 10724, 10797, 11261, 13493, 15541, 15759, 15892, 16112, 18391, 21195, 21249, 21280, 21392, 22342, 25058, 25112]}, "edge": {"target": [], "time": []}}, "mouseout": {"state": {"target": ["20", "19", "12", "0", "16", "7", "2", "10", "28", "24", "30", "33", "23", "14", "17", "21", "19", "18", "4", "5", "9", "8", "2", "1", "0", "6", "18", "13", "13", "14", "19"], "time": [891, 928, 1423, 1609, 4292, 5191, 5285, 7507, 9030, 9085, 9328, 10679, 10750, 10823, 12720, 15492, 15575, 15792, 15992, 18037, 21175, 21231, 21275, 21308, 21414, 25004, 25091, 25174, 30808, 30891, 31058]}, "edge": {"target": [], "time": []}}}, "displayed_time": "29.73", "trialTime": 31840, "trial_type": "mouselab-mdp", "trial_index": 43, "time_elapsed": 1991952, "internal_node_id": "0.0-4.0-1.0-34.0"}}, {"uniqueid": "w43080959:a83886465", "current_trial": 44, "dateTime": 1691161547952, "trialdata": {"revealed_states": [], "clicked_states": ["32", "27", "9", "6"], "num_clicks_accrued": [0, 0, 0, 0, 0, 0, 0, 0, 0, 0, 0, 0, 0], "stateRewards": ["", -1, -2, -1, -10, -57, 73, -72, -16, 75, -14, -46, -2, -3, -7, -1, -61, -60, 76, -4, 50, 4, 14, 2, 2, -7, 12, -65, -32, 15, -8, -76, -25, -61], "withholdReward": false, "trial_id": "mdp_trial_36", "block": "test", "trialIndex": 37, "score": 49.4, "costs": -5.6, "simulationMode": [null, null, null, null, null], "rewards": [-1, -2, -1, -16, 75], "path": ["0", "0", "1", "2", "3", "8", "9"], "rt": [9574, 202, 151, 429, 256], "actions": ["up", "up", "up", "left", "up"], "actionTimes": [11842, 12542, 13190, 14118, 14878], "queries": {"click": {"state": {"target": ["32", "27", "9", "6"], "time": [3906, 5488, 7184, 9814]}, "edge": {"target": [], "time": []}}, "mouseover": {"state": {"target": ["30", "32", "32", "30", "25", "26", "27", "11", "9", "5", "6"], "time": [2818, 2950, 3553, 4392, 4446, 4541, 4823, 6384, 6567, 7974, 8231]}, "edge": {"target": [], "time": []}}, "mouseout": {"state": {"target": ["22", "0", "30", "32", "32", "30", "25", "26", "27", "11", "9", "5", "6", "21"], "time": [917, 2651, 2884, 2983, 4360, 4419, 4494, 4631, 6324, 6433, 7762, 8039, 17228, 18616]}, "edge": {"target": [], "time": []}}}, "displayed_time": "16.27", "trialTime": 19098, "trial_type": "mouselab-mdp", "trial_index": 44, "time_elapsed": 2012449, "internal_node_id": "0.0-4.0-1.0-35.0"}}, {"uniqueid": "w43080959:a83886465", "current_trial": 45, "dateTime": 1691161571642, "trialdata": {"revealed_states": [], "clicked_states": ["6", "11", "27", "32", "21", "16"], "num_clicks_accrued": [0, 0, 0, 0, 0, 0, 0, 0, 0, 0, 0, 0, 0], "stateRewards": ["", 1, 2, -3, -6, 50, -7, 7, -7, -80, 21, -1, 2, 2, 4, -1, 33, 84, 1, 14, -53, 81, 6, -2, -2, -3, -9, -87, -38, -59, -5, -74, -3, -71], "withholdReward": false, "trial_id": "mdp_trial_37", "block": "test", "trialIndex": 38, "score": 94.6, "costs": -8.4, "simulationMode": [null, null, null, null, null], "rewards": [2, 2, 4, 14, 81], "path": ["0", "0", "12", "13", "14", "19", "21"], "rt": [15310, 113, 218, 338, 223], "actions": ["right", "right", "right", "down", "down"], "actionTimes": [17315, 18013, 18733, 19570, 20289], "queries": {"click": {"state": {"target": ["6", "11", "27", "32", "21", "16"], "time": [3017, 5882, 8070, 10037, 12077, 14296]}, "edge": {"target": [], "time": []}}, "mouseover": {"state": {"target": ["7", "4", "6", "4", "3", "8", "11", "27", "26", "27", "26", "25", "30", "32", "21", "19", "14", "15", "16", "17", "19"], "time": [2344, 2444, 2627, 3598, 3630, 3684, 3917, 6466, 6522, 7038, 8692, 8747, 8823, 9084, 11230, 12828, 13210, 13399, 13864, 15614, 15877]}, "edge": {"target": [], "time": []}}, "mouseout": {"state": {"target": ["22", "0", "7", "4", "6", "4", "3", "8", "11", "27", "26", "27", "26", "25", "30", "32", "21", "19", "14", "15", "16", "17", "19"], "time": [776, 2211, 2410, 2477, 3569, 3625, 3657, 3763, 6418, 6495, 6911, 8685, 8721, 8796, 8927, 10734, 12277, 13097, 13349, 13761, 15046, 15715, 15944]}, "edge": {"target": [], "time": []}}}, "displayed_time": "20.80", "trialTime": 22482, "trial_type": "mouselab-mdp", "trial_index": 45, "time_elapsed": 2036140, "internal_node_id": "0.0-4.0-1.0-36.0"}}, {"uniqueid": "w43080959:a83886465", "current_trial": 46, "dateTime": 1691161594433, "trialdata": {"revealed_states": [], "clicked_states": ["29", "6", "9", "22", "31"], "num_clicks_accrued": [0, 0, 0, 0, 0, 0, 0, 0, 0, 0, 0, 0, 0], "stateRewards": ["", -2, -1, -3, -1, -78, -6, 2, -1, 22, -88, 32, 2, 2, -7, -8, -51, -17, 54, 2, -44, 54, 75, 2, -2, -8, -15, -29, 12, -67, 15, -1, -47, -47], "withholdReward": false, "trial_id": "mdp_trial_38", "block": "test", "trialIndex": 39, "score": 67, "costs": -7, "simulationMode": [null, null, null, null, null], "rewards": [2, 2, -7, 2, 75], "path": ["0", "0", "12", "13", "14", "19", "22"], "rt": [12019, 137, 239, 217, 608], "actions": ["right", "right", "right", "down", "left"], "actionTimes": [13875, 14542, 15299, 16059, 17179], "queries": {"click": {"state": {"target": ["29", "6", "9", "22", "31"], "time": [4025, 5739, 7775, 9724, 11793]}, "edge": {"target": [], "time": []}}, "mouseover": {"state": {"target": ["0", "23", "24", "25", "29", "26", "10", "4", "6", "4", "9", "3", "14", "19", "21", "22", "31", "30", "31"], "time": [2529, 2581, 2648, 2881, 3747, 4674, 4773, 4870, 5115, 6939, 7119, 8300, 8400, 8870, 9082, 9363, 10512, 11003, 11225]}, "edge": {"target": [], "time": []}}, "mouseout": {"state": {"target": ["0", "0", "23", "24", "25", "29", "26", "10", "4", "6", "4", "9", "3", "14", "19", "21", "22", "31", "30", "31"], "time": [979, 2551, 2614, 2697, 3582, 4621, 4703, 4800, 4940, 6913, 6988, 8272, 8329, 8428, 8898, 9233, 10413, 10585, 11155, 20113]}, "edge": {"target": [], "time": []}}}, "displayed_time": "17.69", "trialTime": 21563, "trial_type": "mouselab-mdp", "trial_index": 46, "time_elapsed": 2058931, "internal_node_id": "0.0-4.0-1.0-37.0"}}, {"uniqueid": "w43080959:a83886465", "current_trial": 47, "dateTime": 1691161627642, "trialdata": {"revealed_states": [], "clicked_states": ["29", "31", "18", "20", "5", "10", "9", "11", "6"], "num_clicks_accrued": [0, 0, 0, 0, 0, 0, 0, 0, 0, 0, 0, 0, 0], "stateRewards": ["", -2, 2, -5, 1, 42, -63, -58, -6, 2, 16, 81, -2, 4, 7, -10, 33, 3, -33, -2, -52, -84, -27, 2, -3, -3, 15, -74, -14, -5, -5, -84, 79, -31], "withholdReward": false, "trial_id": "mdp_trial_39", "block": "test", "trialIndex": 40, "score": 57.4, "costs": -12.600000000000001, "simulationMode": [null, null, null, null, null], "rewards": [-2, 2, -5, -6, 81], "path": ["0", "0", "1", "2", "3", "8", "11"], "rt": [20715, 15, 145, 768, 264], "actions": ["up", "up", "up", "left", "left"], "actionTimes": [25022, 25558, 26221, 27526, 28307], "queries": {"click": {"state": {"target": ["29", "31", "18", "20", "5", "10", "9", "11", "6"], "time": [5697, 7688, 9219, 11201, 13975, 15923, 18414, 20552, 22560]}, "edge": {"target": [], "time": []}}, "mouseover": {"state": {"target": ["23", "24", "26", "29", "25", "31", "12", "15", "18", "13", "20", "19", "13", "5", "11", "10", "8", "9", "11", "8", "3", "4", "6"], "time": [4871, 4936, 5037, 5337, 6262, 6603, 8424, 8499, 8844, 9957, 10570, 12235, 12535, 13404, 14777, 14966, 17771, 17987, 20087, 21169, 21206, 21269, 21457]}, "edge": {"target": [], "time": []}}, "mouseout": {"state": {"target": ["0", "23", "24", "26", "29", "25", "31", "12", "15", "18", "18", "13", "20", "20", "19", "13", "5", "11", "10", "8", "9", "11", "8", "3", "4", "6"], "time": [3320, 4904, 4970, 5270, 6211, 6332, 8333, 8450, 8547, 9439, 9887, 10089, 11410, 12020, 12405, 12561, 14520, 14838, 16156, 17907, 19752, 21139, 21200, 21240, 21348, 30673]}, "edge": {"target": [], "time": []}}}, "displayed_time": "28.82", "trialTime": 31945, "trial_type": "mouselab-mdp", "trial_index": 47, "time_elapsed": 2092140, "internal_node_id": "0.0-4.0-1.0-38.0"}}, {"uniqueid": "w43080959:a83886465", "current_trial": 48, "dateTime": 1691161651468, "trialdata": {"revealed_states": [], "clicked_states": ["27", "21", "6"], "num_clicks_accrued": [0, 0, 0, 0, 0, 0, 0, 0, 0, 0, 0, 0, 0], "stateRewards": ["", -1, -1, 4, -16, -75, 81, -51, -7, -84, 73, -30, -2, 1, -3, -16, -77, 33, 14, 1, 45, 87, -66, 2, 2, -5, -7, -19, -17, 79, -3, 8, 49, 47], "withholdReward": false, "trial_id": "mdp_trial_40", "block": "test", "trialIndex": 41, "score": 79.8, "costs": -4.199999999999999, "simulationMode": [null, null, null, null, null], "rewards": [-2, 1, -3, 1, 87], "path": ["0", "0", "12", "13", "14", "19", "21"], "rt": [8430, 58, 436, 354, 257], "actions": ["right", "right", "right", "down", "down"], "actionTimes": [12399, 12997, 13947, 14799, 15552], "queries": {"click": {"state": {"target": ["27", "21", "6"], "time": [5533, 7503, 9651]}, "edge": {"target": [], "time": []}}, "mouseover": {"state": {"target": ["23", "26", "27", "1", "12", "13", "21", "19", "14", "15", "16", "6"], "time": [4689, 4839, 5155, 6222, 6295, 6345, 6672, 8274, 8327, 8360, 8459, 9138]}, "edge": {"target": [], "time": []}}, "mouseout": {"state": {"target": ["20", "19", "12", "23", "26", "27", "1", "12", "13", "21", "19", "14", "15", "16", "6"], "time": [1963, 2010, 2055, 4722, 5089, 6129, 6248, 6320, 6371, 8227, 8300, 8355, 8409, 8863, 19405]}, "edge": {"target": [], "time": []}}}, "displayed_time": "17.97", "trialTime": 22424, "trial_type": "mouselab-mdp", "trial_index": 48, "time_elapsed": 2115966, "internal_node_id": "0.0-4.0-1.0-39.0"}}, {"uniqueid": "w43080959:a83886465", "current_trial": 49, "dateTime": 1691161777707, "trialdata": {"rt": 126204, "response": {"Q0": "$-2 to $2", "Q1": "$-16 to $16", "Q2": "$-88 to $88", "Q3": "The cost for clicking on nodes varied between nodes.", "Q4": "Slightly motivated"}, "question_order": [0, 1, 2, 3, 4], "trial_id": "final_quiz_control", "trial_type": "survey-multi-choice", "trial_index": 49, "time_elapsed": 2242206, "internal_node_id": "0.0-4.0-2.0"}}, {"uniqueid": "w43080959:a83886465", "current_trial": 50, "dateTime": 1691161878104, "trialdata": {"rt": 100357, "response": {"Q0": "Check mainly the last nodes for the biggest number ", "Q1": "Nope i did not ", "Q2": "It was kind of difficult considering that there is a fee for using the node inspector."}, "trial_id": "self_report_control", "trial_type": "survey-text", "trial_index": 50, "time_elapsed": 2342603, "internal_node_id": "0.0-4.0-3.0"}}, {"uniqueid": "w43080959:a83886465", "current_trial": 51, "dateTime": 1691161937999, "trialdata": {"rt": 59877, "response": {"gender": "female", "age": "21", "colorblind": "0", "effort": "1"}, "trial_type": "survey-html-form", "trial_index": 51, "time_elapsed": 2402498, "internal_node_id": "0.0-4.0-4.0"}}, {"uniqueid": "w43080959:a83886465", "current_trial": 52, "dateTime": 1691162021166, "trialdata": {"rt": 83121, "response": {"Q0": "Nope it was pretty easy to comprehend", "Q1": "no, i have not participated in a Web of Cash HIT befor", "Q2": ""}, "trial_type": "survey-text", "trial_index": 52, "time_elapsed": 2485665, "internal_node_id": "0.0-4.0-5.0"}}, {"uniqueid": "w43080959:a83886465", "current_trial": 53, "dateTime": 1691162031834, "trialdata": {"rt": 10643, "stimulus": "Press 'Finish HIT' in order to reach the completion code. Once the data has been saved, you will receive the code either in this window or in the original browser window where you started the experiment.\n", "response": 0, "trial_type": "html-button-response", "trial_index": 53, "time_elapsed": 2496334, "internal_node_id": "0.0-5.0"}}, {"uniqueid": "w43080959:a83886465", "current_trial": 54, "dateTime": 1691162032859, "trialdata": {"success": true, "trial_type": "fullscreen", "trial_index": 54, "time_elapsed": 2497359, "internal_node_id": "0.0-6.0"}}], "questiondata": {"params": {"CODE": "C6DMOQA6", "MIN_TIME": 14, "inspectCost": 1, "startTime": "Fri Aug 04 2023 16:32:13 GMT+0200 (South Africa Standard Time)", "bonusRate": 0.002, "variance": "1_2_4_8_44", "branching": "31123"}}, "eventdata": [{"eventtype": "initialized", "value": null, "timestamp": 1691159532417, "interval": 0}, {"eventtype": "window_resize", "value": [1024, 646], "timestamp": 1691159532417, "interval": 0}, {"eventtype": "window_resize", "value": [1024, 646], "timestamp": 1691159533026, "interval": 609}, {"eventtype": "window_resize", "value": [1366, 768], "timestamp": 1691159548572, "interval": 15546}, {"eventtype": "window_resize", "value": [1024, 646], "timestamp": 1691162032276, "interval": 2483704}], "useragent": "Mozilla/5.0 (Windows NT 10.0; Win64; x64) AppleWebKit/537.36 (KHTML, like Gecko) Chrome/115.0.0.0 Safari/537.36", "mode": "live", "id": "w43080959:a83886465", "status": "user data saved", "Beginhit": "2023-08-04 14:32:08.73427", "Beginexp": "2023-08-04 14:32:29.928156", "Endhit": "2023-08-04 15:13:53.94126", "psiturkStatus": 3, "browser": "<redacted>", "platform": "windows", "language": "en-GB"}