{"condition": 0, "counterbalance": 0, "assignmentId": "a80510191", "workerId": "w83093858", "hitId": "h73646457", "currenttrial": 61, "bonus": 0, "data": [{"uniqueid": "w83093858:a80510191", "current_trial": 0, "dateTime": 1691071009558, "trialdata": {"success": true, "trial_type": "fullscreen", "trial_index": 0, "time_elapsed": 30335, "internal_node_id": "0.0-0.0"}}, {"uniqueid": "w83093858:a80510191", "current_trial": 1, "dateTime": 1691071032264, "trialdata": {"view_history": [{"page_index": 0, "viewing_time": 22691}], "rt": 22693, "trial_id": "exp_instructions_control", "trial_type": "instructions", "trial_index": 1, "time_elapsed": 53041, "internal_node_id": "0.0-1.0"}}, {"uniqueid": "w83093858:a80510191", "current_trial": 2, "dateTime": 1691071071681, "trialdata": {"success": true, "trial_type": "fullscreen", "trial_index": 2, "time_elapsed": 92458, "internal_node_id": "0.0-2.0-0.0"}}, {"uniqueid": "w83093858:a80510191", "current_trial": 3, "dateTime": 1691071355987, "trialdata": {"view_history": [{"page_index": 0, "viewing_time": 100730}, {"page_index": 1, "viewing_time": 84210}, {"page_index": 2, "viewing_time": 59251}, {"page_index": 3, "viewing_time": 40111}], "rt": 284302, "trial_id": "mouselab_instructions_1_control", "trial_type": "instructions", "trial_index": 3, "time_elapsed": 376764, "internal_node_id": "0.0-2.0-1.0"}}, {"uniqueid": "w83093858:a80510191", "current_trial": 4, "dateTime": 1691071382908, "trialdata": {"revealed_states": [], "clicked_states": ["14", "25", "3"], "num_clicks_accrued": [0, 0, 0, 0, 0, 0, 0, 0, 0, 0, 0, 0, 0], "stateRewards": ["", 10, 10, 10, -10, 10, 10, 10, 10, 10, 10, 10, 10, 10, 10, -10, 10, 10, -10, 10, 10, 10, 10, -10, -10, 10, -10, -10, 10, -10, -10, -10, -10, -10], "withholdReward": false, "trial_id": "practice_1", "block": "test", "trialIndex": 0, "score": -28, "costs": -1.5, "simulationMode": [null, null, null, null, null], "rewards": [-10, -10, 10, -10, -10], "path": ["0", "0", "23", "24", "25", "26", "27"], "rt": [9171, 355, 194, 5823, 118], "actions": ["left", "left", "left", "up", "up"], "actionTimes": [11989, 12860, 13564, 19900, 20516], "queries": {"click": {"state": {"target": ["14", "25", "3"], "time": [5817, 7388, 9073]}, "edge": {"target": [], "time": []}}, "mouseover": {"state": {"target": ["12", "13", "12", "13", "14", "13", "12", "0", "23", "24", "25", "2", "3", "2", "1", "23", "28", "26"], "time": [3946, 4636, 5169, 5468, 5592, 6560, 6648, 6855, 6908, 7014, 7244, 8612, 8888, 9834, 9973, 10538, 10715, 11026]}, "edge": {"target": [], "time": []}}, "mouseout": {"state": {"target": ["0", "12", "13", "12", "13", "14", "13", "12", "0", "23", "24", "25", "2", "3", "2", "1", "23", "28", "26", "25"], "time": [3772, 4406, 5154, 5418, 5559, 6526, 6612, 6735, 6873, 6961, 7193, 8065, 8718, 9693, 9920, 10082, 10575, 10731, 12045, 23393]}, "edge": {"target": [], "time": []}}}, "displayed_time": "21.03", "trialTime": 25364, "trial_type": "mouselab-mdp", "trial_index": 4, "time_elapsed": 403684, "internal_node_id": "0.0-2.0-2.0-0.0"}}, {"uniqueid": "w83093858:a80510191", "current_trial": 5, "dateTime": 1691071410514, "trialdata": {"revealed_states": [], "clicked_states": ["3"], "num_clicks_accrued": [0, 0, 0, 0, 0, 0, 0, 0, 0, 0, 0, 0, 0], "stateRewards": ["", -10, -10, 10, 10, -10, 10, -10, -10, 10, 10, 10, -10, -10, 10, 10, 10, 10, -10, -10, 10, -10, 10, -10, 10, 10, -10, -10, 10, 10, -10, 10, 10, -10], "withholdReward": false, "trial_id": "practice_2", "block": "test", "trialIndex": 1, "score": -7, "costs": -0.5, "simulationMode": [null, null, null, null, null], "rewards": [-10, -10, 10, -10, 10], "path": ["0", "0", "1", "2", "3", "8", "11"], "rt": [5695, 101, 67, 4876, 35], "actions": ["up", "up", "up", "left", "left"], "actionTimes": [9789, 10387, 10963, 16348, 16883], "queries": {"click": {"state": {"target": ["3"], "time": [6089]}, "edge": {"target": [], "time": []}}, "mouseover": {"state": {"target": ["1", "2", "3", "2", "1"], "time": [5517, 5689, 5903, 7571, 9038]}, "edge": {"target": [], "time": []}}, "mouseout": {"state": {"target": ["24", "1", "2", "3", "2", "1", "2", "8", "11", "8", "3", "2", "1", "2", "3", "8", "8", "2", "1", "1", "2", "3", "3", "8", "11", "10"], "time": [3353, 5654, 5832, 7090, 8542, 13017, 15483, 15792, 19956, 20042, 20079, 21157, 21818, 22203, 22739, 22827, 23622, 23747, 23780, 24738, 25107, 25159, 25363, 25431, 25992, 26377]}, "edge": {"target": [], "time": []}}}, "displayed_time": "17.40", "trialTime": 27427, "trial_type": "mouselab-mdp", "trial_index": 5, "time_elapsed": 431290, "internal_node_id": "0.0-2.0-2.0-1.0"}}, {"uniqueid": "w83093858:a80510191", "current_trial": 6, "dateTime": 1691071479528, "trialdata": {"view_history": [{"page_index": 0, "viewing_time": 58396}, {"page_index": 1, "viewing_time": 10614}], "rt": 69011, "trial_id": "mouselab_instructions_2_control", "trial_type": "instructions", "trial_index": 6, "time_elapsed": 500305, "internal_node_id": "0.0-2.0-3.0"}}, {"uniqueid": "w83093858:a80510191", "current_trial": 7, "dateTime": 1691071527950, "trialdata": {"rt": 48418, "response": {"Q0": "The cost for clicking on nodes may vary between nodes.", "Q1": "The better I perform the higher my bonus will be.", "Q2": "No, the amount of cash at each node of the web may be different each time.", "Q3": "To click on the least number of nodes.", "Q4": "Only before moving the spider.", "Q5": "3 seconds"}, "question_order": [0, 1, 2, 3, 4, 5], "correct": {"Q0": "The cost for clicking on nodes may vary between nodes.", "Q1": "The better I perform the higher my bonus will be.", "Q2": "No, the amount of cash at each node of the web may be different each time.", "Q3": "To get the highest total score.", "Q4": "Only before moving the spider.", "Q5": "3 seconds"}, "trial_id": "mouselab_quiz_control", "trial_type": "survey-multi-choice", "trial_index": 7, "time_elapsed": 548727, "internal_node_id": "0.0-2.0-4.0"}}, {"uniqueid": "w83093858:a80510191", "current_trial": 8, "dateTime": 1691071538767, "trialdata": {"success": true, "trial_type": "fullscreen", "trial_index": 8, "time_elapsed": 559544, "internal_node_id": "0.0-2.1-0.1"}}, {"uniqueid": "w83093858:a80510191", "current_trial": 9, "dateTime": 1691071638858, "trialdata": {"view_history": [{"page_index": 0, "viewing_time": 41698}, {"page_index": 1, "viewing_time": 25527}, {"page_index": 2, "viewing_time": 11515}, {"page_index": 3, "viewing_time": 21348}], "rt": 100088, "trial_id": "mouselab_instructions_1_control", "trial_type": "instructions", "trial_index": 9, "time_elapsed": 659635, "internal_node_id": "0.0-2.1-1.1"}}, {"uniqueid": "w83093858:a80510191", "current_trial": 10, "dateTime": 1691071655358, "trialdata": {"revealed_states": [], "clicked_states": ["32", "25"], "num_clicks_accrued": [0, 0, 0, 0, 0, 0, 0, 0, 0, 0, 0, 0, 0], "stateRewards": ["", 10, 10, 10, -10, 10, 10, 10, 10, 10, 10, 10, 10, 10, 10, -10, 10, 10, -10, 10, 10, 10, 10, -10, -10, 10, -10, -10, 10, -10, -10, -10, -10, -10], "withholdReward": false, "trial_id": "practice_1", "block": "test", "trialIndex": 2, "score": -27.5, "costs": -1, "simulationMode": [null, null, null, null, null], "rewards": [-10, -10, 10, -10, -10], "path": ["0", "0", "23", "24", "25", "26", "27"], "rt": [5779, 371, 244, 783, 112], "actions": ["left", "left", "left", "up", "up"], "actionTimes": [9318, 10196, 10948, 12257, 12877], "queries": {"click": {"state": {"target": ["32", "25"], "time": [4950, 6879]}, "edge": {"target": [], "time": []}}, "mouseover": {"state": {"target": ["23", "24", "30", "32", "30", "25", "26", "27"], "time": [4283, 4373, 4606, 4786, 5570, 6323, 7481, 7604]}, "edge": {"target": [], "time": []}}, "mouseout": {"state": {"target": ["0", "0", "23", "24", "30", "32", "32", "30", "25", "26", "27", "26", "24"], "time": [2130, 4193, 4335, 4445, 4679, 4954, 5338, 6035, 7301, 7550, 8553, 15287, 15514]}, "edge": {"target": [], "time": []}}}, "displayed_time": "13.37", "trialTime": 16317, "trial_type": "mouselab-mdp", "trial_index": 10, "time_elapsed": 676134, "internal_node_id": "0.0-2.1-2.1-0.1"}}, {"uniqueid": "w83093858:a80510191", "current_trial": 11, "dateTime": 1691071666701, "trialdata": {"revealed_states": [], "clicked_states": ["3"], "num_clicks_accrued": [0, 0, 0, 0, 0, 0, 0, 0, 0, 0, 0, 0, 0], "stateRewards": ["", -10, -10, 10, 10, -10, 10, -10, -10, 10, 10, 10, -10, -10, 10, 10, 10, 10, -10, -10, 10, -10, 10, -10, 10, 10, -10, -10, 10, 10, -10, 10, 10, -10], "withholdReward": false, "trial_id": "practice_2", "block": "test", "trialIndex": 3, "score": 13, "costs": -0.5, "simulationMode": [null, null, null, null, null], "rewards": [-10, -10, 10, 10, 10], "path": ["0", "0", "1", "2", "3", "4", "6"], "rt": [2844, 105, 87, 258, 208], "actions": ["up", "up", "up", "right", "right"], "actionTimes": [4633, 5232, 5840, 6608, 7312], "queries": {"click": {"state": {"target": ["3"], "time": [3009]}, "edge": {"target": [], "time": []}}, "mouseover": {"state": {"target": ["2", "3", "4", "4"], "time": [2527, 2650, 3578, 4359]}, "edge": {"target": [], "time": []}}, "mouseout": {"state": {"target": ["0", "2", "3", "4", "4"], "time": [2142, 2543, 3526, 3806, 10072]}, "edge": {"target": [], "time": []}}}, "displayed_time": "7.82", "trialTime": 11160, "trial_type": "mouselab-mdp", "trial_index": 11, "time_elapsed": 687477, "internal_node_id": "0.0-2.1-2.1-1.1"}}, {"uniqueid": "w83093858:a80510191", "current_trial": 12, "dateTime": 1691071682831, "trialdata": {"view_history": [{"page_index": 0, "viewing_time": 13602}, {"page_index": 1, "viewing_time": 2524}], "rt": 16126, "trial_id": "mouselab_instructions_2_control", "trial_type": "instructions", "trial_index": 12, "time_elapsed": 703608, "internal_node_id": "0.0-2.1-3.1"}}, {"uniqueid": "w83093858:a80510191", "current_trial": 13, "dateTime": 1691071857085, "trialdata": {"rt": 174251, "response": {"Q0": "The cost for clicking on nodes may vary between nodes.", "Q1": "The better I perform the higher my bonus will be.", "Q2": "No, the amount of cash at each node of the web may be different each time.", "Q3": "To get the highest total score.", "Q4": "Only before moving the spider.", "Q5": "3 seconds"}, "question_order": [0, 1, 2, 3, 4, 5], "correct": {"Q0": "The cost for clicking on nodes may vary between nodes.", "Q1": "The better I perform the higher my bonus will be.", "Q2": "No, the amount of cash at each node of the web may be different each time.", "Q3": "To get the highest total score.", "Q4": "Only before moving the spider.", "Q5": "3 seconds"}, "trial_id": "mouselab_quiz_control", "trial_type": "survey-multi-choice", "trial_index": 13, "time_elapsed": 877862, "internal_node_id": "0.0-2.1-4.1"}}, {"uniqueid": "w83093858:a80510191", "current_trial": 14, "dateTime": 1691071887981, "trialdata": {"rt": 30885, "stimulus": "\n<h1> Get ready to start the game! </h1>\n\nThank you for reading the instructions. Get ready start with the 40 rounds of this game.\n<br><br>\nIf you need to take a break, feel free to take one after the end of a round, before continuing to the next one.\n<br><br>\nRemember, the more money the spider gets, the bigger your bonus will be!\n<br><br>\n<div style='text-align: center;'>Press <code>space</code> to begin.</div>\n\n<br><br>\n(If, at any point, the <code>space</code> key does not take you to the next page, click once on the text and try again.)", "response": " ", "trial_id": "mdp_ready", "trial_type": "html-keyboard-response", "trial_index": 14, "time_elapsed": 908758, "internal_node_id": "0.0-4.0-0.0"}}, {"uniqueid": "w83093858:a80510191", "current_trial": 15, "dateTime": 1691071910895, "trialdata": {"revealed_states": [], "clicked_states": [], "num_clicks_accrued": [0, 0, 0, 0, 0, 0, 0, 0, 0, 0, 0, 0, 0], "stateRewards": ["", -2, 3, 8, -9, 59, 41, -50, -1, 82, 66, 33, 2, -2, 7, 8, 1, -38, 12, -16, 24, -37, 67, 1, 4, -2, 5, 35, -83, 28, 8, -27, 69, -64], "withholdReward": false, "trial_id": "mdp_trial_1", "block": "test", "trialIndex": 4, "score": 41, "costs": 0, "simulationMode": [null, null, null, null, null], "rewards": [-2, 3, 8, -9, 41], "path": ["0", "0", "1", "2", "3", "4", "6"], "rt": [8310, 400, 330, 194, 256], "actions": ["up", "up", "up", "right", "right"], "actionTimes": [13987, 14905, 15745, 16449, 17200], "queries": {"click": {"state": {"target": [], "time": []}, "edge": {"target": [], "time": []}}, "mouseover": {"state": {"target": ["28", "26", "25", "24", "23", "0", "28", "26", "28", "1", "10", "3", "1", "0", "1", "2", "3"], "time": [6418, 6862, 7417, 7850, 7972, 8042, 8290, 8322, 8464, 8516, 8730, 9029, 11579, 12454, 12740, 12790, 13004]}, "edge": {"target": [], "time": []}}, "mouseout": {"state": {"target": ["12", "28", "26", "25", "24", "23", "0", "28", "26", "28", "1", "10", "3", "1", "0", "1", "2", "3", "2"], "time": [3132, 6792, 6914, 7815, 7918, 7988, 8201, 8305, 8448, 8482, 8608, 8782, 11323, 11651, 12579, 12774, 12863, 13914, 20866]}, "edge": {"target": [], "time": []}}}, "displayed_time": "19.68", "trialTime": 22721, "trial_type": "mouselab-mdp", "trial_index": 15, "time_elapsed": 931671, "internal_node_id": "0.0-4.0-1.0-0.0"}}, {"uniqueid": "w83093858:a80510191", "current_trial": 16, "dateTime": 1691071930327, "trialdata": {"revealed_states": [], "clicked_states": ["25"], "num_clicks_accrued": [0, 0, 0, 0, 0, 0, 0, 0, 0, 0, 0, 0, 0], "stateRewards": ["", 2, 1, -3, 7, 46, 11, -36, 16, 71, 5, 1, 2, -2, -8, -3, -4, 6, 55, 7, 68, -54, 2, 1, 1, 6, -6, 42, -4, -84, -11, -65, 63, 25], "withholdReward": false, "trial_id": "mdp_trial_2", "block": "test", "trialIndex": 5, "score": 58.6, "costs": -1.4, "simulationMode": [null, null, null, null, null], "rewards": [1, 1, 6, -11, 63], "path": ["0", "0", "23", "24", "25", "30", "32"], "rt": [4291, 81, 147, 192, 130], "actions": ["left", "left", "left", "down", "down"], "actionTimes": [6811, 7410, 8066, 8754, 9378], "queries": {"click": {"state": {"target": ["25"], "time": [4459]}, "edge": {"target": [], "time": []}}, "mouseover": {"state": {"target": ["23", "25", "30", "32"], "time": [3936, 4308, 5346, 5783]}, "edge": {"target": [], "time": []}}, "mouseout": {"state": {"target": ["1", "0", "23", "25", "30", "32"], "time": [1821, 3146, 3969, 5241, 5504, 9871]}, "edge": {"target": [], "time": []}}}, "displayed_time": "16.52", "trialTime": 19234, "trial_type": "mouselab-mdp", "trial_index": 16, "time_elapsed": 951103, "internal_node_id": "0.0-4.0-1.0-1.0"}}, {"uniqueid": "w83093858:a80510191", "current_trial": 17, "dateTime": 1691071952391, "trialdata": {"revealed_states": [], "clicked_states": ["16"], "num_clicks_accrued": [0, 0, 0, 0, 0, 0, 0, 0, 0, 0, 0, 0, 0], "stateRewards": ["", 2, 2, 3, -15, 23, -14, 73, -7, -32, -20, -6, 1, 1, -5, -12, 73, 6, -84, 11, -81, -57, 13, -2, -1, -4, -8, -52, -58, 49, 13, 5, -41, -41], "withholdReward": false, "trial_id": "mdp_trial_3", "block": "test", "trialIndex": 6, "score": 56.6, "costs": -1.4, "simulationMode": [null, null, null, null, null], "rewards": [1, 1, -5, -12, 73], "path": ["0", "0", "12", "13", "14", "15", "16"], "rt": [4663, 39, 138, 114, 65], "actions": ["right", "right", "right", "up", "up"], "actionTimes": [9001, 9552, 10192, 10816, 11376], "queries": {"click": {"state": {"target": ["16"], "time": [6605]}, "edge": {"target": [], "time": []}}, "mouseover": {"state": {"target": ["12", "15", "16", "15", "14"], "time": [5717, 6010, 6434, 7255, 8569]}, "edge": {"target": [], "time": []}}, "mouseout": {"state": {"target": ["22", "0", "12", "15", "16", "15", "14", "14", "14", "22"], "time": [3363, 4867, 5734, 6327, 7152, 8145, 10740, 13002, 21102, 21136]}, "edge": {"target": [], "time": []}}}, "displayed_time": "18.34", "trialTime": 21872, "trial_type": "mouselab-mdp", "trial_index": 17, "time_elapsed": 973167, "internal_node_id": "0.0-4.0-1.0-2.0"}}, {"uniqueid": "w83093858:a80510191", "current_trial": 18, "dateTime": 1691071972646, "trialdata": {"revealed_states": [], "clicked_states": ["5", "6", "7"], "num_clicks_accrued": [0, 0, 0, 0, 0, 0, 0, 0, 0, 0, 0, 0, 0], "stateRewards": ["", 2, -3, -8, 14, -7, -51, 73, 2, 36, 36, -43, -1, 3, -4, 1, 6, 87, -65, 15, 61, -42, -83, -1, 3, -2, -7, 30, -48, 35, 13, 26, 60, 78], "withholdReward": false, "trial_id": "mdp_trial_4", "block": "test", "trialIndex": 7, "score": 73.8, "costs": -4.199999999999999, "simulationMode": [null, null, null, null, null], "rewards": [2, -3, -8, 14, 73], "path": ["0", "0", "1", "2", "3", "4", "7"], "rt": [8956, 104, 146, 131, 113], "actions": ["up", "up", "up", "right", "down"], "actionTimes": [10786, 11385, 12041, 12681, 13313], "queries": {"click": {"state": {"target": ["5", "6", "7"], "time": [4447, 6500, 8645]}, "edge": {"target": [], "time": []}}, "mouseover": {"state": {"target": ["0", "0", "2", "3", "4", "5", "4", "6", "7", "7"], "time": [2282, 2678, 3050, 3278, 3740, 4086, 5355, 5582, 7632, 8609]}, "edge": {"target": [], "time": []}}, "mouseout": {"state": {"target": ["0", "0", "0", "2", "3", "4", "5", "4", "6", "7", "7"], "time": [1669, 2407, 2694, 3120, 3687, 3757, 5111, 5390, 7178, 8484, 9480]}, "edge": {"target": [], "time": []}}}, "displayed_time": "15.83", "trialTime": 20065, "trial_type": "mouselab-mdp", "trial_index": 18, "time_elapsed": 993423, "internal_node_id": "0.0-4.0-1.0-3.0"}}, {"uniqueid": "w83093858:a80510191", "current_trial": 19, "dateTime": 1691071992103, "trialdata": {"revealed_states": [], "clicked_states": ["21", "20", "22"], "num_clicks_accrued": [0, 0, 0, 0, 0, 0, 0, 0, 0, 0, 0, 0, 0], "stateRewards": ["", -2, 4, -7, -3, -76, 39, -28, 10, 14, 12, 60, 2, -3, 6, -10, 88, -34, -41, -3, 72, -13, -56, 1, 3, 2, 8, -51, 23, -57, 1, 14, -46, -16], "withholdReward": false, "trial_id": "mdp_trial_5", "block": "test", "trialIndex": 8, "score": 69.8, "costs": -4.199999999999999, "simulationMode": [null, null, null, null, null], "rewards": [2, -3, 6, -3, 72], "path": ["0", "0", "12", "13", "14", "19", "20"], "rt": [7734, 7, 86, 90, 128], "actions": ["right", "right", "right", "down", "right"], "actionTimes": [9660, 10179, 10779, 11379, 12019], "queries": {"click": {"state": {"target": ["21", "20", "22"], "time": [3998, 5797, 7829]}, "edge": {"target": [], "time": []}}, "mouseover": {"state": {"target": ["0", "12", "13", "14", "19", "21", "20", "19", "22"], "time": [2287, 2428, 2497, 2531, 3287, 3443, 4767, 6197, 7586]}, "edge": {"target": [], "time": []}}, "mouseout": {"state": {"target": ["7", "1", "0", "0", "12", "13", "14", "19", "21", "20", "19", "22"], "time": [1327, 1398, 1678, 2355, 2462, 2513, 2657, 3303, 4067, 6109, 6422, 9136]}, "edge": {"target": [], "time": []}}}, "displayed_time": "15.93", "trialTime": 19259, "trial_type": "mouselab-mdp", "trial_index": 19, "time_elapsed": 1012879, "internal_node_id": "0.0-4.0-1.0-4.0"}}, {"uniqueid": "w83093858:a80510191", "current_trial": 20, "dateTime": 1691072009863, "trialdata": {"revealed_states": [], "clicked_states": ["29", "27", "28"], "num_clicks_accrued": [0, 0, 0, 0, 0, 0, 0, 0, 0, 0, 0, 0, 0], "stateRewards": ["", 1, -3, -6, -5, 47, 80, -29, 11, -71, 10, -29, -2, 3, -6, 12, 2, -78, -6, 8, 34, -16, -5, -1, 3, 3, -13, 84, -36, -62, -3, -27, 66, 15], "withholdReward": false, "trial_id": "mdp_trial_6", "block": "test", "trialIndex": 9, "score": 71.8, "costs": -4.199999999999999, "simulationMode": [null, null, null, null, null], "rewards": [-1, 3, 3, -13, 84], "path": ["0", "0", "23", "24", "25", "26", "27"], "rt": [7857, 58, 98, 123, 100], "actions": ["left", "left", "left", "up", "up"], "actionTimes": [9435, 10001, 10610, 11242, 11850], "queries": {"click": {"state": {"target": ["29", "27", "28"], "time": [3400, 5520, 7219]}, "edge": {"target": [], "time": []}}, "mouseover": {"state": {"target": ["23", "24", "26", "29", "27", "28", "27", "28"], "time": [2049, 2493, 2735, 3196, 3696, 4272, 4567, 6005]}, "edge": {"target": [], "time": []}}, "mouseout": {"state": {"target": ["22", "0", "23", "23", "24", "26", "29", "27", "28", "27", "28", "23"], "time": [878, 930, 1019, 2101, 2645, 3043, 3455, 4168, 4515, 5724, 16652, 16722]}, "edge": {"target": [], "time": []}}}, "displayed_time": "15.58", "trialTime": 17554, "trial_type": "mouselab-mdp", "trial_index": 20, "time_elapsed": 1030639, "internal_node_id": "0.0-4.0-1.0-5.0"}}, {"uniqueid": "w83093858:a80510191", "current_trial": 21, "dateTime": 1691072029064, "trialdata": {"revealed_states": [], "clicked_states": [], "num_clicks_accrued": [0, 0, 0, 0, 0, 0, 0, 0, 0, 0, 0, 0, 0], "stateRewards": ["", -1, 1, 3, -8, -23, -15, -14, -11, -23, 58, 68, 1, 3, 5, 12, -17, -41, -7, -10, -4, 82, 10, 1, 4, -4, 11, 73, 55, -55, -1, -86, -86, 54], "withholdReward": false, "trial_id": "mdp_trial_7", "block": "test", "trialIndex": 10, "score": -86, "costs": 0, "simulationMode": [null, null, null, null, null], "rewards": [1, 4, -4, -1, -86], "path": ["0", "0", "23", "24", "25", "30", "32"], "rt": [6484, 72, 97, 75, 236], "actions": ["left", "left", "left", "down", "down"], "actionTimes": [7780, 8369, 8977, 9545, 10290], "queries": {"click": {"state": {"target": [], "time": []}, "edge": {"target": [], "time": []}}, "mouseover": {"state": {"target": ["12", "12", "0", "31", "32", "31", "23", "23"], "time": [3978, 4320, 4389, 4636, 4846, 5916, 6386, 7759]}, "edge": {"target": [], "time": []}}, "mouseout": {"state": {"target": ["0", "12", "12", "0", "31", "32", "31", "23"], "time": [2025, 4155, 4355, 4444, 4668, 5547, 6333, 6508]}, "edge": {"target": [], "time": []}}}, "displayed_time": "15.30", "trialTime": 19010, "trial_type": "mouselab-mdp", "trial_index": 21, "time_elapsed": 1049840, "internal_node_id": "0.0-4.0-1.0-6.0"}}, {"uniqueid": "w83093858:a80510191", "current_trial": 22, "dateTime": 1691072047648, "trialdata": {"revealed_states": [], "clicked_states": ["32", "25"], "num_clicks_accrued": [0, 0, 0, 0, 0, 0, 0, 0, 0, 0, 0, 0, 0], "stateRewards": ["", 2, -2, -8, 9, -20, 55, -58, 14, 42, 2, 36, 1, -3, -5, 5, -58, 57, 60, 16, 57, 30, -70, -2, 1, 3, 10, 59, 23, 77, -13, -26, 88, -72], "withholdReward": false, "trial_id": "mdp_trial_8", "block": "test", "trialIndex": 11, "score": 74.2, "costs": -2.8, "simulationMode": [null, null, null, null, null, null], "rewards": [-2, 1, 3, -13, 88], "path": ["0", "0", "23", "24", "25", "30", "32"], "rt": [4168, 1176, 103, 99, 116, 27], "actions": ["left", "left", "left", "left", "down", "down"], "actionTimes": [5455, 6635, 7243, 7851, 8475, 9011], "queries": {"click": {"state": {"target": ["32", "25"], "time": [2224, 4213]}, "edge": {"target": [], "time": []}}, "mouseover": {"state": {"target": ["0", "23", "31", "32", "30", "33", "25", "31"], "time": [1621, 1675, 1837, 2086, 2625, 3020, 3954, 4666]}, "edge": {"target": [], "time": []}}, "mouseout": {"state": {"target": ["23", "0", "23", "31", "32", "30", "33", "25"], "time": [876, 1639, 1693, 1943, 2428, 2679, 3635, 4529]}, "edge": {"target": [], "time": []}}}, "displayed_time": "15.29", "trialTime": 18371, "trial_type": "mouselab-mdp", "trial_index": 22, "time_elapsed": 1068424, "internal_node_id": "0.0-4.0-1.0-7.0"}}, {"uniqueid": "w83093858:a80510191", "current_trial": 23, "dateTime": 1691072068680, "trialdata": {"revealed_states": [], "clicked_states": ["18", "17", "16", "21", "20", "22"], "num_clicks_accrued": [0, 0, 0, 0, 0, 0, 0, 0, 0, 0, 0, 0, 0], "stateRewards": ["", 1, -3, -2, 14, 49, -40, -39, 2, 26, -61, 73, 1, -4, -8, 12, 79, 29, -65, -13, 55, -26, 27, -1, 3, 3, 9, -17, -60, -18, -8, 35, -88, 69], "withholdReward": false, "trial_id": "mdp_trial_9", "block": "test", "trialIndex": 12, "score": 71.6, "costs": -8.4, "simulationMode": [null, null, null, null, null], "rewards": [1, -4, -8, 12, 79], "path": ["0", "0", "12", "13", "14", "15", "16"], "rt": [12953, 40, 109, 90, 32], "actions": ["right", "right", "right", "up", "up"], "actionTimes": [14669, 15219, 15827, 16427, 16970], "queries": {"click": {"state": {"target": ["18", "17", "16", "21", "20", "22"], "time": [4291, 5816, 7367, 9204, 10997, 12714]}, "edge": {"target": [], "time": []}}, "mouseover": {"state": {"target": ["18", "13", "18", "16", "17", "16", "15", "14", "19", "21", "20", "19", "22", "19"], "time": [2718, 3220, 4184, 4566, 5404, 6294, 8476, 8598, 8687, 8929, 9891, 11446, 11812, 14366]}, "edge": {"target": [], "time": []}}, "mouseout": {"state": {"target": ["31", "0", "18", "13", "18", "16", "17", "16", "15", "14", "19", "21", "20", "19", "22", "22", "19"], "time": [1088, 1193, 2862, 3704, 4480, 5283, 6155, 8247, 8562, 8650, 8878, 9684, 11411, 11535, 12773, 14154, 17529]}, "edge": {"target": [], "time": []}}}, "displayed_time": "17.48", "trialTime": 20819, "trial_type": "mouselab-mdp", "trial_index": 23, "time_elapsed": 1089456, "internal_node_id": "0.0-4.0-1.0-8.0"}}, {"uniqueid": "w83093858:a80510191", "current_trial": 24, "dateTime": 1691072087480, "trialdata": {"revealed_states": [], "clicked_states": ["9", "11", "3"], "num_clicks_accrued": [0, 0, 0, 0, 0, 0, 0, 0, 0, 0, 0, 0, 0], "stateRewards": ["", -2, -3, 7, -13, 60, 9, 37, -6, 37, 20, 1, 2, -2, -8, 6, -80, -31, -10, -7, 70, -65, -44, -1, 1, 7, 6, -11, 73, -85, 16, -21, 47, 34], "withholdReward": false, "trial_id": "mdp_trial_10", "block": "test", "trialIndex": 13, "score": -7.199999999999999, "costs": -4.199999999999999, "simulationMode": [null, null, null, null, null], "rewards": [-2, -3, 7, -6, 1], "path": ["0", "0", "1", "2", "3", "8", "11"], "rt": [6702, 31, 127, 43, 64], "actions": ["up", "up", "up", "left", "left"], "actionTimes": [9457, 9998, 10631, 11183, 11743], "queries": {"click": {"state": {"target": ["9", "11", "3"], "time": [3812, 5714, 7622]}, "edge": {"target": [], "time": []}}, "mouseover": {"state": {"target": ["1", "2", "3", "8", "9", "8", "11", "8", "3", "3"], "time": [3174, 3209, 3243, 3418, 3648, 4332, 4678, 6167, 6447, 7159]}, "edge": {"target": [], "time": []}}, "mouseout": {"state": {"target": ["13", "12", "0", "1", "2", "3", "8", "9", "8", "11", "8", "3"], "time": [1090, 1423, 3068, 3208, 3224, 3383, 3454, 4245, 4539, 6133, 6394, 6482]}, "edge": {"target": [], "time": []}}}, "displayed_time": "16.76", "trialTime": 18615, "trial_type": "mouselab-mdp", "trial_index": 24, "time_elapsed": 1108256, "internal_node_id": "0.0-4.0-1.0-9.0"}}, {"uniqueid": "w83093858:a80510191", "current_trial": 25, "dateTime": 1691072111024, "trialdata": {"revealed_states": [], "clicked_states": ["5", "6", "7", "16", "18", "10"], "num_clicks_accrued": [0, 0, 0, 0, 0, 0, 0, 0, 0, 0, 0, 0, 0], "stateRewards": ["", 2, -1, -1, -9, -81, -30, 55, -6, 78, 25, 62, 2, 4, -1, 9, -85, 1, -19, 1, -60, 12, -34, 1, 4, -1, -13, -24, -16, -83, -8, 16, 43, 9], "withholdReward": false, "trial_id": "mdp_trial_11", "block": "test", "trialIndex": 14, "score": -98.4, "costs": -8.4, "simulationMode": [null, null, null, null, null], "rewards": [2, -1, -1, -9, -81], "path": ["0", "0", "1", "2", "3", "4", "5"], "rt": [11469, 23, 61, 87, 64], "actions": ["up", "up", "up", "right", "up"], "actionTimes": [16322, 16855, 17432, 18016, 18584], "queries": {"click": {"state": {"target": ["5", "6", "7", "16", "18", "10"], "time": [5719, 7273, 8924, 10644, 12213, 14488]}, "edge": {"target": [], "time": []}}, "mouseover": {"state": {"target": ["1", "4", "5", "6", "7", "16", "18", "10"], "time": [5180, 5285, 5517, 6164, 7944, 9923, 11739, 13186]}, "edge": {"target": [], "time": []}}, "mouseout": {"state": {"target": ["3", "2", "1", "1", "4", "5", "6", "7", "16", "18"], "time": [2389, 2458, 4527, 5196, 5375, 6009, 7699, 9537, 11043, 13081]}, "edge": {"target": [], "time": []}}}, "displayed_time": "19.08", "trialTime": 23336, "trial_type": "mouselab-mdp", "trial_index": 25, "time_elapsed": 1131800, "internal_node_id": "0.0-4.0-1.0-10.0"}}, {"uniqueid": "w83093858:a80510191", "current_trial": 26, "dateTime": 1691072128893, "trialdata": {"revealed_states": [], "clicked_states": ["32", "31", "33"], "num_clicks_accrued": [0, 0, 0, 0, 0, 0, 0, 0, 0, 0, 0, 0, 0], "stateRewards": ["", 1, -3, -1, 9, -34, -40, 22, -7, 45, 53, -11, 2, 4, 5, 15, 21, 37, -49, -3, 80, -28, -34, 1, -3, 1, 1, -40, -6, -5, -16, -85, -86, 59], "withholdReward": false, "trial_id": "mdp_trial_12", "block": "test", "trialIndex": 15, "score": 37.8, "costs": -4.199999999999999, "simulationMode": [null, null, null, null, null], "rewards": [1, -3, 1, -16, 59], "path": ["0", "0", "23", "24", "25", "30", "33"], "rt": [7013, 9, 473, 202, 182], "actions": ["left", "left", "left", "down", "left"], "actionTimes": [9006, 9524, 10508, 11204, 11900], "queries": {"click": {"state": {"target": ["32", "31", "33"], "time": [3686, 5241, 7065]}, "edge": {"target": [], "time": []}}, "mouseover": {"state": {"target": ["30", "30", "32", "31", "30", "33", "30", "25", "25"], "time": [3233, 3357, 3567, 4144, 5646, 5784, 7832, 8077, 8339]}, "edge": {"target": [], "time": []}}, "mouseout": {"state": {"target": ["10", "1", "0", "30", "30", "32", "31", "30", "33", "30", "25"], "time": [1235, 1657, 2917, 3285, 3516, 3900, 5594, 5733, 7603, 7972, 8146]}, "edge": {"target": [], "time": []}}}, "displayed_time": "15.99", "trialTime": 17667, "trial_type": "mouselab-mdp", "trial_index": 26, "time_elapsed": 1149670, "internal_node_id": "0.0-4.0-1.0-11.0"}}, {"uniqueid": "w83093858:a80510191", "current_trial": 27, "dateTime": 1691072146584, "trialdata": {"revealed_states": [], "clicked_states": ["20", "21", "22"], "num_clicks_accrued": [0, 0, 0, 0, 0, 0, 0, 0, 0, 0, 0, 0, 0], "stateRewards": ["", -1, 1, 8, -8, -49, 62, -78, 16, 28, -81, 78, -2, -3, -1, -4, 67, 49, -2, -13, -16, -39, 83, 1, -4, 4, -5, -20, 7, 84, 7, -32, -59, 19], "withholdReward": false, "trial_id": "mdp_trial_13", "block": "test", "trialIndex": 16, "score": 59.8, "costs": -4.199999999999999, "simulationMode": [null, null, null, null, null], "rewards": [-2, -3, -1, -13, 83], "path": ["0", "0", "12", "13", "14", "19", "22"], "rt": [6603, 45, 110, 66, 91], "actions": ["right", "right", "right", "down", "left"], "actionTimes": [8437, 8979, 9603, 10171, 10779], "queries": {"click": {"state": {"target": ["20", "21", "22"], "time": [3166, 4810, 6616]}, "edge": {"target": [], "time": []}}, "mouseover": {"state": {"target": ["0", "12", "13", "14", "20", "21", "22"], "time": [2172, 2257, 2328, 2398, 3014, 3640, 5935]}, "edge": {"target": [], "time": []}}, "mouseout": {"state": {"target": ["25", "24", "23", "18", "23", "0", "12", "13", "14", "20", "21"], "time": [665, 719, 737, 877, 1408, 2224, 2292, 2362, 2657, 3484, 4879]}, "edge": {"target": [], "time": []}}}, "displayed_time": "15.83", "trialTime": 17467, "trial_type": "mouselab-mdp", "trial_index": 27, "time_elapsed": 1167360, "internal_node_id": "0.0-4.0-1.0-12.0"}}, {"uniqueid": "w83093858:a80510191", "current_trial": 28, "dateTime": 1691072164681, "trialdata": {"revealed_states": [], "clicked_states": ["28", "27"], "num_clicks_accrued": [0, 0, 0, 0, 0, 0, 0, 0, 0, 0, 0, 0, 0], "stateRewards": ["", -2, -1, 3, -3, 71, -58, -21, 7, -10, -75, -37, 2, 4, -1, -12, -79, -29, -48, 3, -41, -10, -30, -1, -2, 1, -15, 13, 66, 22, -1, -42, -86, -55], "withholdReward": false, "trial_id": "mdp_trial_14", "block": "test", "trialIndex": 17, "score": 46.2, "costs": -2.8, "simulationMode": [null, null, null, null, null], "rewards": [-1, -2, 1, -15, 66], "path": ["0", "0", "23", "24", "25", "26", "28"], "rt": [5860, 7, 132, 122, 3], "actions": ["left", "left", "left", "up", "right"], "actionTimes": [7336, 7854, 8502, 9134, 9650], "queries": {"click": {"state": {"target": ["28", "27"], "time": [3007, 5091]}, "edge": {"target": [], "time": []}}, "mouseover": {"state": {"target": ["12", "13", "18", "28", "27", "27", "29"], "time": [1861, 1878, 2214, 2709, 3298, 4325, 5597]}, "edge": {"target": [], "time": []}}, "mouseout": {"state": {"target": ["22", "12", "0", "12", "13", "18", "28", "27", "27"], "time": [910, 1123, 1243, 1877, 2091, 2586, 3177, 3785, 5352]}, "edge": {"target": [], "time": []}}}, "displayed_time": "15.48", "trialTime": 17871, "trial_type": "mouselab-mdp", "trial_index": 28, "time_elapsed": 1185457, "internal_node_id": "0.0-4.0-1.0-13.0"}}, {"uniqueid": "w83093858:a80510191", "current_trial": 29, "dateTime": 1691072182856, "trialdata": {"revealed_states": [], "clicked_states": ["5", "6"], "num_clicks_accrued": [0, 0, 0, 0, 0, 0, 0, 0, 0, 0, 0, 0, 0], "stateRewards": ["", -1, 4, -8, 12, 14, 69, -8, 5, -72, -14, 56, -1, -1, -1, 9, 67, 19, 11, -9, -88, -58, 3, 2, -4, -8, 4, 62, 77, -74, 5, -31, 65, 88], "withholdReward": false, "trial_id": "mdp_trial_15", "block": "test", "trialIndex": 18, "score": 73.2, "costs": -2.8, "simulationMode": [null, null, null, null, null], "rewards": [-1, 4, -8, 12, 69], "path": ["0", "0", "1", "2", "3", "4", "6"], "rt": [5497, 88, 110, 25, 42], "actions": ["up", "up", "up", "right", "right"], "actionTimes": [7520, 8103, 8718, 9254, 9807], "queries": {"click": {"state": {"target": ["5", "6"], "time": [3451, 5405]}, "edge": {"target": [], "time": []}}, "mouseover": {"state": {"target": ["1", "2", "3", "5", "6"], "time": [2429, 2588, 2731, 2996, 3815]}, "edge": {"target": [], "time": []}}, "mouseout": {"state": {"target": ["29", "26", "23", "0", "1", "2", "3", "5", "6"], "time": [1555, 1606, 1659, 2396, 2573, 2661, 2767, 3658, 6134]}, "edge": {"target": [], "time": []}}}, "displayed_time": "16.02", "trialTime": 17950, "trial_type": "mouselab-mdp", "trial_index": 29, "time_elapsed": 1203632, "internal_node_id": "0.0-4.0-1.0-14.0"}}, {"uniqueid": "w83093858:a80510191", "current_trial": 30, "dateTime": 1691072202273, "trialdata": {"revealed_states": [], "clicked_states": ["11", "10", "9"], "num_clicks_accrued": [0, 0, 0, 0, 0, 0, 0, 0, 0, 0, 0, 0, 0], "stateRewards": ["", -2, -1, -1, 5, -54, -87, 35, 2, -8, 20, -22, 1, 3, 6, 13, -75, -32, -55, -3, 56, 62, -22, -1, -4, -1, -7, -51, 84, 70, 7, -15, 5, 55], "withholdReward": false, "trial_id": "mdp_trial_16", "block": "test", "trialIndex": 19, "score": 13.8, "costs": -4.199999999999999, "simulationMode": [null, null, null, null, null], "rewards": [-2, -1, -1, 2, 20], "path": ["0", "0", "1", "2", "3", "8", "10"], "rt": [7617, 24, 142, 92, 76], "actions": ["up", "up", "up", "left", "down"], "actionTimes": [10319, 10853, 11493, 12094, 12678], "queries": {"click": {"state": {"target": ["11", "10", "9"], "time": [4338, 6234, 8490]}, "edge": {"target": [], "time": []}}, "mouseover": {"state": {"target": ["18", "7", "2", "11", "10", "8", "9"], "time": [3219, 3800, 3833, 4131, 4964, 7941, 8261]}, "edge": {"target": [], "time": []}}, "mouseout": {"state": {"target": ["7", "1", "0", "18", "7", "2", "11", "10", "8", "9", "8"], "time": [2146, 2271, 3060, 3449, 3817, 3991, 4650, 6842, 8083, 17901, 17954]}, "edge": {"target": [], "time": []}}}, "displayed_time": "16.70", "trialTime": 19150, "trial_type": "mouselab-mdp", "trial_index": 30, "time_elapsed": 1223049, "internal_node_id": "0.0-4.0-1.0-15.0"}}, {"uniqueid": "w83093858:a80510191", "current_trial": 31, "dateTime": 1691072221520, "trialdata": {"revealed_states": [], "clicked_states": ["5", "6", "7"], "num_clicks_accrued": [0, 0, 0, 0, 0, 0, 0, 0, 0, 0, 0, 0, 0], "stateRewards": ["", -1, -2, -8, 8, -27, -82, 19, -14, -62, 4, 1, -2, 2, 6, 10, 73, -51, -2, 2, 73, -48, 54, -1, 2, -4, 11, -25, 47, 86, 15, 33, 43, -42], "withholdReward": false, "trial_id": "mdp_trial_17", "block": "test", "trialIndex": 20, "score": 11.8, "costs": -4.199999999999999, "simulationMode": [null, null, null, null, null], "rewards": [-1, -2, -8, 8, 19], "path": ["0", "0", "1", "2", "3", "4", "7"], "rt": [8756, 3, 73, 18, 15], "actions": ["up", "up", "up", "right", "down"], "actionTimes": [12261, 12771, 13364, 13891, 14411], "queries": {"click": {"state": {"target": ["5", "6", "7"], "time": [6252, 8097, 10329]}, "edge": {"target": [], "time": []}}, "mouseover": {"state": {"target": ["1", "2", "8", "4", "5", "6", "7"], "time": [5048, 5277, 5328, 5927, 6105, 6765, 10230]}, "edge": {"target": [], "time": []}}, "mouseout": {"state": {"target": ["12", "12", "1", "2", "8", "4", "5", "6"], "time": [2746, 2989, 5206, 5310, 5718, 5999, 6661, 8426]}, "edge": {"target": [], "time": []}}}, "displayed_time": "17.50", "trialTime": 19020, "trial_type": "mouselab-mdp", "trial_index": 31, "time_elapsed": 1242297, "internal_node_id": "0.0-4.0-1.0-16.0"}}, {"uniqueid": "w83093858:a80510191", "current_trial": 32, "dateTime": 1691072243432, "trialdata": {"revealed_states": [], "clicked_states": ["22"], "num_clicks_accrued": [0, 0, 0, 0, 0, 0, 0, 0, 0, 0, 0, 0, 0], "stateRewards": ["", -2, -1, -4, -15, -14, -67, 32, -3, -59, 63, 31, 2, -1, -7, -15, 71, -66, -27, -3, -54, -39, 72, 2, 1, 1, -13, 77, -40, 35, -9, 35, 75, 57], "withholdReward": false, "trial_id": "mdp_trial_18", "block": "test", "trialIndex": 21, "score": 61.6, "costs": -1.4, "simulationMode": [null, null, null, null, null], "rewards": [2, -1, -7, -3, 72], "path": ["0", "0", "12", "13", "14", "19", "22"], "rt": [3663, 60, 34, 79, 160], "actions": ["right", "right", "right", "down", "left"], "actionTimes": [8734, 9301, 9845, 10429, 11085], "queries": {"click": {"state": {"target": ["22"], "time": [6450]}, "edge": {"target": [], "time": []}}, "mouseover": {"state": {"target": ["12", "22", "19", "19", "22", "21", "20", "19"], "time": [5495, 5582, 5618, 5848, 6323, 6881, 8084, 8633]}, "edge": {"target": [], "time": []}}, "mouseout": {"state": {"target": ["7", "1", "0", "0", "12", "22", "19", "19", "22", "21", "20"], "time": [1417, 1718, 2118, 5353, 5529, 5600, 5654, 6093, 6741, 7768, 8599]}, "edge": {"target": [], "time": []}}}, "displayed_time": "19.07", "trialTime": 21685, "trial_type": "mouselab-mdp", "trial_index": 32, "time_elapsed": 1264208, "internal_node_id": "0.0-4.0-1.0-17.0"}}, {"uniqueid": "w83093858:a80510191", "current_trial": 33, "dateTime": 1691072261993, "trialdata": {"revealed_states": [], "clicked_states": [], "num_clicks_accrued": [0, 0, 0, 0, 0, 0, 0, 0, 0, 0, 0, 0, 0], "stateRewards": ["", -2, -4, -2, 10, -8, -15, -47, 7, -84, 53, 5, -1, 2, -7, 3, 83, 31, 47, -1, 30, -8, 69, 2, -4, -1, 8, -7, 12, -8, -8, -13, 30, -84], "withholdReward": false, "trial_id": "mdp_trial_19", "block": "test", "trialIndex": 22, "score": -2, "costs": 0, "simulationMode": [null, null, null, null, null], "rewards": [2, -4, -1, 8, -7], "path": ["0", "0", "23", "24", "25", "26", "27"], "rt": [6063, 338, 162, 138, 359], "actions": ["left", "left", "left", "up", "up"], "actionTimes": [8920, 9766, 10438, 11086, 11958], "queries": {"click": {"state": {"target": [], "time": []}, "edge": {"target": [], "time": []}}, "mouseover": {"state": {"target": ["15", "15", "14", "26", "29", "26", "28", "0", "1", "2", "3"], "time": [4195, 4542, 4929, 5516, 5693, 6123, 6193, 7205, 7597, 8031, 8444]}, "edge": {"target": [], "time": []}}, "mouseout": {"state": {"target": ["19", "22", "13", "18", "6", "2", "1", "0", "0", "15", "15", "14", "26", "29", "26", "28", "0", "1", "2"], "time": [822, 1191, 1263, 1279, 1351, 1802, 1872, 2170, 2591, 4373, 4593, 4963, 5532, 6035, 6176, 6919, 7473, 8013, 8411]}, "edge": {"target": [], "time": []}}}, "displayed_time": "16.86", "trialTime": 18326, "trial_type": "mouselab-mdp", "trial_index": 33, "time_elapsed": 1282769, "internal_node_id": "0.0-4.0-1.0-18.0"}}, {"uniqueid": "w83093858:a80510191", "current_trial": 34, "dateTime": 1691072280296, "trialdata": {"revealed_states": [], "clicked_states": ["32", "31"], "num_clicks_accrued": [0, 0, 0, 0, 0, 0, 0, 0, 0, 0, 0, 0, 0], "stateRewards": ["", 1, 4, 7, -16, -84, -6, -46, -12, -7, -49, -26, -1, 2, -4, 2, 22, 37, -64, 1, 88, -13, -10, 1, -4, -2, 5, 2, -10, -34, 9, 66, 55, 38], "withholdReward": false, "trial_id": "mdp_trial_20", "block": "test", "trialIndex": 23, "score": 67.2, "costs": -2.8, "simulationMode": [null, null, null, null, null, null], "rewards": [1, -4, -2, 9, 66], "path": ["0", "0", "23", "24", "25", "30", "31"], "rt": [3728, 965, 116, 91, 56, 119], "actions": ["left", "left", "left", "left", "down", "right"], "actionTimes": [6303, 7270, 7894, 8478, 9029, 9670], "queries": {"click": {"state": {"target": ["32", "31"], "time": [3295, 5395]}, "edge": {"target": [], "time": []}}, "mouseover": {"state": {"target": ["23", "24", "31", "32", "31"], "time": [2681, 2732, 2910, 3191, 3769]}, "edge": {"target": [], "time": []}}, "mouseout": {"state": {"target": ["3", "2", "1", "0", "23", "24", "31", "32", "31"], "time": [1724, 1935, 2167, 2379, 2715, 2767, 2944, 3646, 7068]}, "edge": {"target": [], "time": []}}}, "displayed_time": "16.58", "trialTime": 18054, "trial_type": "mouselab-mdp", "trial_index": 34, "time_elapsed": 1301073, "internal_node_id": "0.0-4.0-1.0-19.0"}}, {"uniqueid": "w83093858:a80510191", "current_trial": 35, "dateTime": 1691072299112, "trialdata": {"revealed_states": [], "clicked_states": [], "num_clicks_accrued": [0, 0, 0, 0, 0, 0, 0, 0, 0, 0, 0, 0, 0], "stateRewards": ["", 2, 3, -1, 6, 44, -4, -59, -14, -3, 64, 16, 1, -3, 3, 6, 3, 49, 19, 3, -49, -14, -86, 1, 2, -3, -8, -33, 14, 32, -13, -77, -47, -67], "withholdReward": false, "trial_id": "mdp_trial_21", "block": "test", "trialIndex": 24, "score": -82, "costs": 0, "simulationMode": [null, null, null, null, null], "rewards": [1, -3, 3, 3, -86], "path": ["0", "0", "12", "13", "14", "19", "22"], "rt": [4357, 401, 181, 213, 380], "actions": ["right", "right", "right", "down", "left"], "actionTimes": [7646, 8548, 9236, 9965, 10836], "queries": {"click": {"state": {"target": [], "time": []}, "edge": {"target": [], "time": []}}, "mouseover": {"state": {"target": ["12", "13", "15", "15", "14", "19", "21", "21", "22"], "time": [3843, 3912, 4317, 5314, 5383, 5683, 6022, 6286, 7219]}, "edge": {"target": [], "time": []}}, "mouseout": {"state": {"target": ["31", "19", "20", "19", "22", "12", "0", "12", "13", "15", "15", "14", "19", "21", "21"], "time": [1706, 2207, 2503, 2536, 2642, 2855, 3772, 3895, 3946, 4962, 5367, 5631, 5825, 6074, 7130]}, "edge": {"target": [], "time": []}}}, "displayed_time": "17.29", "trialTime": 18564, "trial_type": "mouselab-mdp", "trial_index": 35, "time_elapsed": 1319889, "internal_node_id": "0.0-4.0-1.0-20.0"}}, {"uniqueid": "w83093858:a80510191", "current_trial": 36, "dateTime": 1691072316680, "trialdata": {"revealed_states": [], "clicked_states": ["22", "21", "20"], "num_clicks_accrued": [0, 0, 0, 0, 0, 0, 0, 0, 0, 0, 0, 0, 0], "stateRewards": ["", -2, -4, 2, 10, -17, 18, 73, 11, -32, 23, -13, -2, -4, 7, 12, -25, 66, -23, 15, 40, -76, -9, 1, 2, -7, -5, -20, 24, 3, -5, 16, -73, 70], "withholdReward": false, "trial_id": "mdp_trial_22", "block": "test", "trialIndex": 25, "score": 51.8, "costs": -4.199999999999999, "simulationMode": [null, null, null, null, null], "rewards": [-2, -4, 7, 15, 40], "path": ["0", "0", "12", "13", "14", "19", "20"], "rt": [7383, 452, 170, 84, 108], "actions": ["right", "right", "right", "down", "right"], "actionTimes": [9122, 10096, 10777, 11368, 11985], "queries": {"click": {"state": {"target": ["22", "21", "20"], "time": [2682, 4564, 6343]}, "edge": {"target": [], "time": []}}, "mouseover": {"state": {"target": ["0", "22", "21", "20", "19", "23", "24", "24"], "time": [1802, 2351, 3217, 4962, 7880, 8552, 8604, 9082]}, "edge": {"target": [], "time": []}}, "mouseout": {"state": {"target": ["22", "0", "22", "21", "20", "19", "23", "24", "24", "23"], "time": [992, 1871, 3043, 4823, 7097, 8253, 8587, 8944, 9136, 9170]}, "edge": {"target": [], "time": []}}}, "displayed_time": "15.74", "trialTime": 17336, "trial_type": "mouselab-mdp", "trial_index": 36, "time_elapsed": 1337456, "internal_node_id": "0.0-4.0-1.0-21.0"}}, {"uniqueid": "w83093858:a80510191", "current_trial": 37, "dateTime": 1691072333960, "trialdata": {"revealed_states": [], "clicked_states": ["11", "9", "10"], "num_clicks_accrued": [0, 0, 0, 0, 0, 0, 0, 0, 0, 0, 0, 0, 0], "stateRewards": ["", -2, -3, -6, -7, 9, 16, 65, 5, -41, 20, -25, -1, -4, 1, -11, -49, -4, 71, 1, 39, -62, 52, -2, -3, 7, -9, -28, -70, 84, 8, 24, -58, 82], "withholdReward": false, "trial_id": "mdp_trial_23", "block": "test", "trialIndex": 26, "score": 9.8, "costs": -4.199999999999999, "simulationMode": [null, null, null, null, null], "rewards": [-2, -3, -6, 5, 20], "path": ["0", "0", "1", "2", "3", "8", "10"], "rt": [8337, 30, 231, 57, 83], "actions": ["up", "up", "up", "left", "down"], "actionTimes": [9718, 10244, 10981, 11548, 12141], "queries": {"click": {"state": {"target": ["11", "9", "10"], "time": [3947, 5999, 7845]}, "edge": {"target": [], "time": []}}, "mouseover": {"state": {"target": ["23", "28", "26", "25", "25", "26", "11", "9", "8", "10"], "time": [2025, 2397, 2609, 2837, 3183, 3220, 3806, 5868, 6346, 7357]}, "edge": {"target": [], "time": []}}, "mouseout": {"state": {"target": ["0", "23", "28", "26", "25", "25", "26", "11", "11", "9", "9", "8", "10", "10"], "time": [1864, 2218, 2538, 2766, 2872, 3218, 3236, 4447, 4552, 6072, 6276, 6433, 9308, 9886]}, "edge": {"target": [], "time": []}}}, "displayed_time": "15.38", "trialTime": 17029, "trial_type": "mouselab-mdp", "trial_index": 37, "time_elapsed": 1354736, "internal_node_id": "0.0-4.0-1.0-22.0"}}, {"uniqueid": "w83093858:a80510191", "current_trial": 38, "dateTime": 1691072350577, "trialdata": {"revealed_states": [], "clicked_states": ["7", "6"], "num_clicks_accrued": [0, 0, 0, 0, 0, 0, 0, 0, 0, 0, 0, 0, 0], "stateRewards": ["", 2, 4, 4, -8, -36, -33, 38, 16, -51, 57, 57, 1, 3, 4, -6, 45, 68, 87, 1, 63, 24, -55, -2, 2, -6, -13, -63, -50, 8, 2, 80, 6, 60], "withholdReward": false, "trial_id": "mdp_trial_24", "block": "test", "trialIndex": 27, "score": 37.2, "costs": -2.8, "simulationMode": [null, null, null, null, null], "rewards": [2, 4, 4, -8, 38], "path": ["0", "0", "1", "2", "3", "4", "7"], "rt": [5338, 357, 136, 61, 30], "actions": ["up", "up", "up", "right", "down"], "actionTimes": [6609, 7472, 8120, 8688, 9231], "queries": {"click": {"state": {"target": ["7", "6"], "time": [2565, 4558]}, "edge": {"target": [], "time": []}}, "mouseover": {"state": {"target": ["18", "7", "13", "14", "15", "16", "6"], "time": [1883, 2256, 3117, 3447, 3501, 3553, 4004]}, "edge": {"target": [], "time": []}}, "mouseout": {"state": {"target": ["1", "18", "7", "13", "14", "15", "16", "6", "6"], "time": [944, 1900, 3013, 3152, 3483, 3518, 3588, 5147, 5687]}, "edge": {"target": [], "time": []}}}, "displayed_time": "15.27", "trialTime": 16376, "trial_type": "mouselab-mdp", "trial_index": 38, "time_elapsed": 1371353, "internal_node_id": "0.0-4.0-1.0-23.0"}}, {"uniqueid": "w83093858:a80510191", "current_trial": 39, "dateTime": 1691072367576, "trialdata": {"revealed_states": [], "clicked_states": ["17", "18", "16"], "num_clicks_accrued": [0, 0, 0, 0, 0, 0, 0, 0, 0, 0, 0, 0, 0], "stateRewards": ["", -2, 2, -1, -6, 22, 6, 6, -5, 70, -42, 65, 1, 3, 5, -6, -67, -9, 3, 14, 7, -62, -13, -2, 4, 1, 16, 42, -21, -52, -8, 32, 53, 81], "withholdReward": false, "trial_id": "mdp_trial_25", "block": "test", "trialIndex": 28, "score": 1.8000000000000007, "costs": -4.199999999999999, "simulationMode": [null, null, null, null, null], "rewards": [1, 3, 5, -6, 3], "path": ["0", "0", "12", "13", "14", "15", "18"], "rt": [8040, 391, 195, 100, 41], "actions": ["right", "right", "right", "up", "left"], "actionTimes": [9279, 10182, 10886, 11478, 12030], "queries": {"click": {"state": {"target": ["17", "18", "16"], "time": [2912, 4916, 7447]}, "edge": {"target": [], "time": []}}, "mouseover": {"state": {"target": ["12", "13", "14", "17", "15", "18", "16"], "time": [1728, 1779, 1813, 2565, 3431, 4181, 7199]}, "edge": {"target": [], "time": []}}, "mouseout": {"state": {"target": ["2", "1", "12", "13", "14", "17", "15", "18", "16"], "time": [633, 897, 1762, 1796, 1831, 3361, 3501, 6637, 8043]}, "edge": {"target": [], "time": []}}}, "displayed_time": "15.24", "trialTime": 16750, "trial_type": "mouselab-mdp", "trial_index": 39, "time_elapsed": 1388353, "internal_node_id": "0.0-4.0-1.0-24.0"}}, {"uniqueid": "w83093858:a80510191", "current_trial": 40, "dateTime": 1691072384921, "trialdata": {"revealed_states": [], "clicked_states": ["31", "33", "32"], "num_clicks_accrued": [0, 0, 0, 0, 0, 0, 0, 0, 0, 0, 0, 0, 0], "stateRewards": ["", 1, -1, 4, -2, -75, -75, 84, -9, -60, -79, 59, 2, -4, 8, 9, -17, -82, 80, 14, -4, 49, 49, -1, 3, 6, -11, -33, 34, 55, 9, -57, 5, 59], "withholdReward": false, "trial_id": "mdp_trial_26", "block": "test", "trialIndex": 29, "score": 71.8, "costs": -4.199999999999999, "simulationMode": [null, null, null, null, null], "rewards": [-1, 3, 6, 9, 59], "path": ["0", "0", "23", "24", "25", "30", "33"], "rt": [8004, 400, 178, 133, 163], "actions": ["left", "left", "left", "down", "left"], "actionTimes": [9735, 10654, 11342, 11982, 12654], "queries": {"click": {"state": {"target": ["31", "33", "32"], "time": [3326, 5645, 7845]}, "edge": {"target": [], "time": []}}, "mouseover": {"state": {"target": ["31", "24", "31", "30", "33", "33", "32"], "time": [2623, 2711, 3150, 3778, 5350, 5513, 7210]}, "edge": {"target": [], "time": []}}, "mouseout": {"state": {"target": ["0", "0", "31", "24", "31", "30", "33", "33", "32", "32"], "time": [1265, 2281, 2675, 2953, 3761, 3795, 5402, 7000, 7928, 13198]}, "edge": {"target": [], "time": []}}}, "displayed_time": "15.73", "trialTime": 17094, "trial_type": "mouselab-mdp", "trial_index": 40, "time_elapsed": 1405697, "internal_node_id": "0.0-4.0-1.0-25.0"}}, {"uniqueid": "w83093858:a80510191", "current_trial": 41, "dateTime": 1691072405473, "trialdata": {"revealed_states": [], "clicked_states": ["29", "28", "27", "18", "16"], "num_clicks_accrued": [0, 0, 0, 0, 0, 0, 0, 0, 0, 0, 0, 0, 0], "stateRewards": ["", 2, -2, -3, 10, -4, -1, -11, -8, -9, -36, -78, 2, 1, 7, -7, 44, -1, -31, -1, 26, 47, 83, 2, -4, -4, -6, -52, -76, -81, -1, -59, 45, 67], "withholdReward": false, "trial_id": "mdp_trial_27", "block": "test", "trialIndex": 30, "score": 40, "costs": -7, "simulationMode": [null, null, null, null, null], "rewards": [2, 1, 7, -7, 44], "path": ["0", "0", "12", "13", "14", "15", "16"], "rt": [13018, 18, 197, 91, 49], "actions": ["right", "right", "right", "up", "up"], "actionTimes": [14504, 15030, 15750, 16358, 16918], "queries": {"click": {"state": {"target": ["29", "28", "27", "18", "16"], "time": [2911, 5291, 7602, 10425, 12357]}, "edge": {"target": [], "time": []}}, "mouseover": {"state": {"target": ["23", "29", "29", "26", "27", "28", "26", "27", "18", "16", "17"], "time": [1945, 2068, 2656, 3997, 4681, 5069, 7195, 7355, 10036, 11224, 13284]}, "edge": {"target": [], "time": []}}, "mouseout": {"state": {"target": ["0", "1", "23", "29", "29", "26", "27", "28", "26", "27", "18", "16", "17", "15", "14", "22"], "time": [930, 1141, 1996, 2103, 3928, 4610, 5035, 7142, 7285, 9840, 10432, 12690, 18932, 19072, 19124, 19177]}, "edge": {"target": [], "time": []}}}, "displayed_time": "17.44", "trialTime": 20318, "trial_type": "mouselab-mdp", "trial_index": 41, "time_elapsed": 1426249, "internal_node_id": "0.0-4.0-1.0-26.0"}}, {"uniqueid": "w83093858:a80510191", "current_trial": 42, "dateTime": 1691072423361, "trialdata": {"revealed_states": [], "clicked_states": ["28", "27", "29"], "num_clicks_accrued": [0, 0, 0, 0, 0, 0, 0, 0, 0, 0, 0, 0, 0], "stateRewards": ["", -1, 3, -7, 16, -32, -74, -48, 2, 10, 15, -30, 1, 1, -2, 10, 12, -83, 67, 13, -66, 47, 65, -2, 4, 2, -14, -8, -57, 24, 9, 65, 12, 46], "withholdReward": false, "trial_id": "mdp_trial_28", "block": "test", "trialIndex": 31, "score": 9.8, "costs": -4.199999999999999, "simulationMode": [null, null, null, null, null], "rewards": [-2, 4, 2, -14, 24], "path": ["0", "0", "23", "24", "25", "26", "29"], "rt": [7574, 397, 131, 160, 66], "actions": ["left", "left", "left", "up", "left"], "actionTimes": [9430, 10324, 10972, 11644, 12236], "queries": {"click": {"state": {"target": ["28", "27", "29"], "time": [3931, 5642, 7458]}, "edge": {"target": [], "time": []}}, "mouseover": {"state": {"target": ["0", "18", "10", "28", "27", "29", "26", "23", "12", "13", "14", "15", "18"], "time": [2563, 2844, 3323, 3749, 4430, 6901, 7898, 7967, 8021, 8056, 8092, 8391, 8478]}, "edge": {"target": [], "time": []}}, "mouseout": {"state": {"target": ["23", "0", "0", "18", "10", "28", "27", "27", "29", "29", "26", "23", "12", "13", "14", "15"], "time": [1269, 1341, 2649, 3073, 3430, 4325, 5720, 6359, 7520, 7862, 7933, 7985, 8039, 8091, 8249, 8443]}, "edge": {"target": [], "time": []}}}, "displayed_time": "15.86", "trialTime": 17636, "trial_type": "mouselab-mdp", "trial_index": 42, "time_elapsed": 1444137, "internal_node_id": "0.0-4.0-1.0-27.0"}}, {"uniqueid": "w83093858:a80510191", "current_trial": 43, "dateTime": 1691072441553, "trialdata": {"revealed_states": [], "clicked_states": ["5", "7", "6", "11"], "num_clicks_accrued": [0, 0, 0, 0, 0, 0, 0, 0, 0, 0, 0, 0, 0], "stateRewards": ["", -2, 1, -7, -8, -37, -76, -87, 11, 30, -63, 80, -1, 4, 2, -1, 42, 17, 52, -3, -75, -80, -68, 2, -3, -5, -15, -48, 82, 24, -7, 5, -22, -71], "withholdReward": false, "trial_id": "mdp_trial_29", "block": "test", "trialIndex": 32, "score": 77.4, "costs": -5.6, "simulationMode": [null, null, null, null, null], "rewards": [-2, 1, -7, 11, 80], "path": ["0", "0", "1", "2", "3", "8", "11"], "rt": [9973, 43, 101, 38, 3], "actions": ["up", "up", "up", "left", "left"], "actionTimes": [12008, 12568, 13184, 13728, 14250], "queries": {"click": {"state": {"target": ["5", "7", "6", "11"], "time": [3724, 5562, 7392, 9958]}, "edge": {"target": [], "time": []}}, "mouseover": {"state": {"target": ["4", "5", "4", "4", "7", "6", "4", "3", "8", "11", "10"], "time": [3353, 3602, 4140, 4537, 4870, 6483, 9322, 9374, 9628, 9890, 10691]}, "edge": {"target": [], "time": []}}, "mouseout": {"state": {"target": ["18", "0", "4", "5", "5", "4", "4", "7", "6", "4", "3", "8", "11", "10"], "time": [1482, 2888, 3512, 3755, 4086, 4210, 4699, 5605, 9305, 9339, 9463, 9663, 10380, 16937]}, "edge": {"target": [], "time": []}}}, "displayed_time": "16.04", "trialTime": 17960, "trial_type": "mouselab-mdp", "trial_index": 43, "time_elapsed": 1462329, "internal_node_id": "0.0-4.0-1.0-28.0"}}, {"uniqueid": "w83093858:a80510191", "current_trial": 44, "dateTime": 1691072458521, "trialdata": {"revealed_states": [], "clicked_states": ["9", "10"], "num_clicks_accrued": [0, 0, 0, 0, 0, 0, 0, 0, 0, 0, 0, 0, 0], "stateRewards": ["", 2, 3, 6, -12, -29, 12, 87, 4, 35, -30, 67, 2, 3, -5, -9, 44, 69, -8, 1, 45, -8, 28, -2, -1, -8, 11, -12, -5, 81, 9, 87, 82, 88], "withholdReward": false, "trial_id": "mdp_trial_30", "block": "test", "trialIndex": 33, "score": 47.2, "costs": -2.8, "simulationMode": [null, null, null, null, null], "rewards": [2, 3, 6, 4, 35], "path": ["0", "0", "1", "2", "3", "8", "9"], "rt": [4973, 30, 89, 17, 48], "actions": ["up", "up", "up", "left", "up"], "actionTimes": [6357, 6899, 7499, 8027, 8595], "queries": {"click": {"state": {"target": ["9", "10"], "time": [2495, 4540]}, "edge": {"target": [], "time": []}}, "mouseover": {"state": {"target": ["0", "3", "9", "8", "10", "10"], "time": [1528, 2013, 2312, 2789, 2843, 3562]}, "edge": {"target": [], "time": []}}, "mouseout": {"state": {"target": ["0", "0", "3", "9", "9", "8", "10"], "time": [1080, 1820, 2207, 2571, 2754, 2808, 2878]}, "edge": {"target": [], "time": []}}}, "displayed_time": "15.38", "trialTime": 16732, "trial_type": "mouselab-mdp", "trial_index": 44, "time_elapsed": 1479298, "internal_node_id": "0.0-4.0-1.0-29.0"}}, {"uniqueid": "w83093858:a80510191", "current_trial": 45, "dateTime": 1691072475087, "trialdata": {"revealed_states": [], "clicked_states": ["32", "28", "29"], "num_clicks_accrued": [0, 0, 0, 0, 0, 0, 0, 0, 0, 0, 0, 0, 0], "stateRewards": ["", -2, -3, 8, 14, -73, 73, 84, -12, -2, -50, -17, 2, 1, -2, -9, -44, -27, -33, 16, -63, -47, -66, -2, 1, 4, -5, -33, -11, 50, 9, 38, -79, 31], "withholdReward": false, "trial_id": "mdp_trial_31", "block": "test", "trialIndex": 34, "score": 43.8, "costs": -4.199999999999999, "simulationMode": [null, null, null, null, null], "rewards": [-2, 1, 4, -5, 50], "path": ["0", "0", "23", "24", "25", "26", "29"], "rt": [6669, 3, 57, 110, 61], "actions": ["left", "left", "left", "up", "left"], "actionTimes": [7748, 8263, 8842, 9466, 10043], "queries": {"click": {"state": {"target": ["32", "28", "29"], "time": [1811, 3671, 5742]}, "edge": {"target": [], "time": []}}, "mouseover": {"state": {"target": ["0", "31", "32", "24", "28", "26", "29", "27"], "time": [1287, 1463, 1676, 2873, 3069, 4099, 5056, 7317]}, "edge": {"target": [], "time": []}}, "mouseout": {"state": {"target": ["10", "2", "1", "0", "31", "32", "24", "28", "26", "29", "27"], "time": [481, 667, 754, 1305, 1480, 2191, 3032, 4064, 4413, 5798, 7735]}, "edge": {"target": [], "time": []}}}, "displayed_time": "15.08", "trialTime": 16314, "trial_type": "mouselab-mdp", "trial_index": 45, "time_elapsed": 1495863, "internal_node_id": "0.0-4.0-1.0-30.0"}}, {"uniqueid": "w83093858:a80510191", "current_trial": 46, "dateTime": 1691072492809, "trialdata": {"revealed_states": [], "clicked_states": ["17"], "num_clicks_accrued": [0, 0, 0, 0, 0, 0, 0, 0, 0, 0, 0, 0, 0], "stateRewards": ["", -2, -1, -5, 10, -36, -70, 68, -9, 86, 71, -10, 2, -4, 7, -7, 66, 44, -66, -13, -69, 43, 15, -2, 2, 6, -13, 62, 57, 50, -10, -69, 42, -72], "withholdReward": false, "trial_id": "mdp_trial_32", "block": "test", "trialIndex": 35, "score": 68.6, "costs": -1.4, "simulationMode": [null, null, null, null, null], "rewards": [-2, -1, -5, 10, 68], "path": ["0", "0", "1", "2", "3", "4", "7"], "rt": [3517, 234, 179, 90, 265], "actions": ["up", "up", "up", "right", "down"], "actionTimes": [5447, 6190, 6880, 7487, 8262], "queries": {"click": {"state": {"target": ["17"], "time": [3297]}, "edge": {"target": [], "time": []}}, "mouseover": {"state": {"target": ["12", "15", "15", "17", "17", "20"], "time": [2498, 2691, 2849, 2938, 3081, 4705]}, "edge": {"target": [], "time": []}}, "mouseout": {"state": {"target": ["1", "12", "12", "15", "15", "17", "17", "20", "14", "18"], "time": [602, 834, 2532, 2797, 2920, 2972, 3673, 6873, 6977, 7063]}, "edge": {"target": [], "time": []}}}, "displayed_time": "15.93", "trialTime": 17430, "trial_type": "mouselab-mdp", "trial_index": 46, "time_elapsed": 1513585, "internal_node_id": "0.0-4.0-1.0-31.0"}}, {"uniqueid": "w83093858:a80510191", "current_trial": 47, "dateTime": 1691072509562, "trialdata": {"revealed_states": [], "clicked_states": ["17"], "num_clicks_accrued": [0, 0, 0, 0, 0, 0, 0, 0, 0, 0, 0, 0, 0], "stateRewards": ["", -2, 4, -5, -12, 85, -24, -18, -15, -78, -22, 26, -1, -1, 2, 14, -45, 52, -23, 7, -33, 24, -6, -2, -4, 5, -7, -16, 36, -39, 5, 71, -87, -23], "withholdReward": false, "trial_id": "mdp_trial_33", "block": "test", "trialIndex": 36, "score": 64.6, "costs": -1.4, "simulationMode": [null, null, null, null, null], "rewards": [-1, -1, 2, 14, 52], "path": ["0", "0", "12", "13", "14", "15", "17"], "rt": [3282, 55, 21, 44, 55], "actions": ["right", "right", "right", "up", "right"], "actionTimes": [4510, 5078, 5621, 6165, 6733], "queries": {"click": {"state": {"target": ["17"], "time": [2301]}, "edge": {"target": [], "time": []}}, "mouseover": {"state": {"target": ["12", "15", "17", "20"], "time": [1506, 1595, 2179, 2931]}, "edge": {"target": [], "time": []}}, "mouseout": {"state": {"target": ["2", "1", "0", "12", "15", "17", "17"], "time": [702, 881, 1488, 1523, 1612, 2413, 2826]}, "edge": {"target": [], "time": []}}}, "displayed_time": "15.23", "trialTime": 16470, "trial_type": "mouselab-mdp", "trial_index": 47, "time_elapsed": 1530338, "internal_node_id": "0.0-4.0-1.0-32.0"}}, {"uniqueid": "w83093858:a80510191", "current_trial": 48, "dateTime": 1691072527226, "trialdata": {"revealed_states": [], "clicked_states": ["20", "22", "21", "16"], "num_clicks_accrued": [0, 0, 0, 0, 0, 0, 0, 0, 0, 0, 0, 0, 0], "stateRewards": ["", -1, -4, 8, 8, -68, 47, 24, -7, -61, 49, -69, -1, -1, 8, -7, 42, 1, -45, -11, 10, -63, -6, 1, 4, 6, -16, 79, -37, -58, -12, 81, 18, -53], "withholdReward": false, "trial_id": "mdp_trial_34", "block": "test", "trialIndex": 37, "score": 35.4, "costs": -5.6, "simulationMode": [null, null, null, null, null], "rewards": [-1, -1, 8, -7, 42], "path": ["0", "0", "12", "13", "14", "15", "16"], "rt": [9666, 499, 195, 44, 38], "actions": ["right", "right", "right", "up", "up"], "actionTimes": [11250, 12241, 12929, 13481, 14033], "queries": {"click": {"state": {"target": ["20", "22", "21", "16"], "time": [2302, 5259, 7372, 9293]}, "edge": {"target": [], "time": []}}, "mouseover": {"state": {"target": ["0", "12", "19", "20", "19", "22", "22", "19", "21", "19", "14", "15", "16", "15", "17"], "time": [1756, 1806, 1984, 2108, 4615, 4739, 5076, 6041, 7122, 8538, 8590, 8660, 8711, 9810, 9898]}, "edge": {"target": [], "time": []}}, "mouseout": {"state": {"target": ["20", "14", "13", "12", "23", "0", "12", "19", "20", "19", "22", "22", "19", "21", "19", "14", "15", "16", "15", "17", "13"], "time": [502, 554, 766, 801, 1190, 1789, 1823, 2001, 3167, 4722, 4775, 5903, 6059, 7390, 8573, 8625, 8677, 9582, 9862, 16379, 16466]}, "edge": {"target": [], "time": []}}}, "displayed_time": "15.59", "trialTime": 17409, "trial_type": "mouselab-mdp", "trial_index": 48, "time_elapsed": 1548002, "internal_node_id": "0.0-4.0-1.0-33.0"}}, {"uniqueid": "w83093858:a80510191", "current_trial": 49, "dateTime": 1691072546305, "trialdata": {"revealed_states": [], "clicked_states": ["17", "20", "5", "9", "11"], "num_clicks_accrued": [0, 0, 0, 0, 0, 0, 0, 0, 0, 0, 0, 0, 0], "stateRewards": ["", 2, 4, -3, 16, -58, 30, -35, 11, -60, 47, 27, -2, -1, -7, -16, 23, -70, 68, -10, -65, -43, -34, -2, 1, 7, 9, -63, 34, -31, -8, -12, -86, 59], "withholdReward": false, "trial_id": "mdp_trial_35", "block": "test", "trialIndex": 38, "score": 34, "costs": -7, "simulationMode": [null, null, null, null, null], "rewards": [2, 4, -3, 11, 27], "path": ["0", "0", "1", "2", "3", "8", "11"], "rt": [11747, 95, 100, 51, 117], "actions": ["up", "up", "up", "left", "left"], "actionTimes": [14129, 14736, 15345, 15912, 16536], "queries": {"click": {"state": {"target": ["17", "20", "5", "9", "11"], "time": [3301, 5273, 7753, 9840, 11912]}, "edge": {"target": [], "time": []}}, "mouseover": {"state": {"target": ["12", "17", "17", "20", "20", "14", "6", "5", "9", "11"], "time": [2777, 2886, 3170, 3701, 5132, 6784, 7012, 7595, 9667, 11652]}, "edge": {"target": [], "time": []}}, "mouseout": {"state": {"target": ["0", "12", "17", "17", "20", "20", "14", "6", "5", "5", "9", "9"], "time": [2744, 2813, 2904, 3614, 3719, 6730, 6801, 7098, 8158, 8716, 9900, 11492]}, "edge": {"target": [], "time": []}}}, "displayed_time": "17.02", "trialTime": 18792, "trial_type": "mouselab-mdp", "trial_index": 49, "time_elapsed": 1567081, "internal_node_id": "0.0-4.0-1.0-34.0"}}, {"uniqueid": "w83093858:a80510191", "current_trial": 50, "dateTime": 1691072564008, "trialdata": {"revealed_states": [], "clicked_states": ["9", "11", "10", "7", "6"], "num_clicks_accrued": [0, 0, 0, 0, 0, 0, 0, 0, 0, 0, 0, 0, 0], "stateRewards": ["", 2, -1, -4, -13, 74, 77, 3, 2, -43, -2, -11, 2, 3, 7, 11, -26, -29, -33, -3, -3, -13, -3, 1, 3, -7, 14, -59, 33, 9, -5, 34, 79, 68], "withholdReward": false, "trial_id": "mdp_trial_36", "block": "test", "trialIndex": 39, "score": 54, "costs": -7, "simulationMode": [null, null, null, null, null], "rewards": [2, -1, -4, -13, 77], "path": ["0", "0", "1", "2", "3", "4", "6"], "rt": [10771, 457, 118, 24, 43], "actions": ["up", "up", "up", "right", "right"], "actionTimes": [12687, 13662, 14279, 14798, 15358], "queries": {"click": {"state": {"target": ["9", "11", "10", "7", "6"], "time": [3294, 5149, 7056, 8910, 10923]}, "edge": {"target": [], "time": []}}, "mouseover": {"state": {"target": ["1", "2", "3", "9", "9", "8", "11", "10", "2", "7", "6"], "time": [2382, 2611, 2789, 2914, 3161, 3914, 4279, 6163, 7472, 7523, 10459]}, "edge": {"target": [], "time": []}}, "mouseout": {"state": {"target": ["11", "1", "2", "3", "9", "9", "8", "11", "10", "2", "7"], "time": [1303, 2415, 2719, 2861, 2933, 3775, 4157, 5396, 7454, 7505, 9552]}, "edge": {"target": [], "time": []}}}, "displayed_time": "15.92", "trialTime": 17446, "trial_type": "mouselab-mdp", "trial_index": 50, "time_elapsed": 1584785, "internal_node_id": "0.0-4.0-1.0-35.0"}}, {"uniqueid": "w83093858:a80510191", "current_trial": 51, "dateTime": 1691072580921, "trialdata": {"revealed_states": [], "clicked_states": ["9", "5", "6"], "num_clicks_accrued": [0, 0, 0, 0, 0, 0, 0, 0, 0, 0, 0, 0, 0], "stateRewards": ["", 2, -3, 5, 11, -79, 54, 11, -9, -78, 33, 22, -2, -1, 2, 14, 43, 34, 1, 10, 49, -65, 39, -1, 1, -1, 3, -16, -2, 11, 2, 12, 48, -65], "withholdReward": false, "trial_id": "mdp_trial_37", "block": "test", "trialIndex": 40, "score": 64.8, "costs": -4.199999999999999, "simulationMode": [null, null, null, null, null], "rewards": [2, -3, 5, 11, 54], "path": ["0", "0", "1", "2", "3", "4", "6"], "rt": [6377, 36, 70, 44, 48], "actions": ["up", "up", "up", "right", "right"], "actionTimes": [7973, 8509, 9102, 9653, 10198], "queries": {"click": {"state": {"target": ["9", "5", "6"], "time": [2328, 4203, 6004]}, "edge": {"target": [], "time": []}}, "mouseover": {"state": {"target": ["1", "2", "3", "9", "4", "5", "6", "7"], "time": [1768, 1837, 1872, 2171, 3160, 3581, 4999, 7015]}, "edge": {"target": [], "time": []}}, "mouseout": {"state": {"target": ["6", "1", "2", "3", "9", "4", "5", "6"], "time": [982, 1803, 1854, 1907, 2620, 3177, 4441, 6472]}, "edge": {"target": [], "time": []}}}, "displayed_time": "15.60", "trialTime": 16613, "trial_type": "mouselab-mdp", "trial_index": 51, "time_elapsed": 1601698, "internal_node_id": "0.0-4.0-1.0-36.0"}}, {"uniqueid": "w83093858:a80510191", "current_trial": 52, "dateTime": 1691072598066, "trialdata": {"revealed_states": [], "clicked_states": ["32", "33"], "num_clicks_accrued": [0, 0, 0, 0, 0, 0, 0, 0, 0, 0, 0, 0, 0], "stateRewards": ["", 1, -4, -6, 11, -20, 8, -30, 1, -38, 88, 42, 2, 3, 5, -12, -8, -74, 30, -8, 67, -19, 42, 2, -1, 4, 13, 50, -68, 2, -8, -15, 87, -46], "withholdReward": false, "trial_id": "mdp_trial_38", "block": "test", "trialIndex": 41, "score": 81.2, "costs": -2.8, "simulationMode": [null, null, null, null, null, null], "rewards": [2, -1, 4, -8, 87], "path": ["0", "0", "23", "24", "25", "30", "32"], "rt": [3154, 1078, 215, 67, 59, 43], "actions": ["left", "left", "left", "left", "down", "down"], "actionTimes": [4477, 5557, 6278, 6854, 7422, 7973], "queries": {"click": {"state": {"target": ["32", "33"], "time": [2070, 4012]}, "edge": {"target": [], "time": []}}, "mouseover": {"state": {"target": ["32", "33"], "time": [2009, 3803]}, "edge": {"target": [], "time": []}}, "mouseout": {"state": {"target": ["7", "0", "32"], "time": [792, 1533, 2653]}, "edge": {"target": [], "time": []}}}, "displayed_time": "15.33", "trialTime": 16886, "trial_type": "mouselab-mdp", "trial_index": 52, "time_elapsed": 1618843, "internal_node_id": "0.0-4.0-1.0-37.0"}}, {"uniqueid": "w83093858:a80510191", "current_trial": 53, "dateTime": 1691072614882, "trialdata": {"revealed_states": [], "clicked_states": ["27", "29", "33"], "num_clicks_accrued": [0, 0, 0, 0, 0, 0, 0, 0, 0, 0, 0, 0, 0], "stateRewards": ["", 1, 1, 7, -11, 80, -20, -53, -14, 3, 31, 27, 2, -1, -8, -10, 33, 41, 86, 9, 78, -37, -13, -1, -2, -6, -8, -80, 75, 4, -16, -49, -74, 24], "withholdReward": false, "trial_id": "mdp_trial_39", "block": "test", "trialIndex": 42, "score": -5.199999999999999, "costs": -4.199999999999999, "simulationMode": [null, null, null, null, null], "rewards": [-1, -2, -6, -16, 24], "path": ["0", "0", "23", "24", "25", "30", "33"], "rt": [7290, 18, 49, 33, 87], "actions": ["left", "left", "left", "down", "left"], "actionTimes": [8475, 9003, 9571, 10115, 10707], "queries": {"click": {"state": {"target": ["27", "29", "33"], "time": [2711, 4548, 6611]}, "edge": {"target": [], "time": []}}, "mouseover": {"state": {"target": ["23", "24", "30", "31", "25", "26", "27", "29", "25", "30", "33", "30"], "time": [1472, 1542, 1738, 1863, 2111, 2398, 2539, 4274, 5153, 5448, 6497, 8208]}, "edge": {"target": [], "time": []}}, "mouseout": {"state": {"target": ["33", "30", "31", "0", "23", "24", "30", "31", "25", "26", "27", "29", "29", "25", "30", "33", "33", "30"], "time": [398, 574, 625, 963, 1523, 1629, 1755, 1973, 2344, 2504, 3020, 4557, 4910, 5378, 6216, 6620, 7910, 8296]}, "edge": {"target": [], "time": []}}}, "displayed_time": "15.19", "trialTime": 16539, "trial_type": "mouselab-mdp", "trial_index": 53, "time_elapsed": 1635659, "internal_node_id": "0.0-4.0-1.0-38.0"}}, {"uniqueid": "w83093858:a80510191", "current_trial": 54, "dateTime": 1691072632003, "trialdata": {"revealed_states": [], "clicked_states": ["20"], "num_clicks_accrued": [0, 0, 0, 0, 0, 0, 0, 0, 0, 0, 0, 0, 0], "stateRewards": ["", -2, 2, -5, -6, 10, -66, -58, -10, -11, -63, -70, -1, -4, -5, 7, 66, -64, -43, -3, 45, -37, 4, -2, -2, -6, -4, -30, 33, 43, 15, -32, -65, -59], "withholdReward": false, "trial_id": "mdp_trial_40", "block": "test", "trialIndex": 43, "score": 30.6, "costs": -1.4, "simulationMode": [null, null, null, null, null], "rewards": [-1, -4, -5, -3, 45], "path": ["0", "0", "12", "13", "14", "19", "20"], "rt": [2907, 154, 60, 52, 49], "actions": ["right", "right", "right", "down", "right"], "actionTimes": [4130, 4794, 5362, 5930, 6490], "queries": {"click": {"state": {"target": ["20"], "time": [2082]}, "edge": {"target": [], "time": []}}, "mouseover": {"state": {"target": ["12", "19", "20"], "time": [1589, 1769, 2006]}, "edge": {"target": [], "time": []}}, "mouseout": {"state": {"target": ["31", "23", "0", "12", "19", "20"], "time": [579, 718, 1555, 1606, 1820, 2828]}, "edge": {"target": [], "time": []}}}, "displayed_time": "15.22", "trialTime": 16850, "trial_type": "mouselab-mdp", "trial_index": 54, "time_elapsed": 1652779, "internal_node_id": "0.0-4.0-1.0-39.0"}}, {"uniqueid": "w83093858:a80510191", "current_trial": 55, "dateTime": 1691072712466, "trialdata": {"rt": 80458, "response": {"Q0": "$-2 to $2", "Q1": "$-16 to $16", "Q2": "$-88 to $88", "Q3": "The cost for clicking on nodes varied between nodes.", "Q4": "Very motivated"}, "question_order": [0, 1, 2, 3, 4], "trial_id": "final_quiz_control", "trial_type": "survey-multi-choice", "trial_index": 55, "time_elapsed": 1733242, "internal_node_id": "0.0-4.0-2.0"}}, {"uniqueid": "w83093858:a80510191", "current_trial": 56, "dateTime": 1691072984305, "trialdata": {"rt": 271834, "response": {"Q0": "To use the inspector as quickly as possible to get a good range of where the highest positive numbers were located. This increased my chances of getting more money", "Q1": "Yes, By thinking faster and avoiding making mistakes such as not selecting the right path for the spider to move. Also memorising the highest positive numbers I saw from the inspectors in order to decide which route is best.", "Q2": "It was a bit challenging as I just had to get used to the rules and not forget about using the inspector as fast as possible. If I took more than two seconds to use it when starting the round then I would have to play the round blind without knowing which path to take."}, "trial_id": "self_report_control", "trial_type": "survey-text", "trial_index": 56, "time_elapsed": 2005082, "internal_node_id": "0.0-4.0-3.0"}}, {"uniqueid": "w83093858:a80510191", "current_trial": 57, "dateTime": 1691073010547, "trialdata": {"rt": 26249, "response": {"gender": "female", "age": "23", "colorblind": "0", "effort": "0"}, "trial_type": "survey-html-form", "trial_index": 57, "time_elapsed": 2031324, "internal_node_id": "0.0-4.0-4.0"}}, {"uniqueid": "w83093858:a80510191", "current_trial": 58, "dateTime": 1691073112963, "trialdata": {"rt": 102431, "response": {"Q0": "No everything was stated clearly and simple to understand.", "Q1": "No this is the first time I have participated in a Web of Cash HIT. It was quite fun.", "Q2": "no"}, "trial_type": "survey-text", "trial_index": 58, "time_elapsed": 2133740, "internal_node_id": "0.0-4.0-5.0"}}, {"uniqueid": "w83093858:a80510191", "current_trial": 59, "dateTime": 1691073124268, "trialdata": {"rt": 11299, "stimulus": "Press 'Finish HIT' in order to reach the completion code. Once the data has been saved, you will receive the code either in this window or in the original browser window where you started the experiment.\n", "response": 0, "trial_type": "html-button-response", "trial_index": 59, "time_elapsed": 2145045, "internal_node_id": "0.0-5.0"}}, {"uniqueid": "w83093858:a80510191", "current_trial": 60, "dateTime": 1691073125272, "trialdata": {"success": true, "trial_type": "fullscreen", "trial_index": 60, "time_elapsed": 2146049, "internal_node_id": "0.0-6.0"}}], "questiondata": {"params": {"CODE": "C6DMOQA6", "MIN_TIME": 14, "inspectCost": 1, "startTime": "Thu Aug 03 2023 15:56:16 GMT+0200 (South Africa Standard Time)", "bonusRate": 0.002, "variance": "1_2_4_8_44", "branching": "31123"}, "final_score": 1431.8}, "eventdata": [{"eventtype": "initialized", "value": null, "timestamp": 1691070975888, "interval": 0}, {"eventtype": "window_resize", "value": [1028, 744], "timestamp": 1691070975888, "interval": 0}, {"eventtype": "window_resize", "value": [1028, 744], "timestamp": 1691070976443, "interval": 555}, {"eventtype": "focus", "value": "off", "timestamp": 1691070981153, "interval": 4710}, {"eventtype": "focus", "value": "on", "timestamp": 1691071008475, "interval": 27322}, {"eventtype": "window_resize", "value": [1536, 864], "timestamp": 1691071008805, "interval": 330}, {"eventtype": "window_resize", "value": [1028, 744], "timestamp": 1691071038038, "interval": 29233}, {"eventtype": "focus", "value": "off", "timestamp": 1691071039768, "interval": 1730}, {"eventtype": "focus", "value": "on", "timestamp": 1691071057159, "interval": 17391}, {"eventtype": "window_resize", "value": [1536, 758], "timestamp": 1691071057396, "interval": 237}, {"eventtype": "focus", "value": "off", "timestamp": 1691071059102, "interval": 1706}, {"eventtype": "window_resize", "value": [1536, 806], "timestamp": 1691071066372, "interval": 7270}, {"eventtype": "window_resize", "value": [1536, 758], "timestamp": 1691071066608, "interval": 236}, {"eventtype": "focus", "value": "on", "timestamp": 1691071068487, "interval": 1879}, {"eventtype": "window_resize", "value": [1028, 744], "timestamp": 1691071068805, "interval": 318}, {"eventtype": "window_resize", "value": [1026, 742], "timestamp": 1691071069055, "interval": 250}, {"eventtype": "window_resize", "value": [1920, 974], "timestamp": 1691071069648, "interval": 593}, {"eventtype": "window_resize", "value": [1920, 1080], "timestamp": 1691071070904, "interval": 1256}, {"eventtype": "focus", "value": "off", "timestamp": 1691071535665, "interval": 464761}, {"eventtype": "focus", "value": "on", "timestamp": 1691071535665, "interval": 0}, {"eventtype": "window_resize", "value": [1920, 974], "timestamp": 1691071535873, "interval": 208}, {"eventtype": "window_resize", "value": [1920, 1080], "timestamp": 1691071537994, "interval": 2121}, {"eventtype": "window_resize", "value": [1920, 974], "timestamp": 1691073124503, "interval": 1586509}], "useragent": "Mozilla/5.0 (Windows NT 10.0; Win64; x64) AppleWebKit/537.36 (KHTML, like Gecko) Chrome/115.0.0.0 Safari/537.36", "mode": "live", "id": "w83093858:a80510191", "status": "user data saved", "Beginhit": "2023-08-03 13:56:06.511074", "Beginexp": "2023-08-03 13:56:49.046089", "Endhit": "2023-08-03 14:32:06.210563", "psiturkStatus": 3, "browser": "<redacted>", "platform": "windows", "language": "en-GB"}