{"condition": 1, "counterbalance": 0, "assignmentId": "a31135587", "workerId": "w73275994", "hitId": "h39153233", "currenttrial": 7, "bonus": 0, "data": [{"uniqueid": "w73275994:a31135587", "current_trial": 0, "dateTime": 1693480553616, "trialdata": {"success": true, "trial_type": "fullscreen", "trial_index": 0, "time_elapsed": 45682, "internal_node_id": "0.0-0.0"}}, {"uniqueid": "w73275994:a31135587", "current_trial": 1, "dateTime": 1693480586024, "trialdata": {"view_history": [{"page_index": 0, "viewing_time": 32371}], "rt": 32375, "trial_id": "exp_instructions_misaligned", "trial_type": "instructions", "trial_index": 1, "time_elapsed": 78093, "internal_node_id": "0.0-1.0"}}, {"uniqueid": "w73275994:a31135587", "current_trial": 2, "dateTime": 1693480977295, "trialdata": {"view_history": [{"page_index": 0, "viewing_time": 181966}, {"page_index": 1, "viewing_time": 105847}, {"page_index": 2, "viewing_time": 43530}, {"page_index": 3, "viewing_time": 59915}], "rt": 391260, "trial_id": "mouselab_instructions_1_misaligned", "trial_type": "instructions", "trial_index": 2, "time_elapsed": 469363, "internal_node_id": "0.0-2.0-1.0"}}, {"uniqueid": "w73275994:a31135587", "current_trial": 3, "dateTime": 1693481024577, "trialdata": {"revealed_states": [], "clicked_states": ["25"], "num_clicks_accrued": [0, 0, 0, 0, 0, 0, 0, 0, 0, 0, 0, 0, 0], "stateRewards": ["", 10, 10, -10, 10, 10, 10, -10, 10, -10, -10, 10, -10, -10, -10, 10, 10, -10, -10, 10, -10, -10, -10, -10, -10, 10, 10, 10, -10, 10, -10, -10, 10, -10], "withholdReward": false, "trial_id": "practice_1", "block": "test", "trialIndex": 0, "score": 13, "costs": -0.5, "simulationMode": [null, null, null, null, null], "rewards": [-10, -10, 10, 10, 10], "path": ["0", "0", "23", "24", "25", "26", "27"], "rt": [8719, 317, 357, 182, 246], "actions": ["left", "left", "left", "up", "up"], "actionTimes": [14490, 15400, 16313, 17048, 17864], "queries": {"click": {"state": {"target": ["25"], "time": [11051]}, "edge": {"target": [], "time": []}}, "mouseover": {"state": {"target": ["23", "24", "25", "1", "18", "14", "14"], "time": [9215, 9458, 9945, 12404, 12584, 12915, 13064]}, "edge": {"target": [], "time": []}}, "mouseout": {"state": {"target": ["0", "23", "24", "25", "1", "18", "14", "14", "25", "24", "23", "0", "12", "13", "14"], "time": [9151, 9360, 9893, 12263, 12458, 12637, 12957, 13548, 25028, 25114, 25164, 29017, 29100, 29360, 34721]}, "edge": {"target": [], "time": []}}}, "displayed_time": "18.42", "trialTime": 44895, "trial_type": "mouselab-mdp", "trial_index": 3, "time_elapsed": 516644, "internal_node_id": "0.0-2.0-2.0-0.0"}}, {"uniqueid": "w73275994:a31135587", "current_trial": 4, "dateTime": 1693481045893, "trialdata": {"revealed_states": [], "clicked_states": ["14"], "num_clicks_accrued": [0, 0, 0, 0, 0, 0, 0, 0, 0, 0, 0, 0, 0], "stateRewards": ["", -10, 10, 10, 10, 10, -10, -10, 10, -10, 10, 10, 10, 10, 10, -10, 10, -10, -10, 10, 10, -10, 10, -10, 10, -10, -10, 10, -10, 10, 10, -10, -10, 10], "withholdReward": false, "trial_id": "practice_2", "block": "test", "trialIndex": 1, "score": 13, "costs": -0.5, "simulationMode": [null, null, null, null, null], "rewards": [10, 10, 10, -10, -10], "path": ["0", "0", "12", "13", "14", "15", "17"], "rt": [4071, 246, 194, 464, 273], "actions": ["right", "right", "right", "up", "right"], "actionTimes": [7961, 8764, 9533, 10566, 11410], "queries": {"click": {"state": {"target": ["14"], "time": [6098]}, "edge": {"target": [], "time": []}}, "mouseover": {"state": {"target": ["12", "13", "14", "14"], "time": [4736, 4841, 4981, 5304]}, "edge": {"target": [], "time": []}}, "mouseout": {"state": {"target": ["12", "13", "14", "14", "13"], "time": [4787, 4940, 5053, 15494, 15679]}, "edge": {"target": [], "time": []}}}, "displayed_time": "11.96", "trialTime": 19116, "trial_type": "mouselab-mdp", "trial_index": 4, "time_elapsed": 537960, "internal_node_id": "0.0-2.0-2.0-1.0"}}, {"uniqueid": "w73275994:a31135587", "current_trial": 5, "dateTime": 1693481105351, "trialdata": {"view_history": [{"page_index": 0, "viewing_time": 45795}, {"page_index": 1, "viewing_time": 13648}], "rt": 59445, "trial_id": "mouselab_instructions_2_misaligned", "trial_type": "instructions", "trial_index": 5, "time_elapsed": 597420, "internal_node_id": "0.0-2.0-3.0"}}, {"uniqueid": "w73275994:a31135587", "current_trial": 6, "dateTime": 1693481177597, "trialdata": {"rt": 72223, "response": {"Q0": "The cost for clicking on nodes may vary between nodes.", "Q1": "The better I perform the higher my bonus will be.", "Q2": "No, the structure of the web will be different each time.", "Q3": "To get the highest total score.", "Q4": "Only before moving the spider.", "Q5": "3 seconds"}, "question_order": [0, 1, 2, 3, 4, 5], "correct": {"Q0": "The cost for clicking on nodes may vary between nodes.", "Q1": "The better I perform the higher my bonus will be.", "Q2": "No, the amount of cash at each node of the web may be different each time.", "Q3": "To get the highest total score.", "Q4": "Only before moving the spider.", "Q5": "3 seconds"}, "trial_id": "mouselab_quiz_misaligned", "trial_type": "survey-multi-choice", "trial_index": 6, "time_elapsed": 669665, "internal_node_id": "0.0-2.0-4.0"}}], "questiondata": {"params": {"CODE": "C6DMOQA6", "MIN_TIME": 14, "inspectCost": 1, "startTime": "Thu Aug 31 2023 12:15:06 GMT+0100 (British Summer Time)", "bonusRate": 0.002, "variance": "1_2_4_8_44", "branching": "31123"}}, "eventdata": [{"eventtype": "initialized", "value": null, "timestamp": 1693480506129, "interval": 0}, {"eventtype": "window_resize", "value": [1366, 680], "timestamp": 1693480506129, "interval": 0}, {"eventtype": "window_resize", "value": [1366, 680], "timestamp": 1693480506639, "interval": 510}, {"eventtype": "window_resize", "value": [1366, 768], "timestamp": 1693480553072, "interval": 46433}, {"eventtype": "focus", "value": "off", "timestamp": 1693481190401, "interval": 637329}, {"eventtype": "focus", "value": "on", "timestamp": 1693481190403, "interval": 2}, {"eventtype": "window_resize", "value": [1366, 680], "timestamp": 1693481190632, "interval": 229}], "useragent": "Mozilla/5.0 (Windows NT 10.0; Win64; x64) AppleWebKit/537.36 (KHTML, like Gecko) Chrome/115.0.21984.171 Safari/537.36 Avast/115.0.21984.171", "mode": "live", "id": "w73275994:a31135587", "status": "user data saved", "Beginhit": "2023-08-31 11:16:01.420765", "Beginexp": "2023-08-31 11:16:52.428789", "Endhit": null, "psiturkStatus": 6, "browser": "<redacted>", "platform": "windows", "language": "en-US", "excludeReason": "quizfail"}