{"condition": 1, "counterbalance": 0, "assignmentId": "a99965550", "workerId": "w53710051", "hitId": "h28682447", "currenttrial": 56, "bonus": 0, "data": [{"uniqueid": "w53710051:a99965550", "current_trial": 0, "dateTime": 1691070958732, "trialdata": {"success": true, "trial_type": "fullscreen", "trial_index": 0, "time_elapsed": 5837, "internal_node_id": "0.0-0.0"}}, {"uniqueid": "w53710051:a99965550", "current_trial": 1, "dateTime": 1691070974827, "trialdata": {"view_history": [{"page_index": 0, "viewing_time": 16065}], "rt": 16068, "trial_id": "exp_instructions_misaligned", "trial_type": "instructions", "trial_index": 1, "time_elapsed": 21935, "internal_node_id": "0.0-1.0"}}, {"uniqueid": "w53710051:a99965550", "current_trial": 2, "dateTime": 1691070978720, "trialdata": {"success": true, "trial_type": "fullscreen", "trial_index": 2, "time_elapsed": 25827, "internal_node_id": "0.0-2.0-0.0"}}, {"uniqueid": "w53710051:a99965550", "current_trial": 3, "dateTime": 1691071220188, "trialdata": {"view_history": [{"page_index": 0, "viewing_time": 72486}, {"page_index": 1, "viewing_time": 95892}, {"page_index": 2, "viewing_time": 38027}, {"page_index": 3, "viewing_time": 35042}], "rt": 241455, "trial_id": "mouselab_instructions_1_misaligned", "trial_type": "instructions", "trial_index": 3, "time_elapsed": 267296, "internal_node_id": "0.0-2.0-1.0"}}, {"uniqueid": "w53710051:a99965550", "current_trial": 4, "dateTime": 1691071269965, "trialdata": {"revealed_states": [], "clicked_states": ["25", "3", "14", "26", "30", "29", "33", "32"], "num_clicks_accrued": [0, 0, 0, 0, 0, 0, 0, 0, 0, 0, 0, 0, 0], "stateRewards": ["", -10, -10, -10, -10, 10, 10, 10, 10, 10, -10, -10, 10, 10, -10, -10, -10, 10, 10, 10, -10, -10, 10, -10, -10, 10, -10, 10, 10, -10, 10, 10, 10, -10], "withholdReward": false, "trial_id": "practice_1", "block": "test", "trialIndex": 0, "score": 9.5, "costs": -4, "simulationMode": [null, null, null, null, null], "rewards": [-10, -10, 10, 10, 10], "path": ["0", "0", "23", "24", "25", "30", "32"], "rt": [24062, 424, 318, 512, 311], "actions": ["left", "left", "left", "down", "down"], "actionTimes": [27334, 28339, 29178, 30202, 31059], "queries": {"click": {"state": {"target": ["25", "3", "14", "26", "30", "29", "33", "32"], "time": [5861, 7861, 10126, 14164, 15596, 18881, 20405, 23173]}, "edge": {"target": [], "time": []}}, "mouseover": {"state": {"target": ["23", "24", "25", "25", "28", "1", "2", "3", "7", "18", "14", "13", "13", "12", "0", "23", "28", "26", "25", "30", "29", "33", "32", "31", "23"], "time": [4998, 5035, 5095, 5567, 6639, 6949, 7295, 7569, 8952, 9080, 9465, 11599, 12721, 12764, 12868, 13355, 13549, 13749, 15069, 15350, 17198, 19868, 22917, 24129, 26540]}, "edge": {"target": [], "time": []}}, "mouseout": {"state": {"target": ["14", "13", "12", "0", "23", "24", "25", "25", "28", "1", "2", "3", "7", "18", "14", "13", "14", "13", "12", "0", "23", "28", "26", "25", "30", "29", "33", "32", "31", "23", "0", "12", "22", "32"], "time": [714, 861, 980, 1492, 5027, 5065, 5212, 6557, 6675, 7097, 7380, 8915, 9009, 9130, 11485, 11782, 12677, 12751, 12814, 12949, 13435, 13585, 14984, 15150, 15677, 19654, 22533, 23241, 26185, 26606, 36610, 36797, 36993, 41594]}, "edge": {"target": [], "time": []}}}, "displayed_time": "31.74", "trialTime": 46710, "trial_type": "mouselab-mdp", "trial_index": 4, "time_elapsed": 317072, "internal_node_id": "0.0-2.0-2.0-0.0"}}, {"uniqueid": "w53710051:a99965550", "current_trial": 5, "dateTime": 1691071300789, "trialdata": {"revealed_states": [], "clicked_states": ["3", "25", "14", "19", "15"], "num_clicks_accrued": [0, 0, 0, 0, 0, 0, 0, 0, 0, 0, 0, 0, 0], "stateRewards": ["", -10, -10, -10, 10, -10, -10, -10, -10, -10, -10, 10, -10, 10, 10, -10, 10, 10, -10, 10, -10, 10, 10, 10, 10, -10, 10, 10, 10, -10, 10, 10, 10, 10], "withholdReward": false, "trial_id": "practice_2", "block": "test", "trialIndex": 1, "score": 31, "costs": -2.5, "simulationMode": [null, null, null, null, null], "rewards": [-10, 10, 10, 10, 10], "path": ["0", "0", "12", "13", "14", "19", "21"], "rt": [18687, 170, 158, 313, 980], "actions": ["right", "right", "right", "down", "down"], "actionTimes": [21364, 22069, 22819, 23649, 25142], "queries": {"click": {"state": {"target": ["3", "25", "14", "19", "15"], "time": [5139, 7291, 9293, 13359, 16528]}, "edge": {"target": [], "time": []}}, "mouseover": {"state": {"target": ["1", "2", "3", "28", "25", "24", "12", "13", "14", "14", "19", "15", "14", "19"], "time": [4422, 4475, 4705, 6515, 6918, 8220, 8261, 8311, 8371, 8826, 11555, 14202, 19812, 20362]}, "edge": {"target": [], "time": []}}, "mouseout": {"state": {"target": ["0", "1", "2", "3", "28", "25", "24", "12", "13", "14", "14", "19", "15", "14"], "time": [4375, 4450, 4571, 6471, 6542, 8204, 8254, 8302, 8362, 8439, 11423, 13999, 19524, 19963]}, "edge": {"target": [], "time": []}}}, "displayed_time": "25.67", "trialTime": 29754, "trial_type": "mouselab-mdp", "trial_index": 5, "time_elapsed": 347896, "internal_node_id": "0.0-2.0-2.0-1.0"}}, {"uniqueid": "w53710051:a99965550", "current_trial": 6, "dateTime": 1691071340130, "trialdata": {"view_history": [{"page_index": 0, "viewing_time": 30388}, {"page_index": 1, "viewing_time": 8948}], "rt": 39337, "trial_id": "mouselab_instructions_2_misaligned", "trial_type": "instructions", "trial_index": 6, "time_elapsed": 387238, "internal_node_id": "0.0-2.0-3.0"}}, {"uniqueid": "w53710051:a99965550", "current_trial": 7, "dateTime": 1691071367701, "trialdata": {"rt": 27543, "response": {"Q0": "The cost for clicking on nodes may vary between nodes.", "Q1": "The better I perform the higher my bonus will be.", "Q2": "No, the amount of cash at each node of the web may be different each time.", "Q3": "To get the highest total score.", "Q4": "Only before moving the spider.", "Q5": "3 seconds"}, "question_order": [0, 1, 2, 3, 4, 5], "correct": {"Q0": "The cost for clicking on nodes may vary between nodes.", "Q1": "The better I perform the higher my bonus will be.", "Q2": "No, the amount of cash at each node of the web may be different each time.", "Q3": "To get the highest total score.", "Q4": "Only before moving the spider.", "Q5": "3 seconds"}, "trial_id": "mouselab_quiz_misaligned", "trial_type": "survey-multi-choice", "trial_index": 7, "time_elapsed": 414809, "internal_node_id": "0.0-2.0-4.0"}}, {"uniqueid": "w53710051:a99965550", "current_trial": 8, "dateTime": 1691071383009, "trialdata": {"rt": 15274, "stimulus": "\n<h1> Get ready to start the game! </h1>\n\nThank you for reading the instructions. Get ready start with the 40 rounds of this game.\n<br><br>\nIf you need to take a break, feel free to take one after the end of a round, before continuing to the next one.\n<br><br>\nRemember, the more money the spider gets, the bigger your bonus will be!\n<br><br>\n<div style='text-align: center;'>Press <code>space</code> to begin.</div>\n\n<br><br>\n(If, at any point, the <code>space</code> key does not take you to the next page, click once on the text and try again.)", "response": " ", "trial_id": "mdp_ready", "trial_type": "html-keyboard-response", "trial_index": 8, "time_elapsed": 430117, "internal_node_id": "0.0-4.0-0.0"}}, {"uniqueid": "w53710051:a99965550", "current_trial": 9, "dateTime": 1691071410838, "trialdata": {"revealed_states": [], "clicked_states": ["3", "25", "14"], "num_clicks_accrued": [0, 0, 0, 0, 0, 0, 0, 0, 0, 0, 0, 0, 0], "stateRewards": ["", -2, -4, -2, 10, -8, -15, -47, 7, -84, 53, 5, -1, 2, -7, 3, 83, 31, 47, -1, 30, -8, 69, 2, -4, -1, 8, -7, 12, -8, -8, -13, 30, -84], "withholdReward": false, "trial_id": "mdp_trial_1", "block": "test", "trialIndex": 2, "score": -15.85, "costs": -2.8499999999999996, "simulationMode": [null, null, null, null, null], "rewards": [-2, -4, -2, 10, -15], "path": ["0", "0", "1", "2", "3", "4", "6"], "rt": [16980, 345, 340, 1066, 352], "actions": ["up", "up", "up", "right", "right"], "actionTimes": [19421, 20319, 21200, 22784, 23672], "queries": {"click": {"state": {"target": ["3", "25", "14"], "time": [4676, 6809, 8854]}, "edge": {"target": [], "time": []}}, "mouseover": {"state": {"target": ["1", "3", "3", "23", "24", "25", "13", "14", "13", "12", "2", "8", "11", "9", "11", "0"], "time": [3854, 3946, 4251, 6064, 6263, 6479, 8031, 8330, 10932, 12328, 12395, 12451, 12502, 12822, 13349, 18013]}, "edge": {"target": [], "time": []}}, "mouseout": {"state": {"target": ["0", "1", "3", "3", "23", "24", "25", "13", "14", "13", "12", "2", "8", "11", "9", "11", "0"], "time": [1520, 3883, 4093, 5929, 6098, 6361, 7651, 8147, 10863, 11164, 12368, 12421, 12478, 12582, 13201, 17673, 18041]}, "edge": {"target": [], "time": []}}}, "displayed_time": "24.34", "trialTime": 26717, "trial_type": "mouselab-mdp", "trial_index": 9, "time_elapsed": 457944, "internal_node_id": "0.0-4.0-1.0-0.0"}}, {"uniqueid": "w53710051:a99965550", "current_trial": 10, "dateTime": 1691071432413, "trialdata": {"revealed_states": [], "clicked_states": ["3", "25", "14"], "num_clicks_accrued": [0, 0, 0, 0, 0, 0, 0, 0, 0, 0, 0, 0, 0], "stateRewards": ["", -1, 4, -5, 9, 29, -75, -42, -16, 24, -28, -41, 2, -3, 1, 10, 60, 47, 55, -1, -53, 22, -40, 2, -3, -6, 4, -26, 44, 54, 15, -76, 42, 14], "withholdReward": false, "trial_id": "mdp_trial_2", "block": "test", "trialIndex": 3, "score": 18.15, "costs": -2.8499999999999996, "simulationMode": [null, null, null, null, null], "rewards": [2, -3, 1, -1, 22], "path": ["0", "0", "12", "13", "14", "19", "21"], "rt": [8282, 833, 385, 565, 1747], "actions": ["right", "right", "right", "down", "down"], "actionTimes": [11723, 13075, 13997, 15094, 17344], "queries": {"click": {"state": {"target": ["3", "25", "14"], "time": [4621, 5624, 6589]}, "edge": {"target": [], "time": []}}, "mouseover": {"state": {"target": ["1", "2", "3", "28", "25", "13", "14", "13", "19", "21", "22"], "time": [4032, 4112, 4218, 5095, 5387, 5946, 6194, 7797, 9253, 9615, 11022]}, "edge": {"target": [], "time": []}}, "mouseout": {"state": {"target": ["0", "0", "0", "1", "2", "3", "28", "25", "13", "14", "14", "13", "19", "21", "22"], "time": [96, 267, 1464, 4082, 4150, 4936, 5268, 5707, 6120, 6666, 7692, 8189, 9292, 10969, 19339]}, "edge": {"target": [], "time": []}}}, "displayed_time": "17.88", "trialTime": 20130, "trial_type": "mouselab-mdp", "trial_index": 10, "time_elapsed": 479519, "internal_node_id": "0.0-4.0-1.0-1.0"}}, {"uniqueid": "w53710051:a99965550", "current_trial": 11, "dateTime": 1691071455910, "trialdata": {"revealed_states": [], "clicked_states": ["3", "14", "25", "11", "6"], "num_clicks_accrued": [0, 0, 0, 0, 0, 0, 0, 0, 0, 0, 0, 0, 0], "stateRewards": ["", 1, -1, 8, -3, 38, 85, -20, -4, 8, 23, 73, 2, -4, 6, -13, 44, 7, -28, -11, -77, 45, -69, 1, -1, -7, -11, 75, -51, -87, 7, 36, -53, -26], "withholdReward": false, "trial_id": "mdp_trial_3", "block": "test", "trialIndex": 4, "score": 82.85, "costs": -7.15, "simulationMode": [null, null, null, null, null], "rewards": [1, -1, 8, -3, 85], "path": ["0", "0", "1", "2", "3", "4", "6"], "rt": [12684, 667, 322, 862, 225], "actions": ["up", "up", "up", "right", "right"], "actionTimes": [15289, 16474, 17335, 18715, 19459], "queries": {"click": {"state": {"target": ["3", "14", "25", "11", "6"], "time": [3778, 4871, 6197, 7515, 11575]}, "edge": {"target": [], "time": []}}, "mouseover": {"state": {"target": ["2", "3", "18", "14", "12", "24", "25", "11", "4", "6", "4", "3", "2"], "time": [3342, 3492, 4376, 4477, 5500, 5664, 5768, 7303, 8602, 8806, 12594, 12663, 13541]}, "edge": {"target": [], "time": []}}, "mouseout": {"state": {"target": ["0", "2", "3", "18", "14", "12", "24", "25", "11", "4", "6", "4", "3", "2"], "time": [3294, 3459, 4362, 4458, 5484, 5612, 5698, 6924, 8420, 8689, 12572, 12648, 12757, 21529]}, "edge": {"target": [], "time": []}}}, "displayed_time": "19.97", "trialTime": 22176, "trial_type": "mouselab-mdp", "trial_index": 11, "time_elapsed": 503017, "internal_node_id": "0.0-4.0-1.0-2.0"}}, {"uniqueid": "w53710051:a99965550", "current_trial": 12, "dateTime": 1691071493623, "trialdata": {"revealed_states": [], "clicked_states": ["3", "25", "14", "27", "32", "33", "9", "10"], "num_clicks_accrued": [0, 0, 0, 0, 0, 0, 0, 0, 0, 0, 0, 0, 0], "stateRewards": ["", 2, -4, 4, 9, 69, 9, -75, 12, -86, 66, 25, -1, 3, 2, -13, -88, -3, 1, 4, -69, 49, -84, 2, -1, 4, 2, -18, -81, -52, -15, -69, -54, 25], "withholdReward": false, "trial_id": "mdp_trial_4", "block": "test", "trialIndex": 5, "score": 66.4, "costs": -13.600000000000001, "simulationMode": [null, null, null, null, null], "rewards": [2, -4, 4, 12, 66], "path": ["0", "0", "1", "2", "3", "8", "10"], "rt": [26819, 46, 347, 163, 306], "actions": ["up", "up", "up", "left", "down"], "actionTimes": [29804, 30377, 31290, 31977, 32828], "queries": {"click": {"state": {"target": ["3", "25", "14", "27", "32", "33", "9", "10"], "time": [4288, 5380, 6680, 8151, 11549, 15228, 19875, 25296]}, "edge": {"target": [], "time": []}}, "mouseover": {"state": {"target": ["1", "2", "3", "10", "25", "12", "13", "14", "27", "27", "26", "25", "30", "32", "33", "30", "31", "24", "9", "11", "10", "11"], "time": [3719, 3779, 3921, 4957, 5029, 5855, 5906, 6214, 7546, 7885, 9008, 9103, 9205, 9669, 13798, 16267, 16585, 19389, 19524, 20724, 22657, 26153]}, "edge": {"target": [], "time": []}}, "mouseout": {"state": {"target": ["0", "1", "2", "3", "10", "25", "12", "13", "14", "27", "27", "26", "25", "30", "32", "33", "30", "31", "24", "9", "9", "11", "10"], "time": [3684, 3755, 3805, 4939, 4996, 5463, 5888, 5994, 7473, 7581, 8970, 9042, 9197, 9374, 13504, 16209, 16304, 19372, 19416, 19936, 20554, 22579, 26042]}, "edge": {"target": [], "time": []}}}, "displayed_time": "33.36", "trialTime": 36189, "trial_type": "mouselab-mdp", "trial_index": 12, "time_elapsed": 540730, "internal_node_id": "0.0-4.0-1.0-3.0"}}, {"uniqueid": "w53710051:a99965550", "current_trial": 13, "dateTime": 1691071520717, "trialdata": {"revealed_states": [], "clicked_states": ["3", "25", "14", "27"], "num_clicks_accrued": [0, 0, 0, 0, 0, 0, 0, 0, 0, 0, 0, 0, 0], "stateRewards": ["", 1, 2, 7, 13, 88, -71, 27, 3, 60, 5, -53, -2, 2, -6, -1, -30, 79, 47, -4, -14, 46, 68, 1, 1, 8, 10, -14, 86, 48, -11, -67, -44, 5], "withholdReward": false, "trial_id": "mdp_trial_5", "block": "test", "trialIndex": 6, "score": -50, "costs": -5, "simulationMode": [null, null, null, null, null], "rewards": [1, 1, 8, -11, -44], "path": ["0", "0", "23", "24", "25", "30", "32"], "rt": [14695, 459, 373, 402, 308], "actions": ["left", "left", "left", "down", "down"], "actionTimes": [18203, 19181, 20071, 20992, 21835], "queries": {"click": {"state": {"target": ["3", "25", "14", "27"], "time": [4986, 6265, 7658, 9331]}, "edge": {"target": [], "time": []}}, "mouseover": {"state": {"target": ["1", "2", "3", "28", "25", "24", "12", "13", "14", "13", "28", "27", "29", "26", "28", "29", "29", "26", "28"], "time": [4410, 4493, 4722, 5810, 6074, 7062, 7118, 7205, 7431, 8714, 8870, 9031, 10300, 13290, 13563, 14783, 15179, 15766, 15964]}, "edge": {"target": [], "time": []}}, "mouseout": {"state": {"target": ["11", "10", "1", "1", "2", "3", "28", "25", "24", "12", "13", "14", "13", "28", "27", "27", "29", "26", "28", "29", "29", "26", "28", "0"], "time": [1946, 2007, 2057, 4462, 4604, 5690, 5949, 7054, 7110, 7170, 7308, 8696, 8796, 8939, 9381, 10147, 13242, 13411, 14735, 14828, 15724, 15846, 23864, 23990]}, "edge": {"target": [], "time": []}}}, "displayed_time": "22.36", "trialTime": 25640, "trial_type": "mouselab-mdp", "trial_index": 13, "time_elapsed": 567822, "internal_node_id": "0.0-4.0-1.0-4.0"}}, {"uniqueid": "w53710051:a99965550", "current_trial": 14, "dateTime": 1691071547512, "trialdata": {"revealed_states": [], "clicked_states": ["3", "25", "14", "27", "29", "28"], "num_clicks_accrued": [0, 0, 0, 0, 0, 0, 0, 0, 0, 0, 0, 0, 0], "stateRewards": ["", 1, -1, -7, -7, -22, 15, -13, 13, 26, -32, 38, -1, 1, -7, -4, 16, -62, 86, 12, -54, 56, 64, -2, -1, 6, 14, -57, 37, 62, -6, -25, 50, -70], "withholdReward": false, "trial_id": "mdp_trial_6", "block": "test", "trialIndex": 7, "score": 69.7, "costs": -9.3, "simulationMode": [null, null, null, null, null, null], "rewards": [-2, -1, 6, 14, 62], "path": ["0", "0", "23", "24", "25", "26", "29"], "rt": [14858, 1306, 381, 234, 415, 154], "actions": ["left", "left", "left", "left", "up", "left"], "actionTimes": [16889, 18204, 19096, 19835, 20769, 21442], "queries": {"click": {"state": {"target": ["3", "25", "14", "27", "29", "28"], "time": [3188, 4608, 5975, 8048, 11308, 14751]}, "edge": {"target": [], "time": []}}, "mouseover": {"state": {"target": ["1", "2", "3", "24", "25", "12", "13", "14", "24", "27", "29", "26", "28"], "time": [2550, 2615, 2849, 3837, 4152, 5369, 5445, 5670, 7171, 7458, 8859, 12107, 12414]}, "edge": {"target": [], "time": []}}, "mouseout": {"state": {"target": ["0", "1", "2", "3", "24", "25", "12", "13", "14", "24", "27", "29", "26"], "time": [2377, 2585, 2656, 3585, 3947, 5289, 5406, 5571, 6988, 7358, 8843, 12048, 12250]}, "edge": {"target": [], "time": []}}}, "displayed_time": "21.96", "trialTime": 24497, "trial_type": "mouselab-mdp", "trial_index": 14, "time_elapsed": 594618, "internal_node_id": "0.0-4.0-1.0-5.0"}}, {"uniqueid": "w53710051:a99965550", "current_trial": 15, "dateTime": 1691071586519, "trialdata": {"revealed_states": [], "clicked_states": ["3", "25", "14", "16", "17", "18", "22", "21", "20"], "num_clicks_accrued": [0, 0, 0, 0, 0, 0, 0, 0, 0, 0, 0, 0, 0], "stateRewards": ["", -2, 4, 3, 5, -61, 4, 30, 1, -47, 83, 10, 1, 4, 7, -14, 19, -74, -83, 6, -2, -2, -65, -1, -2, 4, -11, 12, -1, -68, 11, -38, -28, 66], "withholdReward": false, "trial_id": "mdp_trial_7", "block": "test", "trialIndex": 8, "score": 1.25, "costs": -15.750000000000002, "simulationMode": [null, null, null, null, null], "rewards": [1, 4, 7, -14, 19], "path": ["0", "0", "12", "13", "14", "15", "16"], "rt": [27052, 450, 388, 440, 210], "actions": ["right", "right", "right", "up", "up"], "actionTimes": [29481, 30472, 31381, 32337, 33090], "queries": {"click": {"state": {"target": ["3", "25", "14", "16", "17", "18", "22", "21", "20"], "time": [3795, 5098, 6215, 8060, 11533, 15287, 18976, 22263, 25839]}, "edge": {"target": [], "time": []}}, "mouseover": {"state": {"target": ["1", "2", "3", "28", "25", "14", "15", "16", "16", "17", "15", "18", "13", "22", "21", "20"], "time": [3242, 3313, 3549, 4466, 4794, 5966, 7396, 7471, 7802, 9101, 12159, 12363, 16090, 16268, 20126, 23073]}, "edge": {"target": [], "time": []}}, "mouseout": {"state": {"target": ["0", "1", "2", "3", "28", "25", "14", "15", "16", "16", "17", "15", "18", "13", "22", "21", "20"], "time": [3209, 3281, 3396, 4443, 4662, 5575, 7287, 7449, 7512, 8975, 12148, 12250, 16067, 16190, 19820, 22420, 35205]}, "edge": {"target": [], "time": []}}}, "displayed_time": "33.62", "trialTime": 36921, "trial_type": "mouselab-mdp", "trial_index": 15, "time_elapsed": 633626, "internal_node_id": "0.0-4.0-1.0-6.0"}}, {"uniqueid": "w53710051:a99965550", "current_trial": 16, "dateTime": 1691071607346, "trialdata": {"revealed_states": [], "clicked_states": ["3", "25", "14", "27"], "num_clicks_accrued": [0, 0, 0, 0, 0, 0, 0, 0, 0, 0, 0, 0, 0], "stateRewards": ["", -1, -3, 1, 13, -64, -29, 12, -4, -33, 50, 56, 2, -3, 4, 11, -64, -58, -55, 12, 47, 38, -25, -2, 2, 5, -15, 85, 7, 84, 10, 8, 57, 26], "withholdReward": false, "trial_id": "mdp_trial_8", "block": "test", "trialIndex": 9, "score": 70, "costs": -5, "simulationMode": [null, null, null, null, null], "rewards": [-2, 2, 5, -15, 85], "path": ["0", "0", "23", "24", "25", "26", "27"], "rt": [10401, 144, 248, 316, 313], "actions": ["left", "left", "left", "up", "up"], "actionTimes": [12405, 13060, 13814, 14703, 15551], "queries": {"click": {"state": {"target": ["3", "25", "14", "27"], "time": [3385, 4725, 6364, 8226]}, "edge": {"target": [], "time": []}}, "mouseover": {"state": {"target": ["2", "3", "24", "25", "12", "14", "13", "26", "27", "26", "29", "29"], "time": [2776, 2882, 4208, 4499, 5801, 6184, 7438, 7806, 7925, 9973, 10794, 11550]}, "edge": {"target": [], "time": []}}, "mouseout": {"state": {"target": ["0", "2", "3", "24", "25", "12", "14", "13", "26", "27", "26", "29", "27", "29", "25"], "time": [2733, 2807, 4029, 4264, 5754, 6106, 7417, 7570, 7865, 9519, 10735, 11242, 11502, 17444, 17697]}, "edge": {"target": [], "time": []}}}, "displayed_time": "16.09", "trialTime": 19085, "trial_type": "mouselab-mdp", "trial_index": 16, "time_elapsed": 654452, "internal_node_id": "0.0-4.0-1.0-7.0"}}, {"uniqueid": "w53710051:a99965550", "current_trial": 17, "dateTime": 1691071633215, "trialdata": {"revealed_states": [], "clicked_states": ["3", "25", "14", "16", "17", "18"], "num_clicks_accrued": [0, 0, 0, 0, 0, 0, 0, 0, 0, 0, 0, 0, 0], "stateRewards": ["", 2, 4, 4, -8, -36, -33, 38, 16, -51, 57, 57, 1, 3, 4, -6, 45, 68, 87, 1, 63, 24, -55, -2, 2, -6, -13, -63, -50, 8, 2, 80, 6, 60], "withholdReward": false, "trial_id": "mdp_trial_9", "block": "test", "trialIndex": 10, "score": 79.7, "costs": -9.3, "simulationMode": [null, null, null, null, null], "rewards": [1, 3, 4, -6, 87], "path": ["0", "0", "12", "13", "14", "15", "18"], "rt": [15759, 137, 104, 302, 267], "actions": ["right", "right", "right", "up", "left"], "actionTimes": [18092, 18751, 19454, 20347, 21126], "queries": {"click": {"state": {"target": ["3", "25", "14", "16", "17", "18"], "time": [3443, 4504, 5718, 7296, 10878, 14331]}, "edge": {"target": [], "time": []}}, "mouseover": {"state": {"target": ["1", "2", "3", "10", "28", "25", "13", "14", "15", "16", "17", "15", "18", "15"], "time": [3100, 3150, 3198, 3967, 4043, 4263, 5059, 5121, 6941, 7025, 7954, 11562, 11689, 15706]}, "edge": {"target": [], "time": []}}, "mouseout": {"state": {"target": ["0", "1", "2", "3", "10", "28", "25", "13", "14", "15", "16", "16", "17", "15", "18"], "time": [1090, 3141, 3189, 3945, 4022, 4081, 4999, 5108, 6891, 6976, 7389, 7910, 11518, 11603, 15457]}, "edge": {"target": [], "time": []}}}, "displayed_time": "21.64", "trialTime": 24099, "trial_type": "mouselab-mdp", "trial_index": 17, "time_elapsed": 680321, "internal_node_id": "0.0-4.0-1.0-8.0"}}, {"uniqueid": "w53710051:a99965550", "current_trial": 18, "dateTime": 1691071659683, "trialdata": {"revealed_states": [], "clicked_states": ["3", "25", "14", "11", "10", "9"], "num_clicks_accrued": [0, 0, 0, 0, 0, 0, 0, 0, 0, 0, 0, 0, 0], "stateRewards": ["", 2, 3, 6, -12, -29, 12, 87, 4, 35, -30, 67, 2, 3, -5, -9, 44, 69, -8, 1, 45, -8, 28, -2, -1, -8, 11, -12, -5, 81, 9, 87, 82, 88], "withholdReward": false, "trial_id": "mdp_trial_10", "block": "test", "trialIndex": 11, "score": 72.7, "costs": -9.3, "simulationMode": [null, null, null, null, null], "rewards": [2, 3, 6, 4, 67], "path": ["0", "0", "1", "2", "3", "8", "11"], "rt": [15798, 39, 73, 277, 208], "actions": ["up", "up", "up", "left", "left"], "actionTimes": [18549, 19119, 19733, 20607, 21426], "queries": {"click": {"state": {"target": ["3", "25", "14", "11", "10", "9"], "time": [4320, 5384, 6420, 8212, 11539, 14852]}, "edge": {"target": [], "time": []}}, "mouseover": {"state": {"target": ["2", "3", "3", "28", "25", "24", "12", "13", "14", "18", "11", "11", "10", "8", "9"], "time": [3615, 3660, 3975, 4921, 5188, 5807, 5895, 5949, 6220, 7180, 7339, 7563, 9057, 12220, 12386]}, "edge": {"target": [], "time": []}}, "mouseout": {"state": {"target": ["15", "2", "3", "3", "28", "25", "24", "12", "13", "14", "18", "11", "11", "10", "8", "9", "23"], "time": [740, 3644, 3719, 4873, 4973, 5793, 5868, 5937, 6094, 7161, 7232, 7411, 8826, 12175, 12285, 16737, 23206]}, "edge": {"target": [], "time": []}}}, "displayed_time": "21.94", "trialTime": 24053, "trial_type": "mouselab-mdp", "trial_index": 18, "time_elapsed": 706789, "internal_node_id": "0.0-4.0-1.0-9.0"}}, {"uniqueid": "w53710051:a99965550", "current_trial": 19, "dateTime": 1691071696036, "trialdata": {"revealed_states": [], "clicked_states": ["3", "25", "14", "16", "18", "17", "20", "22", "21"], "num_clicks_accrued": [0, 0, 0, 0, 0, 0, 0, 0, 0, 0, 0, 0, 0], "stateRewards": ["", 2, -4, -8, -15, 71, -43, -41, 7, -17, 20, 67, -1, -1, -4, 6, 37, -24, -47, 9, 34, 57, 45, 1, 2, -4, -5, -23, 88, -5, 13, -40, 43, 44], "withholdReward": false, "trial_id": "mdp_trial_11", "block": "test", "trialIndex": 12, "score": 44.25, "costs": -15.750000000000002, "simulationMode": [null, null, null, null, null], "rewards": [-1, -1, -4, 9, 57], "path": ["0", "0", "12", "13", "14", "19", "21"], "rt": [25927, 503, 494, 324, 401], "actions": ["right", "right", "right", "down", "down"], "actionTimes": [28095, 29129, 30179, 31027, 31958], "queries": {"click": {"state": {"target": ["3", "25", "14", "16", "18", "17", "20", "22", "21"], "time": [3368, 4385, 5442, 7686, 11074, 14490, 17971, 21331, 24812]}, "edge": {"target": [], "time": []}}, "mouseover": {"state": {"target": ["2", "3", "28", "25", "24", "13", "14", "15", "16", "18", "15", "17", "20", "19", "22", "21"], "time": [2842, 3068, 3834, 4082, 4830, 5135, 5258, 7154, 7372, 8615, 11697, 11821, 15575, 18727, 18781, 22781]}, "edge": {"target": [], "time": []}}, "mouseout": {"state": {"target": ["0", "2", "3", "28", "25", "24", "13", "14", "15", "16", "18", "15", "17", "20", "19", "22", "21"], "time": [2805, 2937, 3741, 3873, 4809, 4864, 5191, 7006, 7256, 8503, 11655, 11739, 15214, 18708, 18773, 22442, 24896]}, "edge": {"target": [], "time": []}}}, "displayed_time": "32.47", "trialTime": 34133, "trial_type": "mouselab-mdp", "trial_index": 19, "time_elapsed": 743143, "internal_node_id": "0.0-4.0-1.0-10.0"}}, {"uniqueid": "w53710051:a99965550", "current_trial": 20, "dateTime": 1691071734524, "trialdata": {"revealed_states": [], "clicked_states": ["3", "25", "14", "16", "18", "17", "20", "21", "22"], "num_clicks_accrued": [0, 0, 0, 0, 0, 0, 0, 0, 0, 0, 0, 0, 0], "stateRewards": ["", -2, 2, 5, -14, -56, 64, 84, -5, 52, 39, 85, -2, 1, 7, 8, 21, 29, -78, -9, -10, -69, 10, -2, -1, -7, 15, 72, 20, 41, -2, 52, 80, 22], "withholdReward": false, "trial_id": "mdp_trial_12", "block": "test", "trialIndex": 13, "score": 19.25, "costs": -15.750000000000002, "simulationMode": [null, null, null, null, null], "rewards": [-2, 1, 7, 8, 21], "path": ["0", "0", "12", "13", "14", "15", "16"], "rt": [25656, 634, 381, 296, 205], "actions": ["right", "right", "right", "up", "up"], "actionTimes": [27953, 29112, 30007, 30872, 31588], "queries": {"click": {"state": {"target": ["3", "25", "14", "16", "18", "17", "20", "21", "22"], "time": [3610, 4698, 5719, 7581, 10832, 14297, 17776, 21255, 24631]}, "edge": {"target": [], "time": []}}, "mouseover": {"state": {"target": ["1", "2", "3", "10", "25", "23", "13", "14", "16", "18", "15", "17", "20", "21", "22", "19"], "time": [3238, 3285, 3370, 3905, 4084, 5233, 5320, 5518, 7290, 8676, 11543, 11629, 15414, 18758, 22013, 26518]}, "edge": {"target": [], "time": []}}, "mouseout": {"state": {"target": ["0", "1", "2", "3", "10", "25", "23", "13", "14", "16", "18", "15", "17", "20", "20", "21", "22", "19", "22"], "time": [3198, 3278, 3309, 3888, 3951, 5218, 5275, 5356, 7007, 8550, 11436, 11587, 15298, 17863, 18463, 21856, 26441, 33918, 34019]}, "edge": {"target": [], "time": []}}}, "displayed_time": "32.09", "trialTime": 36419, "trial_type": "mouselab-mdp", "trial_index": 20, "time_elapsed": 781631, "internal_node_id": "0.0-4.0-1.0-11.0"}}, {"uniqueid": "w53710051:a99965550", "current_trial": 21, "dateTime": 1691071768179, "trialdata": {"revealed_states": [], "clicked_states": ["3", "25", "14", "16", "15", "19", "21", "18", "17"], "num_clicks_accrued": [0, 0, 0, 0, 0, 0, 0, 0, 0, 0, 0, 0, 0], "stateRewards": ["", -2, 2, 2, -6, 9, 37, 50, -13, -7, -18, -75, -2, -4, 4, 7, 23, -57, -66, -7, -81, -48, -76, 1, 1, -8, 1, 51, -2, 70, 14, 59, 71, -37], "withholdReward": false, "trial_id": "mdp_trial_13", "block": "test", "trialIndex": 14, "score": 13.45, "costs": -14.55, "simulationMode": [null, null, null, null, null], "rewards": [-2, -4, 4, 7, 23], "path": ["0", "0", "12", "13", "14", "15", "16"], "rt": [24081, 111, 249, 189, 183], "actions": ["right", "right", "right", "up", "up"], "actionTimes": [26403, 27039, 27823, 28542, 29255], "queries": {"click": {"state": {"target": ["3", "25", "14", "16", "15", "19", "21", "18", "17"], "time": [3454, 4387, 5506, 7788, 12060, 13777, 14938, 19550, 23079]}, "edge": {"target": [], "time": []}}, "mouseover": {"state": {"target": ["1", "2", "3", "28", "25", "13", "14", "15", "16", "15", "18", "15", "19", "21", "18", "15", "17"], "time": [2858, 2921, 3169, 3923, 4051, 4970, 5256, 6881, 7205, 8367, 9053, 11827, 12993, 14736, 16231, 20410, 20678]}, "edge": {"target": [], "time": []}}, "mouseout": {"state": {"target": ["0", "1", "2", "3", "28", "25", "13", "14", "15", "16", "15", "14", "18", "15", "19", "21", "19", "18", "15", "17", "14", "13"], "time": [2815, 2888, 3038, 3873, 3967, 4839, 5076, 6464, 7024, 8314, 8418, 8752, 11795, 12960, 14645, 15058, 15828, 20366, 20547, 31096, 31213, 31263]}, "edge": {"target": [], "time": []}}}, "displayed_time": "29.78", "trialTime": 31890, "trial_type": "mouselab-mdp", "trial_index": 21, "time_elapsed": 815285, "internal_node_id": "0.0-4.0-1.0-12.0"}}, {"uniqueid": "w53710051:a99965550", "current_trial": 22, "dateTime": 1691071805331, "trialdata": {"revealed_states": [], "clicked_states": ["3", "25", "14", "15", "19", "21", "22", "20", "30", "32"], "num_clicks_accrued": [0, 0, 0, 0, 0, 0, 0, 0, 0, 0, 0, 0, 0], "stateRewards": ["", -1, 1, -6, -1, 80, 23, 2, -11, 73, -81, 59, 1, 3, 5, -1, -26, 28, -3, 16, -59, -13, -50, -2, -2, 2, 15, -50, 86, 17, -4, 37, 35, 44], "withholdReward": false, "trial_id": "mdp_trial_14", "block": "test", "trialIndex": 15, "score": 12.899999999999999, "costs": -16.1, "simulationMode": [null, null, null, null, null], "rewards": [-2, -2, 2, -4, 35], "path": ["0", "0", "23", "24", "25", "30", "32"], "rt": [25677, 15, 121, 240, 271], "actions": ["left", "left", "left", "down", "down"], "actionTimes": [30541, 31074, 31737, 32512, 33308], "queries": {"click": {"state": {"target": ["3", "25", "14", "15", "19", "21", "22", "20", "30", "32"], "time": [6187, 7331, 8544, 10094, 11520, 12754, 16006, 19297, 24637, 26402]}, "edge": {"target": [], "time": []}}, "mouseover": {"state": {"target": ["1", "2", "3", "3", "10", "28", "25", "14", "15", "19", "21", "22", "19", "20", "23", "24", "25", "30", "26", "32", "26", "27", "26"], "time": [5486, 5528, 5594, 5917, 6804, 6848, 7102, 8053, 9836, 10968, 12465, 13678, 16704, 16856, 23608, 23649, 23722, 24360, 25696, 25953, 27341, 27504, 29057]}, "edge": {"target": [], "time": []}}, "mouseout": {"state": {"target": ["0", "0", "1", "2", "3", "3", "10", "28", "25", "14", "15", "19", "21", "22", "19", "20", "23", "24", "25", "30", "26", "30", "32", "30", "26", "27"], "time": [1843, 5416, 5518, 5562, 5762, 6776, 6842, 6888, 7971, 9502, 10798, 12422, 13516, 16653, 16756, 23403, 23641, 23675, 24319, 24674, 25875, 25926, 27093, 27174, 27419, 28505]}, "edge": {"target": [], "time": []}}}, "displayed_time": "33.83", "trialTime": 35473, "trial_type": "mouselab-mdp", "trial_index": 22, "time_elapsed": 852437, "internal_node_id": "0.0-4.0-1.0-13.0"}}, {"uniqueid": "w53710051:a99965550", "current_trial": 23, "dateTime": 1691071841650, "trialdata": {"revealed_states": [], "clicked_states": ["3", "25", "14", "15", "19", "21", "22", "20", "16", "18"], "num_clicks_accrued": [0, 0, 0, 0, 0, 0, 0, 0, 0, 0, 0, 0, 0], "stateRewards": ["", -2, -3, -5, 8, 27, 11, 43, -6, -24, -87, 69, -2, 1, 1, 9, 19, 48, -37, 9, -14, 45, 62, 1, 2, 1, 16, -81, -41, 22, 4, -6, -63, 47], "withholdReward": false, "trial_id": "mdp_trial_15", "block": "test", "trialIndex": 16, "score": 54.3, "costs": -16.7, "simulationMode": [null, null, null, null, null], "rewards": [-2, 1, 1, 9, 62], "path": ["0", "0", "12", "13", "14", "19", "22"], "rt": [25980, 145, 190, 183, 206], "actions": ["right", "right", "right", "down", "left"], "actionTimes": [28450, 29110, 29855, 30546, 31280], "queries": {"click": {"state": {"target": ["3", "25", "14", "15", "19", "21", "22", "20", "16", "18"], "time": [3773, 4935, 6148, 7455, 8614, 10309, 13569, 16936, 21136, 24676]}, "edge": {"target": [], "time": []}}, "mouseover": {"state": {"target": ["2", "3", "25", "23", "12", "13", "14", "15", "19", "21", "22", "20", "16", "18"], "time": [3371, 3600, 4687, 5486, 5651, 5733, 5935, 7167, 8450, 10153, 11088, 14841, 21002, 21942]}, "edge": {"target": [], "time": []}}, "mouseout": {"state": {"target": ["26", "23", "0", "2", "3", "25", "23", "12", "13", "14", "15", "15", "14", "19", "21", "22", "20", "20", "16", "18"], "time": [890, 1049, 3307, 3453, 4124, 5481, 5523, 5724, 5834, 7051, 7524, 8098, 8148, 9903, 10985, 14674, 19655, 20703, 21864, 27771]}, "edge": {"target": [], "time": []}}}, "displayed_time": "31.80", "trialTime": 34197, "trial_type": "mouselab-mdp", "trial_index": 23, "time_elapsed": 888757, "internal_node_id": "0.0-4.0-1.0-14.0"}}, {"uniqueid": "w53710051:a99965550", "current_trial": 24, "dateTime": 1691071871145, "trialdata": {"revealed_states": [], "clicked_states": ["3", "25", "14", "26", "30", "32", "33", "31"], "num_clicks_accrued": [0, 0, 0, 0, 0, 0, 0, 0, 0, 0, 0, 0, 0], "stateRewards": ["", -2, 1, -8, 12, -65, -79, 16, 7, -80, -17, -45, -2, 2, -5, -2, -85, 23, -4, -7, 48, 27, -76, 2, 3, 5, 2, 43, 71, -13, 7, -49, 59, -31], "withholdReward": false, "trial_id": "mdp_trial_16", "block": "test", "trialIndex": 17, "score": 63.6, "costs": -12.4, "simulationMode": [null, null, null, null, null], "rewards": [2, 3, 5, 7, 59], "path": ["0", "0", "23", "24", "25", "30", "32"], "rt": [18597, 224, 206, 210, 378], "actions": ["left", "left", "left", "down", "down"], "actionTimes": [21472, 22242, 22993, 23771, 24670], "queries": {"click": {"state": {"target": ["3", "25", "14", "26", "30", "32", "33", "31"], "time": [4459, 5637, 6842, 8271, 9790, 11354, 14696, 18024]}, "edge": {"target": [], "time": []}}, "mouseover": {"state": {"target": ["1", "2", "3", "24", "25", "23", "12", "13", "14", "12", "24", "26", "25", "30", "32", "33", "30", "31"], "time": [4038, 4170, 4270, 4983, 5251, 6211, 6267, 6312, 6579, 7667, 7761, 8057, 9074, 9491, 10956, 11977, 15425, 15598]}, "edge": {"target": [], "time": []}}, "mouseout": {"state": {"target": ["18", "12", "1", "2", "3", "24", "25", "23", "12", "13", "14", "12", "24", "26", "25", "30", "30", "32", "33", "30", "31"], "time": [1153, 1302, 4087, 4234, 4782, 5092, 6190, 6253, 6305, 6393, 7654, 7718, 7858, 9024, 9406, 9824, 10867, 11431, 15375, 15470, 20175]}, "edge": {"target": [], "time": []}}}, "displayed_time": "25.18", "trialTime": 27649, "trial_type": "mouselab-mdp", "trial_index": 24, "time_elapsed": 918247, "internal_node_id": "0.0-4.0-1.0-15.0"}}, {"uniqueid": "w53710051:a99965550", "current_trial": 25, "dateTime": 1691071915233, "trialdata": {"revealed_states": [], "clicked_states": ["3", "25", "14", "4", "8", "9", "11", "10", "27", "29", "28", "31"], "num_clicks_accrued": [0, 0, 0, 0, 0, 0, 0, 0, 0, 0, 0, 0, 0], "stateRewards": ["", 1, 4, 7, -16, -84, -6, -46, -12, -7, -49, -26, -1, 2, -4, 2, 22, 37, -64, 1, 88, -13, -10, 1, -4, -2, 5, 2, -10, -34, 9, 66, 55, 38], "withholdReward": false, "trial_id": "mdp_trial_17", "block": "test", "trialIndex": 18, "score": 49, "costs": -20.999999999999996, "simulationMode": [null, null, null, null, null], "rewards": [1, -4, -2, 9, 66], "path": ["0", "0", "23", "24", "25", "30", "31"], "rt": [33829, 100, 201, 189, 298], "actions": ["left", "left", "left", "down", "right"], "actionTimes": [36688, 37305, 38034, 38772, 39608], "queries": {"click": {"state": {"target": ["3", "25", "14", "4", "8", "9", "11", "10", "27", "29", "28", "31"], "time": [4163, 5315, 6349, 7750, 8682, 10644, 13890, 17169, 21533, 24885, 28492, 32709]}, "edge": {"target": [], "time": []}}, "mouseover": {"state": {"target": ["1", "2", "3", "25", "13", "14", "4", "4", "3", "8", "9", "11", "10", "27", "26", "29", "26", "28", "24", "31", "32"], "time": [3624, 3693, 3886, 4796, 5869, 5957, 7250, 7486, 8347, 8486, 10306, 11534, 14693, 21149, 22434, 23471, 25595, 25671, 32097, 32420, 33734]}, "edge": {"target": [], "time": []}}, "mouseout": {"state": {"target": ["24", "23", "12", "1", "2", "3", "25", "13", "14", "4", "4", "3", "8", "9", "11", "10", "27", "26", "29", "26", "28", "24", "31", "31"], "time": [697, 817, 1082, 3655, 3723, 4687, 5787, 5917, 6435, 7353, 8328, 8415, 9759, 11344, 14590, 20739, 22360, 23153, 25588, 25634, 32059, 32168, 32843, 33684]}, "edge": {"target": [], "time": []}}}, "displayed_time": "40.12", "trialTime": 42096, "trial_type": "mouselab-mdp", "trial_index": 25, "time_elapsed": 962340, "internal_node_id": "0.0-4.0-1.0-16.0"}}, {"uniqueid": "w53710051:a99965550", "current_trial": 26, "dateTime": 1691071942726, "trialdata": {"revealed_states": [], "clicked_states": ["3", "25", "14", "15", "19", "16", "18", "17"], "num_clicks_accrued": [0, 0, 0, 0, 0, 0, 0, 0, 0, 0, 0, 0, 0], "stateRewards": ["", 1, 1, -3, 2, 22, -25, -11, -5, 50, 49, 3, 1, -1, 8, 14, -85, -30, 57, -6, -39, -16, 59, -2, -1, 5, 5, 59, -16, 8, 4, 67, 56, -9], "withholdReward": false, "trial_id": "mdp_trial_18", "block": "test", "trialIndex": 19, "score": 66.6, "costs": -12.4, "simulationMode": [null, null, null, null, null], "rewards": [1, -1, 8, 14, 57], "path": ["0", "0", "12", "13", "14", "15", "18"], "rt": [17539, 581, 429, 406, 222], "actions": ["right", "right", "right", "up", "left"], "actionTimes": [19397, 20504, 21447, 22483, 23255], "queries": {"click": {"state": {"target": ["3", "25", "14", "15", "19", "16", "18", "17"], "time": [2851, 4090, 5339, 6768, 8336, 9570, 12819, 16172]}, "edge": {"target": [], "time": []}}, "mouseover": {"state": {"target": ["1", "2", "3", "10", "24", "25", "23", "12", "13", "14", "15", "19", "17", "16", "18", "15", "17"], "time": [2360, 2415, 2483, 3405, 3648, 3849, 4594, 4674, 4748, 5111, 6448, 8148, 9203, 9283, 10146, 13797, 14045]}, "edge": {"target": [], "time": []}}, "mouseout": {"state": {"target": ["0", "1", "2", "3", "3", "10", "24", "25", "23", "12", "13", "14", "15", "15", "14", "19", "17", "16", "18", "15"], "time": [806, 2404, 2449, 2943, 3351, 3455, 3684, 4544, 4630, 4712, 4974, 6370, 7602, 7915, 8016, 8432, 9241, 9978, 13720, 13900]}, "edge": {"target": [], "time": []}}}, "displayed_time": "23.80", "trialTime": 25543, "trial_type": "mouselab-mdp", "trial_index": 26, "time_elapsed": 989832, "internal_node_id": "0.0-4.0-1.0-17.0"}}, {"uniqueid": "w53710051:a99965550", "current_trial": 27, "dateTime": 1691071979628, "trialdata": {"revealed_states": [], "clicked_states": ["3", "25", "14", "15", "19", "17", "16", "18", "4", "6"], "num_clicks_accrued": [0, 0, 0, 0, 0, 0, 0, 0, 0, 0, 0, 0, 0], "stateRewards": ["", 2, -1, -4, -13, 74, 77, 3, 2, -43, -2, -11, 2, 3, 7, 11, -26, -29, -33, -3, -3, -13, -3, 1, 3, -7, 14, -59, 33, 9, -5, 34, 79, 68], "withholdReward": false, "trial_id": "mdp_trial_19", "block": "test", "trialIndex": 20, "score": 44.9, "costs": -16.1, "simulationMode": [null, null, null, null, null], "rewards": [2, -1, -4, -13, 77], "path": ["0", "0", "1", "2", "3", "4", "6"], "rt": [26594, 31, 199, 536, 306], "actions": ["up", "up", "up", "right", "right"], "actionTimes": [29084, 29641, 30392, 31483, 32309], "queries": {"click": {"state": {"target": ["3", "25", "14", "15", "19", "17", "16", "18", "4", "6"], "time": [3796, 5091, 6450, 7920, 10551, 11950, 15289, 18557, 22882, 24841]}, "edge": {"target": [], "time": []}}, "mouseover": {"state": {"target": ["2", "3", "24", "25", "13", "14", "14", "15", "18", "14", "19", "14", "16", "16", "17", "16", "18", "6", "4", "6", "7"], "time": [3454, 3566, 4446, 4707, 5867, 5934, 6258, 7638, 9890, 10205, 10273, 11253, 11332, 11516, 11689, 12892, 16159, 22224, 22615, 23751, 26348]}, "edge": {"target": [], "time": []}}, "mouseout": {"state": {"target": ["0", "2", "3", "24", "25", "13", "14", "14", "15", "18", "14", "19", "14", "16", "16", "17", "16", "18", "6", "4", "6"], "time": [3403, 3525, 4356, 4492, 5799, 5922, 5972, 7571, 9577, 10121, 10242, 11239, 11288, 11477, 11556, 12535, 16036, 22150, 22381, 23639, 26200]}, "edge": {"target": [], "time": []}}}, "displayed_time": "32.86", "trialTime": 34143, "trial_type": "mouselab-mdp", "trial_index": 27, "time_elapsed": 1026735, "internal_node_id": "0.0-4.0-1.0-18.0"}}, {"uniqueid": "w53710051:a99965550", "current_trial": 28, "dateTime": 1691072007633, "trialdata": {"revealed_states": [], "clicked_states": ["3", "25", "14", "15", "19", "20", "21", "22"], "num_clicks_accrued": [0, 0, 0, 0, 0, 0, 0, 0, 0, 0, 0, 0, 0], "stateRewards": ["", 1, 1, -3, 7, 49, 78, 26, -5, 26, 48, -43, -1, -3, 2, -5, 4, -1, -60, 10, -35, 51, 81, -2, 1, -7, -5, -39, -86, -54, 4, -3, 74, 77], "withholdReward": false, "trial_id": "mdp_trial_20", "block": "test", "trialIndex": 21, "score": 76.6, "costs": -12.4, "simulationMode": [null, null, null, null, null], "rewards": [-1, -3, 2, 10, 81], "path": ["0", "0", "12", "13", "14", "19", "22"], "rt": [17339, 39, 240, 218, 326], "actions": ["right", "right", "right", "down", "left"], "actionTimes": [20295, 20953, 21729, 22466, 23313], "queries": {"click": {"state": {"target": ["3", "25", "14", "15", "19", "20", "21", "22"], "time": [4285, 5260, 6333, 7595, 8721, 9742, 13046, 16911]}, "edge": {"target": [], "time": []}}, "mouseover": {"state": {"target": ["2", "3", "28", "25", "12", "13", "14", "15", "19", "20", "21", "21", "22"], "time": [3708, 3980, 4629, 4916, 5740, 5856, 6130, 7424, 8330, 9443, 10145, 10432, 13824]}, "edge": {"target": [], "time": []}}, "mouseout": {"state": {"target": ["7", "1", "0", "2", "3", "28", "25", "12", "13", "14", "14", "15", "19", "19", "20", "20", "21", "21"], "time": [721, 872, 3057, 3826, 4497, 4753, 5326, 5845, 6027, 6426, 7212, 8227, 8748, 9154, 9806, 10064, 10193, 13645]}, "edge": {"target": [], "time": []}}}, "displayed_time": "23.84", "trialTime": 25465, "trial_type": "mouselab-mdp", "trial_index": 28, "time_elapsed": 1054737, "internal_node_id": "0.0-4.0-1.0-19.0"}}, {"uniqueid": "w53710051:a99965550", "current_trial": 29, "dateTime": 1691072059323, "trialdata": {"revealed_states": [], "clicked_states": ["3", "25", "14", "15", "19", "30", "26", "4", "8", "16", "18", "17", "20", "21", "22", "31", "32"], "num_clicks_accrued": [0, 0, 0, 0, 0, 0, 0, 0, 0, 0, 0, 0, 0], "stateRewards": ["", 2, -1, -1, -9, -81, -30, 55, -6, 78, 25, 62, 2, 4, -1, 9, -85, 1, -19, 1, -60, 12, -34, 1, 4, -1, -13, -24, -16, -83, -8, 16, 43, 9], "withholdReward": false, "trial_id": "mdp_trial_21", "block": "test", "trialIndex": 22, "score": 9.650000000000006, "costs": -29.34999999999999, "simulationMode": [null, null, null, null, null], "rewards": [1, 4, -1, -8, 43], "path": ["0", "0", "23", "24", "25", "30", "32"], "rt": [42261, 162, 345, 198, 267], "actions": ["left", "left", "left", "down", "down"], "actionTimes": [44412, 45091, 45957, 46678, 47468], "queries": {"click": {"state": {"target": ["3", "25", "14", "15", "19", "30", "26", "4", "8", "16", "18", "17", "20", "21", "22", "31", "32"], "time": [3354, 4576, 5632, 7018, 8714, 10242, 11295, 12906, 13917, 15402, 18743, 22022, 25814, 29282, 32672, 36951, 40393]}, "edge": {"target": [], "time": []}}, "mouseover": {"state": {"target": ["1", "2", "3", "1", "25", "12", "13", "14", "15", "19", "23", "24", "30", "30", "26", "3", "4", "8", "16", "18", "15", "17", "20", "21", "22", "30", "31", "32", "33"], "time": [2936, 3031, 3119, 3872, 4289, 5106, 5157, 5423, 6736, 8402, 9411, 9468, 9638, 9952, 11070, 12460, 12558, 13541, 15124, 16693, 19542, 19666, 25492, 26539, 30241, 36535, 36700, 38812, 41149]}, "edge": {"target": [], "time": []}}, "mouseout": {"state": {"target": ["22", "0", "1", "2", "3", "1", "25", "12", "13", "14", "15", "15", "14", "19", "23", "24", "30", "30", "26", "3", "4", "8", "16", "18", "15", "17", "20", "21", "22", "22", "30", "31", "32", "33", "30", "31"], "time": [844, 2898, 3001, 3105, 3789, 4119, 5051, 5150, 5227, 6652, 7849, 8284, 8368, 8772, 9464, 9538, 9674, 10941, 12006, 12501, 13339, 14710, 16544, 19520, 19657, 23346, 26460, 30148, 35454, 36261, 36614, 38601, 41005, 48868, 48990, 49071]}, "edge": {"target": [], "time": []}}}, "displayed_time": "48.00", "trialTime": 49941, "trial_type": "mouselab-mdp", "trial_index": 29, "time_elapsed": 1106428, "internal_node_id": "0.0-4.0-1.0-20.0"}}, {"uniqueid": "w53710051:a99965550", "current_trial": 30, "dateTime": 1691072091269, "trialdata": {"revealed_states": [], "clicked_states": ["3", "25", "14", "15", "19", "21", "20"], "num_clicks_accrued": [0, 0, 0, 0, 0, 0, 0, 0, 0, 0, 0, 0, 0], "stateRewards": ["", -1, -4, -1, -11, 43, 69, 39, 4, 17, -20, -82, -2, -1, 4, 8, -79, 24, -79, 11, 36, 64, 41, 2, 4, -1, 11, -79, -47, 75, -3, 63, -36, -19], "withholdReward": false, "trial_id": "mdp_trial_22", "block": "test", "trialIndex": 23, "score": 65.75, "costs": -10.25, "simulationMode": [null, null, null, null, null], "rewards": [-2, -1, 4, 11, 64], "path": ["0", "0", "12", "13", "14", "19", "21"], "rt": [19829, 283, 176, 182, 263], "actions": ["right", "right", "right", "down", "down"], "actionTimes": [23130, 23927, 24622, 25354, 26175], "queries": {"click": {"state": {"target": ["3", "25", "14", "15", "19", "21", "20"], "time": [4317, 5440, 6692, 8138, 10063, 11209, 16186]}, "edge": {"target": [], "time": []}}, "mouseover": {"state": {"target": ["2", "3", "24", "25", "13", "14", "15", "16", "16", "19", "21", "22", "19", "20", "22", "22"], "time": [3966, 4117, 5007, 5234, 6207, 6496, 7952, 9258, 9582, 9714, 10939, 12306, 15456, 15669, 20208, 20786]}, "edge": {"target": [], "time": []}}, "mouseout": {"state": {"target": ["12", "1", "0", "2", "3", "24", "25", "13", "14", "15", "16", "16", "19", "21", "22", "19", "20", "22"], "time": [359, 819, 1198, 4047, 4680, 5114, 5969, 6421, 7752, 9167, 9322, 9676, 10855, 12006, 15425, 15508, 20128, 20494]}, "edge": {"target": [], "time": []}}}, "displayed_time": "26.71", "trialTime": 28279, "trial_type": "mouselab-mdp", "trial_index": 30, "time_elapsed": 1138376, "internal_node_id": "0.0-4.0-1.0-21.0"}}, {"uniqueid": "w53710051:a99965550", "current_trial": 31, "dateTime": 1691072118284, "trialdata": {"revealed_states": [], "clicked_states": ["3", "25", "14", "26", "30", "27", "28", "29"], "num_clicks_accrued": [0, 0, 0, 0, 0, 0, 0, 0, 0, 0, 0, 0, 0], "stateRewards": ["", 2, 1, -3, 7, 46, 11, -36, 16, 71, 5, 1, 2, -2, -8, -3, -4, 6, 55, 7, 68, -54, 2, 1, 1, 6, -6, 42, -4, -84, -11, -65, 63, 25], "withholdReward": false, "trial_id": "mdp_trial_23", "block": "test", "trialIndex": 24, "score": 31.6, "costs": -12.4, "simulationMode": [null, null, null, null, null, null], "rewards": [1, 1, 6, -6, 42], "path": ["0", "0", "23", "24", "25", "26", "27"], "rt": [15863, 919, 330, 254, 204, 180], "actions": ["left", "left", "left", "left", "up", "up"], "actionTimes": [17672, 18604, 19498, 20272, 20996, 21725], "queries": {"click": {"state": {"target": ["3", "25", "14", "26", "30", "27", "28", "29"], "time": [2931, 4034, 5393, 6831, 8150, 9820, 13082, 16405]}, "edge": {"target": [], "time": []}}, "mouseover": {"state": {"target": ["2", "3", "25", "23", "0", "12", "13", "14", "19", "23", "24", "26", "26", "30", "25", "27", "28", "26", "29"], "time": [2481, 2579, 3739, 4643, 4700, 4763, 4913, 5084, 5941, 6051, 6142, 6326, 6563, 7921, 9168, 9578, 10611, 13952, 14064]}, "edge": {"target": [], "time": []}}, "mouseout": {"state": {"target": ["0", "2", "3", "25", "23", "0", "12", "13", "14", "19", "23", "24", "26", "26", "30", "25", "27", "28", "26", "29", "26", "28"], "time": [2446, 2524, 3183, 4587, 4692, 4748, 4837, 5026, 5834, 5996, 6131, 6180, 6363, 7748, 9154, 9218, 10489, 13900, 13997, 23270, 23373, 23438]}, "edge": {"target": [], "time": []}}}, "displayed_time": "22.24", "trialTime": 24024, "trial_type": "mouselab-mdp", "trial_index": 31, "time_elapsed": 1165391, "internal_node_id": "0.0-4.0-1.0-22.0"}}, {"uniqueid": "w53710051:a99965550", "current_trial": 32, "dateTime": 1691072140515, "trialdata": {"revealed_states": [], "clicked_states": ["3", "25", "14", "15", "19", "20"], "num_clicks_accrued": [0, 0, 0, 0, 0, 0, 0, 0, 0, 0, 0, 0, 0], "stateRewards": ["", -2, -1, -6, -14, -55, 78, -13, 11, 14, -71, 59, 2, 2, 6, -6, 9, 38, 14, 7, 85, 11, 68, 1, -4, -1, -3, -63, -85, 9, -2, 63, -86, -10], "withholdReward": false, "trial_id": "mdp_trial_24", "block": "test", "trialIndex": 25, "score": 93.9, "costs": -8.1, "simulationMode": [null, null, null, null, null], "rewards": [2, 2, 6, 7, 85], "path": ["0", "0", "12", "13", "14", "19", "20"], "rt": [12628, 62, 181, 186, 739], "actions": ["right", "right", "right", "down", "right"], "actionTimes": [14679, 15261, 15967, 16679, 17938], "queries": {"click": {"state": {"target": ["3", "25", "14", "15", "19", "20"], "time": [3365, 4678, 6038, 7567, 8877, 10194]}, "edge": {"target": [], "time": []}}, "mouseover": {"state": {"target": ["1", "2", "3", "25", "14", "15", "19", "20", "22"], "time": [2860, 2905, 3039, 4494, 5778, 7296, 8562, 10001, 11280]}, "edge": {"target": [], "time": []}}, "mouseout": {"state": {"target": ["23", "0", "1", "2", "3", "25", "14", "15", "19", "20", "19"], "time": [730, 856, 2896, 2945, 3952, 5345, 7128, 8474, 9882, 11043, 11115]}, "edge": {"target": [], "time": []}}}, "displayed_time": "18.44", "trialTime": 20288, "trial_type": "mouselab-mdp", "trial_index": 32, "time_elapsed": 1187622, "internal_node_id": "0.0-4.0-1.0-23.0"}}, {"uniqueid": "w53710051:a99965550", "current_trial": 33, "dateTime": 1691072171311, "trialdata": {"revealed_states": [], "clicked_states": ["3", "25", "14", "26", "30", "31", "32", "33"], "num_clicks_accrued": [0, 0, 0, 0, 0, 0, 0, 0, 0, 0, 0, 0, 0], "stateRewards": ["", -2, -3, -6, -7, 9, 16, 65, 5, -41, 20, -25, -1, -4, 1, -11, -49, -4, 71, 1, 39, -62, 52, -2, -3, 7, -9, -28, -70, 84, 8, 24, -58, 82], "withholdReward": false, "trial_id": "mdp_trial_25", "block": "test", "trialIndex": 26, "score": 79.6, "costs": -12.4, "simulationMode": [null, null, null, null, null], "rewards": [-2, -3, 7, 8, 82], "path": ["0", "0", "23", "24", "25", "30", "33"], "rt": [19259, 19, 118, 803, 609], "actions": ["left", "left", "left", "down", "left"], "actionTimes": [22121, 22665, 23342, 24675, 25800], "queries": {"click": {"state": {"target": ["3", "25", "14", "26", "30", "31", "32", "33"], "time": [4029, 5234, 6787, 9008, 10034, 11451, 14922, 18329]}, "edge": {"target": [], "time": []}}, "mouseover": {"state": {"target": ["1", "2", "3", "28", "25", "24", "13", "14", "31", "26", "26", "30", "32", "31", "32", "33", "30", "31"], "time": [2919, 3510, 3784, 4638, 5032, 5859, 6202, 6521, 7883, 8472, 8727, 9795, 10834, 11011, 11886, 15673, 19358, 19659]}, "edge": {"target": [], "time": []}}, "mouseout": {"state": {"target": ["22", "0", "1", "1", "2", "3", "28", "25", "24", "13", "14", "31", "26", "26", "30", "30", "32", "31", "32", "33", "33", "30"], "time": [247, 460, 784, 3458, 3678, 4582, 4738, 5320, 5906, 6330, 7707, 7982, 8565, 9582, 10102, 10748, 10969, 11828, 15583, 18389, 19341, 19520]}, "edge": {"target": [], "time": []}}}, "displayed_time": "26.32", "trialTime": 27643, "trial_type": "mouselab-mdp", "trial_index": 33, "time_elapsed": 1218416, "internal_node_id": "0.0-4.0-1.0-24.0"}}, {"uniqueid": "w53710051:a99965550", "current_trial": 34, "dateTime": 1691072199076, "trialdata": {"revealed_states": [], "clicked_states": ["3", "25", "14", "26", "30", "31", "32", "33"], "num_clicks_accrued": [0, 0, 0, 0, 0, 0, 0, 0, 0, 0, 0, 0, 0], "stateRewards": ["", 2, -1, 5, 8, 75, -35, -77, 1, -9, -81, -58, 1, 2, -7, 5, 77, -16, 19, 16, -10, -18, 40, -2, 3, 7, -5, 64, 1, -62, 10, 27, 10, 65], "withholdReward": false, "trial_id": "mdp_trial_26", "block": "test", "trialIndex": 27, "score": 70.6, "costs": -12.4, "simulationMode": [null, null, null, null, null], "rewards": [-2, 3, 7, 10, 65], "path": ["0", "0", "23", "24", "25", "30", "33"], "rt": [18096, 45, 157, 153, 306], "actions": ["left", "left", "left", "down", "left"], "actionTimes": [20547, 21131, 21940, 22616, 23454], "queries": {"click": {"state": {"target": ["3", "25", "14", "26", "30", "31", "32", "33"], "time": [3733, 4673, 5582, 7023, 8314, 9348, 13010, 16757]}, "edge": {"target": [], "time": []}}, "mouseover": {"state": {"target": ["1", "2", "3", "28", "25", "24", "12", "13", "14", "23", "24", "26", "30", "31", "32", "33"], "time": [3069, 3146, 3451, 4191, 4471, 5118, 5173, 5222, 5334, 6351, 6430, 6623, 7777, 9018, 9961, 13923]}, "edge": {"target": [], "time": []}}, "mouseout": {"state": {"target": ["31", "0", "1", "2", "3", "28", "25", "24", "12", "13", "14", "23", "24", "26", "25", "30", "31", "32"], "time": [523, 3006, 3105, 3285, 4145, 4273, 5101, 5159, 5215, 5261, 5655, 6392, 6542, 7643, 7692, 8909, 9894, 13813]}, "edge": {"target": [], "time": []}}}, "displayed_time": "23.97", "trialTime": 25232, "trial_type": "mouselab-mdp", "trial_index": 34, "time_elapsed": 1246182, "internal_node_id": "0.0-4.0-1.0-25.0"}}, {"uniqueid": "w53710051:a99965550", "current_trial": 35, "dateTime": 1691072231525, "trialdata": {"revealed_states": [], "clicked_states": ["3", "25", "14", "26", "30", "31", "32", "33", "27"], "num_clicks_accrued": [0, 0, 0, 0, 0, 0, 0, 0, 0, 0, 0, 0, 0], "stateRewards": ["", -1, 2, -2, 13, -56, -28, 10, 14, 53, -80, -29, 1, -3, -3, -14, 14, 9, -40, -9, 18, 18, 48, 1, 1, 1, -9, 64, -39, -9, 7, -52, -78, 7], "withholdReward": false, "trial_id": "mdp_trial_27", "block": "test", "trialIndex": 28, "score": 43.45, "costs": -14.55, "simulationMode": [null, null, null, null, null], "rewards": [1, 1, 1, -9, 64], "path": ["0", "0", "23", "24", "25", "26", "27"], "rt": [22874, 10, 216, 161, 175], "actions": ["left", "left", "left", "up", "up"], "actionTimes": [25811, 26369, 27126, 27874, 28587], "queries": {"click": {"state": {"target": ["3", "25", "14", "26", "30", "31", "32", "33", "27"], "time": [4300, 5326, 6806, 8246, 9430, 10634, 14017, 17392, 21794]}, "edge": {"target": [], "time": []}}, "mouseover": {"state": {"target": ["1", "3", "10", "25", "0", "13", "14", "14", "13", "26", "25", "30", "31", "32", "33", "27", "28"], "time": [3875, 4053, 4947, 5043, 5841, 5941, 6003, 6481, 7790, 7899, 8926, 9199, 10269, 11471, 14714, 21530, 22677]}, "edge": {"target": [], "time": []}}, "mouseout": {"state": {"target": ["33", "31", "0", "0", "1", "3", "10", "25", "0", "13", "14", "14", "13", "26", "26", "25", "30", "31", "32", "33", "27"], "time": [754, 802, 1202, 3839, 3920, 4925, 4988, 5785, 5900, 5993, 6108, 7769, 7844, 8341, 8878, 8971, 10160, 11380, 14586, 21309, 22315]}, "edge": {"target": [], "time": []}}}, "displayed_time": "29.09", "trialTime": 30258, "trial_type": "mouselab-mdp", "trial_index": 35, "time_elapsed": 1278632, "internal_node_id": "0.0-4.0-1.0-26.0"}}, {"uniqueid": "w53710051:a99965550", "current_trial": 36, "dateTime": 1691072269627, "trialdata": {"revealed_states": [], "clicked_states": ["3", "14", "25", "8", "4", "5", "6", "7", "21", "20"], "num_clicks_accrued": [0, 0, 0, 0, 0, 0, 0, 0, 0, 0, 0, 0, 0], "stateRewards": ["", 1, 1, 5, 6, -29, -7, 3, -16, 9, -46, 65, -1, 4, -1, -16, -63, -77, -87, 8, 80, -50, 43, -1, -1, -5, 5, -38, -71, -62, 9, 81, -50, -52], "withholdReward": false, "trial_id": "mdp_trial_28", "block": "test", "trialIndex": 29, "score": 73.3, "costs": -16.7, "simulationMode": [null, null, null, null, null], "rewards": [-1, 4, -1, 8, 80], "path": ["0", "0", "12", "13", "14", "19", "20"], "rt": [26922, 128, 271, 272, 351], "actions": ["right", "right", "right", "down", "right"], "actionTimes": [29041, 29708, 30493, 31285, 32179], "queries": {"click": {"state": {"target": ["3", "14", "25", "8", "4", "5", "6", "7", "21", "20"], "time": [3513, 4859, 6081, 7566, 8421, 9592, 12936, 16550, 21505, 25250]}, "edge": {"target": [], "time": []}}, "mouseover": {"state": {"target": ["1", "2", "3", "18", "14", "13", "12", "23", "24", "25", "8", "3", "4", "5", "6", "7", "19", "21", "19", "20", "19", "22"], "time": [3004, 3067, 3175, 4213, 4597, 5300, 5355, 5434, 5584, 5826, 7217, 8013, 8113, 9314, 10314, 13863, 20857, 21252, 22823, 24970, 26161, 26351]}, "edge": {"target": [], "time": []}}, "mouseout": {"state": {"target": ["1", "2", "3", "3", "18", "14", "13", "12", "23", "24", "25", "8", "3", "4", "5", "6", "7", "19", "21", "19", "20", "19", "22"], "time": [3052, 3116, 3584, 4083, 4255, 5284, 5348, 5396, 5516, 5707, 7106, 7995, 8074, 9262, 10234, 13773, 20806, 20892, 22564, 22897, 26110, 26236, 34237]}, "edge": {"target": [], "time": []}}}, "displayed_time": "32.70", "trialTime": 35273, "trial_type": "mouselab-mdp", "trial_index": 36, "time_elapsed": 1316733, "internal_node_id": "0.0-4.0-1.0-27.0"}}, {"uniqueid": "w53710051:a99965550", "current_trial": 37, "dateTime": 1691072304016, "trialdata": {"revealed_states": [], "clicked_states": ["33", "29", "25", "3", "14", "31", "32"], "num_clicks_accrued": [0, 0, 0, 0, 0, 0, 0, 0, 0, 0, 0, 0, 0], "stateRewards": ["", 1, 1, -6, -2, 7, 77, 3, 16, -16, 66, 31, -1, 3, -8, -6, 33, -50, -48, 7, -60, -66, 36, 2, -3, 3, -7, -12, -61, -79, -4, 8, 74, -70], "withholdReward": false, "trial_id": "mdp_trial_29", "block": "test", "trialIndex": 30, "score": 60.55, "costs": -11.450000000000001, "simulationMode": [null, null, null, null, null], "rewards": [2, -3, 3, -4, 74], "path": ["0", "0", "23", "24", "25", "30", "32"], "rt": [21660, 26, 419, 191, 338], "actions": ["left", "left", "left", "down", "down"], "actionTimes": [24311, 24888, 26020, 26800, 27687], "queries": {"click": {"state": {"target": ["33", "29", "25", "3", "14", "31", "32"], "time": [4073, 8210, 12381, 13797, 15032, 16681, 20152]}, "edge": {"target": [], "time": []}}, "mouseover": {"state": {"target": ["30", "33", "30", "24", "23", "23", "24", "29", "24", "28", "24", "25", "10", "3", "3", "14", "31", "32", "24", "28"], "time": [3679, 3778, 5259, 7516, 7585, 7715, 7760, 7946, 9308, 10428, 11881, 12110, 13223, 13319, 13563, 14904, 16463, 19213, 21084, 21453]}, "edge": {"target": [], "time": []}}, "mouseout": {"state": {"target": ["0", "30", "33", "30", "24", "23", "23", "24", "29", "24", "28", "24", "25", "10", "3", "3", "14", "31", "32", "24", "28", "23"], "time": [3627, 3715, 5059, 7466, 7546, 7630, 7750, 7802, 9129, 10355, 11803, 12036, 13182, 13306, 13430, 14461, 16082, 19052, 20959, 21185, 30588, 30689]}, "edge": {"target": [], "time": []}}}, "displayed_time": "28.23", "trialTime": 31576, "trial_type": "mouselab-mdp", "trial_index": 37, "time_elapsed": 1351122, "internal_node_id": "0.0-4.0-1.0-28.0"}}, {"uniqueid": "w53710051:a99965550", "current_trial": 38, "dateTime": 1691072330180, "trialdata": {"revealed_states": [], "clicked_states": ["25", "3", "14", "21", "22"], "num_clicks_accrued": [0, 0, 0, 0, 0, 0, 0, 0, 0, 0, 0, 0, 0], "stateRewards": ["", -1, 2, -7, -12, -62, 12, -13, 5, 77, -71, 83, 1, -4, 7, 15, -42, -87, -4, 5, -25, 44, 88, -1, 4, -5, -8, 14, 51, 8, -5, 83, -24, -19], "withholdReward": false, "trial_id": "mdp_trial_30", "block": "test", "trialIndex": 31, "score": 89.85, "costs": -7.15, "simulationMode": [null, null, null, null, null], "rewards": [1, -4, 7, 5, 88], "path": ["0", "0", "12", "13", "14", "19", "22"], "rt": [15097, 206, 206, 161, 336], "actions": ["right", "right", "right", "down", "left"], "actionTimes": [17418, 18142, 18899, 19605, 20447], "queries": {"click": {"state": {"target": ["25", "3", "14", "21", "22"], "time": [4285, 5554, 7674, 9290, 12911]}, "edge": {"target": [], "time": []}}, "mouseover": {"state": {"target": ["24", "25", "28", "3", "13", "14", "21", "22", "19", "20"], "time": [3669, 3929, 5122, 5299, 6372, 7337, 9044, 10209, 13451, 13544]}, "edge": {"target": [], "time": []}}, "mouseout": {"state": {"target": ["0", "24", "25", "28", "3", "13", "14", "21", "22", "19", "20", "19", "22"], "time": [3607, 3724, 5058, 5170, 6135, 6425, 8754, 9893, 13435, 13500, 22600, 22718, 22785]}, "edge": {"target": [], "time": []}}}, "displayed_time": "20.99", "trialTime": 23626, "trial_type": "mouselab-mdp", "trial_index": 38, "time_elapsed": 1377287, "internal_node_id": "0.0-4.0-1.0-29.0"}}, {"uniqueid": "w53710051:a99965550", "current_trial": 39, "dateTime": 1691072358244, "trialdata": {"revealed_states": [], "clicked_states": ["3", "25", "14", "29", "27", "28"], "num_clicks_accrued": [0, 0, 0, 0, 0, 0, 0, 0, 0, 0, 0, 0, 0], "stateRewards": ["", 1, 2, -8, 9, 18, -83, -11, 6, -64, -48, 17, -2, -2, -5, -3, -24, -3, -86, -2, 48, -41, -22, -2, 4, 7, 8, 81, 13, -48, 10, 61, 19, 57], "withholdReward": false, "trial_id": "mdp_trial_31", "block": "test", "trialIndex": 32, "score": 88.7, "costs": -9.3, "simulationMode": [null, null, null, null, null], "rewards": [-2, 4, 7, 8, 81], "path": ["0", "0", "23", "24", "25", "26", "27"], "rt": [17033, 280, 374, 365, 161], "actions": ["left", "left", "left", "up", "up"], "actionTimes": [19389, 20197, 21198, 22074, 22775], "queries": {"click": {"state": {"target": ["3", "25", "14", "29", "27", "28"], "time": [4215, 5188, 6207, 8517, 12025, 15597]}, "edge": {"target": [], "time": []}}, "mouseover": {"state": {"target": ["2", "3", "25", "23", "14", "28", "26", "29", "27", "28"], "time": [3702, 3934, 4957, 5714, 5874, 7349, 7604, 8121, 9568, 13216]}, "edge": {"target": [], "time": []}}, "mouseout": {"state": {"target": ["0", "2", "3", "25", "23", "14", "28", "26", "29", "27", "28", "23"], "time": [3657, 3802, 4719, 5699, 5792, 7003, 7592, 8071, 9225, 13122, 24256, 24430]}, "edge": {"target": [], "time": []}}}, "displayed_time": "23.36", "trialTime": 25305, "trial_type": "mouselab-mdp", "trial_index": 39, "time_elapsed": 1405350, "internal_node_id": "0.0-4.0-1.0-30.0"}}, {"uniqueid": "w53710051:a99965550", "current_trial": 40, "dateTime": 1691072395700, "trialdata": {"revealed_states": [], "clicked_states": ["3", "25", "14", "27", "28", "29", "33", "32", "31"], "num_clicks_accrued": [0, 0, 0, 0, 0, 0, 0, 0, 0, 0, 0, 0, 0], "stateRewards": ["", 1, 1, 1, 15, -76, 52, -32, 14, -57, 37, 49, 1, -4, -3, 6, 83, -76, 25, 9, 36, -1, -17, -1, 4, 4, -2, -22, -21, 58, -15, -57, 49, -24], "withholdReward": false, "trial_id": "mdp_trial_32", "block": "test", "trialIndex": 33, "score": 47.25, "costs": -15.750000000000002, "simulationMode": [null, null, null, null, null], "rewards": [-1, 4, 4, -2, 58], "path": ["0", "0", "23", "24", "25", "26", "29"], "rt": [26345, 647, 350, 194, 124], "actions": ["left", "left", "left", "up", "left"], "actionTimes": [29125, 30303, 31179, 31915, 32554], "queries": {"click": {"state": {"target": ["3", "25", "14", "27", "28", "29", "33", "32", "31"], "time": [4081, 5036, 6072, 7928, 11196, 14745, 18650, 22202, 25543]}, "edge": {"target": [], "time": []}}, "mouseover": {"state": {"target": ["1", "2", "3", "25", "23", "14", "28", "27", "28", "29", "33", "32", "31"], "time": [3664, 3737, 3784, 4843, 5533, 5868, 6913, 7398, 8798, 11824, 16186, 19693, 23007]}, "edge": {"target": [], "time": []}}, "mouseout": {"state": {"target": ["0", "1", "2", "3", "25", "23", "14", "28", "27", "28", "29", "33", "32"], "time": [3597, 3695, 3777, 4461, 5512, 5585, 6730, 6951, 8684, 11701, 15723, 19586, 22856]}, "edge": {"target": [], "time": []}}}, "displayed_time": "33.10", "trialTime": 34606, "trial_type": "mouselab-mdp", "trial_index": 40, "time_elapsed": 1442807, "internal_node_id": "0.0-4.0-1.0-31.0"}}, {"uniqueid": "w53710051:a99965550", "current_trial": 41, "dateTime": 1691072431218, "trialdata": {"revealed_states": [], "clicked_states": ["3", "25", "14", "6", "5", "7", "10", "11", "9"], "num_clicks_accrued": [0, 0, 0, 0, 0, 0, 0, 0, 0, 0, 0, 0, 0], "stateRewards": ["", -2, -1, -3, -1, -78, -6, 2, -1, 22, -88, 32, 2, 2, -7, -8, -51, -17, 54, 2, -44, 54, 75, 2, -2, -8, -15, -29, 12, -67, 15, -1, -47, -47], "withholdReward": false, "trial_id": "mdp_trial_33", "block": "test", "trialIndex": 34, "score": 9.25, "costs": -15.750000000000002, "simulationMode": [null, null, null, null, null], "rewards": [-2, -1, -3, -1, 32], "path": ["0", "0", "1", "2", "3", "8", "11"], "rt": [25538, 29, 192, 55, 205], "actions": ["up", "up", "up", "left", "left"], "actionTimes": [27568, 28106, 28826, 29433, 30158], "queries": {"click": {"state": {"target": ["3", "25", "14", "6", "5", "7", "10", "11", "9"], "time": [3507, 4501, 5808, 7356, 10749, 13985, 17328, 20694, 24106]}, "edge": {"target": [], "time": []}}, "mouseover": {"state": {"target": ["1", "2", "3", "25", "24", "12", "13", "14", "6", "5", "4", "7", "2", "10", "10", "11", "9"], "time": [2879, 2936, 3274, 4360, 4978, 5078, 5193, 5508, 7071, 9226, 11533, 11698, 14923, 15108, 15185, 18261, 21672]}, "edge": {"target": [], "time": []}}, "mouseout": {"state": {"target": ["31", "0", "1", "2", "3", "25", "24", "12", "13", "14", "6", "5", "4", "7", "2", "10", "10", "11"], "time": [450, 2825, 2925, 2969, 4107, 4961, 5027, 5120, 5392, 6653, 8761, 11507, 11645, 14909, 14965, 15149, 18168, 20796]}, "edge": {"target": [], "time": []}}}, "displayed_time": "30.68", "trialTime": 33134, "trial_type": "mouselab-mdp", "trial_index": 41, "time_elapsed": 1478325, "internal_node_id": "0.0-4.0-1.0-32.0"}}, {"uniqueid": "w53710051:a99965550", "current_trial": 42, "dateTime": 1691072457544, "trialdata": {"revealed_states": [], "clicked_states": ["3", "25", "14", "32", "33", "31"], "num_clicks_accrued": [0, 0, 0, 0, 0, 0, 0, 0, 0, 0, 0, 0, 0], "stateRewards": ["", -2, -3, 1, -14, 48, -49, 67, -1, -35, -48, 3, -2, 1, -4, -5, 86, -84, 39, 1, 48, 41, -42, -1, -4, 2, -7, 18, -86, 17, 7, -9, 57, -69], "withholdReward": false, "trial_id": "mdp_trial_34", "block": "test", "trialIndex": 35, "score": 51.7, "costs": -9.3, "simulationMode": [null, null, null, null, null], "rewards": [-1, -4, 2, 7, 57], "path": ["0", "0", "23", "24", "25", "30", "32"], "rt": [16101, 161, 195, 490, 230], "actions": ["left", "left", "left", "down", "down"], "actionTimes": [18709, 19383, 20081, 21104, 21887], "queries": {"click": {"state": {"target": ["3", "25", "14", "32", "33", "31"], "time": [3626, 4551, 5775, 7899, 11299, 14700]}, "edge": {"target": [], "time": []}}, "mouseover": {"state": {"target": ["2", "3", "10", "24", "25", "24", "14", "23", "30", "32", "33", "30", "31"], "time": [2643, 3384, 3982, 4114, 4292, 5056, 5599, 6951, 7371, 7627, 8717, 11991, 12076]}, "edge": {"target": [], "time": []}}, "mouseout": {"state": {"target": ["9", "10", "1", "2", "3", "3", "10", "24", "25", "24", "14", "23", "30", "32", "33", "30", "31"], "time": [975, 1015, 1115, 3331, 3713, 3962, 4069, 4156, 5033, 5149, 6937, 6993, 7554, 8652, 11937, 12036, 16981]}, "edge": {"target": [], "time": []}}}, "displayed_time": "22.40", "trialTime": 23816, "trial_type": "mouselab-mdp", "trial_index": 42, "time_elapsed": 1504651, "internal_node_id": "0.0-4.0-1.0-33.0"}}, {"uniqueid": "w53710051:a99965550", "current_trial": 43, "dateTime": 1691072478965, "trialdata": {"revealed_states": [], "clicked_states": ["3", "25", "14", "6"], "num_clicks_accrued": [0, 0, 0, 0, 0, 0, 0, 0, 0, 0, 0, 0, 0], "stateRewards": ["", -1, -2, -1, -10, -57, 73, -72, -16, 75, -14, -46, -2, -3, -7, -1, -61, -60, 76, -4, 50, 4, 14, 2, 2, -7, 12, -65, -32, 15, -8, -76, -25, -61], "withholdReward": false, "trial_id": "mdp_trial_35", "block": "test", "trialIndex": 36, "score": 54, "costs": -5, "simulationMode": [null, null, null, null, null], "rewards": [-1, -2, -1, -10, 73], "path": ["0", "0", "1", "2", "3", "4", "6"], "rt": [9273, 38, 274, 441, 225], "actions": ["up", "up", "up", "right", "right"], "actionTimes": [12015, 12591, 13421, 14405, 15150], "queries": {"click": {"state": {"target": ["3", "25", "14", "6"], "time": [3949, 4779, 5783, 7573]}, "edge": {"target": [], "time": []}}, "mouseover": {"state": {"target": ["1", "2", "3", "25", "24", "12", "13", "14", "18", "6", "7"], "time": [3433, 3483, 3686, 4417, 5224, 5336, 5386, 5575, 6722, 7222, 8445]}, "edge": {"target": [], "time": []}}, "mouseout": {"state": {"target": ["0", "1", "2", "3", "25", "24", "12", "13", "14", "18", "6"], "time": [1236, 3472, 3536, 4219, 5212, 5299, 5377, 5458, 6671, 6780, 8360]}, "edge": {"target": [], "time": []}}}, "displayed_time": "16.75", "trialTime": 18415, "trial_type": "mouselab-mdp", "trial_index": 43, "time_elapsed": 1526070, "internal_node_id": "0.0-4.0-1.0-34.0"}}, {"uniqueid": "w53710051:a99965550", "current_trial": 44, "dateTime": 1691072506847, "trialdata": {"revealed_states": [], "clicked_states": ["3", "25", "14", "6", "5", "7"], "num_clicks_accrued": [0, 0, 0, 0, 0, 0, 0, 0, 0, 0, 0, 0, 0], "stateRewards": ["", -2, -1, 3, -3, 71, -58, -21, 7, -10, -75, -37, 2, 4, -1, -12, -79, -29, -48, 3, -41, -10, -30, -1, -2, 1, -15, 13, 66, 22, -1, -42, -86, -55], "withholdReward": false, "trial_id": "mdp_trial_36", "block": "test", "trialIndex": 37, "score": 58.7, "costs": -9.3, "simulationMode": [null, null, null, null, null], "rewards": [-2, -1, 3, -3, 71], "path": ["0", "0", "1", "2", "3", "4", "5"], "rt": [16492, 627, 126, 833, 551], "actions": ["up", "up", "up", "right", "up"], "actionTimes": [18700, 19886, 20580, 21946, 23009], "queries": {"click": {"state": {"target": ["3", "25", "14", "6", "5", "7"], "time": [3331, 4399, 5472, 6968, 10581, 14707]}, "edge": {"target": [], "time": []}}, "mouseover": {"state": {"target": ["1", "2", "3", "24", "25", "24", "13", "14", "6", "5", "4", "7"], "time": [2744, 2785, 2948, 4017, 4212, 4835, 4965, 5263, 6695, 7701, 11250, 11338]}, "edge": {"target": [], "time": []}}, "mouseout": {"state": {"target": ["7", "1", "0", "1", "2", "3", "24", "25", "24", "13", "14", "6", "5", "4", "7", "7"], "time": [638, 684, 2698, 2779, 2832, 3894, 4068, 4815, 4887, 5187, 5551, 7065, 11237, 11296, 16683, 18123]}, "edge": {"target": [], "time": []}}}, "displayed_time": "23.53", "trialTime": 25490, "trial_type": "mouselab-mdp", "trial_index": 44, "time_elapsed": 1553954, "internal_node_id": "0.0-4.0-1.0-35.0"}}, {"uniqueid": "w53710051:a99965550", "current_trial": 45, "dateTime": 1691072531755, "trialdata": {"revealed_states": [], "clicked_states": ["3", "14", "25", "11", "10", "9"], "num_clicks_accrued": [0, 0, 0, 0, 0, 0, 0, 0, 0, 0, 0, 0, 0], "stateRewards": ["", -1, -3, -3, 1, -38, 2, -53, -2, -1, -81, 70, -1, 1, -5, -9, 46, 15, 35, -1, -22, 38, 59, -2, 4, -8, 13, 1, -83, -43, 4, 76, 13, 48], "withholdReward": false, "trial_id": "mdp_trial_37", "block": "test", "trialIndex": 38, "score": 51.7, "costs": -9.3, "simulationMode": [null, null, null, null, null], "rewards": [-1, -3, -3, -2, 70], "path": ["0", "0", "1", "2", "3", "8", "11"], "rt": [15313, 143, 173, 72, 145], "actions": ["up", "up", "up", "left", "left"], "actionTimes": [17400, 18077, 18769, 19355, 20056], "queries": {"click": {"state": {"target": ["3", "14", "25", "11", "10", "9"], "time": [3118, 4169, 5121, 6729, 10568, 13931]}, "edge": {"target": [], "time": []}}, "mouseover": {"state": {"target": ["1", "2", "3", "18", "14", "23", "24", "25", "11", "10", "8", "9"], "time": [2360, 2773, 2866, 3696, 3949, 4600, 4797, 4919, 6503, 7779, 11306, 11533]}, "edge": {"target": [], "time": []}}, "mouseout": {"state": {"target": ["1", "1", "2", "3", "18", "14", "23", "24", "25", "25", "11", "10", "8"], "time": [537, 2730, 2821, 3597, 3770, 4462, 4684, 4876, 5202, 6006, 7582, 11205, 11383]}, "edge": {"target": [], "time": []}}}, "displayed_time": "20.56", "trialTime": 21984, "trial_type": "mouselab-mdp", "trial_index": 45, "time_elapsed": 1578862, "internal_node_id": "0.0-4.0-1.0-36.0"}}, {"uniqueid": "w53710051:a99965550", "current_trial": 46, "dateTime": 1691072562041, "trialdata": {"revealed_states": [], "clicked_states": ["3", "25", "14", "21", "20", "22"], "num_clicks_accrued": [0, 0, 0, 0, 0, 0, 0, 0, 0, 0, 0, 0, 0], "stateRewards": ["", 1, -1, 4, -2, -75, -75, 84, -9, -60, -79, 59, 2, -4, 8, 9, -17, -82, 80, 14, -4, 49, 49, -1, 3, 6, -11, -33, 34, 55, 9, -57, 5, 59], "withholdReward": false, "trial_id": "mdp_trial_38", "block": "test", "trialIndex": 39, "score": 59.7, "costs": -9.3, "simulationMode": [null, null, null, null, null], "rewards": [2, -4, 8, 14, 49], "path": ["0", "0", "12", "13", "14", "19", "21"], "rt": [16672, 108, 301, 307, 339], "actions": ["right", "right", "right", "down", "down"], "actionTimes": [19728, 20373, 21445, 22275, 23125], "queries": {"click": {"state": {"target": ["3", "25", "14", "21", "20", "22"], "time": [4083, 5098, 6217, 7717, 11316, 14747]}, "edge": {"target": [], "time": []}}, "mouseover": {"state": {"target": ["1", "2", "3", "25", "24", "14", "19", "21", "20", "19", "22"], "time": [3532, 3649, 3837, 4902, 5562, 5956, 7088, 7323, 8852, 11923, 12011]}, "edge": {"target": [], "time": []}}, "mouseout": {"state": {"target": ["1", "1", "2", "3", "25", "24", "14", "19", "21", "20", "19"], "time": [749, 3600, 3749, 4501, 5527, 5647, 6502, 7215, 8723, 11868, 11970]}, "edge": {"target": [], "time": []}}}, "displayed_time": "23.67", "trialTime": 25009, "trial_type": "mouselab-mdp", "trial_index": 46, "time_elapsed": 1609148, "internal_node_id": "0.0-4.0-1.0-37.0"}}, {"uniqueid": "w53710051:a99965550", "current_trial": 47, "dateTime": 1691072592267, "trialdata": {"revealed_states": [], "clicked_states": ["3", "25", "14", "32", "33", "31", "27"], "num_clicks_accrued": [0, 0, 0, 0, 0, 0, 0, 0, 0, 0, 0, 0, 0], "stateRewards": ["", -1, 2, -6, 6, 43, 78, 78, -2, 55, -29, -17, -2, -4, 1, -15, 13, 7, -79, 8, -28, -68, 36, -1, -3, 3, -16, 84, -18, 87, 10, 32, 13, -81], "withholdReward": false, "trial_id": "mdp_trial_39", "block": "test", "trialIndex": 40, "score": 55.55, "costs": -11.450000000000001, "simulationMode": [null, null, null, null, null], "rewards": [-1, -3, 3, -16, 84], "path": ["0", "0", "23", "24", "25", "26", "27"], "rt": [20067, 18, 135, 431, 91], "actions": ["left", "left", "left", "up", "up"], "actionTimes": [23022, 23555, 24234, 25195, 25817], "queries": {"click": {"state": {"target": ["3", "25", "14", "32", "33", "31", "27"], "time": [4024, 5321, 6328, 8345, 11607, 14998, 19034]}, "edge": {"target": [], "time": []}}, "mouseover": {"state": {"target": ["3", "25", "12", "14", "31", "30", "32", "33", "30", "31", "27", "29"], "time": [3667, 4831, 5897, 6074, 7724, 7867, 8070, 9578, 12314, 14487, 17562, 20858]}, "edge": {"target": [], "time": []}}, "mouseout": {"state": {"target": ["22", "0", "3", "3", "25", "12", "14", "31", "30", "32", "33", "30", "31", "27"], "time": [686, 3000, 4158, 4674, 5847, 5952, 7053, 7780, 7906, 9451, 12255, 12428, 17368, 20625]}, "edge": {"target": [], "time": []}}}, "displayed_time": "26.35", "trialTime": 27334, "trial_type": "mouselab-mdp", "trial_index": 47, "time_elapsed": 1639374, "internal_node_id": "0.0-4.0-1.0-38.0"}}, {"uniqueid": "w53710051:a99965550", "current_trial": 48, "dateTime": 1691072617901, "trialdata": {"revealed_states": [], "clicked_states": ["3", "25", "14", "6"], "num_clicks_accrued": [0, 0, 0, 0, 0, 0, 0, 0, 0, 0, 0, 0, 0], "stateRewards": ["", -1, -1, 4, -16, -75, 81, -51, -7, -84, 73, -30, -2, 1, -3, -16, -77, 33, 14, 1, 45, 87, -66, 2, 2, -5, -7, -19, -17, 79, -3, 8, 49, 47], "withholdReward": false, "trial_id": "mdp_trial_40", "block": "test", "trialIndex": 41, "score": 62, "costs": -5, "simulationMode": [null, null, null, null, null], "rewards": [-1, -1, 4, -16, 81], "path": ["0", "0", "1", "2", "3", "4", "6"], "rt": [8939, 96, 134, 241, 139], "actions": ["up", "up", "up", "right", "right"], "actionTimes": [12303, 12916, 13611, 14384, 15055], "queries": {"click": {"state": {"target": ["3", "25", "14", "6"], "time": [4626, 5719, 6944, 8318]}, "edge": {"target": [], "time": []}}, "mouseover": {"state": {"target": ["2", "3", "28", "25", "14", "6", "7"], "time": [3532, 4292, 5286, 5461, 6448, 7990, 9523]}, "edge": {"target": [], "time": []}}, "mouseout": {"state": {"target": ["29", "26", "28", "0", "2", "3", "3", "28", "25", "14", "6"], "time": [144, 194, 241, 3498, 3632, 4720, 5279, 5328, 5799, 7745, 9431]}, "edge": {"target": [], "time": []}}}, "displayed_time": "17.37", "trialTime": 22838, "trial_type": "mouselab-mdp", "trial_index": 48, "time_elapsed": 1665008, "internal_node_id": "0.0-4.0-1.0-39.0"}}, {"uniqueid": "w53710051:a99965550", "current_trial": 49, "dateTime": 1691072682488, "trialdata": {"rt": 64563, "response": {"Q0": "$-2 to $2", "Q1": "$-32 to $32", "Q2": "$-88 to $88", "Q3": "The cost for clicking on nodes varied between nodes.", "Q4": "Slightly motivated"}, "question_order": [0, 1, 2, 3, 4], "trial_id": "final_quiz_control", "trial_type": "survey-multi-choice", "trial_index": 49, "time_elapsed": 1729595, "internal_node_id": "0.0-4.0-2.0"}}, {"uniqueid": "w53710051:a99965550", "current_trial": 50, "dateTime": 1691072849347, "trialdata": {"rt": 166823, "response": {"Q0": "I always clicked on the third level nodes, then chose a path based on the highest score. I repeated this step with the fourth and fifth level nodes.", "Q1": "I tried working inwards once but felt I was wasting money as the outer nodes cost more to reveal. Once I figured out there were no amounts above 88, if I found an end node high enough I'd stop clicking nodes.", "Q2": "I found it difficult to remember the values of nodes from different branches, so if the end level nodes were too low value I couldn't go back to a different path knowing what the previous level nodes were."}, "trial_id": "self_report_control", "trial_type": "survey-text", "trial_index": 50, "time_elapsed": 1896455, "internal_node_id": "0.0-4.0-3.0"}}, {"uniqueid": "w53710051:a99965550", "current_trial": 51, "dateTime": 1691072891236, "trialdata": {"rt": 41870, "response": {"Q0": "Strongly disagree", "Q1": "Strongly disagree", "Q2": "Strongly disagree", "Q3": "Strongly disagree", "Q4": "Strongly disagree", "Q5": "Strongly disagree", "Q6": "Strongly disagree"}, "question_order": [0, 1, 2, 3, 4, 5, 6], "trial_id": "self_report_2", "trial_type": "survey-multi-choice", "trial_index": 51, "time_elapsed": 1938344, "internal_node_id": "0.0-4.0-4.0"}}, {"uniqueid": "w53710051:a99965550", "current_trial": 52, "dateTime": 1691072915206, "trialdata": {"rt": 23940, "response": {"gender": "female", "age": "31", "colorblind": "0", "effort": "0"}, "trial_type": "survey-html-form", "trial_index": 52, "time_elapsed": 1962314, "internal_node_id": "0.0-4.0-5.0"}}, {"uniqueid": "w53710051:a99965550", "current_trial": 53, "dateTime": 1691072940245, "trialdata": {"rt": 24954, "response": {"Q0": "No", "Q1": "No", "Q2": ""}, "trial_type": "survey-text", "trial_index": 53, "time_elapsed": 1987353, "internal_node_id": "0.0-4.0-6.0"}}, {"uniqueid": "w53710051:a99965550", "current_trial": 54, "dateTime": 1691072942525, "trialdata": {"rt": 2262, "stimulus": "Press 'Finish HIT' in order to reach the completion code. Once the data has been saved, you will receive the code either in this window or in the original browser window where you started the experiment.\n", "response": 0, "trial_type": "html-button-response", "trial_index": 54, "time_elapsed": 1989633, "internal_node_id": "0.0-5.0"}}, {"uniqueid": "w53710051:a99965550", "current_trial": 55, "dateTime": 1691072943537, "trialdata": {"success": true, "trial_type": "fullscreen", "trial_index": 55, "time_elapsed": 1990645, "internal_node_id": "0.0-6.0"}}], "questiondata": {"params": {"CODE": "C6DMOQA6", "MIN_TIME": 14, "inspectCost": 1, "startTime": "Thu Aug 03 2023 15:55:50 GMT+0200 (South Africa Standard Time)", "bonusRate": 0.002, "variance": "1_2_4_8_44", "branching": "31123"}, "final_score": 1996.55}, "eventdata": [{"eventtype": "initialized", "value": null, "timestamp": 1691070949836, "interval": 0}, {"eventtype": "window_resize", "value": [1366, 670], "timestamp": 1691070949837, "interval": 1}, {"eventtype": "window_resize", "value": [1366, 670], "timestamp": 1691070950366, "interval": 529}, {"eventtype": "window_resize", "value": [1366, 768], "timestamp": 1691070957963, "interval": 7597}, {"eventtype": "window_resize", "value": [1366, 670], "timestamp": 1691072943075, "interval": 1985112}], "useragent": "Mozilla/5.0 (Windows NT 10.0; Win64; x64) AppleWebKit/537.36 (KHTML, like Gecko) Chrome/115.0.0.0 Safari/537.36", "mode": "live", "id": "w53710051:a99965550", "status": "user data saved", "Beginhit": "2023-08-03 13:55:46.496267", "Beginexp": "2023-08-03 13:55:59.294187", "Endhit": "2023-08-03 14:29:05.048759", "psiturkStatus": 3, "browser": "<redacted>", "platform": "windows", "language": "en-GB"}