{"condition": 1, "counterbalance": 0, "assignmentId": "a96116816", "workerId": "w90817480", "hitId": "h47506084", "currenttrial": 68, "bonus": 0, "data": [{"uniqueid": "w90817480:a96116816", "current_trial": 0, "dateTime": 1693568309252, "trialdata": {"success": true, "trial_type": "fullscreen", "trial_index": 0, "time_elapsed": 11229, "internal_node_id": "0.0-0.0"}}, {"uniqueid": "w90817480:a96116816", "current_trial": 1, "dateTime": 1693568344506, "trialdata": {"view_history": [{"page_index": 0, "viewing_time": 35245}], "rt": 35247, "trial_id": "exp_instructions_misaligned", "trial_type": "instructions", "trial_index": 1, "time_elapsed": 46484, "internal_node_id": "0.0-1.0"}}, {"uniqueid": "w90817480:a96116816", "current_trial": 2, "dateTime": 1693568773492, "trialdata": {"view_history": [{"page_index": 0, "viewing_time": 133475}, {"page_index": 1, "viewing_time": 35831}, {"page_index": 0, "viewing_time": 28320}, {"page_index": 1, "viewing_time": 104976}, {"page_index": 2, "viewing_time": 32801}, {"page_index": 3, "viewing_time": 93575}], "rt": 428981, "trial_id": "mouselab_instructions_1_misaligned", "trial_type": "instructions", "trial_index": 2, "time_elapsed": 475469, "internal_node_id": "0.0-2.0-1.0"}}, {"uniqueid": "w90817480:a96116816", "current_trial": 3, "dateTime": 1693568870243, "trialdata": {"revealed_states": [], "clicked_states": ["1", "2", "12", "23", "30", "28", "3", "8", "10", "11", "4", "6", "15", "24", "32", "31", "33"], "num_clicks_accrued": [0, 0, 0, 0, 0, 0, 0, 0, 0, 0, 0, 0, 0], "stateRewards": ["", 10, -10, 10, 10, -10, 10, 10, 10, -10, 10, 10, -10, -10, -10, -10, 10, -10, 10, 10, 10, -10, 10, 10, 10, 10, 10, 10, -10, 10, -10, -10, 10, 10], "withholdReward": false, "trial_id": "practice_1", "block": "test", "trialIndex": 0, "score": 25, "costs": -8.5, "simulationMode": [null, null, null, null, null], "rewards": [10, -10, 10, 10, 10], "path": ["0", "0", "1", "2", "3", "4", "7"], "rt": [75439, 3198, 499, 1042, 1005], "actions": ["up", "up", "up", "right", "down"], "actionTimes": [80117, 83837, 84851, 86410, 87938], "queries": {"click": {"state": {"target": ["1", "2", "12", "23", "30", "28", "3", "8", "10", "11", "4", "6", "15", "24", "32", "31", "33"], "time": [12520, 15647, 24264, 25812, 27890, 29357, 36906, 37964, 39029, 40459, 42301, 44450, 45698, 50338, 54990, 56043, 63297]}, "edge": {"target": [], "time": []}}, "mouseover": {"state": {"target": ["1", "12", "2", "12", "0", "23", "24", "30", "25", "26", "28", "8", "8", "2", "1", "0", "1", "1", "2", "3", "8", "10", "11", "9", "4", "7", "6", "18", "15", "14", "13", "12", "0", "1", "23", "24", "25", "31", "30", "32", "31", "24", "23", "30", "31", "30", "31", "30", "33", "30", "30", "30", "23", "0", "0", "1", "1", "1", "1", "0", "23"], "time": [8774, 14736, 15333, 19079, 25373, 25655, 27182, 27687, 28498, 28640, 29246, 30071, 30494, 31158, 31223, 33608, 34087, 34422, 36030, 36802, 37845, 38430, 40272, 41015, 42207, 42975, 44158, 45182, 45341, 46143, 46612, 46816, 47831, 48830, 49807, 50056, 50912, 51792, 52830, 54775, 55817, 57911, 58014, 59857, 60381, 61286, 62415, 63024, 63118, 64576, 65327, 65871, 67414, 68381, 69271, 70030, 71008, 72702, 73102, 73173, 74479]}, "edge": {"target": [], "time": []}}, "mouseout": {"state": {"target": ["12", "2", "1", "0", "1", "12", "1", "2", "12", "0", "23", "24", "30", "25", "26", "28", "8", "8", "2", "1", "0", "1", "1", "2", "3", "3", "8", "10", "3", "3", "8", "11", "9", "4", "7", "6", "18", "15", "14", "13", "12", "0", "1", "23", "24", "25", "31", "24", "30", "32", "31", "24", "23", "30", "31", "30", "31", "30", "33", "30", "30", "30", "33", "23", "0", "0", "1", "1", "1", "1", "0", "23"], "time": [null, 110, 1022, 8286, 12993, 15088, 15247, 16530, 25265, 25494, 27128, 27367, 27966, 28582, 29181, 29750, 30303, 30541, 31182, 31278, 33928, 34167, 35799, 36544, 37352, 37742, 38352, 39093, 39342, 40043, 40167, 40859, 41822, 42899, 43967, 44959, 45293, 46090, 46591, 46743, 47591, 48542, 49767, 49831, 50805, 51608, 51855, 52319, 54709, 55087, 57734, 57928, 59853, 60255, 61230, 62369, 62998, 63049, 64536, 64656, 65455, 65991, 67054, 67887, 68407, 69510, 70177, 71056, 72783, 73142, 73183, 75015]}, "edge": {"target": [], "time": []}}}, "displayed_time": "88.45", "trialTime": 95859, "trial_type": "mouselab-mdp", "trial_index": 3, "time_elapsed": 572221, "internal_node_id": "0.0-2.0-2.0-0.0"}}, {"uniqueid": "w90817480:a96116816", "current_trial": 4, "dateTime": 1693568892067, "trialdata": {"revealed_states": [], "clicked_states": ["1", "2"], "num_clicks_accrued": [0, 0, 0, 0, 0, 0, 0, 0, 0, 0, 0, 0, 0], "stateRewards": ["", 10, -10, -10, 10, -10, 10, 10, -10, -10, -10, 10, 10, 10, 10, 10, -10, -10, 10, -10, -10, 10, 10, -10, -10, 10, -10, 10, 10, 10, 10, -10, 10, 10], "withholdReward": false, "trial_id": "practice_2", "block": "test", "trialIndex": 1, "score": -27.5, "costs": -1, "simulationMode": [null, null, null, null, null], "rewards": [10, -10, -10, -10, -10], "path": ["0", "0", "1", "2", "3", "8", "10"], "rt": [8365, 848, 1195, 367, 173], "actions": ["up", "up", "up", "left", "down"], "actionTimes": [11934, 13302, 15013, 15901, 16590], "queries": {"click": {"state": {"target": ["1", "2"], "time": [5612, 6934]}, "edge": {"target": [], "time": []}}, "mouseover": {"state": {"target": ["13", "1", "2", "3"], "time": [3591, 5161, 6514, 7731]}, "edge": {"target": [], "time": []}}, "mouseout": {"state": {"target": ["0", "13", "1", "2"], "time": [3589, 4873, 6236, 7545]}, "edge": {"target": [], "time": []}}}, "displayed_time": "17.10", "trialTime": 21398, "trial_type": "mouselab-mdp", "trial_index": 4, "time_elapsed": 594044, "internal_node_id": "0.0-2.0-2.0-1.0"}}, {"uniqueid": "w90817480:a96116816", "current_trial": 5, "dateTime": 1693568968513, "trialdata": {"view_history": [{"page_index": 0, "viewing_time": 61641}, {"page_index": 1, "viewing_time": 14799}], "rt": 76441, "trial_id": "mouselab_instructions_2_misaligned", "trial_type": "instructions", "trial_index": 5, "time_elapsed": 670491, "internal_node_id": "0.0-2.0-3.0"}}, {"uniqueid": "w90817480:a96116816", "current_trial": 6, "dateTime": 1693569056635, "trialdata": {"rt": 88114, "response": {"Q0": "The cost for clicking on nodes may vary between nodes.", "Q1": "The better I perform the higher my bonus will be.", "Q2": "No, the amount of cash at each node of the web may be different each time.", "Q3": "To get the highest total score.", "Q4": "Any time during the round.", "Q5": "3 seconds"}, "question_order": [0, 1, 2, 3, 4, 5], "correct": {"Q0": "The cost for clicking on nodes may vary between nodes.", "Q1": "The better I perform the higher my bonus will be.", "Q2": "No, the amount of cash at each node of the web may be different each time.", "Q3": "To get the highest total score.", "Q4": "Only before moving the spider.", "Q5": "3 seconds"}, "trial_id": "mouselab_quiz_misaligned", "trial_type": "survey-multi-choice", "trial_index": 6, "time_elapsed": 758613, "internal_node_id": "0.0-2.0-4.0"}}, {"uniqueid": "w90817480:a96116816", "current_trial": 7, "dateTime": 1693569070431, "trialdata": {"success": true, "trial_type": "fullscreen", "trial_index": 7, "time_elapsed": 772409, "internal_node_id": "0.0-2.1-0.1-0.1"}}, {"uniqueid": "w90817480:a96116816", "current_trial": 8, "dateTime": 1693569186297, "trialdata": {"view_history": [{"page_index": 0, "viewing_time": 86945}, {"page_index": 1, "viewing_time": 10828}, {"page_index": 2, "viewing_time": 9280}, {"page_index": 3, "viewing_time": 8808}], "rt": 115862, "trial_id": "mouselab_instructions_1_misaligned", "trial_type": "instructions", "trial_index": 8, "time_elapsed": 888275, "internal_node_id": "0.0-2.1-1.1"}}, {"uniqueid": "w90817480:a96116816", "current_trial": 9, "dateTime": 1693569207898, "trialdata": {"revealed_states": [], "clicked_states": ["1", "2", "3", "4", "7"], "num_clicks_accrued": [0, 0, 0, 0, 0, 0, 0, 0, 0, 0, 0, 0, 0], "stateRewards": ["", 10, -10, 10, 10, -10, 10, 10, 10, -10, 10, 10, -10, -10, -10, -10, 10, -10, 10, 10, 10, -10, 10, 10, 10, 10, 10, 10, -10, 10, -10, -10, 10, 10], "withholdReward": false, "trial_id": "practice_1", "block": "test", "trialIndex": 2, "score": 31, "costs": -2.5, "simulationMode": [null, null, null, null, null], "rewards": [10, -10, 10, 10, 10], "path": ["0", "0", "1", "2", "3", "4", "7"], "rt": [12181, 122, 67, 2, 79], "actions": ["up", "up", "up", "right", "down"], "actionTimes": [15735, 16373, 16965, 17489, 18117], "queries": {"click": {"state": {"target": ["1", "2", "3", "4", "7"], "time": [5486, 6909, 8446, 9837, 11205]}, "edge": {"target": [], "time": []}}, "mouseover": {"state": {"target": ["1", "2", "3", "4", "7", "0", "0"], "time": [5169, 6025, 7321, 9228, 10305, 13154, 14276]}, "edge": {"target": [], "time": []}}, "mouseout": {"state": {"target": ["22", "22", "12", "0", "1", "2", "3", "4", "7", "0", "0"], "time": [561, 825, 1321, 5065, 5823, 7202, 8904, 10237, 13001, 13211, 14635]}, "edge": {"target": [], "time": []}}}, "displayed_time": "18.64", "trialTime": 21133, "trial_type": "mouselab-mdp", "trial_index": 9, "time_elapsed": 909875, "internal_node_id": "0.0-2.1-2.1-0.1"}}, {"uniqueid": "w90817480:a96116816", "current_trial": 10, "dateTime": 1693569226523, "trialdata": {"revealed_states": [], "clicked_states": ["1", "23", "24", "25"], "num_clicks_accrued": [0, 0, 0, 0, 0, 0, 0, 0, 0, 0, 0, 0, 0], "stateRewards": ["", 10, -10, -10, 10, -10, 10, 10, -10, -10, -10, 10, 10, 10, 10, 10, -10, -10, 10, -10, -10, 10, 10, -10, -10, 10, -10, 10, 10, 10, 10, -10, 10, 10], "withholdReward": false, "trial_id": "practice_2", "block": "test", "trialIndex": 3, "score": 31.5, "costs": -2, "simulationMode": [null, null, null, null, null], "rewards": [10, 10, 10, 10, -10], "path": ["0", "0", "12", "13", "14", "15", "16"], "rt": [10906, 125, 22, 2, 10], "actions": ["right", "right", "right", "up", "up"], "actionTimes": [12583, 13222, 13766, 14284, 14823], "queries": {"click": {"state": {"target": ["1", "23", "24", "25"], "time": [3772, 4989, 6151, 7350]}, "edge": {"target": [], "time": []}}, "mouseover": {"state": {"target": ["1", "23", "24", "25", "2", "12"], "time": [3553, 4459, 5352, 7195, 8865, 9593]}, "edge": {"target": [], "time": []}}, "mouseout": {"state": {"target": ["0", "0", "0", "1", "23", "24", "25", "24", "2", "12"], "time": [521, 616, 1785, 4421, 5289, 7035, 8169, 8570, 9338, 10482]}, "edge": {"target": [], "time": []}}}, "displayed_time": "15.36", "trialTime": 18214, "trial_type": "mouselab-mdp", "trial_index": 10, "time_elapsed": 928500, "internal_node_id": "0.0-2.1-2.1-1.1"}}, {"uniqueid": "w90817480:a96116816", "current_trial": 11, "dateTime": 1693569232217, "trialdata": {"view_history": [{"page_index": 0, "viewing_time": 4234}, {"page_index": 1, "viewing_time": 1455}], "rt": 5690, "trial_id": "mouselab_instructions_2_misaligned", "trial_type": "instructions", "trial_index": 11, "time_elapsed": 934195, "internal_node_id": "0.0-2.1-3.1"}}, {"uniqueid": "w90817480:a96116816", "current_trial": 12, "dateTime": 1693569381661, "trialdata": {"rt": 149437, "response": {"Q0": "The cost for clicking on nodes may vary between nodes.", "Q1": "The better I perform the higher my bonus will be.", "Q2": "No, the amount of cash at each node of the web may be different each time.", "Q3": "To click on the least number of nodes.", "Q4": "Only before moving the spider.", "Q5": "3 seconds"}, "question_order": [0, 1, 2, 3, 4, 5], "correct": {"Q0": "The cost for clicking on nodes may vary between nodes.", "Q1": "The better I perform the higher my bonus will be.", "Q2": "No, the amount of cash at each node of the web may be different each time.", "Q3": "To get the highest total score.", "Q4": "Only before moving the spider.", "Q5": "3 seconds"}, "trial_id": "mouselab_quiz_misaligned", "trial_type": "survey-multi-choice", "trial_index": 12, "time_elapsed": 1083639, "internal_node_id": "0.0-2.1-4.1"}}, {"uniqueid": "w90817480:a96116816", "current_trial": 13, "dateTime": 1693569393363, "trialdata": {"success": true, "trial_type": "fullscreen", "trial_index": 13, "time_elapsed": 1095341, "internal_node_id": "0.0-2.2-0.2-0.2"}}, {"uniqueid": "w90817480:a96116816", "current_trial": 14, "dateTime": 1693569451873, "trialdata": {"view_history": [{"page_index": 0, "viewing_time": 10546}, {"page_index": 1, "viewing_time": 20031}, {"page_index": 2, "viewing_time": 12160}, {"page_index": 3, "viewing_time": 15768}], "rt": 58505, "trial_id": "mouselab_instructions_1_misaligned", "trial_type": "instructions", "trial_index": 14, "time_elapsed": 1153851, "internal_node_id": "0.0-2.2-1.2"}}, {"uniqueid": "w90817480:a96116816", "current_trial": 15, "dateTime": 1693569469522, "trialdata": {"revealed_states": [], "clicked_states": [], "num_clicks_accrued": [0, 0, 0, 0, 0, 0, 0, 0, 0, 0, 0, 0, 0], "stateRewards": ["", 10, -10, 10, 10, -10, 10, 10, 10, -10, 10, 10, -10, -10, -10, -10, 10, -10, 10, 10, 10, -10, 10, 10, 10, 10, 10, 10, -10, 10, -10, -10, 10, 10], "withholdReward": false, "trial_id": "practice_1", "block": "test", "trialIndex": 4, "score": 33.5, "costs": 0, "simulationMode": [null, null, null, null, null], "rewards": [10, -10, 10, 10, 10], "path": ["0", "0", "1", "2", "3", "8", "10"], "rt": [4316, 5137, 438, 495, 50], "actions": ["up", "up", "up", "left", "down"], "actionTimes": [6169, 11825, 12783, 13792, 14362], "queries": {"click": {"state": {"target": [], "time": []}, "edge": {"target": [], "time": []}}, "mouseover": {"state": {"target": ["1"], "time": [3811]}, "edge": {"target": [], "time": []}}, "mouseout": {"state": {"target": ["0", "1", "2", "3", "2", "3", "4", "7"], "time": [3676, 5019, 9499, 9892, 10147, 10467, 10707, 11115]}, "edge": {"target": [], "time": []}}}, "displayed_time": "14.88", "trialTime": 17176, "trial_type": "mouselab-mdp", "trial_index": 15, "time_elapsed": 1171500, "internal_node_id": "0.0-2.2-2.2-0.2"}}, {"uniqueid": "w90817480:a96116816", "current_trial": 16, "dateTime": 1693569493211, "trialdata": {"revealed_states": [], "clicked_states": ["12", "13", "14", "15", "18"], "num_clicks_accrued": [0, 0, 0, 0, 0, 0, 0, 0, 0, 0, 0, 0, 0], "stateRewards": ["", 10, -10, -10, 10, -10, 10, 10, -10, -10, -10, 10, 10, 10, 10, 10, -10, -10, 10, -10, -10, 10, 10, -10, -10, 10, -10, 10, 10, 10, 10, -10, 10, 10], "withholdReward": false, "trial_id": "practice_2", "block": "test", "trialIndex": 5, "score": 51, "costs": -2.5, "simulationMode": [null, null, null, null, null], "rewards": [10, 10, 10, 10, 10], "path": ["0", "0", "12", "13", "14", "15", "18"], "rt": [9673, 163, 89, 54, 1143], "actions": ["right", "right", "right", "up", "left"], "actionTimes": [12305, 12991, 13599, 14167, 15839], "queries": {"click": {"state": {"target": ["12", "13", "14", "15", "18"], "time": [4848, 6232, 7708, 9309, 10879]}, "edge": {"target": [], "time": []}}, "mouseover": {"state": {"target": ["12", "13", "13", "14", "15", "18"], "time": [4682, 5103, 6099, 6486, 8079, 10691]}, "edge": {"target": [], "time": []}}, "mouseout": {"state": {"target": ["1", "12", "13", "13", "14", "15", "18", "18", "15"], "time": [1866, 4921, 5605, 6404, 7878, 10602, 11238, 19380, 19404]}, "edge": {"target": [], "time": []}}}, "displayed_time": "16.36", "trialTime": 23287, "trial_type": "mouselab-mdp", "trial_index": 16, "time_elapsed": 1195189, "internal_node_id": "0.0-2.2-2.2-1.2"}}, {"uniqueid": "w90817480:a96116816", "current_trial": 17, "dateTime": 1693569595178, "trialdata": {"view_history": [{"page_index": 0, "viewing_time": 96865}, {"page_index": 1, "viewing_time": 5097}], "rt": 101962, "trial_id": "mouselab_instructions_2_misaligned", "trial_type": "instructions", "trial_index": 17, "time_elapsed": 1297156, "internal_node_id": "0.0-2.2-3.2"}}, {"uniqueid": "w90817480:a96116816", "current_trial": 18, "dateTime": 1693569716396, "trialdata": {"rt": 121212, "response": {"Q0": "The cost for clicking on nodes may vary between nodes.", "Q1": "The better I perform the higher my bonus will be.", "Q2": "No, the amount of cash at each node of the web may be different each time.", "Q3": "To get the highest total score.", "Q4": "Only before moving the spider.", "Q5": "3 seconds"}, "question_order": [0, 1, 2, 3, 4, 5], "correct": {"Q0": "The cost for clicking on nodes may vary between nodes.", "Q1": "The better I perform the higher my bonus will be.", "Q2": "No, the amount of cash at each node of the web may be different each time.", "Q3": "To get the highest total score.", "Q4": "Only before moving the spider.", "Q5": "3 seconds"}, "trial_id": "mouselab_quiz_misaligned", "trial_type": "survey-multi-choice", "trial_index": 18, "time_elapsed": 1418374, "internal_node_id": "0.0-2.2-4.2"}}, {"uniqueid": "w90817480:a96116816", "current_trial": 19, "dateTime": 1693569728714, "trialdata": {"rt": 12304, "response": {"Q0": "Not sure"}, "question_order": [0], "trial_id": "repeat_check", "trial_type": "survey-multi-choice", "trial_index": 19, "time_elapsed": 1430692, "internal_node_id": "0.0-4.0-0.0"}}, {"uniqueid": "w90817480:a96116816", "current_trial": 20, "dateTime": 1693569752804, "trialdata": {"rt": 24079, "stimulus": "\n<h1> Get ready to start the game! </h1>\n\nThank you for reading the instructions. Get ready start with the 40 rounds of this game.\n<br><br>\nIf you need to take a break, feel free to take one after the end of a round, before continuing to the next one.\n<br><br>\nRemember, the more money the spider gets, the bigger your bonus will be!\n<br><br>\n<div style='text-align: center;'>Press <code>space</code> to begin.</div>\n\n<br><br>\n(If, at any point, the <code>space</code> key does not take you to the next page, click once on the text and try again.)", "response": " ", "trial_id": "mdp_ready", "trial_type": "html-keyboard-response", "trial_index": 20, "time_elapsed": 1454781, "internal_node_id": "0.0-6.0-0.0"}}, {"uniqueid": "w90817480:a96116816", "current_trial": 21, "dateTime": 1693569776925, "trialdata": {"revealed_states": [], "clicked_states": ["1", "2", "3"], "num_clicks_accrued": [0, 0, 0, 0, 0, 0, 0, 0, 0, 0, 0, 0, 0], "stateRewards": ["", 1, 1, -5, 8, -6, 45, 16, -6, -7, -22, -38, -1, -4, 8, -11, -16, 21, -45, -15, -59, -32, 42, -1, 3, 6, 11, -7, 34, -27, -8, 85, 43, -9], "withholdReward": false, "trial_id": "mdp_trial_1", "block": "test", "trialIndex": 6, "score": -32.05, "costs": -1.0499999999999998, "simulationMode": [null, null, null, null, null], "rewards": [1, 1, -5, -6, -22], "path": ["0", "0", "1", "2", "3", "8", "10"], "rt": [3260, 63, 2020, 314, 428], "actions": ["up", "up", "up", "left", "down"], "actionTimes": [4995, 5578, 8131, 8971, 9915], "queries": {"click": {"state": {"target": ["1", "2", "3"], "time": [3070, 3813, 4620]}, "edge": {"target": [], "time": []}}, "mouseover": {"state": {"target": ["1", "2", "3"], "time": [2206, 3426, 4520]}, "edge": {"target": [], "time": []}}, "mouseout": {"state": {"target": ["26", "28", "0", "1", "2", "3", "2", "1"], "time": [269, 404, 1838, 3225, 4259, 4920, 15632, 16182]}, "edge": {"target": [], "time": []}}}, "displayed_time": "15.74", "trialTime": 23667, "trial_type": "mouselab-mdp", "trial_index": 21, "time_elapsed": 1478902, "internal_node_id": "0.0-6.0-1.0-0.0"}}, {"uniqueid": "w90817480:a96116816", "current_trial": 22, "dateTime": 1693569819397, "trialdata": {"revealed_states": [], "clicked_states": ["23", "24", "25", "30", "33", "12", "13", "14", "15", "1", "2", "3", "8", "10", "9", "4", "5", "6"], "num_clicks_accrued": [0, 0, 0, 0, 0, 0, 0, 0, 0, 0, 0, 0, 0], "stateRewards": ["", 2, -2, -8, 9, -20, 55, -58, 14, 42, 2, 36, 1, -3, -5, 5, -58, 57, 60, 16, 57, 30, -70, -2, 1, 3, 10, 59, 23, 77, -13, -26, 88, -72], "withholdReward": false, "trial_id": "mdp_trial_2", "block": "test", "trialIndex": 7, "score": 35.900000000000006, "costs": -20.099999999999998, "simulationMode": [null, null, null, null, null], "rewards": [2, -2, -8, 9, 55], "path": ["0", "0", "1", "2", "3", "4", "6"], "rt": [32751, 33, 9, 2, 64], "actions": ["up", "up", "up", "right", "right"], "actionTimes": [35889, 36442, 36985, 37510, 38104], "queries": {"click": {"state": {"target": ["23", "24", "25", "30", "33", "12", "13", "14", "15", "1", "2", "3", "8", "10", "9", "4", "5", "6"], "time": [3721, 4970, 6863, 8918, 10078, 13639, 15039, 16262, 16976, 18375, 19152, 19963, 20827, 21785, 24576, 27559, 28484, 32231]}, "edge": {"target": [], "time": []}}, "mouseover": {"state": {"target": ["23", "24", "25", "30", "33", "0", "12", "13", "12", "13", "14", "15", "1", "2", "3", "8", "10", "2", "9", "9", "9", "3", "2", "1", "2", "2", "2", "3", "4", "5", "6", "6", "4", "6"], "time": [3517, 4251, 5382, 7931, 9739, 10753, 10814, 10967, 11239, 14356, 15318, 16684, 17969, 18629, 19702, 20668, 21317, 22451, 22664, 23734, 24306, 24998, 25164, 25873, 26249, 26491, 27041, 27092, 27387, 28157, 29741, 30607, 31340, 32036]}, "edge": {"target": [], "time": []}}, "mouseout": {"state": {"target": ["0", "23", "24", "25", "30", "30", "33", "30", "0", "12", "13", "12", "12", "13", "14", "15", "14", "13", "1", "2", "3", "3", "8", "10", "2", "9", "9", "9", "3", "2", "1", "2", "2", "2", "3", "4", "5", "4", "6", "6", "4", "6", "6", "16", "15", "14"], "time": [2628, 4193, 5265, 7881, 9201, 9609, 10425, 10552, 10783, 10883, 11194, 14010, 14310, 15263, 16465, 17359, 17528, 17670, 18435, 19221, 20265, 20485, 21218, 22120, 22506, 23335, 23989, 24901, 25078, 25456, 26115, 26371, 26544, 27072, 27116, 27873, 28698, 28781, 30458, 31217, 32004, 33110, 35494, 39717, 40101, 40148]}, "edge": {"target": [], "time": []}}}, "displayed_time": "38.62", "trialTime": 42016, "trial_type": "mouselab-mdp", "trial_index": 22, "time_elapsed": 1521375, "internal_node_id": "0.0-6.0-1.0-1.0"}}, {"uniqueid": "w90817480:a96116816", "current_trial": 23, "dateTime": 1693569849207, "trialdata": {"revealed_states": [], "clicked_states": ["1", "2", "3", "4", "5", "6", "8", "10"], "num_clicks_accrued": [0, 0, 0, 0, 0, 0, 0, 0, 0, 0, 0, 0, 0], "stateRewards": ["", 1, -2, -3, 14, -42, -87, -37, -11, -50, 33, -44, -2, 4, -7, 13, 48, -75, -66, 12, 23, -2, 82, 1, -4, 3, 12, 51, -15, -26, -11, -52, -29, 82], "withholdReward": false, "trial_id": "mdp_trial_3", "block": "test", "trialIndex": 8, "score": 7.399999999999999, "costs": -10.600000000000001, "simulationMode": [null, null, null, null, null, null], "rewards": [1, -2, -3, -11, 33], "path": ["0", "0", "1", "2", "3", "8", "10"], "rt": [11051, 9406, 59, 39, 524, 190], "actions": ["up", "up", "up", "up", "left", "down"], "actionTimes": [13700, 23116, 23699, 24260, 25314, 26026], "queries": {"click": {"state": {"target": ["1", "2", "3", "4", "5", "6", "8", "10"], "time": [4291, 5794, 7195, 8363, 9729, 13499, 17378, 18837]}, "edge": {"target": [], "time": []}}, "mouseover": {"state": {"target": ["1", "2", "3", "4", "5", "6", "4", "3", "8", "3", "4", "4", "6", "7", "4", "3", "8", "9", "10", "9"], "time": [4118, 4839, 6999, 7715, 9582, 10549, 11673, 11947, 12112, 12642, 12767, 13294, 13422, 14600, 16959, 17008, 17134, 18031, 18585, 20953]}, "edge": {"target": [], "time": []}}, "mouseout": {"state": {"target": ["13", "12", "0", "1", "2", "3", "4", "5", "6", "4", "3", "8", "3", "4", "4", "6", "7", "6", "4", "3", "8", "9", "8", "10", "8", "9", "2"], "time": [1174, 1421, 1621, 4677, 6790, 7564, 9346, 10468, 11641, 11867, 12048, 12621, 12678, 13046, 13383, 14291, 14666, 16830, 16996, 17054, 17796, 18479, 18537, 19212, 19344, 22875, 27150]}, "edge": {"target": [], "time": []}}}, "displayed_time": "26.54", "trialTime": 29387, "trial_type": "mouselab-mdp", "trial_index": 23, "time_elapsed": 1551184, "internal_node_id": "0.0-6.0-1.0-2.0"}}, {"uniqueid": "w90817480:a96116816", "current_trial": 24, "dateTime": 1693569869351, "trialdata": {"revealed_states": [], "clicked_states": ["23", "24", "25", "26", "29"], "num_clicks_accrued": [0, 0, 0, 0, 0, 0, 0, 0, 0, 0, 0, 0, 0], "stateRewards": ["", -2, -1, -4, -15, -14, -67, 32, -3, -59, 63, 31, 2, -1, -7, -15, 71, -66, -27, -3, -54, -39, 72, 2, 1, 1, -13, 77, -40, 35, -9, 35, 75, 57], "withholdReward": false, "trial_id": "mdp_trial_4", "block": "test", "trialIndex": 9, "score": 21.25, "costs": -4.75, "simulationMode": [null, null, null, null, null], "rewards": [2, 1, 1, -13, 35], "path": ["0", "0", "23", "24", "25", "26", "29"], "rt": [8218, 154, 83, 560, 145], "actions": ["left", "left", "left", "up", "left"], "actionTimes": [11276, 11918, 12513, 13590, 14255], "queries": {"click": {"state": {"target": ["23", "24", "25", "26", "29"], "time": [3727, 4734, 5506, 6315, 7095]}, "edge": {"target": [], "time": []}}, "mouseover": {"state": {"target": ["23", "24", "25", "26", "29", "27", "26", "0"], "time": [3516, 4393, 5273, 6124, 6955, 9256, 10634, 11268]}, "edge": {"target": [], "time": []}}, "mouseout": {"state": {"target": ["0", "23", "24", "25", "26", "29", "26", "26", "27", "26", "0", "22", "19", "19"], "time": [1409, 4314, 5151, 6049, 6845, 8423, 8483, 9068, 10578, 10659, 17078, 17227, 17267, 18267]}, "edge": {"target": [], "time": []}}}, "displayed_time": "17.06", "trialTime": 19696, "trial_type": "mouselab-mdp", "trial_index": 24, "time_elapsed": 1571329, "internal_node_id": "0.0-6.0-1.0-3.0"}}, {"uniqueid": "w90817480:a96116816", "current_trial": 25, "dateTime": 1693569897543, "trialdata": {"revealed_states": [], "clicked_states": ["12", "13", "14", "19", "21", "20", "22", "15", "17"], "num_clicks_accrued": [0, 0, 0, 0, 0, 0, 0, 0, 0, 0, 0, 0, 0], "stateRewards": ["", 2, 3, -1, 6, 44, -4, -59, -14, -3, 64, 16, 1, -3, 3, 6, 3, 49, 19, 3, -49, -14, -86, 1, 2, -3, -8, -33, 14, 32, -13, -77, -47, -67], "withholdReward": false, "trial_id": "mdp_trial_5", "block": "test", "trialIndex": 10, "score": 43.25, "costs": -12.750000000000002, "simulationMode": [null, null, null, null, null], "rewards": [1, -3, 3, 6, 49], "path": ["0", "0", "12", "13", "14", "15", "17"], "rt": [20258, 34, 103, 2, 50], "actions": ["right", "right", "right", "up", "right"], "actionTimes": [22593, 23150, 23766, 24280, 24863], "queries": {"click": {"state": {"target": ["12", "13", "14", "19", "21", "20", "22", "15", "17"], "time": [3047, 4302, 4943, 5462, 6195, 10020, 13686, 17805, 18689]}, "edge": {"target": [], "time": []}}, "mouseover": {"state": {"target": ["12", "13", "14", "19", "21", "20", "19", "22", "14", "17", "15", "17"], "time": [2810, 3499, 4598, 5324, 5989, 8723, 11140, 13466, 14242, 17066, 17596, 18214]}, "edge": {"target": [], "time": []}}, "mouseout": {"state": {"target": ["22", "12", "0", "12", "13", "14", "19", "19", "21", "21", "20", "19", "22", "22", "14", "17", "15", "17", "15", "15", "13"], "time": [627, 1082, 2770, 3464, 4563, 5235, 5562, 5836, 6275, 6495, 10832, 13347, 13755, 14079, 16851, 17467, 18173, 19223, 21835, 26251, 26298]}, "edge": {"target": [], "time": []}}}, "displayed_time": "25.39", "trialTime": 27783, "trial_type": "mouselab-mdp", "trial_index": 25, "time_elapsed": 1599520, "internal_node_id": "0.0-6.0-1.0-4.0"}}, {"uniqueid": "w90817480:a96116816", "current_trial": 26, "dateTime": 1693569916438, "trialdata": {"revealed_states": [], "clicked_states": ["1", "2", "3", "8", "9"], "num_clicks_accrued": [0, 0, 0, 0, 0, 0, 0, 0, 0, 0, 0, 0, 0], "stateRewards": ["", -2, 2, -4, -4, -59, 88, 62, -3, 69, -15, -34, 1, -2, -5, 7, -54, -20, 78, -16, -74, -53, -21, 2, -4, 2, 13, -8, -44, 26, 9, 72, 4, 17], "withholdReward": false, "trial_id": "mdp_trial_6", "block": "test", "trialIndex": 11, "score": 57.25, "costs": -4.75, "simulationMode": [null, null, null, null, null], "rewards": [-2, 2, -4, -3, 69], "path": ["0", "0", "1", "2", "3", "8", "9"], "rt": [10836, 48, 9, 611, 154], "actions": ["up", "up", "up", "left", "up"], "actionTimes": [12338, 12921, 13466, 14618, 15291], "queries": {"click": {"state": {"target": ["1", "2", "3", "8", "9"], "time": [3424, 4916, 6402, 7520, 8544]}, "edge": {"target": [], "time": []}}, "mouseover": {"state": {"target": ["1", "2", "3", "8", "9", "4"], "time": [1949, 4577, 6007, 7194, 8392, 10429]}, "edge": {"target": [], "time": []}}, "mouseout": {"state": {"target": ["0", "1", "2", "3", "8", "9", "3"], "time": [901, 3865, 5605, 7141, 8153, 9153, 9282]}, "edge": {"target": [], "time": []}}}, "displayed_time": "15.81", "trialTime": 18466, "trial_type": "mouselab-mdp", "trial_index": 26, "time_elapsed": 1618416, "internal_node_id": "0.0-6.0-1.0-5.0"}}, {"uniqueid": "w90817480:a96116816", "current_trial": 27, "dateTime": 1693569939184, "trialdata": {"revealed_states": [], "clicked_states": ["1", "2", "3", "8", "10", "12", "13", "14", "19", "21"], "num_clicks_accrued": [0, 0, 0, 0, 0, 0, 0, 0, 0, 0, 0, 0, 0], "stateRewards": ["", -2, -3, -5, 8, 27, 11, 43, -6, -24, -87, 69, -2, 1, 1, 9, 19, 48, -37, 9, -14, 45, 62, 1, 2, 1, 16, -81, -41, 22, 4, -6, -63, 47], "withholdReward": false, "trial_id": "mdp_trial_7", "block": "test", "trialIndex": 12, "score": 44.5, "costs": -9.5, "simulationMode": [null, null, null, null, null], "rewards": [-2, 1, 1, 9, 45], "path": ["0", "0", "12", "13", "14", "19", "21"], "rt": [14918, 91, 46, 507, 192], "actions": ["right", "right", "right", "down", "down"], "actionTimes": [16828, 17434, 17986, 19017, 19731], "queries": {"click": {"state": {"target": ["1", "2", "3", "8", "10", "12", "13", "14", "19", "21"], "time": [2987, 4279, 5911, 6741, 7556, 10425, 11285, 11992, 12584, 13183]}, "edge": {"target": [], "time": []}}, "mouseover": {"state": {"target": ["1", "2", "10", "3", "8", "10", "2", "4", "7", "12", "13", "14", "19", "21", "22"], "time": [2676, 3872, 5267, 5628, 6457, 7151, 8195, 8686, 9362, 9684, 10958, 11698, 12394, 12935, 15202]}, "edge": {"target": [], "time": []}}, "mouseout": {"state": {"target": ["4", "1", "2", "10", "3", "8", "10", "2", "4", "7", "12", "13", "14", "19", "19", "21", "19", "22"], "time": [899, 3523, 4882, 5508, 6350, 7105, 8157, 8212, 9341, 9393, 10889, 11638, 12350, 12669, 12886, 13708, 15157, 15257]}, "edge": {"target": [], "time": []}}}, "displayed_time": "20.24", "trialTime": 22306, "trial_type": "mouselab-mdp", "trial_index": 27, "time_elapsed": 1641161, "internal_node_id": "0.0-6.0-1.0-6.0"}}, {"uniqueid": "w90817480:a96116816", "current_trial": 28, "dateTime": 1693569966815, "trialdata": {"revealed_states": [], "clicked_states": ["23", "24", "25", "30", "32", "26", "27", "29", "28"], "num_clicks_accrued": [0, 0, 0, 0, 0, 0, 0, 0, 0, 0, 0, 0, 0], "stateRewards": ["", -2, -4, 4, -11, -63, -60, -7, 2, -14, 81, -43, -1, -1, -5, 7, 10, 69, 40, 8, -83, 52, 60, 1, 2, 5, -5, 16, 64, 14, -3, 29, 7, -51], "withholdReward": false, "trial_id": "mdp_trial_8", "block": "test", "trialIndex": 13, "score": 54.25, "costs": -12.75, "simulationMode": [null, null, null, null, null], "rewards": [1, 2, 5, -5, 64], "path": ["0", "0", "23", "24", "25", "26", "28"], "rt": [20335, 52, 547, 163, 135], "actions": ["left", "left", "left", "up", "right"], "actionTimes": [22212, 22786, 23850, 24513, 25171], "queries": {"click": {"state": {"target": ["23", "24", "25", "30", "32", "26", "27", "29", "28"], "time": [3161, 3980, 4637, 5233, 5835, 10248, 10861, 15441, 18805]}, "edge": {"target": [], "time": []}}, "mouseover": {"state": {"target": ["23", "24", "25", "30", "32", "31", "31", "24", "26", "27", "1", "1", "28", "29", "26", "29", "26", "28", "1"], "time": [2654, 3748, 4443, 5059, 5629, 9335, 9599, 9765, 10071, 10681, 11235, 14142, 14213, 14486, 14766, 15263, 15733, 15834, 19420]}, "edge": {"target": [], "time": []}}, "mouseout": {"state": {"target": ["0", "23", "24", "25", "30", "32", "31", "31", "24", "26", "27", "1", "1", "28", "29", "26", "29", "26", "28", "1"], "time": [1548, 3536, 4341, 4991, 5551, 6022, 9477, 9645, 9829, 10466, 11142, 11547, 14175, 14231, 14686, 15197, 15692, 15774, 19300, 19434]}, "edge": {"target": [], "time": []}}}, "displayed_time": "25.68", "trialTime": 27162, "trial_type": "mouselab-mdp", "trial_index": 28, "time_elapsed": 1668793, "internal_node_id": "0.0-6.0-1.0-7.0"}}, {"uniqueid": "w90817480:a96116816", "current_trial": 29, "dateTime": 1693569987442, "trialdata": {"revealed_states": [], "clicked_states": [], "num_clicks_accrued": [0, 0, 0, 0, 0, 0, 0, 0, 0, 0, 0, 0, 0], "stateRewards": ["", 2, -1, 3, -12, -83, 6, -33, 9, 28, 24, -50, -2, -1, -2, -5, -87, 37, 82, 12, 80, -5, 10, -2, -3, -6, 9, 22, -1, 16, 9, 77, -62, 58], "withholdReward": false, "trial_id": "mdp_trial_9", "block": "test", "trialIndex": 14, "score": 72, "costs": 0, "simulationMode": [null, null, null, null, null], "rewards": [-2, -1, -2, -5, 82], "path": ["0", "0", "12", "13", "14", "15", "18"], "rt": [2559, 390, 2209, 31, 140], "actions": ["right", "right", "right", "up", "left"], "actionTimes": [5006, 5910, 8630, 9182, 9839], "queries": {"click": {"state": {"target": [], "time": []}, "edge": {"target": [], "time": []}}, "mouseover": {"state": {"target": ["12", "13"], "time": [2532, 2810]}, "edge": {"target": [], "time": []}}, "mouseout": {"state": {"target": ["12", "0", "12", "13", "13", "12", "13"], "time": [1717, 2462, 2706, 6841, 7395, 8107, 8322]}, "edge": {"target": [], "time": []}}}, "displayed_time": "16.45", "trialTime": 20176, "trial_type": "mouselab-mdp", "trial_index": 29, "time_elapsed": 1689420, "internal_node_id": "0.0-6.0-1.0-8.0"}}, {"uniqueid": "w90817480:a96116816", "current_trial": 30, "dateTime": 1693570007001, "trialdata": {"revealed_states": [], "clicked_states": ["1", "2", "3", "4", "5", "8", "9"], "num_clicks_accrued": [0, 0, 0, 0, 0, 0, 0, 0, 0, 0, 0, 0, 0], "stateRewards": ["", 2, 2, 3, -15, 23, -14, 73, -7, -32, -20, -6, 1, 1, -5, -12, 73, 6, -84, 11, -81, -57, 13, -2, -1, -4, -8, -52, -58, 49, 13, 5, -41, -41], "withholdReward": false, "trial_id": "mdp_trial_10", "block": "test", "trialIndex": 15, "score": 6.550000000000001, "costs": -8.45, "simulationMode": [null, null, null, null, null], "rewards": [2, 2, 3, -15, 23], "path": ["0", "0", "1", "2", "3", "4", "5"], "rt": [11883, 556, 299, 79, 92], "actions": ["up", "up", "up", "right", "up"], "actionTimes": [13225, 14303, 15111, 15690, 16320], "queries": {"click": {"state": {"target": ["1", "2", "3", "4", "5", "8", "9"], "time": [2441, 2945, 3663, 4170, 4701, 9295, 9883]}, "edge": {"target": [], "time": []}}, "mouseover": {"state": {"target": ["0", "12", "1", "2", "3", "4", "5", "3", "8", "9", "3"], "time": [1358, 1564, 2220, 2767, 3529, 3971, 4541, 7268, 9027, 9574, 10401]}, "edge": {"target": [], "time": []}}, "mouseout": {"state": {"target": ["14", "13", "12", "0", "12", "1", "2", "3", "4", "5", "3", "8", "9", "3"], "time": [469, 634, 810, 1450, 1620, 2625, 3355, 3929, 4338, 6787, 8899, 9464, 10245, 17676]}, "edge": {"target": [], "time": []}}}, "displayed_time": "16.83", "trialTime": 19008, "trial_type": "mouselab-mdp", "trial_index": 30, "time_elapsed": 1708979, "internal_node_id": "0.0-6.0-1.0-9.0"}}, {"uniqueid": "w90817480:a96116816", "current_trial": 31, "dateTime": 1693570026522, "trialdata": {"revealed_states": [], "clicked_states": ["1", "2", "3", "8", "10"], "num_clicks_accrued": [0, 0, 0, 0, 0, 0, 0, 0, 0, 0, 0, 0, 0], "stateRewards": ["", -1, -3, 4, -10, -5, 79, -87, -2, 53, 29, -20, -2, -1, -5, 10, 27, 86, 46, -16, -29, 40, 3, 2, 4, -1, -6, 37, 79, -29, 7, 86, -62, 29], "withholdReward": false, "trial_id": "mdp_trial_11", "block": "test", "trialIndex": 16, "score": 22.25, "costs": -4.75, "simulationMode": [null, null, null, null, null], "rewards": [-1, -3, 4, -2, 29], "path": ["0", "0", "1", "2", "3", "8", "10"], "rt": [7654, 106, 130, 515, 118], "actions": ["up", "up", "up", "left", "down"], "actionTimes": [11349, 11971, 12611, 13644, 14284], "queries": {"click": {"state": {"target": ["1", "2", "3", "8", "10"], "time": [4451, 5338, 6306, 7108, 7734]}, "edge": {"target": [], "time": []}}, "mouseover": {"state": {"target": ["1", "2", "3", "8", "10"], "time": [4216, 4931, 6119, 6798, 7556]}, "edge": {"target": [], "time": []}}, "mouseout": {"state": {"target": ["0", "1", "2", "3", "8", "10", "2", "7", "13"], "time": [2071, 4541, 5971, 6751, 7488, 8091, 8160, 15911, 16056]}, "edge": {"target": [], "time": []}}}, "displayed_time": "17.70", "trialTime": 19004, "trial_type": "mouselab-mdp", "trial_index": 31, "time_elapsed": 1728499, "internal_node_id": "0.0-6.0-1.0-10.0"}}, {"uniqueid": "w90817480:a96116816", "current_trial": 32, "dateTime": 1693570060043, "trialdata": {"revealed_states": [], "clicked_states": ["12", "13", "14", "19", "21", "20", "22", "15", "17", "16", "18"], "num_clicks_accrued": [0, 0, 0, 0, 0, 0, 0, 0, 0, 0, 0, 0, 0], "stateRewards": ["", 1, 2, -3, -5, 66, -50, -47, -5, 1, 28, -27, 1, 1, -1, -6, 37, -25, 56, 1, -82, -66, -40, -1, -4, -7, 15, -61, -23, 26, 10, 14, -56, 29], "withholdReward": false, "trial_id": "mdp_trial_12", "block": "test", "trialIndex": 17, "score": 33.95, "costs": -17.05, "simulationMode": [null, null, null, null, null], "rewards": [1, 1, -1, -6, 56], "path": ["0", "0", "12", "13", "14", "15", "18"], "rt": [27069, 174, 104, 39, 2], "actions": ["right", "right", "right", "up", "left"], "actionTimes": [28632, 29322, 29951, 30489, 31030], "queries": {"click": {"state": {"target": ["12", "13", "14", "19", "21", "20", "22", "15", "17", "16", "18"], "time": [2316, 3289, 4257, 4980, 5750, 9645, 13246, 17156, 17763, 21329, 25328]}, "edge": {"target": [], "time": []}}, "mouseover": {"state": {"target": ["12", "13", "14", "19", "21", "20", "20", "22", "17", "15", "17", "16", "18", "15"], "time": [2081, 2993, 3890, 4751, 5546, 6483, 9408, 13040, 16650, 16801, 17532, 21002, 25246, 25622]}, "edge": {"target": [], "time": []}}, "mouseout": {"state": {"target": ["13", "12", "12", "12", "12", "13", "14", "19", "19", "21", "20", "20", "22", "17", "15", "15", "17", "17", "16", "18", "18", "15", "15"], "time": [760, 977, 1032, 2798, 2929, 3794, 4691, 5063, 5494, 6377, 6752, 10061, 13573, 16691, 17238, 17467, 17841, 18053, 21636, 25412, 25571, 25711, 32219]}, "edge": {"target": [], "time": []}}}, "displayed_time": "31.57", "trialTime": 33038, "trial_type": "mouselab-mdp", "trial_index": 32, "time_elapsed": 1762020, "internal_node_id": "0.0-6.0-1.0-11.0"}}, {"uniqueid": "w90817480:a96116816", "current_trial": 33, "dateTime": 1693570078492, "trialdata": {"revealed_states": [], "clicked_states": ["1", "2", "10"], "num_clicks_accrued": [0, 0, 0, 0, 0, 0, 0, 0, 0, 0, 0, 0, 0], "stateRewards": ["", 1, 1, -5, 10, -31, 73, 14, -8, -23, 63, -70, -1, 2, 8, 7, 25, -59, 27, -10, -40, -71, -15, -2, 3, -8, -5, -19, 77, -34, 7, 67, 63, 19], "withholdReward": false, "trial_id": "mdp_trial_13", "block": "test", "trialIndex": 18, "score": 49.75, "costs": -2.25, "simulationMode": [null, null, null, null, null], "rewards": [1, 1, -5, -8, 63], "path": ["0", "0", "1", "2", "3", "8", "10"], "rt": [6191, 83, 92, 459, 114], "actions": ["up", "up", "up", "left", "down"], "actionTimes": [8210, 8833, 9424, 10409, 11041], "queries": {"click": {"state": {"target": ["1", "2", "10"], "time": [2961, 3777, 4547]}, "edge": {"target": [], "time": []}}, "mouseover": {"state": {"target": ["1", "2", "10", "3", "3"], "time": [2728, 3318, 4239, 5208, 6831]}, "edge": {"target": [], "time": []}}, "mouseout": {"state": {"target": ["12", "0", "1", "2", "10", "3", "3", "7"], "time": [460, 2148, 3144, 4131, 4949, 6245, 8650, 12445]}, "edge": {"target": [], "time": []}}}, "displayed_time": "16.02", "trialTime": 17778, "trial_type": "mouselab-mdp", "trial_index": 33, "time_elapsed": 1780470, "internal_node_id": "0.0-6.0-1.0-12.0"}}, {"uniqueid": "w90817480:a96116816", "current_trial": 34, "dateTime": 1693570104658, "trialdata": {"revealed_states": [], "clicked_states": ["9", "5", "21", "22"], "num_clicks_accrued": [0, 0, 0, 0, 0, 0, 0, 0, 0, 0, 0, 0, 0], "stateRewards": ["", -1, 4, -5, 9, 29, -75, -42, -16, 24, -28, -41, 2, -3, 1, 10, 60, 47, 55, -1, -53, 22, -40, 2, -3, -6, 4, -26, 44, 54, 15, -76, 42, 14], "withholdReward": false, "trial_id": "mdp_trial_14", "block": "test", "trialIndex": 19, "score": 27.4, "costs": -8.6, "simulationMode": [null, null, null, null, null], "rewards": [-1, 4, -5, 9, 29], "path": ["0", "0", "1", "2", "3", "4", "5"], "rt": [17460, 607, 39, 3, 220], "actions": ["up", "up", "up", "right", "up"], "actionTimes": [19153, 20288, 20848, 21378, 22129], "queries": {"click": {"state": {"target": ["9", "5", "21", "22"], "time": [2613, 5974, 11417, 14822]}, "edge": {"target": [], "time": []}}, "mouseover": {"state": {"target": ["1", "2", "8", "9", "8", "3", "5", "6", "16", "6", "16", "14", "19", "21", "20", "20", "22", "19", "20", "20", "15", "6"], "time": [2078, 2118, 2179, 2379, 3035, 3113, 3446, 6313, 6497, 6684, 10348, 10684, 11011, 11148, 11758, 13140, 13548, 15164, 15218, 15561, 18264, 18460]}, "edge": {"target": [], "time": []}}, "mouseout": {"state": {"target": ["0", "1", "2", "8", "9", "8", "3", "5", "6", "16", "6", "16", "14", "19", "21", "20", "20", "22", "19", "20", "20", "15", "6", "4", "7", "1", "0"], "time": [1987, 2099, 2139, 2243, 2968, 3053, 3191, 6253, 6352, 6581, 10180, 10483, 10972, 11060, 11653, 11770, 13152, 15136, 15201, 15257, 18203, 18292, 18551, 23356, 23389, 23731, 23771]}, "edge": {"target": [], "time": []}}}, "displayed_time": "22.64", "trialTime": 25656, "trial_type": "mouselab-mdp", "trial_index": 34, "time_elapsed": 1806636, "internal_node_id": "0.0-6.0-1.0-13.0"}}, {"uniqueid": "w90817480:a96116816", "current_trial": 35, "dateTime": 1693570129389, "trialdata": {"revealed_states": [], "clicked_states": ["1", "2", "3", "4", "6", "7", "5"], "num_clicks_accrued": [0, 0, 0, 0, 0, 0, 0, 0, 0, 0, 0, 0, 0], "stateRewards": ["", 2, 3, 8, 14, 69, -27, 17, 2, -71, -65, -10, 2, -3, 7, 8, 65, -10, 65, -12, 73, -12, 13, -2, -2, 6, 10, -79, -69, -18, 10, -85, 67, 74], "withholdReward": false, "trial_id": "mdp_trial_15", "block": "test", "trialIndex": 20, "score": 86.95, "costs": -9.05, "simulationMode": [null, null, null, null, null], "rewards": [2, 3, 8, 14, 69], "path": ["0", "0", "1", "2", "3", "4", "5"], "rt": [14854, 74, 72, 17, 46], "actions": ["up", "up", "up", "right", "up"], "actionTimes": [17696, 18294, 18888, 19398, 19975], "queries": {"click": {"state": {"target": ["1", "2", "3", "4", "6", "7", "5"], "time": [3677, 4755, 5875, 6665, 7346, 10896, 14382]}, "edge": {"target": [], "time": []}}, "mouseover": {"state": {"target": ["1", "2", "3", "4", "6", "7", "7", "5", "5", "6"], "time": [3410, 4142, 5281, 6250, 7066, 7896, 10770, 11774, 14147, 14847]}, "edge": {"target": [], "time": []}}, "mouseout": {"state": {"target": ["31", "31", "0", "1", "2", "3", "4", "6", "7", "7", "6", "5", "5", "6"], "time": [802, 978, 3234, 3952, 4906, 6186, 6940, 7717, 10570, 11153, 11274, 12048, 14706, 14946]}, "edge": {"target": [], "time": []}}}, "displayed_time": "20.50", "trialTime": 24216, "trial_type": "mouselab-mdp", "trial_index": 35, "time_elapsed": 1831366, "internal_node_id": "0.0-6.0-1.0-14.0"}}, {"uniqueid": "w90817480:a96116816", "current_trial": 36, "dateTime": 1693570149941, "trialdata": {"revealed_states": [], "clicked_states": ["1", "2", "3", "8", "9", "11"], "num_clicks_accrued": [0, 0, 0, 0, 0, 0, 0, 0, 0, 0, 0, 0, 0], "stateRewards": ["", 1, 1, 1, 15, -76, 52, -32, 14, -57, 37, 49, 1, -4, -3, 6, 83, -76, 25, 9, 36, -1, -17, -1, 4, 4, -2, -22, -21, 58, -15, -57, 49, -24], "withholdReward": false, "trial_id": "mdp_trial_16", "block": "test", "trialIndex": 21, "score": 59.1, "costs": -6.9, "simulationMode": [null, null, null, null, null], "rewards": [1, 1, 1, 14, 49], "path": ["0", "0", "1", "2", "3", "8", "11"], "rt": [12344, 54, 66, 567, 203], "actions": ["up", "up", "up", "left", "left"], "actionTimes": [14222, 14797, 15391, 16477, 17197], "queries": {"click": {"state": {"target": ["1", "2", "3", "8", "9", "11"], "time": [2997, 4015, 4913, 6006, 6992, 10724]}, "edge": {"target": [], "time": []}}, "mouseover": {"state": {"target": ["1", "2", "3", "4", "8", "9", "11", "8", "3", "5"], "time": [2640, 3644, 4526, 5236, 5630, 6710, 10511, 11049, 11091, 11441]}, "edge": {"target": [], "time": []}}, "mouseout": {"state": {"target": ["16", "18", "0", "0", "1", "2", "3", "4", "3", "8", "9", "11", "8", "3", "5", "3", "2", "0"], "time": [975, 1010, 1215, 1893, 3302, 4281, 5201, 5409, 5542, 6518, 7890, 11026, 11075, 11101, 11537, 18673, 18706, 18747]}, "edge": {"target": [], "time": []}}}, "displayed_time": "17.71", "trialTime": 20006, "trial_type": "mouselab-mdp", "trial_index": 36, "time_elapsed": 1851918, "internal_node_id": "0.0-6.0-1.0-15.0"}}, {"uniqueid": "w90817480:a96116816", "current_trial": 37, "dateTime": 1693570168189, "trialdata": {"revealed_states": [], "clicked_states": ["1", "2", "3", "8", "9", "5"], "num_clicks_accrued": [0, 0, 0, 0, 0, 0, 0, 0, 0, 0, 0, 0, 0], "stateRewards": ["", -2, 2, -1, -6, 22, 6, 6, -5, 70, -42, 65, 1, 3, 5, -6, -67, -9, 3, 14, 7, -62, -13, -2, 4, 1, 16, 42, -21, -52, -8, 32, 53, 81], "withholdReward": false, "trial_id": "mdp_trial_17", "block": "test", "trialIndex": 22, "score": 57.1, "costs": -6.9, "simulationMode": [null, null, null, null, null, null], "rewards": [-2, 2, -1, -5, 70], "path": ["0", "0", "1", "2", "3", "8", "9"], "rt": [8671, 1184, 84, 33, 548, 197], "actions": ["up", "up", "up", "up", "left", "up"], "actionTimes": [10414, 11605, 12192, 12741, 13789, 14504], "queries": {"click": {"state": {"target": ["1", "2", "3", "8", "9", "5"], "time": [2740, 3338, 3813, 4578, 4993, 8196]}, "edge": {"target": [], "time": []}}, "mouseover": {"state": {"target": ["12", "1", "2", "3", "8", "9", "4", "5", "4", "5", "6", "7", "7"], "time": [2201, 2456, 3066, 3577, 4099, 4787, 5400, 6227, 6870, 7309, 8814, 10580, 11169]}, "edge": {"target": [], "time": []}}, "mouseout": {"state": {"target": ["0", "12", "1", "2", "3", "8", "9", "4", "5", "4", "5", "6", "7", "7", "1", "0"], "time": [2143, 2393, 2966, 3463, 4056, 4717, 5260, 6170, 6831, 7264, 8678, 10211, 10994, 11320, 16385, 16489]}, "edge": {"target": [], "time": []}}}, "displayed_time": "15.74", "trialTime": 17725, "trial_type": "mouselab-mdp", "trial_index": 37, "time_elapsed": 1870166, "internal_node_id": "0.0-6.0-1.0-16.0"}}, {"uniqueid": "w90817480:a96116816", "current_trial": 38, "dateTime": 1693570186350, "trialdata": {"revealed_states": [], "clicked_states": ["9", "3", "5"], "num_clicks_accrued": [0, 0, 0, 0, 0, 0, 0, 0, 0, 0, 0, 0, 0], "stateRewards": ["", 1, 1, 7, -11, 80, -20, -53, -14, 3, 31, 27, 2, -1, -8, -10, 33, 41, 86, 9, 78, -37, -13, -1, -2, -6, -8, -80, 75, 4, -16, -49, -74, 24], "withholdReward": false, "trial_id": "mdp_trial_18", "block": "test", "trialIndex": 23, "score": 72.75, "costs": -5.25, "simulationMode": [null, null, null, null, null], "rewards": [1, 1, 7, -11, 80], "path": ["0", "0", "1", "2", "3", "4", "5"], "rt": [9866, 10, 40, 577, 101], "actions": ["up", "up", "up", "right", "up"], "actionTimes": [11129, 11655, 12230, 13335, 13959], "queries": {"click": {"state": {"target": ["9", "3", "5"], "time": [3413, 6694, 7590]}, "edge": {"target": [], "time": []}}, "mouseover": {"state": {"target": ["1", "2", "3", "9", "8", "3", "2", "1", "2", "3", "4", "5", "4", "2", "4", "4"], "time": [1881, 2922, 3043, 3234, 3742, 3794, 4398, 4799, 5422, 5777, 7041, 7223, 7982, 8270, 10078, 10978]}, "edge": {"target": [], "time": []}}, "mouseout": {"state": {"target": ["0", "1", "2", "3", "9", "8", "3", "2", "1", "2", "3", "4", "5", "4", "2", "4", "4", "7", "1", "0", "12"], "time": [1431, 2849, 3009, 3122, 3696, 3768, 4360, 4698, 5381, 5509, 6978, 7095, 7934, 8039, 9882, 10180, 11027, 14723, 15002, 15155, 15419]}, "edge": {"target": [], "time": []}}}, "displayed_time": "15.26", "trialTime": 17663, "trial_type": "mouselab-mdp", "trial_index": 38, "time_elapsed": 1888327, "internal_node_id": "0.0-6.0-1.0-17.0"}}, {"uniqueid": "w90817480:a96116816", "current_trial": 39, "dateTime": 1693570213675, "trialdata": {"revealed_states": [], "clicked_states": [], "num_clicks_accrued": [0, 0, 0, 0, 0, 0, 0, 0, 0, 0, 0, 0, 0], "stateRewards": ["", 2, 3, -3, 12, -43, 81, -82, -15, 58, -7, -75, -1, -1, 3, -5, 50, -25, -8, 4, 66, 65, -66, 2, -4, 2, -1, -10, 10, 37, 11, 88, -37, 8], "withholdReward": false, "trial_id": "mdp_trial_19", "block": "test", "trialIndex": 24, "score": -20, "costs": 0, "simulationMode": [null, null, null, null, null], "rewards": [2, 3, -3, -15, -7], "path": ["0", "0", "1", "2", "3", "8", "10"], "rt": [18820, 108, 107, 435, 103], "actions": ["up", "up", "up", "left", "down"], "actionTimes": [20939, 21561, 22177, 23106, 23723], "queries": {"click": {"state": {"target": [], "time": []}, "edge": {"target": [], "time": []}}, "mouseover": {"state": {"target": ["1", "1", "2"], "time": [19213, 19604, 20304]}, "edge": {"target": [], "time": []}}, "mouseout": {"state": {"target": ["18", "28", "24", "23", "1", "1", "2", "12"], "time": [668, 1015, 1500, 1589, 19246, 20135, 24446, 24852]}, "edge": {"target": [], "time": []}}}, "displayed_time": "24.24", "trialTime": 26713, "trial_type": "mouselab-mdp", "trial_index": 39, "time_elapsed": 1915652, "internal_node_id": "0.0-6.0-1.0-18.0"}}, {"uniqueid": "w90817480:a96116816", "current_trial": 40, "dateTime": 1693570231213, "trialdata": {"revealed_states": [], "clicked_states": ["1", "2", "3", "4", "5", "6"], "num_clicks_accrued": [0, 0, 0, 0, 0, 0, 0, 0, 0, 0, 0, 0, 0], "stateRewards": ["", -2, 1, -5, 2, -68, 80, 33, 10, 67, -59, 20, -1, -3, 3, 14, 74, -2, 24, -16, 63, 80, 46, -1, 4, 6, 12, 83, -38, -43, -4, 43, 14, -79], "withholdReward": false, "trial_id": "mdp_trial_20", "block": "test", "trialIndex": 25, "score": 69.1, "costs": -6.9, "simulationMode": [null, null, null, null, null], "rewards": [-2, 1, -5, 2, 80], "path": ["0", "0", "1", "2", "3", "4", "6"], "rt": [10154, 59, 24, 424, 148], "actions": ["up", "up", "up", "right", "right"], "actionTimes": [11636, 12212, 12756, 13693, 14367], "queries": {"click": {"state": {"target": ["1", "2", "3", "4", "5", "6"], "time": [2233, 3085, 3653, 4238, 4691, 8202]}, "edge": {"target": [], "time": []}}, "mouseover": {"state": {"target": ["12", "1", "2", "3", "4", "5", "6", "7"], "time": [1798, 2110, 2585, 3381, 3991, 4469, 5732, 8741]}, "edge": {"target": [], "time": []}}, "mouseout": {"state": {"target": ["0", "12", "1", "2", "3", "4", "5", "6"], "time": [1725, 1909, 2498, 3258, 3904, 4337, 5519, 8574]}, "edge": {"target": [], "time": []}}}, "displayed_time": "15.48", "trialTime": 16987, "trial_type": "mouselab-mdp", "trial_index": 40, "time_elapsed": 1933190, "internal_node_id": "0.0-6.0-1.0-19.0"}}, {"uniqueid": "w90817480:a96116816", "current_trial": 41, "dateTime": 1693570255671, "trialdata": {"revealed_states": [], "clicked_states": ["23", "24", "26", "28", "29", "12", "13", "14", "19", "21"], "num_clicks_accrued": [0, 0, 0, 0, 0, 0, 0, 0, 0, 0, 0, 0, 0], "stateRewards": ["", -2, -1, -3, -1, -78, -6, 2, -1, 22, -88, 32, 2, 2, -7, -8, -51, -17, 54, 2, -44, 54, 75, 2, -2, -8, -15, -29, 12, -67, 15, -1, -47, -47], "withholdReward": false, "trial_id": "mdp_trial_21", "block": "test", "trialIndex": 26, "score": 42.3, "costs": -10.7, "simulationMode": [null, null, null, null, null], "rewards": [2, 2, -7, 2, 54], "path": ["0", "0", "12", "13", "14", "19", "21"], "rt": [16101, 53, 90, 479, 159], "actions": ["right", "right", "right", "down", "down"], "actionTimes": [19182, 19756, 20365, 21364, 22044], "queries": {"click": {"state": {"target": ["23", "24", "26", "28", "29", "12", "13", "14", "19", "21"], "time": [3590, 4306, 5348, 6035, 9650, 13355, 13987, 14607, 15136, 15753]}, "edge": {"target": [], "time": []}}, "mouseover": {"state": {"target": ["23", "24", "25", "26", "28", "25", "26", "29", "26", "12", "13", "12", "13", "14", "19", "21", "20", "20"], "time": [3208, 3971, 4924, 5160, 5889, 6542, 9325, 9543, 9938, 10104, 10303, 13048, 13651, 14401, 15021, 15608, 16136, 17988]}, "edge": {"target": [], "time": []}}, "mouseout": {"state": {"target": ["7", "23", "23", "24", "25", "26", "28", "25", "26", "29", "26", "28", "12", "13", "12", "13", "14", "19", "19", "21", "20"], "time": [992, 2527, 3840, 4710, 5088, 5852, 6329, 9272, 9375, 9906, 9969, 10023, 10208, 12819, 13609, 14210, 14913, 15184, 15534, 16048, 16152]}, "edge": {"target": [], "time": []}}}, "displayed_time": "22.55", "trialTime": 23878, "trial_type": "mouselab-mdp", "trial_index": 41, "time_elapsed": 1957648, "internal_node_id": "0.0-6.0-1.0-20.0"}}, {"uniqueid": "w90817480:a96116816", "current_trial": 42, "dateTime": 1693570277189, "trialdata": {"revealed_states": [], "clicked_states": ["1", "2", "3", "4", "5", "6", "7"], "num_clicks_accrued": [0, 0, 0, 0, 0, 0, 0, 0, 0, 0, 0, 0, 0], "stateRewards": ["", -2, 4, 3, 5, -61, 4, 30, 1, -47, 83, 10, 1, 4, 7, -14, 19, -74, -83, 6, -2, -2, -65, -1, -2, 4, -11, 12, -1, -68, 11, -38, -28, 66], "withholdReward": false, "trial_id": "mdp_trial_22", "block": "test", "trialIndex": 27, "score": 30.95, "costs": -9.05, "simulationMode": [null, null, null, null, null], "rewards": [-2, 4, 3, 5, 30], "path": ["0", "0", "1", "2", "3", "4", "7"], "rt": [14777, 24, 35, 470, 54], "actions": ["up", "up", "up", "right", "down"], "actionTimes": [16007, 16550, 17111, 18095, 18662], "queries": {"click": {"state": {"target": ["1", "2", "3", "4", "5", "6", "7"], "time": [2180, 2885, 3499, 3927, 4482, 8252, 12036]}, "edge": {"target": [], "time": []}}, "mouseover": {"state": {"target": ["0", "1", "2", "3", "4", "5", "18", "15", "17", "6", "7", "7", "16", "17"], "time": [1355, 1642, 2705, 3342, 3741, 4134, 5354, 5702, 5756, 8084, 11338, 11762, 12796, 13155]}, "edge": {"target": [], "time": []}}, "mouseout": {"state": {"target": ["19", "22", "0", "0", "1", "2", "3", "4", "5", "18", "15", "17", "6", "7", "7", "16", "17"], "time": [288, 327, 857, 1524, 2417, 3034, 3673, 4058, 4786, 5428, 5731, 5802, 8633, 11546, 12357, 13042, 13526]}, "edge": {"target": [], "time": []}}}, "displayed_time": "19.19", "trialTime": 20909, "trial_type": "mouselab-mdp", "trial_index": 42, "time_elapsed": 1979166, "internal_node_id": "0.0-6.0-1.0-21.0"}}, {"uniqueid": "w90817480:a96116816", "current_trial": 43, "dateTime": 1693570295984, "trialdata": {"revealed_states": [], "clicked_states": ["23", "24", "25", "26", "27", "28"], "num_clicks_accrued": [0, 0, 0, 0, 0, 0, 0, 0, 0, 0, 0, 0, 0], "stateRewards": ["", -1, -3, 3, 5, 56, 39, 50, -1, -80, 33, -46, 1, -2, -6, -8, 87, 48, 54, -11, -20, -64, -54, -2, 3, -7, -3, 12, 88, 35, -16, -46, -70, -3], "withholdReward": false, "trial_id": "mdp_trial_23", "block": "test", "trialIndex": 28, "score": 72.1, "costs": -6.9, "simulationMode": [null, null, null, null, null], "rewards": [-2, 3, -7, -3, 88], "path": ["0", "0", "23", "24", "25", "26", "28"], "rt": [12138, 35, 16, 461, 128], "actions": ["left", "left", "left", "up", "right"], "actionTimes": [13430, 13989, 14540, 15519, 16165], "queries": {"click": {"state": {"target": ["23", "24", "25", "26", "27", "28"], "time": [3371, 4188, 4840, 5592, 6139, 9845]}, "edge": {"target": [], "time": []}}, "mouseover": {"state": {"target": ["12", "13", "12", "28", "25", "24", "23", "24", "25", "26", "27", "28", "26", "29"], "time": [1609, 1840, 2287, 2480, 2663, 2840, 3161, 3733, 4706, 5365, 5967, 6586, 10552, 10706]}, "edge": {"target": [], "time": []}}, "mouseout": {"state": {"target": ["12", "12", "13", "12", "28", "25", "24", "23", "24", "25", "26", "27", "28", "26", "29", "26", "0", "13", "14"], "time": [770, 1767, 2215, 2332, 2524, 2676, 2936, 3656, 4580, 5122, 5848, 6377, 10482, 10634, 16920, 17065, 17136, 17182, 17201]}, "edge": {"target": [], "time": []}}}, "displayed_time": "16.69", "trialTime": 18142, "trial_type": "mouselab-mdp", "trial_index": 43, "time_elapsed": 1997961, "internal_node_id": "0.0-6.0-1.0-22.0"}}, {"uniqueid": "w90817480:a96116816", "current_trial": 44, "dateTime": 1693570319805, "trialdata": {"revealed_states": [], "clicked_states": ["12", "13", "14", "15", "17", "16", "18", "22"], "num_clicks_accrued": [0, 0, 0, 0, 0, 0, 0, 0, 0, 0, 0, 0, 0], "stateRewards": ["", -2, 4, -3, -13, 63, -36, 62, 11, 78, 34, -51, 2, -2, 8, -6, -40, -18, 31, 9, 64, 39, 79, 1, 4, -4, 15, -12, 76, 73, -10, -77, 86, -4], "withholdReward": false, "trial_id": "mdp_trial_24", "block": "test", "trialIndex": 29, "score": 84.8, "costs": -11.200000000000001, "simulationMode": [null, null, null, null, null], "rewards": [2, -2, 8, 9, 79], "path": ["0", "0", "12", "13", "14", "19", "22"], "rt": [17406, 88, 106, 42, 13], "actions": ["right", "right", "right", "down", "left"], "actionTimes": [19396, 19994, 20611, 21147, 21699], "queries": {"click": {"state": {"target": ["12", "13", "14", "15", "17", "16", "18", "22"], "time": [3076, 3740, 4180, 4667, 5166, 8912, 12260, 15986]}, "edge": {"target": [], "time": []}}, "mouseover": {"state": {"target": ["23", "0", "12", "13", "14", "15", "17", "13", "14", "16", "15", "15", "18", "15", "14", "19", "22", "21"], "time": [2606, 2725, 2913, 3511, 4047, 4462, 5045, 8318, 8337, 8751, 9326, 9598, 9690, 12558, 12731, 12852, 15800, 16419]}, "edge": {"target": [], "time": []}}, "mouseout": {"state": {"target": ["19", "22", "0", "23", "0", "12", "13", "14", "15", "17", "14", "13", "13", "14", "17", "16", "15", "15", "18", "18", "15", "14", "19", "22"], "time": [957, 1037, 2471, 2685, 2780, 3457, 4010, 4342, 5015, 5463, 5586, 5646, 8334, 8360, 8377, 9247, 9428, 9611, 12304, 12527, 12568, 12780, 15494, 16176]}, "edge": {"target": [], "time": []}}}, "displayed_time": "22.22", "trialTime": 23258, "trial_type": "mouselab-mdp", "trial_index": 44, "time_elapsed": 2021783, "internal_node_id": "0.0-6.0-1.0-23.0"}}, {"uniqueid": "w90817480:a96116816", "current_trial": 45, "dateTime": 1693570339055, "trialdata": {"revealed_states": [], "clicked_states": ["1", "2", "3", "8", "9", "12", "13", "21"], "num_clicks_accrued": [0, 0, 0, 0, 0, 0, 0, 0, 0, 0, 0, 0, 0], "stateRewards": ["", -1, 1, 3, -8, -23, -15, -14, -11, -23, 58, 68, 1, 3, 5, 12, -17, -41, -7, -10, -4, 82, 10, 1, 4, -4, 11, 73, 55, -55, -1, -86, -86, 54], "withholdReward": false, "trial_id": "mdp_trial_25", "block": "test", "trialIndex": 30, "score": 74, "costs": -7, "simulationMode": [null, null, null, null, null], "rewards": [1, 3, 5, -10, 82], "path": ["0", "0", "12", "13", "14", "19", "21"], "rt": [12212, 25, 62, 430, 89], "actions": ["right", "right", "right", "down", "down"], "actionTimes": [13929, 14472, 15056, 16008, 16617], "queries": {"click": {"state": {"target": ["1", "2", "3", "8", "9", "12", "13", "21"], "time": [2534, 3096, 3821, 4325, 4798, 8919, 9331, 10343]}, "edge": {"target": [], "time": []}}, "mouseover": {"state": {"target": ["1", "2", "10", "3", "8", "9", "4", "12", "13", "14", "19", "21", "22", "22"], "time": [2204, 2836, 3329, 3597, 4098, 4548, 5160, 8358, 9131, 9549, 10041, 10260, 11395, 13097]}, "edge": {"target": [], "time": []}}, "mouseout": {"state": {"target": ["21", "22", "0", "1", "2", "10", "3", "8", "9", "4", "12", "13", "14", "19", "21", "21", "22", "22"], "time": [362, 682, 1355, 2761, 3173, 3484, 4028, 4447, 5083, 5198, 9090, 9407, 10001, 10082, 10418, 11086, 11872, 17725]}, "edge": {"target": [], "time": []}}}, "displayed_time": "17.13", "trialTime": 18687, "trial_type": "mouselab-mdp", "trial_index": 45, "time_elapsed": 2041032, "internal_node_id": "0.0-6.0-1.0-24.0"}}, {"uniqueid": "w90817480:a96116816", "current_trial": 46, "dateTime": 1693570356382, "trialdata": {"revealed_states": [], "clicked_states": ["12", "13", "14", "19", "20", "22"], "num_clicks_accrued": [0, 0, 0, 0, 0, 0, 0, 0, 0, 0, 0, 0, 0], "stateRewards": ["", 2, -3, 5, -14, -63, -9, -24, -11, -54, -43, 68, 2, -2, -4, 7, -64, 30, 47, 12, -74, 11, 86, 1, -3, 3, 10, -71, -42, -52, -1, -29, -16, 69], "withholdReward": false, "trial_id": "mdp_trial_26", "block": "test", "trialIndex": 31, "score": 87.1, "costs": -6.9, "simulationMode": [null, null, null, null, null], "rewards": [2, -2, -4, 12, 86], "path": ["0", "0", "12", "13", "14", "19", "22"], "rt": [10689, 4, 43, 534, 84], "actions": ["right", "right", "right", "down", "left"], "actionTimes": [11791, 12314, 12886, 13957, 14557], "queries": {"click": {"state": {"target": ["12", "13", "14", "19", "20", "22"], "time": [3238, 3712, 4176, 4613, 5029, 8451]}, "edge": {"target": [], "time": []}}, "mouseover": {"state": {"target": ["12", "12", "13", "22", "13", "12", "13", "14", "19", "20", "22", "21"], "time": [1465, 1985, 2330, 2609, 2769, 3091, 3513, 3978, 4468, 4836, 5603, 9574]}, "edge": {"target": [], "time": []}}, "mouseout": {"state": {"target": ["0", "12", "12", "13", "22", "13", "12", "13", "14", "19", "20", "22", "22"], "time": [1347, 1529, 2291, 2397, 2705, 3026, 3455, 3918, 4418, 4802, 5387, 8536, 8833]}, "edge": {"target": [], "time": []}}}, "displayed_time": "15.10", "trialTime": 16606, "trial_type": "mouselab-mdp", "trial_index": 46, "time_elapsed": 2058360, "internal_node_id": "0.0-6.0-1.0-25.0"}}, {"uniqueid": "w90817480:a96116816", "current_trial": 47, "dateTime": 1693570374142, "trialdata": {"revealed_states": [], "clicked_states": ["1", "2", "3", "8", "10"], "num_clicks_accrued": [0, 0, 0, 0, 0, 0, 0, 0, 0, 0, 0, 0, 0], "stateRewards": ["", -2, -3, -6, -7, 9, 16, 65, 5, -41, 20, -25, -1, -4, 1, -11, -49, -4, 71, 1, 39, -62, 52, -2, -3, 7, -9, -28, -70, 84, 8, 24, -58, 82], "withholdReward": false, "trial_id": "mdp_trial_27", "block": "test", "trialIndex": 32, "score": 9.25, "costs": -4.75, "simulationMode": [null, null, null, null, null], "rewards": [-2, -3, -6, 5, 20], "path": ["0", "0", "1", "2", "3", "8", "10"], "rt": [10504, 516, 97, 474, 90], "actions": ["up", "up", "up", "left", "down"], "actionTimes": [11925, 12963, 13579, 14555, 15154], "queries": {"click": {"state": {"target": ["1", "2", "3", "8", "10"], "time": [2281, 2837, 3412, 4147, 4613]}, "edge": {"target": [], "time": []}}, "mouseover": {"state": {"target": ["12", "1", "2", "3", "8", "10", "7", "18", "13", "12", "7", "7", "3", "8", "11"], "time": [1710, 2055, 2576, 3130, 3959, 4474, 4988, 8510, 8574, 8766, 9485, 9806, 10108, 10303, 10441]}, "edge": {"target": [], "time": []}}, "mouseout": {"state": {"target": ["12", "0", "12", "1", "2", "3", "8", "10", "2", "7", "18", "13", "12", "7", "7", "3", "8", "11", "3", "2", "1"], "time": [869, 1647, 1814, 2504, 2975, 3915, 4422, 4921, 4971, 5011, 8545, 8677, 9422, 9511, 10002, 10131, 10375, 10885, 16295, 16416, 16494]}, "edge": {"target": [], "time": []}}}, "displayed_time": "15.66", "trialTime": 17194, "trial_type": "mouselab-mdp", "trial_index": 47, "time_elapsed": 2076119, "internal_node_id": "0.0-6.0-1.0-26.0"}}, {"uniqueid": "w90817480:a96116816", "current_trial": 48, "dateTime": 1693570398080, "trialdata": {"revealed_states": [], "clicked_states": ["23", "24", "25", "26", "28", "29", "27", "30", "33"], "num_clicks_accrued": [0, 0, 0, 0, 0, 0, 0, 0, 0, 0, 0, 0, 0], "stateRewards": ["", -2, -4, -8, 8, 63, -50, -19, -7, -17, -31, 31, 1, 3, -5, 12, -35, -63, -29, -4, -17, -75, -79, -2, -3, -2, 8, -3, -85, 10, -2, -82, -82, 56], "withholdReward": false, "trial_id": "mdp_trial_28", "block": "test", "trialIndex": 33, "score": 34.25, "costs": -12.750000000000002, "simulationMode": [null, null, null, null, null], "rewards": [-2, -3, -2, -2, 56], "path": ["0", "0", "23", "24", "25", "30", "33"], "rt": [17002, 75, 20, 500, 173], "actions": ["left", "left", "left", "down", "left"], "actionTimes": [18301, 18900, 19443, 20460, 21149], "queries": {"click": {"state": {"target": ["23", "24", "25", "26", "28", "29", "27", "30", "33"], "time": [1837, 2429, 2916, 3439, 3964, 7633, 10940, 14220, 14807]}, "edge": {"target": [], "time": []}}, "mouseover": {"state": {"target": ["23", "24", "25", "26", "28", "26", "29", "27", "25", "30", "33", "31", "31"], "time": [1672, 2261, 2765, 3258, 3733, 7240, 7478, 8366, 11489, 11880, 14657, 15304, 16840]}, "edge": {"target": [], "time": []}}, "mouseout": {"state": {"target": ["0", "0", "23", "23", "24", "25", "26", "28", "26", "29", "27", "25", "30", "33", "30", "31", "31"], "time": [467, 870, 1928, 2167, 2676, 3087, 3675, 7213, 7386, 8123, 11297, 11503, 14617, 15140, 15256, 15411, 22207]}, "edge": {"target": [], "time": []}}}, "displayed_time": "21.66", "trialTime": 23238, "trial_type": "mouselab-mdp", "trial_index": 48, "time_elapsed": 2100057, "internal_node_id": "0.0-6.0-1.0-27.0"}}, {"uniqueid": "w90817480:a96116816", "current_trial": 49, "dateTime": 1693570415168, "trialdata": {"revealed_states": [], "clicked_states": ["1", "2", "3", "8", "9"], "num_clicks_accrued": [0, 0, 0, 0, 0, 0, 0, 0, 0, 0, 0, 0, 0], "stateRewards": ["", -1, -3, -7, -4, -85, -70, 79, 8, 84, -66, 42, 2, -2, -3, -16, -54, -66, 68, -3, 21, -14, 7, -2, -1, -3, -8, 75, 80, 86, -7, -84, 73, -16], "withholdReward": false, "trial_id": "mdp_trial_29", "block": "test", "trialIndex": 34, "score": 76.25, "costs": -4.75, "simulationMode": [null, null, null, null, null], "rewards": [-1, -3, -7, 8, 84], "path": ["0", "0", "1", "2", "3", "8", "9"], "rt": [6687, 69, 55, 8, 72], "actions": ["up", "up", "up", "left", "up"], "actionTimes": [7760, 8351, 8920, 9458, 10065], "queries": {"click": {"state": {"target": ["1", "2", "3", "8", "9"], "time": [2174, 2724, 3376, 3992, 4530]}, "edge": {"target": [], "time": []}}, "mouseover": {"state": {"target": ["1", "2", "3", "8", "9", "4"], "time": [1723, 2447, 3134, 3901, 4372, 4864]}, "edge": {"target": [], "time": []}}, "mouseout": {"state": {"target": ["12", "1", "2", "3", "8", "9", "4"], "time": [531, 2367, 2882, 3782, 4175, 4798, 4896]}, "edge": {"target": [], "time": []}}}, "displayed_time": "15.07", "trialTime": 16417, "trial_type": "mouselab-mdp", "trial_index": 49, "time_elapsed": 2117145, "internal_node_id": "0.0-6.0-1.0-28.0"}}, {"uniqueid": "w90817480:a96116816", "current_trial": 50, "dateTime": 1693570444367, "trialdata": {"revealed_states": [], "clicked_states": ["12", "13", "14", "19", "20", "22", "23", "24", "25", "30", "31", "33", "32"], "num_clicks_accrued": [0, 0, 0, 0, 0, 0, 0, 0, 0, 0, 0, 0, 0], "stateRewards": ["", -1, 3, 8, 9, -53, 20, -84, 2, -28, -62, -31, -1, -2, -7, 2, 51, 58, 45, -4, -17, -41, 36, 2, -2, -7, -15, 29, -54, -37, -16, -43, 65, -17], "withholdReward": false, "trial_id": "mdp_trial_30", "block": "test", "trialIndex": 35, "score": 26.049999999999997, "costs": -15.950000000000001, "simulationMode": [null, null, null, null, null], "rewards": [2, -2, -7, -16, 65], "path": ["0", "0", "23", "24", "25", "30", "32"], "rt": [22821, 51, 63, 6, 100], "actions": ["left", "left", "left", "down", "down"], "actionTimes": [24260, 24827, 25419, 25947, 26573], "queries": {"click": {"state": {"target": ["12", "13", "14", "19", "20", "22", "23", "24", "25", "30", "31", "33", "32"], "time": [2205, 2651, 3176, 3594, 4034, 7674, 11346, 11813, 12661, 13383, 13726, 17627, 20987]}, "edge": {"target": [], "time": []}}, "mouseover": {"state": {"target": ["12", "13", "14", "19", "20", "22", "14", "23", "24", "25", "30", "31", "12", "0", "23", "25", "33", "23", "0", "0", "31", "30", "32", "23"], "time": [2071, 2490, 3063, 3508, 3868, 7535, 8872, 10023, 11620, 12324, 13207, 13559, 14286, 17006, 17051, 17107, 17407, 18023, 18069, 19805, 19878, 19908, 20663, 21518]}, "edge": {"target": [], "time": []}}, "mouseout": {"state": {"target": ["7", "1", "12", "13", "14", "14", "19", "19", "20", "22", "14", "23", "24", "25", "25", "30", "30", "31", "12", "0", "23", "25", "33", "23", "0", "0", "31", "30", "32", "23"], "time": [679, 911, 2422, 2758, 3288, 3384, 3686, 3812, 4192, 8031, 8976, 11550, 12122, 12886, 13148, 13448, 13520, 14071, 16985, 17041, 17069, 17129, 17702, 18040, 18139, 19827, 19889, 19940, 21232, 21551]}, "edge": {"target": [], "time": []}}}, "displayed_time": "27.11", "trialTime": 28612, "trial_type": "mouselab-mdp", "trial_index": 50, "time_elapsed": 2146345, "internal_node_id": "0.0-6.0-1.0-29.0"}}, {"uniqueid": "w90817480:a96116816", "current_trial": 51, "dateTime": 1693570476206, "trialdata": {"revealed_states": [], "clicked_states": ["1", "2", "3", "8", "11", "4", "6", "9", "5", "7", "10"], "num_clicks_accrued": [0, 0, 0, 0, 0, 0, 0, 0, 0, 0, 0, 0, 0], "stateRewards": ["", 2, 4, -6, -13, -75, -81, 30, 7, 5, 59, -65, -1, -1, 7, 14, -38, 36, -41, 1, -54, -5, 64, 2, -1, 5, 6, -19, 79, 11, 16, -33, -50, 58], "withholdReward": false, "trial_id": "mdp_trial_31", "block": "test", "trialIndex": 36, "score": 48.95, "costs": -17.05, "simulationMode": [null, null, null, null, null], "rewards": [2, 4, -6, 7, 59], "path": ["0", "0", "1", "2", "3", "8", "10"], "rt": [25578, 32, 51, 4, 22], "actions": ["up", "up", "up", "left", "down"], "actionTimes": [27131, 27658, 28226, 28761, 29313], "queries": {"click": {"state": {"target": ["1", "2", "3", "8", "11", "4", "6", "9", "5", "7", "10"], "time": [2063, 2600, 3188, 3730, 4210, 8369, 8813, 12992, 16663, 20320, 23880]}, "edge": {"target": [], "time": []}}, "mouseover": {"state": {"target": ["1", "2", "3", "8", "11", "10", "7", "4", "4", "6", "7", "5", "9", "4", "7", "4", "5", "4", "7", "7", "7", "10", "2"], "time": [1820, 2413, 3000, 3553, 4086, 4807, 5478, 7614, 7868, 8639, 9288, 12445, 12765, 13508, 13692, 16196, 16395, 17131, 17244, 19821, 20204, 20906, 24167]}, "edge": {"target": [], "time": []}}, "mouseout": {"state": {"target": ["23", "1", "2", "3", "3", "8", "11", "8", "10", "2", "7", "4", "4", "6", "7", "5", "9", "4", "7", "4", "5", "4", "7", "7", "7", "10", "2", "7", "12"], "time": [571, 2271, 2838, 3283, 3493, 3965, 4514, 4597, 4905, 5444, 7563, 7652, 8594, 9102, 12164, 12571, 13311, 13537, 16140, 16244, 17028, 17185, 17315, 19933, 20400, 23951, 24221, 30533, 30613]}, "edge": {"target": [], "time": []}}}, "displayed_time": "29.84", "trialTime": 31263, "trial_type": "mouselab-mdp", "trial_index": 51, "time_elapsed": 2178183, "internal_node_id": "0.0-6.0-1.0-30.0"}}, {"uniqueid": "w90817480:a96116816", "current_trial": 52, "dateTime": 1693570493793, "trialdata": {"revealed_states": [], "clicked_states": ["23", "24", "25", "30", "33"], "num_clicks_accrued": [0, 0, 0, 0, 0, 0, 0, 0, 0, 0, 0, 0, 0], "stateRewards": ["", 1, 2, -6, -13, -51, 22, -4, -12, -44, -12, 6, -2, -2, -2, -14, -46, -4, -77, -2, 36, -79, 41, 2, -4, 2, -6, -55, 59, 70, -5, 39, -19, 24], "withholdReward": false, "trial_id": "mdp_trial_32", "block": "test", "trialIndex": 37, "score": 14.25, "costs": -4.75, "simulationMode": [null, null, null, null, null], "rewards": [2, -4, 2, -5, 24], "path": ["0", "0", "23", "24", "25", "30", "33"], "rt": [5645, 46, 20, 236, 474], "actions": ["left", "left", "left", "down", "left"], "actionTimes": [6591, 7158, 7701, 8557, 9558], "queries": {"click": {"state": {"target": ["23", "24", "25", "30", "33"], "time": [1573, 2112, 2570, 2915, 3223]}, "edge": {"target": [], "time": []}}, "mouseover": {"state": {"target": ["23", "24", "25", "30", "33", "31", "12", "13"], "time": [1468, 1826, 2382, 2827, 3101, 3489, 3903, 4015]}, "edge": {"target": [], "time": []}}, "mouseout": {"state": {"target": ["0", "23", "24", "25", "30", "33", "31", "12", "13"], "time": [1394, 1739, 2282, 2754, 3051, 3282, 3510, 3916, 8198]}, "edge": {"target": [], "time": []}}}, "displayed_time": "14.95", "trialTime": 16878, "trial_type": "mouselab-mdp", "trial_index": 52, "time_elapsed": 2195770, "internal_node_id": "0.0-6.0-1.0-31.0"}}, {"uniqueid": "w90817480:a96116816", "current_trial": 53, "dateTime": 1693570523712, "trialdata": {"revealed_states": [], "clicked_states": ["1", "2", "3", "4", "7", "5", "6", "9", "11"], "num_clicks_accrued": [0, 0, 0, 0, 0, 0, 0, 0, 0, 0, 0, 0, 0], "stateRewards": ["", 1, -2, -2, 10, -31, -77, 35, 9, -47, 8, 48, -2, 1, -4, -3, -26, -50, 43, -11, 76, -38, 17, 1, -1, 6, 10, 15, -9, 12, -8, 85, 11, -55], "withholdReward": false, "trial_id": "mdp_trial_33", "block": "test", "trialIndex": 38, "score": 40.65, "costs": -13.350000000000001, "simulationMode": [null, null, null, null, null], "rewards": [1, -2, -2, 9, 48], "path": ["0", "0", "1", "2", "3", "8", "11"], "rt": [20938, 518, 125, 456, 157], "actions": ["up", "up", "up", "left", "left"], "actionTimes": [23985, 25015, 25655, 26633, 27303], "queries": {"click": {"state": {"target": ["1", "2", "3", "4", "7", "5", "6", "9", "11"], "time": [4018, 5138, 6053, 6416, 6842, 10831, 14024, 17485, 20671]}, "edge": {"target": [], "time": []}}, "mouseover": {"state": {"target": ["1", "2", "3", "4", "7", "4", "5", "6", "4", "8", "9", "11", "10"], "time": [3116, 4310, 5788, 6251, 6675, 10331, 10557, 11365, 15749, 16331, 17264, 17945, 21207]}, "edge": {"target": [], "time": []}}, "mouseout": {"state": {"target": ["23", "23", "0", "1", "2", "3", "4", "7", "4", "5", "6", "4", "8", "9", "11"], "time": [2050, 2394, 3066, 4034, 5339, 6193, 6596, 7397, 10359, 11172, 14349, 15787, 17085, 17809, 21029]}, "edge": {"target": [], "time": []}}}, "displayed_time": "27.83", "trialTime": 29296, "trial_type": "mouselab-mdp", "trial_index": 53, "time_elapsed": 2225689, "internal_node_id": "0.0-6.0-1.0-32.0"}}, {"uniqueid": "w90817480:a96116816", "current_trial": 54, "dateTime": 1693570546801, "trialdata": {"revealed_states": [], "clicked_states": ["12", "13", "14", "1", "2", "23", "24", "30", "33", "3", "4", "5"], "num_clicks_accrued": [0, 0, 0, 0, 0, 0, 0, 0, 0, 0, 0, 0, 0], "stateRewards": ["", -1, 4, -3, 3, 57, -61, 5, -11, 23, -1, 34, -2, -4, -1, -13, 27, 38, -36, 4, -45, 21, 88, 1, -2, -1, 1, -69, -5, -78, -12, -9, 38, -54], "withholdReward": false, "trial_id": "mdp_trial_34", "block": "test", "trialIndex": 39, "score": 50.4, "costs": -9.6, "simulationMode": [null, null, null, null, null], "rewards": [-1, 4, -3, 3, 57], "path": ["0", "0", "1", "2", "3", "4", "5"], "rt": [16056, 494, 112, 16, 58], "actions": ["up", "up", "up", "right", "up"], "actionTimes": [17502, 18516, 19149, 19684, 20261], "queries": {"click": {"state": {"target": ["12", "13", "14", "1", "2", "23", "24", "30", "33", "3", "4", "5"], "time": [2989, 3462, 4172, 5956, 6677, 7771, 8205, 8876, 9477, 12587, 13501, 14193]}, "edge": {"target": [], "time": []}}, "mouseover": {"state": {"target": ["23", "0", "12", "13", "12", "13", "14", "0", "1", "2", "1", "2", "3", "23", "24", "30", "33", "28", "26", "28", "2", "3", "4", "5"], "time": [2088, 2376, 2433, 2468, 2864, 3294, 3782, 4883, 5184, 5698, 5860, 6267, 7070, 7466, 8080, 8671, 9263, 9955, 10197, 10633, 11659, 12407, 13378, 13977]}, "edge": {"target": [], "time": []}}, "mouseout": {"state": {"target": ["10", "2", "2", "1", "23", "0", "12", "13", "12", "13", "14", "0", "1", "2", "1", "2", "3", "2", "23", "24", "30", "33", "24", "28", "26", "28", "2", "3", "4", "5", "4", "7"], "time": [329, 464, 713, 936, 2361, 2400, 2444, 2779, 3213, 3726, 4682, 4942, 5515, 5796, 6037, 6840, 7312, 7373, 8010, 8461, 9166, 9693, 9889, 10117, 10595, 10709, 12103, 12905, 13887, 14505, 21339, 21371]}, "edge": {"target": [], "time": []}}}, "displayed_time": "20.79", "trialTime": 22469, "trial_type": "mouselab-mdp", "trial_index": 54, "time_elapsed": 2248778, "internal_node_id": "0.0-6.0-1.0-33.0"}}, {"uniqueid": "w90817480:a96116816", "current_trial": 55, "dateTime": 1693570563362, "trialdata": {"revealed_states": [], "clicked_states": ["1", "2", "3", "8", "10"], "num_clicks_accrued": [0, 0, 0, 0, 0, 0, 0, 0, 0, 0, 0, 0, 0], "stateRewards": ["", 1, 3, 3, -10, 52, 68, 59, 12, 7, 49, 21, -2, -3, -4, -2, -2, 63, 63, -4, 44, 43, -76, -2, -3, -6, 13, 48, 36, 12, -5, -36, -33, -11], "withholdReward": false, "trial_id": "mdp_trial_35", "block": "test", "trialIndex": 40, "score": 63.25, "costs": -4.75, "simulationMode": [null, null, null, null, null], "rewards": [1, 3, 3, 12, 49], "path": ["0", "0", "1", "2", "3", "8", "10"], "rt": [5745, 4, 11, 387, 95], "actions": ["up", "up", "up", "left", "down"], "actionTimes": [7143, 7666, 8205, 9133, 9741], "queries": {"click": {"state": {"target": ["1", "2", "3", "8", "10"], "time": [2100, 2645, 3083, 3397, 3713]}, "edge": {"target": [], "time": []}}, "mouseover": {"state": {"target": ["1", "2", "3", "8", "10", "16", "16"], "time": [1960, 2483, 2852, 3250, 3585, 4890, 6900]}, "edge": {"target": [], "time": []}}, "mouseout": {"state": {"target": ["0", "1", "2", "3", "8", "10", "16", "16"], "time": [1817, 2305, 2784, 3225, 3533, 4194, 5212, 11073]}, "edge": {"target": [], "time": []}}}, "displayed_time": "15.40", "trialTime": 15926, "trial_type": "mouselab-mdp", "trial_index": 55, "time_elapsed": 2265339, "internal_node_id": "0.0-6.0-1.0-34.0"}}, {"uniqueid": "w90817480:a96116816", "current_trial": 56, "dateTime": 1693570580272, "trialdata": {"revealed_states": [], "clicked_states": ["12", "1", "2", "3", "4", "5", "6"], "num_clicks_accrued": [0, 0, 0, 0, 0, 0, 0, 0, 0, 0, 0, 0, 0], "stateRewards": ["", -1, 3, 8, 10, -86, 61, -36, 10, 17, -60, 24, -1, -3, 3, 11, 50, 60, 33, -3, -20, 58, -6, 1, -4, -4, 13, -70, -71, 43, 14, 52, 82, -11], "withholdReward": false, "trial_id": "mdp_trial_36", "block": "test", "trialIndex": 41, "score": 74.35, "costs": -6.65, "simulationMode": [null, null, null, null, null], "rewards": [-1, 3, 8, 10, 61], "path": ["0", "0", "1", "2", "3", "4", "6"], "rt": [11096, 36, 22, 31, 66], "actions": ["up", "up", "up", "right", "right"], "actionTimes": [12675, 13232, 13784, 14313, 14896], "queries": {"click": {"state": {"target": ["12", "1", "2", "3", "4", "5", "6"], "time": [2383, 3648, 4469, 5018, 5515, 5965, 9223]}, "edge": {"target": [], "time": []}}, "mouseover": {"state": {"target": ["0", "12", "13", "1", "2", "3", "4", "5", "7", "6", "7"], "time": [1963, 2055, 2643, 3413, 4158, 4766, 5296, 5766, 6344, 8306, 9666]}, "edge": {"target": [], "time": []}}, "mouseout": {"state": {"target": ["15", "14", "13", "12", "0", "12", "13", "1", "2", "3", "4", "5", "4", "7", "6"], "time": [644, 700, 820, 974, 1982, 2564, 3289, 4081, 4537, 5252, 5659, 6225, 6318, 6389, 9487]}, "edge": {"target": [], "time": []}}}, "displayed_time": "15.58", "trialTime": 16217, "trial_type": "mouselab-mdp", "trial_index": 56, "time_elapsed": 2282250, "internal_node_id": "0.0-6.0-1.0-35.0"}}, {"uniqueid": "w90817480:a96116816", "current_trial": 57, "dateTime": 1693570597524, "trialdata": {"revealed_states": [], "clicked_states": ["12", "13", "14", "15", "18", "17"], "num_clicks_accrued": [0, 0, 0, 0, 0, 0, 0, 0, 0, 0, 0, 0, 0], "stateRewards": ["", -1, -1, 7, -15, -43, -21, -84, -9, -45, -66, 2, 1, -2, 2, 8, -27, 44, -52, -5, -84, 11, 53, 1, 4, -4, 16, 83, -82, -15, -16, 68, -43, 81], "withholdReward": false, "trial_id": "mdp_trial_37", "block": "test", "trialIndex": 42, "score": 46.1, "costs": -6.9, "simulationMode": [null, null, null, null, null], "rewards": [1, -2, 2, 8, 44], "path": ["0", "0", "12", "13", "14", "15", "17"], "rt": [9922, 73, 113, 544, 30], "actions": ["right", "right", "right", "up", "right"], "actionTimes": [11232, 11822, 12449, 13511, 14062], "queries": {"click": {"state": {"target": ["12", "13", "14", "15", "18", "17"], "time": [2068, 2554, 2959, 3631, 4082, 7900]}, "edge": {"target": [], "time": []}}, "mouseover": {"state": {"target": ["12", "13", "12", "13", "14", "15", "18", "17", "17", "15", "16"], "time": [1672, 1746, 1929, 2385, 2782, 3306, 3989, 7450, 7746, 8179, 8719]}, "edge": {"target": [], "time": []}}, "mouseout": {"state": {"target": ["7", "2", "1", "12", "13", "12", "13", "14", "15", "18", "17", "17", "15", "16", "16", "15", "13", "22", "22", "14"], "time": [312, 568, 674, 1715, 1881, 2158, 2608, 3036, 3780, 4424, 7480, 8136, 8278, 9276, 15226, 15349, 15403, 15439, 16210, 16266]}, "edge": {"target": [], "time": []}}}, "displayed_time": "15.33", "trialTime": 16592, "trial_type": "mouselab-mdp", "trial_index": 57, "time_elapsed": 2299501, "internal_node_id": "0.0-6.0-1.0-36.0"}}, {"uniqueid": "w90817480:a96116816", "current_trial": 58, "dateTime": 1693570614267, "trialdata": {"revealed_states": [], "clicked_states": ["23", "24", "25", "26", "27", "29"], "num_clicks_accrued": [0, 0, 0, 0, 0, 0, 0, 0, 0, 0, 0, 0, 0], "stateRewards": ["", 2, -2, 7, -11, -76, -65, -23, 16, -58, 30, 81, 1, 2, 7, 14, 9, 55, -2, 6, 11, -15, 31, -1, -1, -3, 2, 15, 2, 46, 15, 18, 45, -34], "withholdReward": false, "trial_id": "mdp_trial_38", "block": "test", "trialIndex": 43, "score": 36.1, "costs": -6.9, "simulationMode": [null, null, null, null, null], "rewards": [-1, -1, -3, 2, 46], "path": ["0", "0", "23", "24", "25", "26", "29"], "rt": [9587, 8, 18, 382, 5], "actions": ["left", "left", "left", "up", "left"], "actionTimes": [10910, 11448, 12004, 12916, 13438], "queries": {"click": {"state": {"target": ["23", "24", "25", "26", "27", "29"], "time": [2475, 2920, 3298, 3648, 4026, 7583]}, "edge": {"target": [], "time": []}}, "mouseover": {"state": {"target": ["0", "23", "24", "25", "26", "27", "1", "28", "26", "29", "26", "28"], "time": [2041, 2339, 2769, 3156, 3539, 3927, 7128, 7203, 7248, 7416, 7873, 7979]}, "edge": {"target": [], "time": []}}, "mouseout": {"state": {"target": ["15", "18", "12", "0", "0", "23", "24", "25", "26", "27", "1", "28", "26", "29", "26", "28", "0"], "time": [448, 582, 639, 1435, 2146, 2684, 3088, 3425, 3822, 4261, 7144, 7236, 7361, 7841, 7917, 14597, 14753]}, "edge": {"target": [], "time": []}}}, "displayed_time": "15.33", "trialTime": 16109, "trial_type": "mouselab-mdp", "trial_index": 58, "time_elapsed": 2316245, "internal_node_id": "0.0-6.0-1.0-37.0"}}, {"uniqueid": "w90817480:a96116816", "current_trial": 59, "dateTime": 1693570631770, "trialdata": {"revealed_states": [], "clicked_states": ["12", "13", "14", "19", "20", "22"], "num_clicks_accrued": [0, 0, 0, 0, 0, 0, 0, 0, 0, 0, 0, 0, 0], "stateRewards": ["", 1, 1, -6, -2, 7, 77, 3, 16, -16, 66, 31, -1, 3, -8, -6, 33, -50, -48, 7, -60, -66, 36, 2, -3, 3, -7, -12, -61, -79, -4, 8, 74, -70], "withholdReward": false, "trial_id": "mdp_trial_39", "block": "test", "trialIndex": 44, "score": 30.1, "costs": -6.9, "simulationMode": [null, null, null, null, null], "rewards": [-1, 3, -8, 7, 36], "path": ["0", "0", "12", "13", "14", "19", "22"], "rt": [9403, 34, 77, 714, 125], "actions": ["right", "right", "right", "down", "left"], "actionTimes": [11334, 11892, 12484, 13724, 14349], "queries": {"click": {"state": {"target": ["12", "13", "14", "19", "20", "22"], "time": [2667, 3111, 3484, 3830, 4171, 7826]}, "edge": {"target": [], "time": []}}, "mouseover": {"state": {"target": ["12", "13", "14", "19", "20", "22", "19", "21"], "time": [2421, 2954, 3364, 3706, 4026, 7575, 8353, 10570]}, "edge": {"target": [], "time": []}}, "mouseout": {"state": {"target": ["23", "0", "12", "13", "14", "19", "19", "20", "22", "19", "21"], "time": [1304, 2364, 2928, 3301, 3640, 3921, 3981, 4305, 8313, 10417, 15295]}, "edge": {"target": [], "time": []}}}, "displayed_time": "15.93", "trialTime": 16844, "trial_type": "mouselab-mdp", "trial_index": 59, "time_elapsed": 2333747, "internal_node_id": "0.0-6.0-1.0-38.0"}}, {"uniqueid": "w90817480:a96116816", "current_trial": 60, "dateTime": 1693570649858, "trialdata": {"revealed_states": [], "clicked_states": ["23", "24", "25", "30", "31"], "num_clicks_accrued": [0, 0, 0, 0, 0, 0, 0, 0, 0, 0, 0, 0, 0], "stateRewards": ["", 2, 3, 6, -5, -74, -53, 17, -12, 46, 44, 18, -2, 4, 1, -8, 22, -23, -49, 9, -45, 55, 81, 1, -1, -7, -16, -83, -71, -45, 2, 51, 82, 61], "withholdReward": false, "trial_id": "mdp_trial_40", "block": "test", "trialIndex": 45, "score": 41.25, "costs": -4.75, "simulationMode": [null, null, null, null, null], "rewards": [1, -1, -7, 2, 51], "path": ["0", "0", "23", "24", "25", "30", "31"], "rt": [5591, 23, 19, 5, 37], "actions": ["left", "left", "left", "down", "right"], "actionTimes": [7680, 8223, 8767, 9289, 9855], "queries": {"click": {"state": {"target": ["23", "24", "25", "30", "31"], "time": [3005, 3308, 3804, 4060, 4409]}, "edge": {"target": [], "time": []}}, "mouseover": {"state": {"target": ["0", "1", "23", "24", "25", "30", "31", "12", "13"], "time": [2410, 2587, 2839, 3233, 3635, 3984, 4288, 4701, 4775]}, "edge": {"target": [], "time": []}}, "mouseout": {"state": {"target": ["0", "0", "1", "23", "24", "25", "30", "31", "12"], "time": [2148, 2450, 2773, 3137, 3580, 3924, 4162, 4555, 4726]}, "edge": {"target": [], "time": []}}}, "displayed_time": "16.09", "trialTime": 17447, "trial_type": "mouselab-mdp", "trial_index": 60, "time_elapsed": 2351835, "internal_node_id": "0.0-6.0-1.0-39.0"}}, {"uniqueid": "w90817480:a96116816", "current_trial": 61, "dateTime": 1693570749601, "trialdata": {"rt": 99719, "response": {"Q0": "$-2 to $2", "Q1": "$-16 to $16", "Q2": "$-88 to $88", "Q3": "The cost for clicking on nodes varied between nodes.", "Q4": "Very unmotivated"}, "question_order": [0, 1, 2, 3, 4], "trial_id": "final_quiz_control", "trial_type": "survey-multi-choice", "trial_index": 61, "time_elapsed": 2451578, "internal_node_id": "0.0-6.0-2.0"}}, {"uniqueid": "w90817480:a96116816", "current_trial": 62, "dateTime": 1693570890820, "trialdata": {"rt": 141176, "response": {"Q0": "What I would do is click on the fist 2 to 3 noues then click the outer most nodes if it is high thats the path if it is low try another outer node to get a better score", "Q1": "Yes it does increase with practice you start getting the hang of it after a few tries", "Q2": "Not difficult at all i think this is a fairly easy straight forward game "}, "trial_id": "self_report_control", "trial_type": "survey-text", "trial_index": 62, "time_elapsed": 2592798, "internal_node_id": "0.0-6.0-3.0"}}, {"uniqueid": "w90817480:a96116816", "current_trial": 63, "dateTime": 1693570959007, "trialdata": {"rt": 68172, "response": {"Q0": "Disagree", "Q1": "Disagree", "Q2": "Agree", "Q3": "Agree", "Q4": "Disagree", "Q5": "Agree", "Q6": "Disagree"}, "question_order": [0, 1, 2, 3, 4, 5, 6], "trial_id": "self_report_2", "trial_type": "survey-multi-choice", "trial_index": 63, "time_elapsed": 2660984, "internal_node_id": "0.0-6.0-4.0"}}, {"uniqueid": "w90817480:a96116816", "current_trial": 64, "dateTime": 1693571013901, "trialdata": {"rt": 54881, "response": {"gender": "male", "age": "34", "colorblind": "0", "effort": "0"}, "trial_type": "survey-html-form", "trial_index": 64, "time_elapsed": 2715879, "internal_node_id": "0.0-6.0-5.0"}}, {"uniqueid": "w90817480:a96116816", "current_trial": 65, "dateTime": 1693571128764, "trialdata": {"rt": 114850, "response": {"Q0": "No maybe I failed the questionare twice because i mis read a few things but by the 3rd try a passed the game itself it straight forward on understanding", "Q1": "No this is my first time", "Q2": "I would advise to give atleast 4 practice rounds and not 2 "}, "trial_type": "survey-text", "trial_index": 65, "time_elapsed": 2830741, "internal_node_id": "0.0-6.0-6.0"}}, {"uniqueid": "w90817480:a96116816", "current_trial": 66, "dateTime": 1693571140077, "trialdata": {"rt": 11303, "stimulus": "<h1>Completion Code Instructions (1/2)</h1>\n<br><br><br><br>\nYou have reached the end of the experiment! The completion code consists of two parts: (1) a code with 2 characters (2) a code with 6 characters. On this page, you will receive the second part of the code. The first part of the completion code will be on the next page.\n<br><br>\nThe second part of your completion code is: <b>EWEK22</b>\n<br><br>\nPlease note this down. Then, press 'Finish HIT' in order to find the first part of your completion code. Once the data has been saved, you will receive this code either in this window or in the original browser window where you started the experiment.\n", "response": 0, "trial_type": "html-button-response", "trial_index": 66, "time_elapsed": 2842055, "internal_node_id": "0.0-6.0-7.0"}}, {"uniqueid": "w90817480:a96116816", "current_trial": 67, "dateTime": 1693571141086, "trialdata": {"success": true, "trial_type": "fullscreen", "trial_index": 67, "time_elapsed": 2843064, "internal_node_id": "0.0-7.0"}}], "questiondata": {"params": {"CODE": "C6DMOQA6", "MIN_TIME": 14, "inspectCost": 1, "startTime": "Fri Sep 01 2023 13:38:16 GMT+0200 (South Africa Standard Time)", "bonusRate": 0.002, "variance": "1_2_4_8_44", "branching": "31123"}}, "eventdata": [{"eventtype": "initialized", "value": null, "timestamp": 1693568295854, "interval": 0}, {"eventtype": "window_resize", "value": [1280, 622], "timestamp": 1693568295854, "interval": 0}, {"eventtype": "window_resize", "value": [1280, 622], "timestamp": 1693568296360, "interval": 506}, {"eventtype": "window_resize", "value": [1280, 720], "timestamp": 1693568308492, "interval": 12132}, {"eventtype": "window_resize", "value": [1600, 900], "timestamp": 1693568348260, "interval": 39768}, {"eventtype": "window_resize", "value": [1707, 960], "timestamp": 1693568349284, "interval": 1024}, {"eventtype": "window_resize", "value": [1920, 1080], "timestamp": 1693568349986, "interval": 702}, {"eventtype": "window_resize", "value": [2560, 1440], "timestamp": 1693568350766, "interval": 780}, {"eventtype": "window_resize", "value": [1920, 1080], "timestamp": 1693568351220, "interval": 454}, {"eventtype": "window_resize", "value": [2560, 1440], "timestamp": 1693568351692, "interval": 472}, {"eventtype": "window_resize", "value": [1707, 960], "timestamp": 1693568355930, "interval": 4238}, {"eventtype": "focus", "value": "off", "timestamp": 1693568767170, "interval": 411240}, {"eventtype": "focus", "value": "on", "timestamp": 1693568768987, "interval": 1817}, {"eventtype": "focus", "value": "off", "timestamp": 1693569064679, "interval": 295692}, {"eventtype": "focus", "value": "on", "timestamp": 1693569064680, "interval": 1}, {"eventtype": "window_resize", "value": [1707, 829], "timestamp": 1693569064915, "interval": 235}, {"eventtype": "window_resize", "value": [1707, 960], "timestamp": 1693569069662, "interval": 4747}, {"eventtype": "focus", "value": "off", "timestamp": 1693569390773, "interval": 321111}, {"eventtype": "focus", "value": "on", "timestamp": 1693569390774, "interval": 1}, {"eventtype": "window_resize", "value": [1707, 829], "timestamp": 1693569391012, "interval": 238}, {"eventtype": "window_resize", "value": [1707, 960], "timestamp": 1693569392621, "interval": 1609}, {"eventtype": "focus", "value": "off", "timestamp": 1693569570608, "interval": 177987}, {"eventtype": "focus", "value": "on", "timestamp": 1693569588310, "interval": 17702}, {"eventtype": "window_resize", "value": [1707, 829], "timestamp": 1693571140337, "interval": 1552027}], "useragent": "Mozilla/5.0 (Windows NT 10.0; Win64; x64) AppleWebKit/537.36 (KHTML, like Gecko) Chrome/116.0.0.0 Safari/537.36", "mode": "live", "id": "w90817480:a96116816", "status": "user data saved", "Beginhit": "2023-09-01 11:38:12.933102", "Beginexp": "2023-09-01 11:38:29.914598", "Endhit": "2023-09-01 12:25:44.554736", "psiturkStatus": 3, "browser": "<redacted>", "platform": "windows", "language": "en-GB"}