{"condition": 0, "counterbalance": 0, "assignmentId": "a49686609", "workerId": "w57664071", "hitId": "h45148793", "currenttrial": 55, "bonus": 0, "data": [{"uniqueid": "w57664071:a49686609", "current_trial": 0, "dateTime": 1693564947614, "trialdata": {"success": true, "trial_type": "fullscreen", "trial_index": 0, "time_elapsed": 28467, "internal_node_id": "0.0-0.0"}}, {"uniqueid": "w57664071:a49686609", "current_trial": 1, "dateTime": 1693564978644, "trialdata": {"view_history": [{"page_index": 0, "viewing_time": 31024}], "rt": 31025, "trial_id": "exp_instructions_control", "trial_type": "instructions", "trial_index": 1, "time_elapsed": 59497, "internal_node_id": "0.0-1.0"}}, {"uniqueid": "w57664071:a49686609", "current_trial": 2, "dateTime": 1693565251669, "trialdata": {"view_history": [{"page_index": 0, "viewing_time": 87571}, {"page_index": 1, "viewing_time": 112420}, {"page_index": 2, "viewing_time": 32907}, {"page_index": 3, "viewing_time": 40124}], "rt": 273023, "trial_id": "mouselab_instructions_1_control", "trial_type": "instructions", "trial_index": 2, "time_elapsed": 332522, "internal_node_id": "0.0-2.0-1.0"}}, {"uniqueid": "w57664071:a49686609", "current_trial": 3, "dateTime": 1693565275040, "trialdata": {"revealed_states": [], "clicked_states": ["1", "28"], "num_clicks_accrued": [0, 0, 0, 0, 0, 0, 0, 0, 0, 0, 0, 0, 0], "stateRewards": ["", -10, 10, 10, 10, -10, 10, -10, 10, 10, -10, 10, -10, 10, 10, -10, -10, 10, 10, -10, -10, -10, -10, 10, 10, 10, -10, 10, -10, 10, 10, 10, -10, 10], "withholdReward": false, "trial_id": "practice_1", "block": "test", "trialIndex": 0, "score": 32.5, "costs": -1, "simulationMode": [null, null, null, null, null], "rewards": [10, 10, 10, -10, 10], "path": ["0", "0", "23", "24", "25", "26", "29"], "rt": [8949, 399, 427, 2467, 782], "actions": ["left", "left", "left", "up", "left"], "actionTimes": [11775, 12682, 13623, 16600, 17895], "queries": {"click": {"state": {"target": ["1", "28"], "time": [5577, 7304]}, "edge": {"target": [], "time": []}}, "mouseover": {"state": {"target": ["1", "28", "23", "23"], "time": [5096, 6779, 8479, 9080]}, "edge": {"target": [], "time": []}}, "mouseout": {"state": {"target": ["0", "1", "28", "23", "23", "0"], "time": [1381, 6415, 8363, 8796, 10081, 19510]}, "edge": {"target": [], "time": []}}}, "displayed_time": "18.41", "trialTime": 22285, "trial_type": "mouselab-mdp", "trial_index": 3, "time_elapsed": 355891, "internal_node_id": "0.0-2.0-2.0-0.0"}}, {"uniqueid": "w57664071:a49686609", "current_trial": 4, "dateTime": 1693565305331, "trialdata": {"revealed_states": [], "clicked_states": ["1", "23", "12"], "num_clicks_accrued": [0, 0, 0, 0, 0, 0, 0, 0, 0, 0, 0, 0, 0], "stateRewards": ["", 10, -10, 10, 10, -10, 10, -10, 10, -10, 10, -10, -10, -10, -10, 10, -10, -10, 10, -10, 10, 10, -10, -10, -10, 10, 10, -10, -10, -10, -10, 10, -10, 10], "withholdReward": false, "trial_id": "practice_2", "block": "test", "trialIndex": 1, "score": 12, "costs": -1.5, "simulationMode": [null, null, null, null, null], "rewards": [10, -10, 10, 10, -10], "path": ["0", "0", "1", "2", "3", "8", "11"], "rt": [10438, 271, 311, 642, 12], "actions": ["up", "up", "up", "left", "left"], "actionTimes": [22383, 23173, 23996, 25143, 25678], "queries": {"click": {"state": {"target": ["1", "23", "12"], "time": [14794, 15942, 17471]}, "edge": {"target": [], "time": []}}, "mouseover": {"state": {"target": ["1", "2", "3", "2", "1", "23", "0", "12", "1", "1"], "time": [12616, 12733, 12983, 13250, 13582, 15583, 16700, 16999, 19515, 20900]}, "edge": {"target": [], "time": []}}, "mouseout": {"state": {"target": ["0", "1", "1", "2", "3", "2", "1", "23", "0", "12", "1", "1"], "time": [10864, 11116, 12683, 12867, 13216, 13366, 15367, 16650, 16800, 18615, 19649, 20948]}, "edge": {"target": [], "time": []}}}, "displayed_time": "26.20", "trialTime": 30020, "trial_type": "mouselab-mdp", "trial_index": 4, "time_elapsed": 386182, "internal_node_id": "0.0-2.0-2.0-1.0"}}, {"uniqueid": "w57664071:a49686609", "current_trial": 5, "dateTime": 1693565889316, "trialdata": {"view_history": [{"page_index": 0, "viewing_time": 573251}, {"page_index": 1, "viewing_time": 10725}], "rt": 583977, "trial_id": "mouselab_instructions_2_control", "trial_type": "instructions", "trial_index": 5, "time_elapsed": 970169, "internal_node_id": "0.0-2.0-3.0"}}, {"uniqueid": "w57664071:a49686609", "current_trial": 6, "dateTime": 1693565937988, "trialdata": {"rt": 48666, "response": {"Q0": "The cost for clicking on nodes may vary between nodes.", "Q1": "The better I perform the higher my bonus will be.", "Q2": "No, the amount of cash at each node of the web may be different each time.", "Q3": "To get the highest total score.", "Q4": "Only before moving the spider.", "Q5": "3 seconds"}, "question_order": [0, 1, 2, 3, 4, 5], "correct": {"Q0": "The cost for clicking on nodes may vary between nodes.", "Q1": "The better I perform the higher my bonus will be.", "Q2": "No, the amount of cash at each node of the web may be different each time.", "Q3": "To get the highest total score.", "Q4": "Only before moving the spider.", "Q5": "3 seconds"}, "trial_id": "mouselab_quiz_control", "trial_type": "survey-multi-choice", "trial_index": 6, "time_elapsed": 1018841, "internal_node_id": "0.0-2.0-4.0"}}, {"uniqueid": "w57664071:a49686609", "current_trial": 7, "dateTime": 1693565945021, "trialdata": {"rt": 7023, "response": {"Q0": "No"}, "question_order": [0], "trial_id": "repeat_check", "trial_type": "survey-multi-choice", "trial_index": 7, "time_elapsed": 1025873, "internal_node_id": "0.0-4.0-0.0"}}, {"uniqueid": "w57664071:a49686609", "current_trial": 8, "dateTime": 1693565968941, "trialdata": {"rt": 23907, "stimulus": "\n<h1> Get ready to start the game! </h1>\n\nThank you for reading the instructions. Get ready start with the 40 rounds of this game.\n<br><br>\nIf you need to take a break, feel free to take one after the end of a round, before continuing to the next one.\n<br><br>\nRemember, the more money the spider gets, the bigger your bonus will be!\n<br><br>\n<div style='text-align: center;'>Press <code>space</code> to begin.</div>\n\n<br><br>\n(If, at any point, the <code>space</code> key does not take you to the next page, click once on the text and try again.)", "response": " ", "trial_id": "mdp_ready", "trial_type": "html-keyboard-response", "trial_index": 8, "time_elapsed": 1049794, "internal_node_id": "0.0-6.0-0.0"}}, {"uniqueid": "w57664071:a49686609", "current_trial": 9, "dateTime": 1693565989078, "trialdata": {"revealed_states": [], "clicked_states": [], "num_clicks_accrued": [0, 0, 0, 0, 0, 0, 0, 0, 0, 0, 0, 0, 0], "stateRewards": ["", -2, 1, 6, -2, -10, -78, -69, 14, -15, 7, -1, 1, -1, -2, 13, 77, 32, 87, 5, -74, 30, -26, 1, 3, 4, 12, 39, 54, -43, 2, 10, 23, 13], "withholdReward": false, "trial_id": "mdp_trial_1", "block": "test", "trialIndex": 2, "score": 18, "costs": 0, "simulationMode": [null, null, null, null, null], "rewards": [-2, 1, 6, 14, -1], "path": ["0", "0", "1", "2", "3", "8", "11"], "rt": [4104, 290, 2053, 699, 89], "actions": ["up", "up", "up", "left", "left"], "actionTimes": [7642, 8451, 11014, 12227, 12833], "queries": {"click": {"state": {"target": [], "time": []}, "edge": {"target": [], "time": []}}, "mouseover": {"state": {"target": [], "time": []}, "edge": {"target": [], "time": []}}, "mouseout": {"state": {"target": ["18", "0"], "time": [1841, 14840]}, "edge": {"target": [], "time": []}}}, "displayed_time": "17.54", "trialTime": 19847, "trial_type": "mouselab-mdp", "trial_index": 9, "time_elapsed": 1069931, "internal_node_id": "0.0-6.0-1.0-0.0"}}, {"uniqueid": "w57664071:a49686609", "current_trial": 10, "dateTime": 1693566011601, "trialdata": {"revealed_states": [], "clicked_states": [], "num_clicks_accrued": [0, 0, 0, 0, 0, 0, 0, 0, 0, 0, 0, 0, 0], "stateRewards": ["", 2, -4, 4, 9, 69, 9, -75, 12, -86, 66, 25, -1, 3, 2, -13, -88, -3, 1, 4, -69, 49, -84, 2, -1, 4, 2, -18, -81, -52, -15, -69, -54, 25], "withholdReward": false, "trial_id": "mdp_trial_2", "block": "test", "trialIndex": 3, "score": -12, "costs": 0, "simulationMode": [null, null, null, null, null], "rewards": [-1, 3, 2, -13, -3], "path": ["0", "0", "12", "13", "14", "15", "17"], "rt": [1405, 308, 448, 754, 1159], "actions": ["right", "right", "right", "up", "right"], "actionTimes": [3200, 4027, 4985, 6240, 7912], "queries": {"click": {"state": {"target": [], "time": []}, "edge": {"target": [], "time": []}}, "mouseover": {"state": {"target": [], "time": []}, "edge": {"target": [], "time": []}}, "mouseout": {"state": {"target": ["0", "0"], "time": [1583, 9483]}, "edge": {"target": [], "time": []}}}, "displayed_time": "15.80", "trialTime": 22198, "trial_type": "mouselab-mdp", "trial_index": 10, "time_elapsed": 1092453, "internal_node_id": "0.0-6.0-1.0-1.0"}}, {"uniqueid": "w57664071:a49686609", "current_trial": 11, "dateTime": 1693566029176, "trialdata": {"revealed_states": [], "clicked_states": [], "num_clicks_accrued": [0, 0, 0, 0, 0, 0, 0, 0, 0, 0, 0, 0, 0], "stateRewards": ["", 1, 4, 7, -16, -84, -6, -46, -12, -7, -49, -26, -1, 2, -4, 2, 22, 37, -64, 1, 88, -13, -10, 1, -4, -2, 5, 2, -10, -34, 9, 66, 55, 38], "withholdReward": false, "trial_id": "mdp_trial_3", "block": "test", "trialIndex": 4, "score": -15, "costs": 0, "simulationMode": [null, null, null, null, null], "rewards": [-1, 2, -4, 1, -13], "path": ["0", "0", "12", "13", "14", "19", "21"], "rt": [3756, 290, 220, 629, 216], "actions": ["right", "right", "right", "down", "down"], "actionTimes": [5516, 6327, 7058, 8200, 8937], "queries": {"click": {"state": {"target": [], "time": []}, "edge": {"target": [], "time": []}}, "mouseover": {"state": {"target": ["0"], "time": [3169]}, "edge": {"target": [], "time": []}}, "mouseout": {"state": {"target": ["0", "0"], "time": [1542, 10284]}, "edge": {"target": [], "time": []}}}, "displayed_time": "15.76", "trialTime": 17279, "trial_type": "mouselab-mdp", "trial_index": 11, "time_elapsed": 1110027, "internal_node_id": "0.0-6.0-1.0-2.0"}}, {"uniqueid": "w57664071:a49686609", "current_trial": 12, "dateTime": 1693566051937, "trialdata": {"revealed_states": [], "clicked_states": ["23", "28"], "num_clicks_accrued": [0, 0, 0, 0, 0, 0, 0, 0, 0, 0, 0, 0, 0], "stateRewards": ["", 1, -2, -8, -3, 31, -84, -55, -14, 15, -58, 17, -2, -3, 7, 7, -12, 48, 67, 4, -44, -68, 46, 2, 3, -5, -7, 76, 27, 5, 11, 57, 52, 59], "withholdReward": false, "trial_id": "mdp_trial_4", "block": "test", "trialIndex": 5, "score": -98.8, "costs": -2.8, "simulationMode": [null, null, null, null, null], "rewards": [1, -2, -8, -3, -84], "path": ["0", "0", "1", "2", "3", "4", "6"], "rt": [9635, 308, 411, 696, 202], "actions": ["up", "up", "up", "right", "right"], "actionTimes": [15863, 16688, 17610, 18827, 19550], "queries": {"click": {"state": {"target": ["23", "28"], "time": [7543, 11438]}, "edge": {"target": [], "time": []}}, "mouseover": {"state": {"target": ["23", "24", "28", "1"], "time": [7080, 8448, 11079, 12180]}, "edge": {"target": [], "time": []}}, "mouseout": {"state": {"target": ["0", "0", "23", "24", "28"], "time": [3031, 5481, 8398, 10830, 12047]}, "edge": {"target": [], "time": []}}}, "displayed_time": "20.23", "trialTime": 22444, "trial_type": "mouselab-mdp", "trial_index": 12, "time_elapsed": 1132790, "internal_node_id": "0.0-6.0-1.0-3.0"}}, {"uniqueid": "w57664071:a49686609", "current_trial": 13, "dateTime": 1693566078004, "trialdata": {"revealed_states": [], "clicked_states": ["12", "23", "1"], "num_clicks_accrued": [0, 0, 0, 0, 0, 0, 0, 0, 0, 0, 0, 0, 0], "stateRewards": ["", 2, -1, 5, 8, 75, -35, -77, 1, -9, -81, -58, 1, 2, -7, 5, 77, -16, 19, 16, -10, -18, 40, -2, 3, 7, -5, 64, 1, -62, 10, 27, 10, 65], "withholdReward": false, "trial_id": "mdp_trial_5", "block": "test", "trialIndex": 6, "score": -6.199999999999999, "costs": -4.199999999999999, "simulationMode": [null, null, null, null, null], "rewards": [2, -1, 5, 1, -9], "path": ["0", "0", "1", "2", "3", "8", "9"], "rt": [9974, 304, 354, 737, 740], "actions": ["up", "up", "up", "left", "up"], "actionTimes": [14824, 15638, 16504, 17738, 18990], "queries": {"click": {"state": {"target": ["12", "23", "1"], "time": [6383, 9418, 12002]}, "edge": {"target": [], "time": []}}, "mouseover": {"state": {"target": ["12", "13", "23", "1"], "time": [5999, 7183, 9069, 10382]}, "edge": {"target": [], "time": []}}, "mouseout": {"state": {"target": ["2", "23", "0", "12", "13", "23", "1"], "time": [3753, 3982, 4332, 7034, 8715, 10350, 13132]}, "edge": {"target": [], "time": []}}}, "displayed_time": "19.50", "trialTime": 25748, "trial_type": "mouselab-mdp", "trial_index": 13, "time_elapsed": 1158855, "internal_node_id": "0.0-6.0-1.0-4.0"}}, {"uniqueid": "w57664071:a49686609", "current_trial": 14, "dateTime": 1693566104715, "trialdata": {"revealed_states": [], "clicked_states": [], "num_clicks_accrued": [0, 0, 0, 0, 0, 0, 0, 0, 0, 0, 0, 0, 0], "stateRewards": ["", 2, 3, 6, -12, -29, 12, 87, 4, 35, -30, 67, 2, 3, -5, -9, 44, 69, -8, 1, 45, -8, 28, -2, -1, -8, 11, -12, -5, 81, 9, 87, 82, 88], "withholdReward": false, "trial_id": "mdp_trial_6", "block": "test", "trialIndex": 7, "score": 80, "costs": 0, "simulationMode": [null, null, null, null, null], "rewards": [-2, -1, -8, 9, 82], "path": ["0", "0", "23", "24", "25", "30", "32"], "rt": [2123, 337, 122, 509, 181], "actions": ["left", "left", "left", "down", "down"], "actionTimes": [12625, 13478, 14113, 15134, 15822], "queries": {"click": {"state": {"target": [], "time": []}, "edge": {"target": [], "time": []}}, "mouseover": {"state": {"target": [], "time": []}, "edge": {"target": [], "time": []}}, "mouseout": {"state": {"target": ["0"], "time": [18619]}, "edge": {"target": [], "time": []}}}, "displayed_time": "24.50", "trialTime": 26375, "trial_type": "mouselab-mdp", "trial_index": 14, "time_elapsed": 1185568, "internal_node_id": "0.0-6.0-1.0-5.0"}}, {"uniqueid": "w57664071:a49686609", "current_trial": 15, "dateTime": 1693566124124, "trialdata": {"revealed_states": [], "clicked_states": [], "num_clicks_accrued": [0, 0, 0, 0, 0, 0, 0, 0, 0, 0, 0, 0, 0], "stateRewards": ["", 1, 1, 5, 6, -29, -7, 3, -16, 9, -46, 65, -1, 4, -1, -16, -63, -77, -87, 8, 80, -50, 43, -1, -1, -5, 5, -38, -71, -62, 9, 81, -50, -52], "withholdReward": false, "trial_id": "mdp_trial_7", "block": "test", "trialIndex": 8, "score": -40, "costs": 0, "simulationMode": [null, null, null, null, null], "rewards": [-1, -1, -5, 5, -38], "path": ["0", "0", "23", "24", "25", "26", "27"], "rt": [1127, 140, 52, 693, 36], "actions": ["left", "left", "left", "up", "up"], "actionTimes": [2715, 3368, 3929, 5151, 5697], "queries": {"click": {"state": {"target": [], "time": []}, "edge": {"target": [], "time": []}}, "mouseover": {"state": {"target": [], "time": []}, "edge": {"target": [], "time": []}}, "mouseout": {"state": {"target": ["0", "0", "1"], "time": [1362, 6907, 7022]}, "edge": {"target": [], "time": []}}}, "displayed_time": "15.59", "trialTime": 19024, "trial_type": "mouselab-mdp", "trial_index": 15, "time_elapsed": 1204977, "internal_node_id": "0.0-6.0-1.0-6.0"}}, {"uniqueid": "w57664071:a49686609", "current_trial": 16, "dateTime": 1693566142333, "trialdata": {"revealed_states": [], "clicked_states": [], "num_clicks_accrued": [0, 0, 0, 0, 0, 0, 0, 0, 0, 0, 0, 0, 0], "stateRewards": ["", 1, 2, -3, -5, 66, -50, -47, -5, 1, 28, -27, 1, 1, -1, -6, 37, -25, 56, 1, -82, -66, -40, -1, -4, -7, 15, -61, -23, 26, 10, 14, -56, 29], "withholdReward": false, "trial_id": "mdp_trial_8", "block": "test", "trialIndex": 9, "score": -58, "costs": 0, "simulationMode": [null, null, null, null, null], "rewards": [-1, -4, -7, 10, -56], "path": ["0", "0", "23", "24", "25", "30", "32"], "rt": [2096, 88, 214, 480, 177], "actions": ["left", "left", "left", "down", "down"], "actionTimes": [4266, 4848, 5573, 6570, 7268], "queries": {"click": {"state": {"target": [], "time": []}, "edge": {"target": [], "time": []}}, "mouseover": {"state": {"target": [], "time": []}, "edge": {"target": [], "time": []}}, "mouseout": {"state": {"target": ["1", "0", "0"], "time": [1241, 1405, 9455]}, "edge": {"target": [], "time": []}}}, "displayed_time": "16.18", "trialTime": 17853, "trial_type": "mouselab-mdp", "trial_index": 16, "time_elapsed": 1223186, "internal_node_id": "0.0-6.0-1.0-7.0"}}, {"uniqueid": "w57664071:a49686609", "current_trial": 17, "dateTime": 1693566159640, "trialdata": {"revealed_states": [], "clicked_states": ["12", "23", "1"], "num_clicks_accrued": [0, 0, 0, 0, 0, 0, 0, 0, 0, 0, 0, 0, 0], "stateRewards": ["", -2, 1, -7, -8, -37, -76, -87, 11, 30, -63, 80, -1, 4, 2, -1, 42, 17, 52, -3, -75, -80, -68, 2, -3, -5, -15, -48, 82, 24, -7, 5, -22, -71], "withholdReward": false, "trial_id": "mdp_trial_9", "block": "test", "trialIndex": 10, "score": -82.2, "costs": -4.199999999999999, "simulationMode": [null, null, null, null, null], "rewards": [-1, 4, 2, -3, -80], "path": ["0", "0", "12", "13", "14", "19", "21"], "rt": [8509, 129, 117, 399, 880], "actions": ["right", "right", "right", "down", "down"], "actionTimes": [9537, 10188, 10827, 11724, 13122], "queries": {"click": {"state": {"target": ["12", "23", "1"], "time": [2042, 4566, 6771]}, "edge": {"target": [], "time": []}}, "mouseover": {"state": {"target": ["12", "23", "1", "12", "0"], "time": [1608, 2759, 5359, 7775, 8008]}, "edge": {"target": [], "time": []}}, "mouseout": {"state": {"target": ["0", "12", "23", "1", "12", "0"], "time": [1542, 2644, 5142, 7593, 7892, 8191]}, "edge": {"target": [], "time": []}}}, "displayed_time": "15.03", "trialTime": 16849, "trial_type": "mouselab-mdp", "trial_index": 17, "time_elapsed": 1240492, "internal_node_id": "0.0-6.0-1.0-8.0"}}, {"uniqueid": "w57664071:a49686609", "current_trial": 18, "dateTime": 1693566189289, "trialdata": {"revealed_states": [], "clicked_states": [], "num_clicks_accrued": [0, 0, 0, 0, 0, 0, 0, 0, 0, 0, 0, 0, 0], "stateRewards": ["", -2, 1, -3, -16, -39, -52, 30, -7, -41, -59, 11, 2, 1, 8, 2, -11, -26, -42, -13, 87, -59, -48, -1, -1, -1, 16, -79, 31, 50, -1, -84, 34, -82], "withholdReward": false, "trial_id": "mdp_trial_10", "block": "test", "trialIndex": 11, "score": 2, "costs": 0, "simulationMode": [null, null, null, null, null], "rewards": [2, 1, 8, 2, -11], "path": ["0", "0", "12", "13", "14", "15", "16"], "rt": [5190, 75, 119, 590, 53], "actions": ["right", "right", "right", "up", "up"], "actionTimes": [13567, 14158, 14786, 15890, 16452], "queries": {"click": {"state": {"target": [], "time": []}, "edge": {"target": [], "time": []}}, "mouseover": {"state": {"target": [], "time": []}, "edge": {"target": [], "time": []}}, "mouseout": {"state": {"target": ["0", "0"], "time": [8131, 18295]}, "edge": {"target": [], "time": []}}}, "displayed_time": "22.38", "trialTime": 29310, "trial_type": "mouselab-mdp", "trial_index": 18, "time_elapsed": 1270141, "internal_node_id": "0.0-6.0-1.0-9.0"}}, {"uniqueid": "w57664071:a49686609", "current_trial": 19, "dateTime": 1693566206968, "trialdata": {"revealed_states": [], "clicked_states": [], "num_clicks_accrued": [0, 0, 0, 0, 0, 0, 0, 0, 0, 0, 0, 0, 0], "stateRewards": ["", 2, 4, -5, 7, 81, 35, 6, 11, 14, -72, 42, -1, 2, 3, -7, -77, -44, -40, -15, -85, 51, -32, -2, -1, -5, 7, -74, 47, 52, 16, -49, 48, -46], "withholdReward": false, "trial_id": "mdp_trial_11", "block": "test", "trialIndex": 12, "score": -43, "costs": 0, "simulationMode": [null, null, null, null, null], "rewards": [-1, 2, 3, -15, -32], "path": ["0", "0", "12", "13", "14", "19", "22"], "rt": [2797, 335, 196, 814, 664], "actions": ["right", "right", "right", "down", "left"], "actionTimes": [4074, 4920, 5632, 6948, 8130], "queries": {"click": {"state": {"target": [], "time": []}, "edge": {"target": [], "time": []}}, "mouseover": {"state": {"target": [], "time": []}, "edge": {"target": [], "time": []}}, "mouseout": {"state": {"target": ["0", "0"], "time": [1031, 9581]}, "edge": {"target": [], "time": []}}}, "displayed_time": "15.28", "trialTime": 17294, "trial_type": "mouselab-mdp", "trial_index": 19, "time_elapsed": 1287819, "internal_node_id": "0.0-6.0-1.0-10.0"}}, {"uniqueid": "w57664071:a49686609", "current_trial": 20, "dateTime": 1693566225426, "trialdata": {"revealed_states": [], "clicked_states": [], "num_clicks_accrued": [0, 0, 0, 0, 0, 0, 0, 0, 0, 0, 0, 0, 0], "stateRewards": ["", 2, -4, 7, 3, 23, -42, 4, 7, -81, -33, 7, -2, -4, 5, -1, 50, -57, -14, -13, -14, 44, 55, -2, -2, 5, -2, 33, 1, 57, -13, -7, 58, 87], "withholdReward": false, "trial_id": "mdp_trial_12", "block": "test", "trialIndex": 13, "score": -19, "costs": 0, "simulationMode": [null, null, null, null, null], "rewards": [-2, -2, 5, -13, -7], "path": ["0", "0", "23", "24", "25", "30", "31"], "rt": [1342, 87, 170, 1060, 409], "actions": ["left", "left", "left", "down", "right"], "actionTimes": [2633, 3235, 3913, 5470, 6402], "queries": {"click": {"state": {"target": [], "time": []}, "edge": {"target": [], "time": []}}, "mouseover": {"state": {"target": [], "time": []}, "edge": {"target": [], "time": []}}, "mouseout": {"state": {"target": ["0", "0"], "time": [1054, 11406]}, "edge": {"target": [], "time": []}}}, "displayed_time": "15.29", "trialTime": 18082, "trial_type": "mouselab-mdp", "trial_index": 20, "time_elapsed": 1306278, "internal_node_id": "0.0-6.0-1.0-11.0"}}, {"uniqueid": "w57664071:a49686609", "current_trial": 21, "dateTime": 1693566243159, "trialdata": {"revealed_states": [], "clicked_states": [], "num_clicks_accrued": [0, 0, 0, 0, 0, 0, 0, 0, 0, 0, 0, 0, 0], "stateRewards": ["", 1, 2, -5, 14, 54, -14, -25, 16, -5, -87, 78, -1, 1, 3, -3, 52, 53, 53, -10, 73, -69, -48, 2, 3, 1, 8, -62, -7, 85, 7, 82, 52, -28], "withholdReward": false, "trial_id": "mdp_trial_13", "block": "test", "trialIndex": 14, "score": -13, "costs": 0, "simulationMode": [null, null, null, null, null], "rewards": [1, 2, -5, 14, -25], "path": ["0", "0", "1", "2", "3", "4", "7"], "rt": [1971, 332, 288, 573, 296], "actions": ["up", "up", "up", "right", "down"], "actionTimes": [4052, 4897, 5703, 6768, 7575], "queries": {"click": {"state": {"target": [], "time": []}, "edge": {"target": [], "time": []}}, "mouseover": {"state": {"target": [], "time": []}, "edge": {"target": [], "time": []}}, "mouseout": {"state": {"target": ["0", "0"], "time": [1841, 8974]}, "edge": {"target": [], "time": []}}}, "displayed_time": "16.08", "trialTime": 17355, "trial_type": "mouselab-mdp", "trial_index": 21, "time_elapsed": 1324011, "internal_node_id": "0.0-6.0-1.0-12.0"}}, {"uniqueid": "w57664071:a49686609", "current_trial": 22, "dateTime": 1693566260429, "trialdata": {"revealed_states": [], "clicked_states": [], "num_clicks_accrued": [0, 0, 0, 0, 0, 0, 0, 0, 0, 0, 0, 0, 0], "stateRewards": ["", 2, -1, -2, -5, -47, -57, -33, -11, 31, -18, -72, -2, 1, -4, -8, -46, -53, -50, 15, -85, -9, 39, -2, -2, 1, 14, -1, -8, 53, -12, -41, -74, 62], "withholdReward": false, "trial_id": "mdp_trial_14", "block": "test", "trialIndex": 15, "score": -30, "costs": 0, "simulationMode": [null, null, null, null, null], "rewards": [2, -1, -2, -11, -18], "path": ["0", "0", "1", "2", "3", "8", "10"], "rt": [1654, 2, 143, 591, 744], "actions": ["up", "up", "up", "left", "down"], "actionTimes": [2852, 3365, 4038, 5152, 6406], "queries": {"click": {"state": {"target": [], "time": []}, "edge": {"target": [], "time": []}}, "mouseover": {"state": {"target": [], "time": []}, "edge": {"target": [], "time": []}}, "mouseout": {"state": {"target": ["0", "0", "0"], "time": [927, 8557, 10607]}, "edge": {"target": [], "time": []}}}, "displayed_time": "15.20", "trialTime": 16880, "trial_type": "mouselab-mdp", "trial_index": 22, "time_elapsed": 1341282, "internal_node_id": "0.0-6.0-1.0-13.0"}}, {"uniqueid": "w57664071:a49686609", "current_trial": 23, "dateTime": 1693566294532, "trialdata": {"revealed_states": [], "clicked_states": [], "num_clicks_accrued": [0, 0, 0, 0, 0, 0, 0, 0, 0, 0, 0, 0, 0], "stateRewards": ["", -2, 2, 2, -6, 9, 37, 50, -13, -7, -18, -75, -2, -4, 4, 7, 23, -57, -66, -7, -81, -48, -76, 1, 1, -8, 1, 51, -2, 70, 14, 59, 71, -37], "withholdReward": false, "trial_id": "mdp_trial_15", "block": "test", "trialIndex": 16, "score": -61, "costs": 0, "simulationMode": [null, null, null, null, null], "rewards": [-2, -4, 4, 7, -66], "path": ["0", "0", "12", "13", "14", "15", "18"], "rt": [3831, 80, 101, 689, 1343], "actions": ["right", "right", "right", "up", "left"], "actionTimes": [8126, 8725, 9347, 10560, 12424], "queries": {"click": {"state": {"target": [], "time": []}, "edge": {"target": [], "time": []}}, "mouseover": {"state": {"target": [], "time": []}, "edge": {"target": [], "time": []}}, "mouseout": {"state": {"target": ["0", "0"], "time": [3141, 3176]}, "edge": {"target": [], "time": []}}}, "displayed_time": "18.30", "trialTime": 33721, "trial_type": "mouselab-mdp", "trial_index": 23, "time_elapsed": 1375384, "internal_node_id": "0.0-6.0-1.0-14.0"}}, {"uniqueid": "w57664071:a49686609", "current_trial": 24, "dateTime": 1693566314262, "trialdata": {"revealed_states": [], "clicked_states": [], "num_clicks_accrued": [0, 0, 0, 0, 0, 0, 0, 0, 0, 0, 0, 0, 0], "stateRewards": ["", 1, -1, 8, -3, 38, 85, -20, -4, 8, 23, 73, 2, -4, 6, -13, 44, 7, -28, -11, -77, 45, -69, 1, -1, -7, -11, 75, -51, -87, 7, 36, -53, -26], "withholdReward": false, "trial_id": "mdp_trial_16", "block": "test", "trialIndex": 17, "score": 27, "costs": 0, "simulationMode": [null, null, null, null, null], "rewards": [1, -1, 8, -4, 23], "path": ["0", "0", "1", "2", "3", "8", "10"], "rt": [1974, 241, 184, 504, 641], "actions": ["up", "up", "up", "left", "down"], "actionTimes": [4111, 4873, 5580, 6583, 7738], "queries": {"click": {"state": {"target": [], "time": []}, "edge": {"target": [], "time": []}}, "mouseover": {"state": {"target": ["1"], "time": [3159]}, "edge": {"target": [], "time": []}}, "mouseout": {"state": {"target": ["1", "1", "1"], "time": [1476, 3345, 9708]}, "edge": {"target": [], "time": []}}}, "displayed_time": "16.14", "trialTime": 19345, "trial_type": "mouselab-mdp", "trial_index": 24, "time_elapsed": 1395114, "internal_node_id": "0.0-6.0-1.0-15.0"}}, {"uniqueid": "w57664071:a49686609", "current_trial": 25, "dateTime": 1693566333101, "trialdata": {"revealed_states": [], "clicked_states": [], "num_clicks_accrued": [0, 0, 0, 0, 0, 0, 0, 0, 0, 0, 0, 0, 0], "stateRewards": ["", -1, 2, -2, 13, -56, -28, 10, 14, 53, -80, -29, 1, -3, -3, -14, 14, 9, -40, -9, 18, 18, 48, 1, 1, 1, -9, 64, -39, -9, 7, -52, -78, 7], "withholdReward": false, "trial_id": "mdp_trial_17", "block": "test", "trialIndex": 18, "score": -10, "costs": 0, "simulationMode": [null, null, null, null, null], "rewards": [1, -3, -3, -14, 9], "path": ["0", "0", "12", "13", "14", "15", "17"], "rt": [3208, 1247, 295, 948, 867], "actions": ["right", "right", "right", "up", "right"], "actionTimes": [5150, 6924, 7729, 9197, 10585], "queries": {"click": {"state": {"target": [], "time": []}, "edge": {"target": [], "time": []}}, "mouseover": {"state": {"target": [], "time": []}, "edge": {"target": [], "time": []}}, "mouseout": {"state": {"target": ["1", "0"], "time": [1198, 12182]}, "edge": {"target": [], "time": []}}}, "displayed_time": "15.94", "trialTime": 18277, "trial_type": "mouselab-mdp", "trial_index": 25, "time_elapsed": 1413953, "internal_node_id": "0.0-6.0-1.0-16.0"}}, {"uniqueid": "w57664071:a49686609", "current_trial": 26, "dateTime": 1693566352444, "trialdata": {"revealed_states": [], "clicked_states": [], "num_clicks_accrued": [0, 0, 0, 0, 0, 0, 0, 0, 0, 0, 0, 0, 0], "stateRewards": ["", -1, -4, -6, -15, 21, -67, -63, 9, 51, 69, -14, -1, 3, 8, -8, 39, 72, 63, 15, 19, 47, 15, 1, 4, 5, 16, -18, 34, 35, -14, -80, 40, 1], "withholdReward": false, "trial_id": "mdp_trial_18", "block": "test", "trialIndex": 19, "score": 61, "costs": 0, "simulationMode": [null, null, null, null, null], "rewards": [1, 4, 5, 16, 35], "path": ["0", "0", "23", "24", "25", "26", "29"], "rt": [1417, 298, 322, 982, 793], "actions": ["left", "left", "left", "up", "left"], "actionTimes": [4291, 5086, 5911, 7404, 8697], "queries": {"click": {"state": {"target": [], "time": []}, "edge": {"target": [], "time": []}}, "mouseover": {"state": {"target": [], "time": []}, "edge": {"target": [], "time": []}}, "mouseout": {"state": {"target": ["0", "0"], "time": [2658, 9884]}, "edge": {"target": [], "time": []}}}, "displayed_time": "16.88", "trialTime": 18978, "trial_type": "mouselab-mdp", "trial_index": 26, "time_elapsed": 1433296, "internal_node_id": "0.0-6.0-1.0-17.0"}}, {"uniqueid": "w57664071:a49686609", "current_trial": 27, "dateTime": 1693566371579, "trialdata": {"revealed_states": [], "clicked_states": [], "num_clicks_accrued": [0, 0, 0, 0, 0, 0, 0, 0, 0, 0, 0, 0, 0], "stateRewards": ["", 1, 1, -3, 7, 49, 78, 26, -5, 26, 48, -43, -1, -3, 2, -5, 4, -1, -60, 10, -35, 51, 81, -2, 1, -7, -5, -39, -86, -54, 4, -3, 74, 77], "withholdReward": false, "trial_id": "mdp_trial_19", "block": "test", "trialIndex": 20, "score": 84, "costs": 0, "simulationMode": [null, null, null, null, null], "rewards": [1, 1, -3, 7, 78], "path": ["0", "0", "1", "2", "3", "4", "6"], "rt": [1646, 951, 432, 739, 1075], "actions": ["up", "up", "up", "right", "right"], "actionTimes": [3432, 4878, 5824, 7082, 8652], "queries": {"click": {"state": {"target": [], "time": []}, "edge": {"target": [], "time": []}}, "mouseover": {"state": {"target": [], "time": []}, "edge": {"target": [], "time": []}}, "mouseout": {"state": {"target": ["0", "0"], "time": [1535, 10172]}, "edge": {"target": [], "time": []}}}, "displayed_time": "15.79", "trialTime": 18689, "trial_type": "mouselab-mdp", "trial_index": 27, "time_elapsed": 1452432, "internal_node_id": "0.0-6.0-1.0-18.0"}}, {"uniqueid": "w57664071:a49686609", "current_trial": 28, "dateTime": 1693566388351, "trialdata": {"revealed_states": [], "clicked_states": [], "num_clicks_accrued": [0, 0, 0, 0, 0, 0, 0, 0, 0, 0, 0, 0, 0], "stateRewards": ["", -1, 1, 8, -3, -24, 11, -65, -6, -77, 48, 44, -2, 1, -2, -7, -55, -35, 33, 8, -28, 19, -53, -1, -1, -5, -5, -70, 10, 44, 8, -58, -70, 51], "withholdReward": false, "trial_id": "mdp_trial_20", "block": "test", "trialIndex": 21, "score": 50, "costs": 0, "simulationMode": [null, null, null, null, null], "rewards": [-1, 1, 8, -6, 48], "path": ["0", "0", "1", "2", "3", "8", "10"], "rt": [1549, 292, 194, 629, 885], "actions": ["up", "up", "up", "left", "down"], "actionTimes": [2764, 3583, 4303, 5449, 6853], "queries": {"click": {"state": {"target": [], "time": []}, "edge": {"target": [], "time": []}}, "mouseover": {"state": {"target": [], "time": []}, "edge": {"target": [], "time": []}}, "mouseout": {"state": {"target": ["0", "0"], "time": [950, 8900]}, "edge": {"target": [], "time": []}}}, "displayed_time": "15.22", "trialTime": 16326, "trial_type": "mouselab-mdp", "trial_index": 28, "time_elapsed": 1469204, "internal_node_id": "0.0-6.0-1.0-19.0"}}, {"uniqueid": "w57664071:a49686609", "current_trial": 29, "dateTime": 1693566411250, "trialdata": {"revealed_states": [], "clicked_states": [], "num_clicks_accrued": [0, 0, 0, 0, 0, 0, 0, 0, 0, 0, 0, 0, 0], "stateRewards": ["", 2, -3, -2, 14, -4, 85, 46, 15, -28, 41, 31, -1, -1, -1, 5, 62, 79, 57, 12, -73, -64, 86, -1, 1, -3, -5, 68, 11, -32, 8, -80, -21, -56], "withholdReward": false, "trial_id": "mdp_trial_21", "block": "test", "trialIndex": 22, "score": -16, "costs": 0, "simulationMode": [null, null, null, null, null], "rewards": [2, -3, -2, 15, -28], "path": ["0", "0", "1", "2", "3", "8", "9"], "rt": [2281, 100, 186, 1150, 1058], "actions": ["up", "up", "up", "left", "up"], "actionTimes": [3434, 4056, 4759, 6424, 7999], "queries": {"click": {"state": {"target": [], "time": []}, "edge": {"target": [], "time": []}}, "mouseover": {"state": {"target": [], "time": []}, "edge": {"target": [], "time": []}}, "mouseout": {"state": {"target": ["0", "0"], "time": [886, 9387]}, "edge": {"target": [], "time": []}}}, "displayed_time": "15.15", "trialTime": 22497, "trial_type": "mouselab-mdp", "trial_index": 29, "time_elapsed": 1492102, "internal_node_id": "0.0-6.0-1.0-20.0"}}, {"uniqueid": "w57664071:a49686609", "current_trial": 30, "dateTime": 1693566428725, "trialdata": {"revealed_states": [], "clicked_states": [], "num_clicks_accrued": [0, 0, 0, 0, 0, 0, 0, 0, 0, 0, 0, 0, 0], "stateRewards": ["", -1, -3, -5, -14, -13, -47, 79, 8, -60, -64, 41, -1, 2, 3, 13, -46, 61, -79, -11, -64, -65, 23, 1, -2, 6, -14, 46, 32, 21, 7, 75, -66, 15], "withholdReward": false, "trial_id": "mdp_trial_22", "block": "test", "trialIndex": 23, "score": 56, "costs": 0, "simulationMode": [null, null, null, null, null], "rewards": [-1, -3, -5, -14, 79], "path": ["0", "0", "1", "2", "3", "4", "7"], "rt": [3658, 85, 3, 610, 606], "actions": ["up", "up", "up", "right", "down"], "actionTimes": [5318, 5920, 6438, 7577, 8704], "queries": {"click": {"state": {"target": [], "time": []}, "edge": {"target": [], "time": []}}, "mouseover": {"state": {"target": [], "time": []}, "edge": {"target": [], "time": []}}, "mouseout": {"state": {"target": ["0", "0"], "time": [1359, 9929]}, "edge": {"target": [], "time": []}}}, "displayed_time": "15.66", "trialTime": 17041, "trial_type": "mouselab-mdp", "trial_index": 30, "time_elapsed": 1509578, "internal_node_id": "0.0-6.0-1.0-21.0"}}, {"uniqueid": "w57664071:a49686609", "current_trial": 31, "dateTime": 1693566447134, "trialdata": {"revealed_states": [], "clicked_states": [], "num_clicks_accrued": [0, 0, 0, 0, 0, 0, 0, 0, 0, 0, 0, 0, 0], "stateRewards": ["", 1, 2, 2, -15, -84, 28, -26, 13, 31, 86, 30, -2, 1, -1, -8, 66, -40, -1, -10, -32, 57, -17, 1, 2, -2, 9, -23, 77, 85, 12, -32, -62, -35], "withholdReward": false, "trial_id": "mdp_trial_23", "block": "test", "trialIndex": 24, "score": 87, "costs": 0, "simulationMode": [null, null, null, null, null], "rewards": [1, 2, -2, 9, 77], "path": ["0", "0", "23", "24", "25", "26", "28"], "rt": [4745, 291, 241, 789, 316], "actions": ["left", "left", "left", "up", "right"], "actionTimes": [6759, 7567, 8315, 9615, 10441], "queries": {"click": {"state": {"target": [], "time": []}, "edge": {"target": [], "time": []}}, "mouseover": {"state": {"target": [], "time": []}, "edge": {"target": [], "time": []}}, "mouseout": {"state": {"target": ["0", "0"], "time": [1756, 13104]}, "edge": {"target": [], "time": []}}}, "displayed_time": "16.02", "trialTime": 17995, "trial_type": "mouselab-mdp", "trial_index": 31, "time_elapsed": 1527986, "internal_node_id": "0.0-6.0-1.0-22.0"}}, {"uniqueid": "w57664071:a49686609", "current_trial": 32, "dateTime": 1693566465152, "trialdata": {"revealed_states": [], "clicked_states": [], "num_clicks_accrued": [0, 0, 0, 0, 0, 0, 0, 0, 0, 0, 0, 0, 0], "stateRewards": ["", 1, -3, -2, 14, 49, -40, -39, 2, 26, -61, 73, 1, -4, -8, 12, 79, 29, -65, -13, 55, -26, 27, -1, 3, 3, 9, -17, -60, -18, -8, 35, -88, 69], "withholdReward": false, "trial_id": "mdp_trial_24", "block": "test", "trialIndex": 25, "score": -64, "costs": 0, "simulationMode": [null, null, null, null, null], "rewards": [1, -4, -8, 12, -65], "path": ["0", "0", "12", "13", "14", "15", "18"], "rt": [3032, 43, 879, 566, 656], "actions": ["right", "right", "right", "up", "left"], "actionTimes": [5153, 5709, 7112, 8199, 9371], "queries": {"click": {"state": {"target": [], "time": []}, "edge": {"target": [], "time": []}}, "mouseover": {"state": {"target": [], "time": []}, "edge": {"target": [], "time": []}}, "mouseout": {"state": {"target": ["0", "0"], "time": [1878, 10448]}, "edge": {"target": [], "time": []}}}, "displayed_time": "16.12", "trialTime": 17559, "trial_type": "mouselab-mdp", "trial_index": 32, "time_elapsed": 1546004, "internal_node_id": "0.0-6.0-1.0-23.0"}}, {"uniqueid": "w57664071:a49686609", "current_trial": 33, "dateTime": 1693566482639, "trialdata": {"revealed_states": [], "clicked_states": [], "num_clicks_accrued": [0, 0, 0, 0, 0, 0, 0, 0, 0, 0, 0, 0, 0], "stateRewards": ["", 2, 1, -3, 7, 46, 11, -36, 16, 71, 5, 1, 2, -2, -8, -3, -4, 6, 55, 7, 68, -54, 2, 1, 1, 6, -6, 42, -4, -84, -11, -65, 63, 25], "withholdReward": false, "trial_id": "mdp_trial_25", "block": "test", "trialIndex": 26, "score": 1, "costs": 0, "simulationMode": [null, null, null, null, null], "rewards": [2, -2, -8, 7, 2], "path": ["0", "0", "12", "13", "14", "19", "22"], "rt": [2829, 381, 197, 485, 796], "actions": ["right", "right", "right", "down", "left"], "actionTimes": [4731, 5606, 6320, 7324, 8637], "queries": {"click": {"state": {"target": [], "time": []}, "edge": {"target": [], "time": []}}, "mouseover": {"state": {"target": [], "time": []}, "edge": {"target": [], "time": []}}, "mouseout": {"state": {"target": ["0", "0"], "time": [1636, 10036]}, "edge": {"target": [], "time": []}}}, "displayed_time": "15.90", "trialTime": 17073, "trial_type": "mouselab-mdp", "trial_index": 33, "time_elapsed": 1563491, "internal_node_id": "0.0-6.0-1.0-24.0"}}, {"uniqueid": "w57664071:a49686609", "current_trial": 34, "dateTime": 1693566502382, "trialdata": {"revealed_states": [], "clicked_states": [], "num_clicks_accrued": [0, 0, 0, 0, 0, 0, 0, 0, 0, 0, 0, 0, 0], "stateRewards": ["", 1, 4, -4, 14, 35, 51, 19, -13, 54, 78, -74, -2, -1, -3, 13, -11, -42, -73, -15, -24, -3, -69, 2, -1, 5, 16, -27, 73, 58, 9, -60, 5, -60], "withholdReward": false, "trial_id": "mdp_trial_26", "block": "test", "trialIndex": 27, "score": -45, "costs": 0, "simulationMode": [null, null, null, null, null], "rewards": [2, -1, 5, 9, -60], "path": ["0", "0", "23", "24", "25", "30", "31"], "rt": [2333, 618, 142, 722, 673], "actions": ["left", "left", "left", "down", "right"], "actionTimes": [3786, 4921, 5578, 6808, 7992], "queries": {"click": {"state": {"target": [], "time": []}, "edge": {"target": [], "time": []}}, "mouseover": {"state": {"target": [], "time": []}, "edge": {"target": [], "time": []}}, "mouseout": {"state": {"target": ["0", "0"], "time": [1168, 9215]}, "edge": {"target": [], "time": []}}}, "displayed_time": "15.46", "trialTime": 19316, "trial_type": "mouselab-mdp", "trial_index": 34, "time_elapsed": 1583234, "internal_node_id": "0.0-6.0-1.0-25.0"}}, {"uniqueid": "w57664071:a49686609", "current_trial": 35, "dateTime": 1693566521382, "trialdata": {"revealed_states": [], "clicked_states": [], "num_clicks_accrued": [0, 0, 0, 0, 0, 0, 0, 0, 0, 0, 0, 0, 0], "stateRewards": ["", 2, -2, 7, -11, -76, -65, -23, 16, -58, 30, 81, 1, 2, 7, 14, 9, 55, -2, 6, 11, -15, 31, -1, -1, -3, 2, 15, 2, 46, 15, 18, 45, -34], "withholdReward": false, "trial_id": "mdp_trial_27", "block": "test", "trialIndex": 28, "score": 79, "costs": 0, "simulationMode": [null, null, null, null, null], "rewards": [1, 2, 7, 14, 55], "path": ["0", "0", "12", "13", "14", "15", "17"], "rt": [8862, 363, 350, 696, 647], "actions": ["right", "right", "right", "up", "right"], "actionTimes": [10351, 11232, 12100, 13291, 14463], "queries": {"click": {"state": {"target": [], "time": []}, "edge": {"target": [], "time": []}}, "mouseover": {"state": {"target": [], "time": []}, "edge": {"target": [], "time": []}}, "mouseout": {"state": {"target": ["0", "0", "1"], "time": [1195, 16624, 16707]}, "edge": {"target": [], "time": []}}}, "displayed_time": "15.49", "trialTime": 18580, "trial_type": "mouselab-mdp", "trial_index": 35, "time_elapsed": 1602234, "internal_node_id": "0.0-6.0-1.0-26.0"}}, {"uniqueid": "w57664071:a49686609", "current_trial": 36, "dateTime": 1693566540286, "trialdata": {"revealed_states": [], "clicked_states": [], "num_clicks_accrued": [0, 0, 0, 0, 0, 0, 0, 0, 0, 0, 0, 0, 0], "stateRewards": ["", 1, 2, -8, 9, 18, -83, -11, 6, -64, -48, 17, -2, -2, -5, -3, -24, -3, -86, -2, 48, -41, -22, -2, 4, 7, 8, 81, 13, -48, 10, 61, 19, 57], "withholdReward": false, "trial_id": "mdp_trial_28", "block": "test", "trialIndex": 29, "score": -31, "costs": 0, "simulationMode": [null, null, null, null, null], "rewards": [-2, 4, 7, 8, -48], "path": ["0", "0", "23", "24", "25", "26", "29"], "rt": [2307, 192, 350, 863, 543], "actions": ["left", "left", "left", "up", "left"], "actionTimes": [4774, 5469, 6343, 7723, 8786], "queries": {"click": {"state": {"target": [], "time": []}, "edge": {"target": [], "time": []}}, "mouseover": {"state": {"target": [], "time": []}, "edge": {"target": [], "time": []}}, "mouseout": {"state": {"target": ["1", "0", "0", "0"], "time": [1376, 1473, 2043, 9806]}, "edge": {"target": [], "time": []}}}, "displayed_time": "16.47", "trialTime": 18452, "trial_type": "mouselab-mdp", "trial_index": 36, "time_elapsed": 1621137, "internal_node_id": "0.0-6.0-1.0-27.0"}}, {"uniqueid": "w57664071:a49686609", "current_trial": 37, "dateTime": 1693566565045, "trialdata": {"revealed_states": [], "clicked_states": [], "num_clicks_accrued": [0, 0, 0, 0, 0, 0, 0, 0, 0, 0, 0, 0, 0], "stateRewards": ["", 1, -4, -4, 8, 1, -79, 68, -10, -79, 8, -74, -1, -3, -6, 14, 43, 23, 9, 5, -51, 63, 61, -2, 4, 6, -10, 69, -32, 57, 15, -80, -80, -77], "withholdReward": false, "trial_id": "mdp_trial_29", "block": "test", "trialIndex": 30, "score": -78, "costs": 0, "simulationMode": [null, null, null, null, null], "rewards": [1, -4, -4, 8, -79], "path": ["0", "0", "1", "2", "3", "4", "6"], "rt": [6629, 75, 178, 605, 149], "actions": ["up", "up", "up", "right", "right"], "actionTimes": [16361, 16946, 17647, 18773, 19435], "queries": {"click": {"state": {"target": [], "time": []}, "edge": {"target": [], "time": []}}, "mouseover": {"state": {"target": [], "time": []}, "edge": {"target": [], "time": []}}, "mouseout": {"state": {"target": ["0", "1"], "time": [7029, 20666]}, "edge": {"target": [], "time": []}}}, "displayed_time": "23.73", "trialTime": 24313, "trial_type": "mouselab-mdp", "trial_index": 37, "time_elapsed": 1645897, "internal_node_id": "0.0-6.0-1.0-28.0"}}, {"uniqueid": "w57664071:a49686609", "current_trial": 38, "dateTime": 1693566585630, "trialdata": {"revealed_states": [], "clicked_states": [], "num_clicks_accrued": [0, 0, 0, 0, 0, 0, 0, 0, 0, 0, 0, 0, 0], "stateRewards": ["", 1, -3, -6, -5, 47, 80, -29, 11, -71, 10, -29, -2, 3, -6, 12, 2, -78, -6, 8, 34, -16, -5, -1, 3, 3, -13, 84, -36, -62, -3, -27, 66, 15], "withholdReward": false, "trial_id": "mdp_trial_30", "block": "test", "trialIndex": 31, "score": -26, "costs": 0, "simulationMode": [null, null, null, null, null], "rewards": [1, -3, -6, 11, -29], "path": ["0", "0", "1", "2", "3", "8", "11"], "rt": [4098, 135, 155, 794, 197], "actions": ["up", "up", "up", "left", "left"], "actionTimes": [6275, 6926, 7603, 8918, 9638], "queries": {"click": {"state": {"target": [], "time": []}, "edge": {"target": [], "time": []}}, "mouseover": {"state": {"target": [], "time": []}, "edge": {"target": [], "time": []}}, "mouseout": {"state": {"target": ["1", "0"], "time": [1374, 12237]}, "edge": {"target": [], "time": []}}}, "displayed_time": "16.18", "trialTime": 20140, "trial_type": "mouselab-mdp", "trial_index": 38, "time_elapsed": 1666483, "internal_node_id": "0.0-6.0-1.0-29.0"}}, {"uniqueid": "w57664071:a49686609", "current_trial": 39, "dateTime": 1693566602184, "trialdata": {"revealed_states": [], "clicked_states": [], "num_clicks_accrued": [0, 0, 0, 0, 0, 0, 0, 0, 0, 0, 0, 0, 0], "stateRewards": ["", -2, -3, 1, -14, 48, -49, 67, -1, -35, -48, 3, -2, 1, -4, -5, 86, -84, 39, 1, 48, 41, -42, -1, -4, 2, -7, 18, -86, 17, 7, -9, 57, -69], "withholdReward": false, "trial_id": "mdp_trial_31", "block": "test", "trialIndex": 32, "score": -65, "costs": 0, "simulationMode": [null, null, null, null, null], "rewards": [-1, -4, 2, 7, -69], "path": ["0", "0", "23", "24", "25", "30", "33"], "rt": [3342, 277, 240, 664, 1585], "actions": ["left", "left", "left", "down", "left"], "actionTimes": [4576, 5355, 6116, 7289, 9394], "queries": {"click": {"state": {"target": [], "time": []}, "edge": {"target": [], "time": []}}, "mouseover": {"state": {"target": ["0"], "time": [2825]}, "edge": {"target": [], "time": []}}, "mouseout": {"state": {"target": ["0", "0"], "time": [971, 2859]}, "edge": {"target": [], "time": []}}}, "displayed_time": "15.23", "trialTime": 16102, "trial_type": "mouselab-mdp", "trial_index": 39, "time_elapsed": 1683037, "internal_node_id": "0.0-6.0-1.0-30.0"}}, {"uniqueid": "w57664071:a49686609", "current_trial": 40, "dateTime": 1693566618724, "trialdata": {"revealed_states": [], "clicked_states": [], "num_clicks_accrued": [0, 0, 0, 0, 0, 0, 0, 0, 0, 0, 0, 0, 0], "stateRewards": ["", -2, 3, 8, -9, 59, 41, -50, -1, 82, 66, 33, 2, -2, 7, 8, 1, -38, 12, -16, 24, -37, 67, 1, 4, -2, 5, 35, -83, 28, 8, -27, 69, -64], "withholdReward": false, "trial_id": "mdp_trial_32", "block": "test", "trialIndex": 33, "score": 15, "costs": 0, "simulationMode": [null, null, null, null, null], "rewards": [2, -2, 7, -16, 24], "path": ["0", "0", "12", "13", "14", "19", "20"], "rt": [1210, 105, 208, 660, 388], "actions": ["right", "right", "right", "down", "right"], "actionTimes": [2344, 2966, 3684, 4853, 5766], "queries": {"click": {"state": {"target": [], "time": []}, "edge": {"target": [], "time": []}}, "mouseover": {"state": {"target": [], "time": []}, "edge": {"target": [], "time": []}}, "mouseout": {"state": {"target": ["0", "0"], "time": [855, 7572]}, "edge": {"target": [], "time": []}}}, "displayed_time": "15.14", "trialTime": 16095, "trial_type": "mouselab-mdp", "trial_index": 40, "time_elapsed": 1699576, "internal_node_id": "0.0-6.0-1.0-31.0"}}, {"uniqueid": "w57664071:a49686609", "current_trial": 41, "dateTime": 1693566636137, "trialdata": {"revealed_states": [], "clicked_states": [], "num_clicks_accrued": [0, 0, 0, 0, 0, 0, 0, 0, 0, 0, 0, 0, 0], "stateRewards": ["", 2, 2, 3, -15, 23, -14, 73, -7, -32, -20, -6, 1, 1, -5, -12, 73, 6, -84, 11, -81, -57, 13, -2, -1, -4, -8, -52, -58, 49, 13, 5, -41, -41], "withholdReward": false, "trial_id": "mdp_trial_33", "block": "test", "trialIndex": 34, "score": -73, "costs": 0, "simulationMode": [null, null, null, null, null], "rewards": [-2, -1, -4, -8, -58], "path": ["0", "0", "23", "24", "25", "26", "28"], "rt": [5561, 89, 121, 652, 641], "actions": ["left", "left", "left", "up", "right"], "actionTimes": [7060, 7671, 8302, 9463, 10619], "queries": {"click": {"state": {"target": [], "time": []}, "edge": {"target": [], "time": []}}, "mouseover": {"state": {"target": [], "time": []}, "edge": {"target": [], "time": []}}, "mouseout": {"state": {"target": ["0", "0"], "time": [1238, 12257]}, "edge": {"target": [], "time": []}}}, "displayed_time": "15.50", "trialTime": 16946, "trial_type": "mouselab-mdp", "trial_index": 41, "time_elapsed": 1716989, "internal_node_id": "0.0-6.0-1.0-32.0"}}, {"uniqueid": "w57664071:a49686609", "current_trial": 42, "dateTime": 1693566654127, "trialdata": {"revealed_states": [], "clicked_states": [], "num_clicks_accrued": [0, 0, 0, 0, 0, 0, 0, 0, 0, 0, 0, 0, 0], "stateRewards": ["", -2, -3, 7, -13, 60, 9, 37, -6, 37, 20, 1, 2, -2, -8, 6, -80, -31, -10, -7, 70, -65, -44, -1, 1, 7, 6, -11, 73, -85, 16, -21, 47, 34], "withholdReward": false, "trial_id": "mdp_trial_34", "block": "test", "trialIndex": 35, "score": -12, "costs": 0, "simulationMode": [null, null, null, null, null], "rewards": [2, -2, -8, 6, -10], "path": ["0", "0", "12", "13", "14", "15", "18"], "rt": [1810, 59, 90, 847, 804], "actions": ["right", "right", "right", "up", "left"], "actionTimes": [4124, 4705, 5288, 6646, 7968], "queries": {"click": {"state": {"target": [], "time": []}, "edge": {"target": [], "time": []}}, "mouseover": {"state": {"target": [], "time": []}, "edge": {"target": [], "time": []}}, "mouseout": {"state": {"target": ["0", "0"], "time": [1662, 9362]}, "edge": {"target": [], "time": []}}}, "displayed_time": "16.32", "trialTime": 17525, "trial_type": "mouselab-mdp", "trial_index": 42, "time_elapsed": 1734979, "internal_node_id": "0.0-6.0-1.0-33.0"}}, {"uniqueid": "w57664071:a49686609", "current_trial": 43, "dateTime": 1693566670953, "trialdata": {"revealed_states": [], "clicked_states": [], "num_clicks_accrued": [0, 0, 0, 0, 0, 0, 0, 0, 0, 0, 0, 0, 0], "stateRewards": ["", -1, 4, -3, 3, 57, -61, 5, -11, 23, -1, 34, -2, -4, -1, -13, 27, 38, -36, 4, -45, 21, 88, 1, -2, -1, 1, -69, -5, -78, -12, -9, 38, -54], "withholdReward": false, "trial_id": "mdp_trial_35", "block": "test", "trialIndex": 36, "score": 12, "costs": 0, "simulationMode": [null, null, null, null, null], "rewards": [-1, 4, -3, -11, 23], "path": ["0", "0", "1", "2", "3", "8", "9"], "rt": [7698, 135, 346, 754, 779], "actions": ["up", "up", "up", "left", "up"], "actionTimes": [8996, 9646, 10508, 11785, 13106], "queries": {"click": {"state": {"target": [], "time": []}, "edge": {"target": [], "time": []}}, "mouseover": {"state": {"target": ["0", "0"], "time": [2642, 6974]}, "edge": {"target": [], "time": []}}, "mouseout": {"state": {"target": ["0", "0", "0"], "time": [1014, 2693, 7191]}, "edge": {"target": [], "time": []}}}, "displayed_time": "15.30", "trialTime": 16335, "trial_type": "mouselab-mdp", "trial_index": 43, "time_elapsed": 1751804, "internal_node_id": "0.0-6.0-1.0-34.0"}}, {"uniqueid": "w57664071:a49686609", "current_trial": 44, "dateTime": 1693566688690, "trialdata": {"revealed_states": [], "clicked_states": [], "num_clicks_accrued": [0, 0, 0, 0, 0, 0, 0, 0, 0, 0, 0, 0, 0], "stateRewards": ["", 2, -3, 5, -14, -63, -9, -24, -11, -54, -43, 68, 2, -2, -4, 7, -64, 30, 47, 12, -74, 11, 86, 1, -3, 3, 10, -71, -42, -52, -1, -29, -16, 69], "withholdReward": false, "trial_id": "mdp_trial_36", "block": "test", "trialIndex": 37, "score": -73, "costs": 0, "simulationMode": [null, null, null, null, null], "rewards": [2, -3, 5, -14, -63], "path": ["0", "0", "1", "2", "3", "4", "5"], "rt": [1268, 156, 3784, 719, 761], "actions": ["up", "up", "up", "right", "up"], "actionTimes": [3445, 4117, 8410, 9645, 10920], "queries": {"click": {"state": {"target": [], "time": []}, "edge": {"target": [], "time": []}}, "mouseover": {"state": {"target": [], "time": []}, "edge": {"target": [], "time": []}}, "mouseout": {"state": {"target": ["1", "0", "0", "0"], "time": [1041, 1157, 1509, 12354]}, "edge": {"target": [], "time": []}}}, "displayed_time": "16.18", "trialTime": 17291, "trial_type": "mouselab-mdp", "trial_index": 44, "time_elapsed": 1769542, "internal_node_id": "0.0-6.0-1.0-35.0"}}, {"uniqueid": "w57664071:a49686609", "current_trial": 45, "dateTime": 1693566705828, "trialdata": {"revealed_states": [], "clicked_states": [], "num_clicks_accrued": [0, 0, 0, 0, 0, 0, 0, 0, 0, 0, 0, 0, 0], "stateRewards": ["", 1, -2, 7, -14, 88, -56, -44, -14, 64, -51, -57, -2, 3, -4, -9, -11, 19, -77, -1, 68, 75, -67, -1, 1, -2, 5, -37, 70, -34, -10, -72, 63, -41], "withholdReward": false, "trial_id": "mdp_trial_37", "block": "test", "trialIndex": 38, "score": 51, "costs": 0, "simulationMode": [null, null, null, null, null], "rewards": [-1, 1, -2, -10, 63], "path": ["0", "0", "23", "24", "25", "30", "32"], "rt": [2177, 200, 152, 1085, 229], "actions": ["left", "left", "left", "down", "down"], "actionTimes": [4335, 5057, 5726, 7325, 8069], "queries": {"click": {"state": {"target": [], "time": []}, "edge": {"target": [], "time": []}}, "mouseover": {"state": {"target": [], "time": []}, "edge": {"target": [], "time": []}}, "mouseout": {"state": {"target": ["0", "0"], "time": [1454, 9869]}, "edge": {"target": [], "time": []}}}, "displayed_time": "16.16", "trialTime": 16683, "trial_type": "mouselab-mdp", "trial_index": 45, "time_elapsed": 1786680, "internal_node_id": "0.0-6.0-1.0-36.0"}}, {"uniqueid": "w57664071:a49686609", "current_trial": 46, "dateTime": 1693566724530, "trialdata": {"revealed_states": [], "clicked_states": [], "num_clicks_accrued": [0, 0, 0, 0, 0, 0, 0, 0, 0, 0, 0, 0, 0], "stateRewards": ["", 1, 4, 5, 8, -55, -11, 8, 16, -37, 77, -22, -2, 3, -8, -10, 45, 87, -67, 4, 17, -33, -22, -1, -3, 7, 6, -39, -85, 75, -1, 7, -48, 45], "withholdReward": false, "trial_id": "mdp_trial_38", "block": "test", "trialIndex": 39, "score": -36, "costs": 0, "simulationMode": [null, null, null, null, null], "rewards": [-2, 3, -8, 4, -33], "path": ["0", "0", "12", "13", "14", "19", "21"], "rt": [1774, 99, 152, 504, 148], "actions": ["right", "right", "right", "down", "down"], "actionTimes": [3195, 3812, 4482, 5500, 6162], "queries": {"click": {"state": {"target": [], "time": []}, "edge": {"target": [], "time": []}}, "mouseover": {"state": {"target": [], "time": []}, "edge": {"target": [], "time": []}}, "mouseout": {"state": {"target": ["0", "0"], "time": [1172, 7326]}, "edge": {"target": [], "time": []}}}, "displayed_time": "15.42", "trialTime": 18146, "trial_type": "mouselab-mdp", "trial_index": 46, "time_elapsed": 1805382, "internal_node_id": "0.0-6.0-1.0-37.0"}}, {"uniqueid": "w57664071:a49686609", "current_trial": 47, "dateTime": 1693566742333, "trialdata": {"revealed_states": [], "clicked_states": [], "num_clicks_accrued": [0, 0, 0, 0, 0, 0, 0, 0, 0, 0, 0, 0, 0], "stateRewards": ["", -1, 2, 5, -6, 13, -64, -47, 8, -79, -80, -33, 1, 2, -2, -16, 56, -71, -10, 3, 29, 44, 85, -1, 4, 5, 4, -36, -56, 19, 8, 52, -13, -2], "withholdReward": false, "trial_id": "mdp_trial_39", "block": "test", "trialIndex": 40, "score": 41, "costs": 0, "simulationMode": [null, null, null, null, null], "rewards": [1, 2, -2, -16, 56], "path": ["0", "0", "12", "13", "14", "15", "16"], "rt": [4523, 44, 175, 547, 134], "actions": ["right", "right", "right", "up", "up"], "actionTimes": [6019, 6586, 7287, 8357, 9010], "queries": {"click": {"state": {"target": [], "time": []}, "edge": {"target": [], "time": []}}, "mouseover": {"state": {"target": ["12"], "time": [5091]}, "edge": {"target": [], "time": []}}, "mouseout": {"state": {"target": ["0", "12"], "time": [1180, 10324]}, "edge": {"target": [], "time": []}}}, "displayed_time": "15.50", "trialTime": 17251, "trial_type": "mouselab-mdp", "trial_index": 47, "time_elapsed": 1823185, "internal_node_id": "0.0-6.0-1.0-38.0"}}, {"uniqueid": "w57664071:a49686609", "current_trial": 48, "dateTime": 1693566759064, "trialdata": {"revealed_states": [], "clicked_states": ["23", "1", "12"], "num_clicks_accrued": [0, 0, 0, 0, 0, 0, 0, 0, 0, 0, 0, 0, 0], "stateRewards": ["", -2, -3, 8, 14, -73, 73, 84, -12, -2, -50, -17, 2, 1, -2, -9, -44, -27, -33, 16, -63, -47, -66, -2, 1, 4, -5, -33, -11, 50, 9, 38, -79, 31], "withholdReward": false, "trial_id": "mdp_trial_40", "block": "test", "trialIndex": 41, "score": -39.2, "costs": -4.199999999999999, "simulationMode": [null, null, null, null, null], "rewards": [-2, 1, 4, -5, -33], "path": ["0", "0", "23", "24", "25", "26", "27"], "rt": [8301, 157, 241, 618, 279], "actions": ["left", "left", "left", "up", "up"], "actionTimes": [10059, 10731, 11481, 12607, 13402], "queries": {"click": {"state": {"target": ["23", "1", "12"], "time": [3008, 6330, 8001]}, "edge": {"target": [], "time": []}}, "mouseover": {"state": {"target": ["23", "0", "12", "12", "1", "12", "0"], "time": [2456, 3606, 3640, 3890, 5874, 7171, 8889]}, "edge": {"target": [], "time": []}}, "mouseout": {"state": {"target": ["12", "23", "0", "12", "12", "1", "12", "0"], "time": [832, 3573, 3623, 3706, 5788, 7023, 8856, 9005]}, "edge": {"target": [], "time": []}}}, "displayed_time": "15.76", "trialTime": 16131, "trial_type": "mouselab-mdp", "trial_index": 48, "time_elapsed": 1839915, "internal_node_id": "0.0-6.0-1.0-39.0"}}, {"uniqueid": "w57664071:a49686609", "current_trial": 49, "dateTime": 1693566826555, "trialdata": {"rt": 67473, "response": {"Q0": "$-2 to $2", "Q1": "$-32 to $32", "Q2": "$-88 to $88", "Q3": "The cost for clicking on nodes varied between nodes.", "Q4": "Very motivated"}, "question_order": [0, 1, 2, 3, 4], "trial_id": "final_quiz_control", "trial_type": "survey-multi-choice", "trial_index": 49, "time_elapsed": 1907407, "internal_node_id": "0.0-6.0-2.0"}}, {"uniqueid": "w57664071:a49686609", "current_trial": 50, "dateTime": 1693566902072, "trialdata": {"rt": 75480, "response": {"Q0": "My strategy was to use all the paths available to me by the end of the game", "Q1": "I tried but I could not find a way to improve it", "Q2": "Very difficult. The value of nodes keeps changing and the penalties"}, "trial_id": "self_report_control", "trial_type": "survey-text", "trial_index": 50, "time_elapsed": 1982925, "internal_node_id": "0.0-6.0-3.0"}}, {"uniqueid": "w57664071:a49686609", "current_trial": 51, "dateTime": 1693566948212, "trialdata": {"rt": 46124, "response": {"gender": "other", "age": "45", "colorblind": "0", "effort": "0"}, "trial_type": "survey-html-form", "trial_index": 51, "time_elapsed": 2029065, "internal_node_id": "0.0-6.0-4.0"}}, {"uniqueid": "w57664071:a49686609", "current_trial": 52, "dateTime": 1693567020335, "trialdata": {"rt": 72109, "response": {"Q0": "It was confusing and I was not sure how to \"beat the system\" so that I can \"win\" the game", "Q1": "No I have not participated in a Web of Cash HIT before", "Q2": ""}, "trial_type": "survey-text", "trial_index": 52, "time_elapsed": 2101188, "internal_node_id": "0.0-6.0-5.0"}}, {"uniqueid": "w57664071:a49686609", "current_trial": 53, "dateTime": 1693567059055, "trialdata": {"rt": 38706, "stimulus": "<h1>Completion Code Instructions (1/2)</h1>\n<br><br><br><br>\nYou have reached the end of the experiment! The completion code consists of two parts: (1) a code with 2 characters (2) a code with 6 characters. On this page, you will receive the second part of the code. The first part of the completion code will be on the next page.\n<br><br>\nThe second part of your completion code is: <b>EWEK22</b>\n<br><br>\nPlease note this down. Then, press 'Finish HIT' in order to find the first part of your completion code. Once the data has been saved, you will receive this code either in this window or in the original browser window where you started the experiment.\n", "response": 0, "trial_type": "html-button-response", "trial_index": 53, "time_elapsed": 2139908, "internal_node_id": "0.0-6.0-6.0"}}, {"uniqueid": "w57664071:a49686609", "current_trial": 54, "dateTime": 1693567060067, "trialdata": {"success": true, "trial_type": "fullscreen", "trial_index": 54, "time_elapsed": 2140920, "internal_node_id": "0.0-7.0"}}], "questiondata": {"params": {"CODE": "C6DMOQA6", "MIN_TIME": 14, "inspectCost": 1, "startTime": "Fri Sep 01 2023 12:41:54 GMT+0200 (South Africa Standard Time)", "bonusRate": 0.002, "variance": "1_2_4_8_44", "branching": "31123"}, "final_score": -382.4}, "eventdata": [{"eventtype": "initialized", "value": null, "timestamp": 1693564914097, "interval": 0}, {"eventtype": "window_resize", "value": [1280, 622], "timestamp": 1693564914097, "interval": 0}, {"eventtype": "window_resize", "value": [1280, 622], "timestamp": 1693564914595, "interval": 498}, {"eventtype": "window_resize", "value": [1280, 720], "timestamp": 1693564946886, "interval": 32291}, {"eventtype": "window_resize", "value": [1280, 622], "timestamp": 1693567059358, "interval": 2112472}], "useragent": "Mozilla/5.0 (Windows NT 10.0; Win64; x64) AppleWebKit/537.36 (KHTML, like Gecko) Chrome/116.0.0.0 Safari/537.36", "mode": "live", "id": "w57664071:a49686609", "status": "user data saved", "Beginhit": "2023-09-01 10:41:48.156776", "Beginexp": "2023-09-01 10:42:27.798453", "Endhit": "2023-09-01 11:17:41.876265", "psiturkStatus": 3, "browser": "<redacted>", "platform": "windows", "language": "en-US"}