{"condition": 0, "counterbalance": 0, "assignmentId": "a75517045", "workerId": "w20049511", "hitId": "h61667191", "currenttrial": 61, "bonus": 0, "data": [{"uniqueid": "w20049511:a75517045", "current_trial": 0, "dateTime": 1693571431296, "trialdata": {"success": true, "trial_type": "fullscreen", "trial_index": 0, "time_elapsed": 2612, "internal_node_id": "0.0-0.0"}}, {"uniqueid": "w20049511:a75517045", "current_trial": 1, "dateTime": 1693571435552, "trialdata": {"view_history": [{"page_index": 0, "viewing_time": 4252}], "rt": 4252, "trial_id": "exp_instructions_control", "trial_type": "instructions", "trial_index": 1, "time_elapsed": 6868, "internal_node_id": "0.0-1.0"}}, {"uniqueid": "w20049511:a75517045", "current_trial": 2, "dateTime": 1693571477301, "trialdata": {"view_history": [{"page_index": 0, "viewing_time": 5356}, {"page_index": 1, "viewing_time": 20584}, {"page_index": 2, "viewing_time": 5423}, {"page_index": 3, "viewing_time": 10384}], "rt": 41748, "trial_id": "mouselab_instructions_1_control", "trial_type": "instructions", "trial_index": 2, "time_elapsed": 48617, "internal_node_id": "0.0-2.0-1.0"}}, {"uniqueid": "w20049511:a75517045", "current_trial": 3, "dateTime": 1693571507887, "trialdata": {"revealed_states": [], "clicked_states": ["1", "12", "23", "2", "3", "4", "5", "6", "7"], "num_clicks_accrued": [0, 0, 0, 0, 0, 0, 0, 0, 0, 0, 0, 0, 0], "stateRewards": ["", -10, -10, -10, 10, 10, 10, -10, -10, -10, -10, -10, -10, -10, 10, -10, 10, 10, 10, 10, 10, 10, 10, -10, 10, -10, 10, 10, -10, -10, 10, 10, 10, 10], "withholdReward": false, "trial_id": "practice_1", "block": "test", "trialIndex": 0, "score": -11, "costs": -4.5, "simulationMode": [null, null, null, null, null], "rewards": [-10, -10, -10, 10, 10], "path": ["0", "0", "1", "2", "3", "4", "5"], "rt": [19786, 349, 162, 415, 202], "actions": ["up", "up", "up", "right", "up"], "actionTimes": [20973, 21812, 22491, 23411, 24114], "queries": {"click": {"state": {"target": ["1", "12", "23", "2", "3", "4", "5", "6", "7"], "time": [2008, 3537, 5118, 7832, 9143, 10483, 11768, 13047, 14641]}, "edge": {"target": [], "time": []}}, "mouseover": {"state": {"target": ["1", "12", "0", "23", "1", "2", "3", "4", "5", "6", "7", "8", "2", "13"], "time": [1663, 2613, 3996, 4569, 7078, 7363, 8395, 9630, 11212, 12612, 13696, 15395, 17378, 19460]}, "edge": {"target": [], "time": []}}, "mouseout": {"state": {"target": ["0", "1", "12", "0", "23", "1", "2", "3", "4", "5", "6", "7", "8", "2", "13", "12", "12", "13", "13", "7", "5", "4", "6"], "time": [1328, 2396, 3878, 4296, 6812, 7160, 7921, 9597, 10828, 12312, 13262, 14962, 17128, 17544, 25327, 25660, 25811, 26609, 27911, 28160, 28961, 29578, 29627]}, "edge": {"target": [], "time": []}}}, "displayed_time": "24.61", "trialTime": 29656, "trial_type": "mouselab-mdp", "trial_index": 3, "time_elapsed": 79203, "internal_node_id": "0.0-2.0-2.0-0.0"}}, {"uniqueid": "w20049511:a75517045", "current_trial": 4, "dateTime": 1693571541703, "trialdata": {"revealed_states": [], "clicked_states": ["1", "2", "3", "8", "11", "23", "24", "25", "30", "33", "32", "31", "26", "29"], "num_clicks_accrued": [0, 0, 0, 0, 0, 0, 0, 0, 0, 0, 0, 0, 0], "stateRewards": ["", -10, -10, -10, -10, -10, -10, 10, -10, 10, 10, -10, 10, -10, -10, 10, -10, 10, 10, -10, 10, 10, 10, -10, 10, -10, 10, -10, 10, 10, 10, -10, -10, -10], "withholdReward": false, "trial_id": "practice_2", "block": "test", "trialIndex": 1, "score": 6.5, "costs": -7, "simulationMode": [null, null, null, null, null], "rewards": [-10, 10, -10, 10, 10], "path": ["0", "0", "23", "24", "25", "26", "29"], "rt": [22840, 49, 35, 470, 94], "actions": ["left", "left", "left", "up", "left"], "actionTimes": [27631, 28174, 28741, 29743, 30335], "queries": {"click": {"state": {"target": ["1", "2", "3", "8", "11", "23", "24", "25", "30", "33", "32", "31", "26", "29"], "time": [7596, 8789, 9812, 10926, 12336, 14342, 15560, 16665, 18026, 20062, 21248, 22383, 23604, 25021]}, "edge": {"target": [], "time": []}}, "mouseover": {"state": {"target": ["1", "2", "3", "8", "11", "10", "23", "24", "25", "30", "33", "32", "31", "25", "26", "29", "27"], "time": [5639, 8058, 9340, 10540, 11891, 12940, 13406, 14824, 16072, 17723, 19855, 20906, 21839, 22889, 23022, 24441, 25890]}, "edge": {"target": [], "time": []}}, "mouseout": {"state": {"target": ["6", "16", "18", "1", "1", "12", "0", "1", "2", "3", "8", "11", "10", "23", "24", "25", "30", "25", "25", "33", "30", "32", "31", "25", "26", "29", "27", "10", "13", "22"], "time": [239, 654, 1072, 2137, 3137, 4187, 4471, 7974, 9259, 10440, 11507, 12608, 13090, 14656, 15856, 17472, 18740, 18940, 19557, 20147, 20739, 21328, 22790, 22922, 23715, 25131, 26806, 31588, 31738, 31923]}, "edge": {"target": [], "time": []}}}, "displayed_time": "30.82", "trialTime": 33650, "trial_type": "mouselab-mdp", "trial_index": 4, "time_elapsed": 113019, "internal_node_id": "0.0-2.0-2.0-1.0"}}, {"uniqueid": "w20049511:a75517045", "current_trial": 5, "dateTime": 1693571558957, "trialdata": {"view_history": [{"page_index": 0, "viewing_time": 13853}, {"page_index": 1, "viewing_time": 3399}], "rt": 17252, "trial_id": "mouselab_instructions_2_control", "trial_type": "instructions", "trial_index": 5, "time_elapsed": 130273, "internal_node_id": "0.0-2.0-3.0"}}, {"uniqueid": "w20049511:a75517045", "current_trial": 6, "dateTime": 1693571584687, "trialdata": {"rt": 25726, "response": {"Q0": "The cost for clicking on nodes may vary between nodes.", "Q1": "The better I perform the higher my bonus will be.", "Q2": "Yes.", "Q3": "To get the highest total score.", "Q4": "Only before moving the spider.", "Q5": "3 seconds"}, "question_order": [0, 1, 2, 3, 4, 5], "correct": {"Q0": "The cost for clicking on nodes may vary between nodes.", "Q1": "The better I perform the higher my bonus will be.", "Q2": "No, the amount of cash at each node of the web may be different each time.", "Q3": "To get the highest total score.", "Q4": "Only before moving the spider.", "Q5": "3 seconds"}, "trial_id": "mouselab_quiz_control", "trial_type": "survey-multi-choice", "trial_index": 6, "time_elapsed": 156003, "internal_node_id": "0.0-2.0-4.0"}}, {"uniqueid": "w20049511:a75517045", "current_trial": 7, "dateTime": 1693571590872, "trialdata": {"success": true, "trial_type": "fullscreen", "trial_index": 7, "time_elapsed": 162187, "internal_node_id": "0.0-2.1-0.1-0.1"}}, {"uniqueid": "w20049511:a75517045", "current_trial": 8, "dateTime": 1693571670126, "trialdata": {"view_history": [{"page_index": 0, "viewing_time": 26717}, {"page_index": 1, "viewing_time": 30904}, {"page_index": 2, "viewing_time": 10079}, {"page_index": 3, "viewing_time": 11553}], "rt": 79253, "trial_id": "mouselab_instructions_1_control", "trial_type": "instructions", "trial_index": 8, "time_elapsed": 241441, "internal_node_id": "0.0-2.1-1.1"}}, {"uniqueid": "w20049511:a75517045", "current_trial": 9, "dateTime": 1693571681441, "trialdata": {"revealed_states": [], "clicked_states": [], "num_clicks_accrued": [0, 0, 0, 0, 0, 0, 0, 0, 0, 0, 0, 0, 0], "stateRewards": ["", -10, -10, -10, 10, 10, 10, -10, -10, -10, -10, -10, -10, -10, 10, -10, 10, 10, 10, 10, 10, 10, 10, -10, 10, -10, 10, 10, -10, -10, 10, 10, 10, 10], "withholdReward": false, "trial_id": "practice_1", "block": "test", "trialIndex": 2, "score": -6.5, "costs": 0, "simulationMode": [null, null, null, null, null], "rewards": [-10, 10, -10, 10, -10], "path": ["0", "0", "23", "24", "25", "26", "29"], "rt": [1483, 75, 17, 29, 528], "actions": ["left", "left", "left", "up", "left"], "actionTimes": [5000, 5573, 6098, 6643, 7676], "queries": {"click": {"state": {"target": [], "time": []}, "edge": {"target": [], "time": []}}, "mouseover": {"state": {"target": ["12"], "time": [3662]}, "edge": {"target": [], "time": []}}, "mouseout": {"state": {"target": ["12", "0", "1", "18", "15", "17", "17", "15", "0", "12", "15", "14", "22"], "time": [null, 380, 929, 1347, 1480, 2182, 2829, 2862, 3629, 3679, 9248, 9313, 9429]}, "edge": {"target": [], "time": []}}}, "displayed_time": "8.21", "trialTime": 9980, "trial_type": "mouselab-mdp", "trial_index": 9, "time_elapsed": 252756, "internal_node_id": "0.0-2.1-2.1-0.1"}}, {"uniqueid": "w20049511:a75517045", "current_trial": 10, "dateTime": 1693571689904, "trialdata": {"revealed_states": [], "clicked_states": [], "num_clicks_accrued": [0, 0, 0, 0, 0, 0, 0, 0, 0, 0, 0, 0, 0], "stateRewards": ["", -10, -10, -10, -10, -10, -10, 10, -10, 10, 10, -10, 10, -10, -10, 10, -10, 10, 10, -10, 10, 10, 10, -10, 10, -10, 10, -10, 10, 10, 10, -10, -10, -10], "withholdReward": false, "trial_id": "practice_2", "block": "test", "trialIndex": 3, "score": -6.5, "costs": 0, "simulationMode": [null, null, null, null, null], "rewards": [10, -10, -10, -10, 10], "path": ["0", "0", "12", "13", "14", "19", "20"], "rt": [391, 64, 678, 113, 493], "actions": ["right", "right", "right", "down", "right"], "actionTimes": [2777, 3378, 4576, 5194, 6175], "queries": {"click": {"state": {"target": [], "time": []}, "edge": {"target": [], "time": []}}, "mouseover": {"state": {"target": ["12", "13"], "time": [2530, 2663]}, "edge": {"target": [], "time": []}}, "mouseout": {"state": {"target": ["12", "12", "0", "12", "13", "13", "13", "13", "20", "14", "22"], "time": [1630, 1980, 2498, 2563, 2680, 4013, 4613, 4847, 5113, 6848, 7630]}, "edge": {"target": [], "time": []}}}, "displayed_time": "6.68", "trialTime": 8294, "trial_type": "mouselab-mdp", "trial_index": 10, "time_elapsed": 261219, "internal_node_id": "0.0-2.1-2.1-1.1"}}, {"uniqueid": "w20049511:a75517045", "current_trial": 11, "dateTime": 1693571709645, "trialdata": {"view_history": [{"page_index": 0, "viewing_time": 18617}, {"page_index": 1, "viewing_time": 1120}], "rt": 19737, "trial_id": "mouselab_instructions_2_control", "trial_type": "instructions", "trial_index": 11, "time_elapsed": 280961, "internal_node_id": "0.0-2.1-3.1"}}, {"uniqueid": "w20049511:a75517045", "current_trial": 12, "dateTime": 1693571727314, "trialdata": {"rt": 17666, "response": {"Q0": "The cost for clicking on nodes may vary between nodes.", "Q1": "The better I perform the higher my bonus will be.", "Q2": "No, the amount of cash at each node of the web may be different each time.", "Q3": "To get the highest total score.", "Q4": "Only before moving the spider.", "Q5": "3 seconds"}, "question_order": [0, 1, 2, 3, 4, 5], "correct": {"Q0": "The cost for clicking on nodes may vary between nodes.", "Q1": "The better I perform the higher my bonus will be.", "Q2": "No, the amount of cash at each node of the web may be different each time.", "Q3": "To get the highest total score.", "Q4": "Only before moving the spider.", "Q5": "3 seconds"}, "trial_id": "mouselab_quiz_control", "trial_type": "survey-multi-choice", "trial_index": 12, "time_elapsed": 298630, "internal_node_id": "0.0-2.1-4.1"}}, {"uniqueid": "w20049511:a75517045", "current_trial": 13, "dateTime": 1693571731447, "trialdata": {"rt": 4124, "response": {"Q0": "No"}, "question_order": [0], "trial_id": "repeat_check", "trial_type": "survey-multi-choice", "trial_index": 13, "time_elapsed": 302762, "internal_node_id": "0.0-4.0-0.0"}}, {"uniqueid": "w20049511:a75517045", "current_trial": 14, "dateTime": 1693571735328, "trialdata": {"rt": 3873, "stimulus": "\n<h1> Get ready to start the game! </h1>\n\nThank you for reading the instructions. Get ready start with the 40 rounds of this game.\n<br><br>\nIf you need to take a break, feel free to take one after the end of a round, before continuing to the next one.\n<br><br>\nRemember, the more money the spider gets, the bigger your bonus will be!\n<br><br>\n<div style='text-align: center;'>Press <code>space</code> to begin.</div>\n\n<br><br>\n(If, at any point, the <code>space</code> key does not take you to the next page, click once on the text and try again.)", "response": " ", "trial_id": "mdp_ready", "trial_type": "html-keyboard-response", "trial_index": 14, "time_elapsed": 306644, "internal_node_id": "0.0-6.0-0.0"}}, {"uniqueid": "w20049511:a75517045", "current_trial": 15, "dateTime": 1693571766653, "trialdata": {"revealed_states": [], "clicked_states": ["1", "2", "3", "8", "11", "23", "12", "24", "25", "30", "33", "26"], "num_clicks_accrued": [0, 0, 0, 0, 0, 0, 0, 0, 0, 0, 0, 0, 0], "stateRewards": ["", -2, -1, -4, -15, -14, -67, 32, -3, -59, 63, 31, 2, -1, -7, -15, 71, -66, -27, -3, -54, -39, 72, 2, 1, 1, -13, 77, -40, 35, -9, 35, 75, 57], "withholdReward": false, "trial_id": "mdp_trial_1", "block": "test", "trialIndex": 4, "score": 35.2, "costs": -16.8, "simulationMode": [null, null, null, null, null], "rewards": [2, 1, 1, -9, 57], "path": ["0", "0", "23", "24", "25", "30", "33"], "rt": [23781, 32, 149, 125, 145], "actions": ["left", "left", "left", "down", "left"], "actionTimes": [26616, 27167, 27833, 28477, 29129], "queries": {"click": {"state": {"target": ["1", "2", "3", "8", "11", "23", "12", "24", "25", "30", "33", "26"], "time": [4697, 6351, 7997, 9765, 12404, 14174, 15885, 17393, 19048, 20978, 22959, 24648]}, "edge": {"target": [], "time": []}}, "mouseover": {"state": {"target": ["1", "2", "3", "8", "11", "10", "23", "24", "12", "24", "24", "25", "26", "30", "33", "26", "23"], "time": [4484, 4968, 6936, 8484, 12033, 12901, 13384, 14768, 15484, 16751, 17151, 18084, 19818, 20318, 22184, 23683, 25817]}, "edge": {"target": [], "time": []}}, "mouseout": {"state": {"target": ["12", "13", "12", "0", "1", "2", "3", "3", "8", "8", "11", "10", "23", "24", "12", "12", "23", "24", "24", "25", "26", "25", "30", "33", "25", "26", "23"], "time": [584, 2168, 2334, 4410, 4885, 6686, 8095, 8351, 10518, 11319, 12801, 13017, 14600, 15368, 16234, 16584, 16684, 16984, 17851, 19569, 19935, 20052, 21500, 23118, 23433, 25550, 25917]}, "edge": {"target": [], "time": []}}}, "displayed_time": "29.62", "trialTime": 31148, "trial_type": "mouselab-mdp", "trial_index": 15, "time_elapsed": 337969, "internal_node_id": "0.0-6.0-1.0-0.0"}}, {"uniqueid": "w20049511:a75517045", "current_trial": 16, "dateTime": 1693571793966, "trialdata": {"revealed_states": [], "clicked_states": ["12", "13", "14", "19", "15", "17", "16", "18", "21", "20", "22"], "num_clicks_accrued": [0, 0, 0, 0, 0, 0, 0, 0, 0, 0, 0, 0, 0], "stateRewards": ["", 2, -1, -1, -9, -81, -30, 55, -6, 78, 25, 62, 2, 4, -1, 9, -85, 1, -19, 1, -60, 12, -34, 1, 4, -1, -13, -24, -16, -83, -8, 16, 43, 9], "withholdReward": false, "trial_id": "mdp_trial_2", "block": "test", "trialIndex": 5, "score": 2.599999999999998, "costs": -15.400000000000002, "simulationMode": [null, null, null, null, null], "rewards": [2, 4, -1, 1, 12], "path": ["0", "0", "12", "13", "14", "19", "21"], "rt": [21224, 59, 68, 83, 94], "actions": ["right", "right", "right", "down", "down"], "actionTimes": [23020, 23581, 24154, 24738, 25351], "queries": {"click": {"state": {"target": ["12", "13", "14", "19", "15", "17", "16", "18", "21", "20", "22"], "time": [2436, 3962, 6013, 7800, 9601, 11496, 13353, 15256, 17169, 19043, 20887]}, "edge": {"target": [], "time": []}}, "mouseover": {"state": {"target": ["12", "13", "14", "14", "19", "15", "17", "16", "18", "14", "19", "21", "20", "19", "22"], "time": [2104, 2738, 4254, 5886, 6503, 8820, 10388, 12120, 13887, 15720, 15904, 16421, 17504, 19320, 19454]}, "edge": {"target": [], "time": []}}, "mouseout": {"state": {"target": ["13", "12", "12", "13", "14", "14", "19", "14", "15", "17", "16", "18", "14", "19", "21", "20", "19", "22", "15", "22"], "time": [671, 902, 2704, 4188, 5719, 6320, 8170, 8486, 10288, 11887, 13587, 15622, 15787, 15989, 17176, 19270, 19371, 21954, 26136, 26838]}, "edge": {"target": [], "time": []}}}, "displayed_time": "25.86", "trialTime": 27147, "trial_type": "mouselab-mdp", "trial_index": 16, "time_elapsed": 365281, "internal_node_id": "0.0-6.0-1.0-1.0"}}, {"uniqueid": "w20049511:a75517045", "current_trial": 17, "dateTime": 1693571814814, "trialdata": {"revealed_states": [], "clicked_states": ["1", "9", "11", "10", "7", "6", "5"], "num_clicks_accrued": [0, 0, 0, 0, 0, 0, 0, 0, 0, 0, 0, 0, 0], "stateRewards": ["", 2, -3, -2, 14, -4, 85, 46, 15, -28, 41, 31, -1, -1, -1, 5, 62, 79, 57, 12, -73, -64, 86, -1, 1, -3, -5, 68, 11, -32, 8, -80, -21, -56], "withholdReward": false, "trial_id": "mdp_trial_3", "block": "test", "trialIndex": 6, "score": 86.2, "costs": -9.8, "simulationMode": [null, null, null, null, null, null], "rewards": [2, -3, -2, 14, 85], "path": ["0", "0", "1", "2", "3", "4", "6"], "rt": [13754, 224, 89, 137, 215, 89], "actions": ["up", "up", "up", "up", "right", "right"], "actionTimes": [15090, 15317, 15909, 16558, 17270, 17876], "queries": {"click": {"state": {"target": ["1", "9", "11", "10", "7", "6", "5"], "time": [2156, 4241, 5923, 7680, 9523, 11570, 13653]}, "edge": {"target": [], "time": []}}, "mouseover": {"state": {"target": ["1", "2", "3", "8", "9", "9", "11", "10", "2", "7", "2", "2", "7", "6", "5", "4", "18"], "time": [1688, 3138, 3222, 3255, 3455, 4103, 4805, 6504, 8754, 8787, 8954, 9236, 9303, 10387, 12904, 14053, 14471]}, "edge": {"target": [], "time": []}}, "mouseout": {"state": {"target": ["12", "1", "2", "3", "8", "9", "9", "11", "10", "2", "7", "2", "2", "7", "6", "5", "4", "18", "15", "17"], "time": [470, 2420, 3204, 3237, 3271, 3922, 4539, 6322, 8736, 8770, 8903, 9020, 9269, 10019, 12292, 13986, 14120, 18870, 18919, 19336]}, "edge": {"target": [], "time": []}}}, "displayed_time": "18.37", "trialTime": 20680, "trial_type": "mouselab-mdp", "trial_index": 17, "time_elapsed": 386129, "internal_node_id": "0.0-6.0-1.0-2.0"}}, {"uniqueid": "w20049511:a75517045", "current_trial": 18, "dateTime": 1693571874343, "trialdata": {"revealed_states": [], "clicked_states": ["11", "9", "10"], "num_clicks_accrued": [0, 0, 0, 0, 0, 0, 0, 0, 0, 0, 0, 0, 0], "stateRewards": ["", -1, 1, 8, -8, -49, 62, -78, 16, 28, -81, 78, -2, -3, -1, -4, 67, 49, -2, -13, -16, -39, 83, 1, -4, 4, -5, -20, 7, 84, 7, -32, -59, 19], "withholdReward": false, "trial_id": "mdp_trial_4", "block": "test", "trialIndex": 7, "score": 97.8, "costs": -4.199999999999999, "simulationMode": [null, null, null, null, null], "rewards": [-1, 1, 8, 16, 78], "path": ["0", "0", "1", "2", "3", "8", "11"], "rt": [6488, 153, 165, 218, 52], "actions": ["up", "up", "up", "left", "left"], "actionTimes": [7469, 8133, 8795, 9530, 10081], "queries": {"click": {"state": {"target": ["11", "9", "10"], "time": [1985, 3917, 5790]}, "edge": {"target": [], "time": []}}, "mouseover": {"state": {"target": ["1", "2", "3", "8", "11", "9", "8", "10"], "time": [1295, 1344, 1411, 1644, 1846, 2261, 4227, 4561]}, "edge": {"target": [], "time": []}}, "mouseout": {"state": {"target": ["0", "1", "2", "3", "8", "11", "9", "8", "10", "17", "20", "21"], "time": [1257, 1327, 1378, 1477, 1694, 2074, 4178, 4411, 6256, 11312, 13095, 14744]}, "edge": {"target": [], "time": []}}}, "displayed_time": "14.98", "trialTime": 59351, "trial_type": "mouselab-mdp", "trial_index": 18, "time_elapsed": 445659, "internal_node_id": "0.0-6.0-1.0-3.0"}}, {"uniqueid": "w20049511:a75517045", "current_trial": 19, "dateTime": 1693571893048, "trialdata": {"revealed_states": [], "clicked_states": ["11", "9", "6", "5"], "num_clicks_accrued": [0, 0, 0, 0, 0, 0, 0, 0, 0, 0, 0, 0, 0], "stateRewards": ["", -1, -2, -1, -10, -57, 73, -72, -16, 75, -14, -46, -2, -3, -7, -1, -61, -60, 76, -4, 50, 4, 14, 2, 2, -7, 12, -65, -32, 15, -8, -76, -25, -61], "withholdReward": false, "trial_id": "mdp_trial_5", "block": "test", "trialIndex": 8, "score": 49.4, "costs": -5.6, "simulationMode": [null, null, null, null, null], "rewards": [-1, -2, -1, -16, 75], "path": ["0", "0", "1", "2", "3", "8", "9"], "rt": [9006, 334, 228, 189, 77], "actions": ["up", "up", "up", "left", "up"], "actionTimes": [11640, 12470, 13213, 13908, 14496], "queries": {"click": {"state": {"target": ["11", "9", "6", "5"], "time": [3558, 5383, 7210, 9065]}, "edge": {"target": [], "time": []}}, "mouseover": {"state": {"target": ["1", "2", "8", "11", "9", "6", "5", "4", "7"], "time": [2884, 2950, 3084, 3400, 4417, 6217, 7667, 9437, 9718]}, "edge": {"target": [], "time": []}}, "mouseout": {"state": {"target": ["14", "13", "12", "0", "1", "2", "8", "11", "9", "6", "5", "4", "7", "2"], "time": [866, 1416, 1850, 2770, 2934, 2984, 3234, 3584, 5667, 7289, 9385, 9585, 15267, 15484]}, "edge": {"target": [], "time": []}}}, "displayed_time": "16.64", "trialTime": 18497, "trial_type": "mouselab-mdp", "trial_index": 19, "time_elapsed": 464364, "internal_node_id": "0.0-6.0-1.0-4.0"}}, {"uniqueid": "w20049511:a75517045", "current_trial": 20, "dateTime": 1693571909287, "trialdata": {"revealed_states": [], "clicked_states": ["11", "6", "7", "10"], "num_clicks_accrued": [0, 0, 0, 0, 0, 0, 0, 0, 0, 0, 0, 0, 0], "stateRewards": ["", 1, 4, 5, -5, 58, -80, 75, 6, 25, -39, 46, 2, -2, 4, 2, 59, 31, -22, -12, -61, 15, 72, 1, -2, -7, 8, 77, 76, -23, -7, 71, -15, -3], "withholdReward": false, "trial_id": "mdp_trial_6", "block": "test", "trialIndex": 9, "score": 74.4, "costs": -5.6, "simulationMode": [null, null, null, null, null], "rewards": [1, 4, 5, -5, 75], "path": ["0", "0", "1", "2", "3", "4", "7"], "rt": [8428, 238, 117, 129, 110], "actions": ["up", "up", "up", "right", "down"], "actionTimes": [9514, 10269, 10881, 11509, 12124], "queries": {"click": {"state": {"target": ["11", "6", "7", "10"], "time": [1915, 3739, 5546, 7470]}, "edge": {"target": [], "time": []}}, "mouseover": {"state": {"target": ["11", "8", "3", "4", "6", "4", "4", "7", "2", "10"], "time": [1663, 2263, 2396, 2481, 2729, 4329, 4612, 4745, 5946, 6130]}, "edge": {"target": [], "time": []}}, "mouseout": {"state": {"target": ["0", "0", "11", "8", "3", "4", "6", "6", "4", "4", "7", "2", "10", "2", "7", "16", "15"], "time": [345, 1155, 2230, 2346, 2463, 2529, 3818, 4162, 4513, 4679, 5880, 5996, 12595, 12629, 12662, 13297, 13961]}, "edge": {"target": [], "time": []}}}, "displayed_time": "15.09", "trialTime": 16064, "trial_type": "mouselab-mdp", "trial_index": 20, "time_elapsed": 480602, "internal_node_id": "0.0-6.0-1.0-5.0"}}, {"uniqueid": "w20049511:a75517045", "current_trial": 21, "dateTime": 1693571928097, "trialdata": {"revealed_states": [], "clicked_states": ["9", "6", "7", "10"], "num_clicks_accrued": [0, 0, 0, 0, 0, 0, 0, 0, 0, 0, 0, 0, 0], "stateRewards": ["", -2, -3, 8, -4, -30, 31, 69, 9, 66, 87, 64, -2, 2, 8, 5, 47, 16, -39, -8, -54, 51, -19, 1, -2, -2, -11, -25, -26, 43, -9, 19, -84, 86], "withholdReward": false, "trial_id": "mdp_trial_7", "block": "test", "trialIndex": 10, "score": 93.4, "costs": -5.6, "simulationMode": [null, null, null, null, null], "rewards": [-2, -3, 8, 9, 87], "path": ["0", "0", "1", "2", "3", "8", "10"], "rt": [8747, 144, 75, 102, 114], "actions": ["up", "up", "up", "left", "down"], "actionTimes": [12528, 13172, 13767, 14360, 14972], "queries": {"click": {"state": {"target": ["9", "6", "7", "10"], "time": [4683, 6660, 8559, 10428]}, "edge": {"target": [], "time": []}}, "mouseover": {"state": {"target": ["10", "8", "9", "6", "6", "4", "7", "2", "10", "2"], "time": [4041, 4206, 4418, 5157, 5557, 7174, 7323, 8923, 9192, 11640]}, "edge": {"target": [], "time": []}}, "mouseout": {"state": {"target": ["10", "2", "1", "10", "8", "9", "6", "6", "4", "7", "2", "10", "10", "2", "7", "17", "14", "22"], "time": [989, 2023, 3223, 4106, 4223, 5007, 5257, 7057, 7241, 8873, 9007, 10857, 11257, 11740, 15406, 16957, 17156, 17306]}, "edge": {"target": [], "time": []}}}, "displayed_time": "17.78", "trialTime": 18636, "trial_type": "mouselab-mdp", "trial_index": 21, "time_elapsed": 499413, "internal_node_id": "0.0-6.0-1.0-6.0"}}, {"uniqueid": "w20049511:a75517045", "current_trial": 22, "dateTime": 1693571946283, "trialdata": {"revealed_states": [], "clicked_states": ["11", "9", "10", "7", "6", "5"], "num_clicks_accrued": [0, 0, 0, 0, 0, 0, 0, 0, 0, 0, 0, 0, 0], "stateRewards": ["", 2, 4, -5, 7, 81, 35, 6, 11, 14, -72, 42, -1, 2, 3, -7, -77, -44, -40, -15, -85, 51, -32, -2, -1, -5, 7, -74, 47, 52, 16, -49, 48, -46], "withholdReward": false, "trial_id": "mdp_trial_8", "block": "test", "trialIndex": 11, "score": 80.6, "costs": -8.4, "simulationMode": [null, null, null, null, null], "rewards": [2, 4, -5, 7, 81], "path": ["0", "0", "1", "2", "3", "4", "5"], "rt": [12572, 148, 117, 111, 138], "actions": ["up", "up", "up", "right", "up"], "actionTimes": [13892, 14554, 15189, 15801, 16428], "queries": {"click": {"state": {"target": ["11", "9", "10", "7", "6", "5"], "time": [2191, 4048, 5690, 7575, 9442, 11264]}, "edge": {"target": [], "time": []}}, "mouseover": {"state": {"target": ["1", "10", "11", "9", "8", "10", "2", "7", "6", "5", "16", "17", "17"], "time": [1641, 1705, 2039, 2541, 4391, 4674, 6156, 6523, 8040, 10057, 11756, 11988, 12505]}, "edge": {"target": [], "time": []}}, "mouseout": {"state": {"target": ["0", "1", "10", "11", "9", "8", "10", "2", "7", "6", "5", "6", "16", "17", "17", "15"], "time": [1056, 1689, 1789, 2422, 4323, 4490, 6123, 6223, 7873, 9530, 11605, 11705, 11821, 12305, 16922, 16988]}, "edge": {"target": [], "time": []}}}, "displayed_time": "16.94", "trialTime": 18005, "trial_type": "mouselab-mdp", "trial_index": 22, "time_elapsed": 517598, "internal_node_id": "0.0-6.0-1.0-7.0"}}, {"uniqueid": "w20049511:a75517045", "current_trial": 23, "dateTime": 1693571966526, "trialdata": {"revealed_states": [], "clicked_states": ["11", "27", "9", "5", "6", "7"], "num_clicks_accrued": [0, 0, 0, 0, 0, 0, 0, 0, 0, 0, 0, 0, 0], "stateRewards": ["", 1, -1, 1, 13, 31, -56, 72, 2, 41, 5, 63, -2, -3, -2, 3, -71, -26, 52, 13, -31, 24, -67, 2, -2, 5, 4, 66, 43, 72, 9, 86, -26, 44], "withholdReward": false, "trial_id": "mdp_trial_9", "block": "test", "trialIndex": 12, "score": 77.6, "costs": -8.4, "simulationMode": [null, null, null, null, null], "rewards": [1, -1, 1, 13, 72], "path": ["0", "0", "1", "2", "3", "4", "7"], "rt": [12971, 178, 85, 36, 18], "actions": ["up", "up", "up", "right", "down"], "actionTimes": [14238, 14911, 15501, 16052, 16600], "queries": {"click": {"state": {"target": ["11", "27", "9", "5", "6", "7"], "time": [2172, 4051, 5850, 7710, 9588, 11501]}, "edge": {"target": [], "time": []}}, "mouseover": {"state": {"target": ["11", "8", "10", "27", "27", "8", "9", "5", "6", "7", "2", "10"], "time": [1915, 2599, 2751, 3016, 3166, 4667, 4800, 6483, 8267, 9916, 11800, 11933]}, "edge": {"target": [], "time": []}}, "mouseout": {"state": {"target": ["2", "0", "11", "8", "10", "27", "27", "8", "9", "5", "6", "7", "2", "10", "2", "7", "16", "15", "18", "12"], "time": [131, 1064, 2416, 2682, 2833, 3050, 4383, 4716, 6250, 8017, 9834, 11768, 11900, 16916, 16949, 16983, 17883, 18015, 18283, 19066]}, "edge": {"target": [], "time": []}}}, "displayed_time": "17.12", "trialTime": 20058, "trial_type": "mouselab-mdp", "trial_index": 23, "time_elapsed": 537841, "internal_node_id": "0.0-6.0-1.0-8.0"}}, {"uniqueid": "w20049511:a75517045", "current_trial": 24, "dateTime": 1693571991101, "trialdata": {"revealed_states": [], "clicked_states": ["11", "9", "10", "5", "6", "7", "17", "16", "21"], "num_clicks_accrued": [0, 0, 0, 0, 0, 0, 0, 0, 0, 0, 0, 0, 0], "stateRewards": ["", 2, -4, -4, 13, -80, 62, 13, -11, 57, -13, -44, 1, 4, 3, -4, -29, -88, 15, 16, -58, 68, -45, -1, -3, -1, -9, -44, -86, -19, -7, -36, 59, 66], "withholdReward": false, "trial_id": "mdp_trial_10", "block": "test", "trialIndex": 13, "score": 56.4, "costs": -12.600000000000001, "simulationMode": [null, null, null, null, null], "rewards": [2, -4, -4, 13, 62], "path": ["0", "0", "1", "2", "3", "4", "6"], "rt": [19098, 89, 64, 144, 94], "actions": ["up", "up", "up", "right", "right"], "actionTimes": [20421, 21017, 21575, 22237, 22823], "queries": {"click": {"state": {"target": ["11", "9", "10", "5", "6", "7", "17", "16", "21"], "time": [2065, 4014, 5988, 7935, 9823, 11995, 13957, 16117, 18194]}, "edge": {"target": [], "time": []}}, "mouseover": {"state": {"target": ["1", "10", "11", "8", "9", "10", "2", "7", "4", "5", "6", "7", "16", "17", "16", "15", "21", "20"], "time": [1595, 1660, 1944, 2360, 2543, 4578, 6311, 6360, 7011, 7160, 8311, 10362, 12394, 12629, 14362, 16594, 17826, 18494]}, "edge": {"target": [], "time": []}}, "mouseout": {"state": {"target": ["0", "1", "10", "11", "8", "9", "10", "2", "7", "4", "5", "6", "7", "16", "17", "16", "15", "21", "21", "20", "20", "19"], "time": [544, 1627, 1727, 2326, 2411, 4212, 6277, 6344, 6961, 7077, 8145, 10144, 12311, 12528, 14195, 16494, 16727, 18267, 18378, 22759, 23343, 23510]}, "edge": {"target": [], "time": []}}}, "displayed_time": "23.33", "trialTime": 24378, "trial_type": "mouselab-mdp", "trial_index": 24, "time_elapsed": 562416, "internal_node_id": "0.0-6.0-1.0-9.0"}}, {"uniqueid": "w20049511:a75517045", "current_trial": 25, "dateTime": 1693572019498, "trialdata": {"revealed_states": [], "clicked_states": ["9", "5", "6", "7", "11", "10", "29", "27", "28", "31", "32", "33"], "num_clicks_accrued": [0, 0, 0, 0, 0, 0, 0, 0, 0, 0, 0, 0, 0], "stateRewards": ["", -1, 3, 8, 9, -53, 20, -84, 2, -28, -62, -31, -1, -2, -7, 2, 51, 58, 45, -4, -17, -41, 36, 2, -2, -7, -15, 29, -54, -37, -16, -43, 65, -17], "withholdReward": false, "trial_id": "mdp_trial_11", "block": "test", "trialIndex": 14, "score": 25.200000000000003, "costs": -16.8, "simulationMode": [null, null, null, null, null], "rewards": [2, -2, -7, -16, 65], "path": ["0", "0", "23", "24", "25", "30", "32"], "rt": [23263, 202, 140, 103, 109], "actions": ["left", "left", "left", "down", "down"], "actionTimes": [24373, 25069, 25706, 26303, 26926], "queries": {"click": {"state": {"target": ["9", "5", "6", "7", "11", "10", "29", "27", "28", "31", "32", "33"], "time": [1912, 3795, 5732, 7576, 9416, 11267, 13170, 15069, 16801, 18676, 20623, 22484]}, "edge": {"target": [], "time": []}}, "mouseover": {"state": {"target": ["1", "2", "8", "9", "4", "5", "4", "4", "6", "7", "2", "10", "11", "10", "10", "29", "27", "28", "24", "31", "32", "33", "30"], "time": [1265, 1332, 1549, 1698, 2300, 2400, 4066, 4283, 4333, 6215, 7882, 8032, 8299, 9699, 10482, 12333, 13916, 15482, 17233, 17449, 19115, 21149, 23565]}, "edge": {"target": [], "time": []}}, "mouseout": {"state": {"target": ["12", "0", "1", "2", "8", "9", "4", "5", "4", "4", "6", "7", "2", "10", "11", "10", "10", "29", "27", "28", "24", "31", "32", "33", "30", "31"], "time": [681, 1221, 1298, 1432, 1581, 2149, 2316, 4033, 4216, 4299, 5999, 7643, 7916, 8149, 9633, 10116, 11499, 13583, 15282, 17166, 17249, 18932, 20721, 23499, 23599, 27282]}, "edge": {"target": [], "time": []}}}, "displayed_time": "27.42", "trialTime": 28180, "trial_type": "mouselab-mdp", "trial_index": 25, "time_elapsed": 590813, "internal_node_id": "0.0-6.0-1.0-10.0"}}, {"uniqueid": "w20049511:a75517045", "current_trial": 26, "dateTime": 1693572035388, "trialdata": {"revealed_states": [], "clicked_states": ["9", "11", "10", "7"], "num_clicks_accrued": [0, 0, 0, 0, 0, 0, 0, 0, 0, 0, 0, 0, 0], "stateRewards": ["", -1, -3, -5, -14, -13, -47, 79, 8, -60, -64, 41, -1, 2, 3, 13, -46, 61, -79, -11, -64, -65, 23, 1, -2, 6, -14, 46, 32, 21, 7, 75, -66, 15], "withholdReward": false, "trial_id": "mdp_trial_12", "block": "test", "trialIndex": 15, "score": 50.4, "costs": -5.6, "simulationMode": [null, null, null, null, null], "rewards": [-1, -3, -5, -14, 79], "path": ["0", "0", "1", "2", "3", "4", "7"], "rt": [8635, 131, 82, 66, 65], "actions": ["up", "up", "up", "right", "down"], "actionTimes": [9749, 10381, 10982, 11565, 12132], "queries": {"click": {"state": {"target": ["9", "11", "10", "7"], "time": [2068, 3877, 5734, 7647]}, "edge": {"target": [], "time": []}}, "mouseover": {"state": {"target": ["1", "8", "9", "8", "11", "10", "2", "7", "4", "5"], "time": [1482, 1616, 1899, 2333, 2616, 4415, 6101, 6166, 7933, 8133]}, "edge": {"target": [], "time": []}}, "mouseout": {"state": {"target": ["0", "0", "1", "8", "9", "8", "11", "10", "2", "7", "4", "5", "6", "16"], "time": [666, 815, 1515, 1715, 2299, 2533, 4183, 6066, 6133, 7850, 8017, 11766, 13349, 14216]}, "edge": {"target": [], "time": []}}}, "displayed_time": "15.12", "trialTime": 15704, "trial_type": "mouselab-mdp", "trial_index": 26, "time_elapsed": 606703, "internal_node_id": "0.0-6.0-1.0-11.0"}}, {"uniqueid": "w20049511:a75517045", "current_trial": 27, "dateTime": 1693572061912, "trialdata": {"revealed_states": [], "clicked_states": ["9", "11", "10", "5", "6", "7", "18", "16", "17", "20", "21"], "num_clicks_accrued": [0, 0, 0, 0, 0, 0, 0, 0, 0, 0, 0, 0, 0], "stateRewards": ["", -2, 1, -3, -16, -39, -52, 30, -7, -41, -59, 11, 2, 1, 8, 2, -11, -26, -42, -13, 87, -59, -48, -1, -1, -1, 16, -79, 31, 50, -1, -84, 34, -82], "withholdReward": false, "trial_id": "mdp_trial_13", "block": "test", "trialIndex": 16, "score": 69.6, "costs": -15.400000000000002, "simulationMode": [null, null, null, null, null, null], "rewards": [2, 1, 8, -13, 87], "path": ["0", "0", "12", "13", "14", "19", "20"], "rt": [20853, 505, 236, 66, 68, 135], "actions": ["right", "right", "right", "right", "down", "right"], "actionTimes": [22025, 22532, 23295, 23872, 24458, 25106], "queries": {"click": {"state": {"target": ["9", "11", "10", "5", "6", "7", "18", "16", "17", "20", "21"], "time": [1960, 4015, 6010, 7864, 9646, 11478, 13338, 15509, 17419, 19464, 21519]}, "edge": {"target": [], "time": []}}, "mouseover": {"state": {"target": ["10", "8", "9", "11", "10", "3", "4", "5", "6", "7", "17", "15", "18", "16", "17", "14", "19", "20", "21"], "time": [1390, 1506, 1822, 2423, 4906, 6390, 6422, 6606, 8206, 10106, 12323, 12639, 12906, 13688, 15956, 18072, 18455, 18755, 19855]}, "edge": {"target": [], "time": []}}, "mouseout": {"state": {"target": ["7", "2", "1", "10", "8", "9", "11", "11", "10", "3", "4", "5", "6", "7", "7", "17", "15", "18", "16", "17", "14", "19", "20", "21", "19", "20"], "time": [372, 622, 738, 1456, 1638, 2256, 4128, 4389, 6111, 6405, 6455, 8106, 9973, 11543, 11706, 12523, 12707, 13573, 15790, 17705, 18322, 18655, 19755, 22489, 24071, 24704]}, "edge": {"target": [], "time": []}}}, "displayed_time": "25.62", "trialTime": 26335, "trial_type": "mouselab-mdp", "trial_index": 27, "time_elapsed": 633228, "internal_node_id": "0.0-6.0-1.0-12.0"}}, {"uniqueid": "w20049511:a75517045", "current_trial": 28, "dateTime": 1693572080925, "trialdata": {"revealed_states": [], "clicked_states": ["11", "9", "10", "7", "6", "5"], "num_clicks_accrued": [0, 0, 0, 0, 0, 0, 0, 0, 0, 0, 0, 0, 0], "stateRewards": ["", -2, 2, 3, -7, 76, 63, 21, 15, 35, -8, -44, 1, 1, -2, -12, 23, 24, 76, -9, 46, 66, -49, -2, -1, 7, 12, 40, -71, -45, -6, 38, -49, 46], "withholdReward": false, "trial_id": "mdp_trial_14", "block": "test", "trialIndex": 17, "score": 63.6, "costs": -8.4, "simulationMode": [null, null, null, null, null], "rewards": [-2, 2, 3, -7, 76], "path": ["0", "0", "1", "2", "3", "4", "5"], "rt": [13437, 219, 96, 57, 99], "actions": ["up", "up", "up", "right", "up"], "actionTimes": [14645, 15376, 15985, 16564, 17155], "queries": {"click": {"state": {"target": ["11", "9", "10", "7", "6", "5"], "time": [2866, 5128, 6980, 8837, 10771, 12724]}, "edge": {"target": [], "time": []}}, "mouseover": {"state": {"target": ["1", "10", "8", "11", "11", "9", "8", "10", "2", "7", "6", "5", "16", "17"], "time": [1422, 1555, 1638, 2138, 2706, 3504, 5372, 5472, 7255, 7321, 9356, 11188, 13173, 13338]}, "edge": {"target": [], "time": []}}, "mouseout": {"state": {"target": ["17", "15", "18", "1", "10", "8", "11", "11", "9", "8", "10", "2", "7", "6", "5", "16", "17", "16", "13"], "time": [321, 371, 537, 1488, 1605, 1821, 2349, 3121, 5339, 5422, 7221, 7288, 9089, 11055, 12972, 13221, 17555, 17804, 18371]}, "edge": {"target": [], "time": []}}}, "displayed_time": "17.68", "trialTime": 18815, "trial_type": "mouselab-mdp", "trial_index": 28, "time_elapsed": 652240, "internal_node_id": "0.0-6.0-1.0-13.0"}}, {"uniqueid": "w20049511:a75517045", "current_trial": 29, "dateTime": 1693572103865, "trialdata": {"revealed_states": [], "clicked_states": ["9", "5", "6", "11", "10", "7", "28", "27", "29"], "num_clicks_accrued": [0, 0, 0, 0, 0, 0, 0, 0, 0, 0, 0, 0, 0], "stateRewards": ["", 1, 2, -8, 9, 18, -83, -11, 6, -64, -48, 17, -2, -2, -5, -3, -24, -3, -86, -2, 48, -41, -22, -2, 4, 7, 8, 81, 13, -48, 10, 61, 19, 57], "withholdReward": false, "trial_id": "mdp_trial_15", "block": "test", "trialIndex": 18, "score": 85.4, "costs": -12.600000000000001, "simulationMode": [null, null, null, null, null, null], "rewards": [-2, 4, 7, 8, 81], "path": ["0", "0", "23", "24", "25", "26", "27"], "rt": [16925, 464, 110, 178, 339, 157], "actions": ["left", "left", "left", "left", "up", "up"], "actionTimes": [17901, 18367, 19010, 19678, 20521, 21191], "queries": {"click": {"state": {"target": ["9", "5", "6", "11", "10", "7", "28", "27", "29"], "time": [1746, 3653, 5530, 7449, 9371, 11268, 13194, 15156, 17269]}, "edge": {"target": [], "time": []}}, "mouseover": {"state": {"target": ["1", "10", "8", "9", "5", "6", "5", "6", "4", "3", "8", "11", "11", "10", "2", "7", "7", "2", "28", "27", "26", "27", "29"], "time": [1149, 1249, 1330, 1532, 2065, 2516, 2782, 3982, 5783, 5833, 5867, 5949, 6251, 7849, 9582, 9632, 9932, 11599, 12199, 13668, 14734, 14965, 15532]}, "edge": {"target": [], "time": []}}, "mouseout": {"state": {"target": ["12", "1", "10", "8", "9", "5", "6", "5", "6", "4", "3", "8", "11", "11", "10", "2", "7", "7", "2", "10", "28", "27", "26", "27", "29", "2", "1"], "time": [231, 1198, 1281, 1415, 1965, 2133, 2732, 3916, 5766, 5816, 5849, 5916, 6000, 7698, 9565, 9615, 9699, 11582, 11649, 11799, 13416, 14732, 14832, 15416, 21547, 22363, 22499]}, "edge": {"target": [], "time": []}}}, "displayed_time": "21.70", "trialTime": 22749, "trial_type": "mouselab-mdp", "trial_index": 29, "time_elapsed": 675180, "internal_node_id": "0.0-6.0-1.0-14.0"}}, {"uniqueid": "w20049511:a75517045", "current_trial": 30, "dateTime": 1693572123579, "trialdata": {"revealed_states": [], "clicked_states": ["9", "5"], "num_clicks_accrued": [0, 0, 0, 0, 0, 0, 0, 0, 0, 0, 0, 0, 0], "stateRewards": ["", -1, 2, -2, 5, 80, -61, -27, 12, 44, -26, -75, -2, -4, 1, -16, 42, -49, -50, 4, -44, 2, 80, -2, -2, 5, -2, 59, 10, 24, 7, -48, -86, -44], "withholdReward": false, "trial_id": "mdp_trial_16", "block": "test", "trialIndex": 19, "score": 81.2, "costs": -2.8, "simulationMode": [null, null, null, null, null], "rewards": [-1, 2, -2, 5, 80], "path": ["0", "0", "1", "2", "3", "4", "5"], "rt": [5190, 2, 79, 85, 99], "actions": ["up", "up", "up", "right", "up"], "actionTimes": [6195, 6735, 7346, 7951, 8548], "queries": {"click": {"state": {"target": ["9", "5"], "time": [1774, 3762]}, "edge": {"target": [], "time": []}}, "mouseover": {"state": {"target": ["10", "8", "9", "5", "6"], "time": [1281, 1364, 1564, 2265, 5715]}, "edge": {"target": [], "time": []}}, "mouseout": {"state": {"target": ["0", "10", "8", "9", "5", "6", "13"], "time": [1093, 1331, 1482, 2015, 5231, 17816, 18616]}, "edge": {"target": [], "time": []}}}, "displayed_time": "15.01", "trialTime": 19479, "trial_type": "mouselab-mdp", "trial_index": 30, "time_elapsed": 694895, "internal_node_id": "0.0-6.0-1.0-15.0"}}, {"uniqueid": "w20049511:a75517045", "current_trial": 31, "dateTime": 1693572166849, "trialdata": {"revealed_states": [], "clicked_states": ["9", "5", "6", "11", "10", "7", "28", "31", "32", "33", "29", "27", "18", "17", "16", "20", "21", "22"], "num_clicks_accrued": [0, 0, 0, 0, 0, 0, 0, 0, 0, 0, 0, 0, 0], "stateRewards": ["", -1, 2, 5, -6, 13, -64, -47, 8, -79, -80, -33, 1, 2, -2, -16, 56, -71, -10, 3, 29, 44, 85, -1, 4, 5, 4, -36, -56, 19, 8, 52, -13, -2], "withholdReward": false, "trial_id": "mdp_trial_17", "block": "test", "trialIndex": 20, "score": 63.80000000000001, "costs": -25.199999999999992, "simulationMode": [null, null, null, null, null], "rewards": [1, 2, -2, 3, 85], "path": ["0", "0", "12", "13", "14", "19", "22"], "rt": [36233, 131, 119, 43, 97], "actions": ["right", "right", "right", "down", "left"], "actionTimes": [39134, 39765, 40403, 40961, 41563], "queries": {"click": {"state": {"target": ["9", "5", "6", "11", "10", "7", "28", "31", "32", "33", "29", "27", "18", "17", "16", "20", "21", "22"], "time": [4434, 6252, 8140, 10034, 11909, 13779, 15691, 17551, 19283, 21203, 23020, 24962, 27545, 29393, 31292, 33227, 35244, 37070]}, "edge": {"target": [], "time": []}}, "mouseover": {"state": {"target": ["1", "2", "8", "9", "5", "4", "5", "6", "8", "11", "10", "2", "7", "2", "28", "24", "31", "30", "32", "33", "29", "27", "1", "23", "31", "12", "13", "18", "17", "16", "20", "21", "22", "14", "15", "16"], "time": [3784, 3833, 3918, 4200, 4734, 5300, 5484, 6768, 8585, 8667, 10634, 12250, 12584, 14002, 14402, 15967, 16070, 17917, 18267, 20583, 21684, 23484, 25617, 25767, 26050, 26782, 26883, 27351, 28599, 29716, 31883, 33666, 35616, 37736, 37834, 38300]}, "edge": {"target": [], "time": []}}, "mouseout": {"state": {"target": ["14", "13", "12", "0", "1", "2", "8", "9", "5", "4", "5", "6", "8", "11", "10", "2", "7", "2", "10", "28", "24", "31", "30", "32", "33", "29", "27", "1", "23", "31", "12", "13", "18", "17", "16", "20", "21", "22", "14", "15", "16", "16", "17", "14", "13"], "time": [1865, 2017, 2267, 2716, 3817, 3851, 3977, 4617, 5251, 5450, 6568, 8451, 8634, 10334, 12133, 12467, 13985, 14035, 14068, 15917, 16017, 17884, 18019, 20233, 21450, 23284, 25351, 25683, 25783, 26683, 26834, 27234, 27883, 29455, 31484, 33533, 35516, 37635, 37767, 38051, 41716, 41783, 42650, 42749, 42850]}, "edge": {"target": [], "time": []}}}, "displayed_time": "42.10", "trialTime": 43052, "trial_type": "mouselab-mdp", "trial_index": 31, "time_elapsed": 738164, "internal_node_id": "0.0-6.0-1.0-16.0"}}, {"uniqueid": "w20049511:a75517045", "current_trial": 32, "dateTime": 1693572209527, "trialdata": {"revealed_states": [], "clicked_states": ["11", "9", "5", "6", "7", "10", "28", "31", "27", "29", "32", "33", "16", "18", "17", "21", "22", "20"], "num_clicks_accrued": [0, 0, 0, 0, 0, 0, 0, 0, 0, 0, 0, 0, 0], "stateRewards": ["", -1, -3, -7, -7, -76, 30, -49, 11, -70, 56, 2, 1, 4, -3, -14, -59, -83, -25, -9, -21, -67, -73, -2, 4, 4, -9, -11, -32, 60, 9, -87, 22, -64], "withholdReward": false, "trial_id": "mdp_trial_18", "block": "test", "trialIndex": 21, "score": 31.800000000000008, "costs": -25.199999999999992, "simulationMode": [null, null, null, null, null], "rewards": [-2, 4, 4, -9, 60], "path": ["0", "0", "23", "24", "25", "26", "29"], "rt": [34727, 558, 151, 135, 48], "actions": ["left", "left", "left", "up", "left"], "actionTimes": [37692, 38769, 39428, 40080, 40625], "queries": {"click": {"state": {"target": ["11", "9", "5", "6", "7", "10", "28", "31", "27", "29", "32", "33", "16", "18", "17", "21", "22", "20"], "time": [3609, 5442, 7337, 9157, 11348, 13121, 15011, 16866, 18898, 20729, 22554, 24321, 26778, 28548, 30304, 32090, 33878, 35726]}, "edge": {"target": [], "time": []}}, "mouseover": {"state": {"target": ["10", "11", "9", "5", "4", "6", "7", "2", "10", "28", "28", "28", "24", "31", "30", "26", "27", "29", "32", "33", "30", "31", "13", "14", "15", "16", "18", "15", "17", "20", "21", "22", "19", "20"], "time": [3211, 3344, 4062, 5745, 7644, 7843, 9744, 11610, 11645, 13380, 13543, 13944, 15277, 15544, 17128, 17827, 17977, 19244, 21393, 23209, 24795, 25176, 25810, 26160, 26327, 26611, 27544, 28793, 29227, 30693, 30926, 32478, 34160, 34260]}, "edge": {"target": [], "time": []}}, "mouseout": {"state": {"target": ["1", "10", "11", "10", "2", "18", "15", "14", "13", "12", "0", "10", "11", "9", "9", "5", "4", "6", "7", "2", "10", "28", "28", "28", "24", "31", "30", "26", "27", "29", "32", "33", "30", "31", "13", "14", "15", "16", "18", "15", "17", "20", "21", "22", "19", "20"], "time": [677, 827, 1696, 1793, 1810, 1860, 1893, 2327, 2392, 2494, 2760, 3260, 3911, 5520, 5661, 7593, 7776, 9444, 11577, 11628, 13327, 13396, 13593, 15261, 15328, 17094, 17328, 17860, 19127, 20977, 22843, 24744, 25127, 25226, 26026, 26176, 26477, 27027, 28777, 28844, 30526, 30827, 32394, 34144, 34193, 36079]}, "edge": {"target": [], "time": []}}}, "displayed_time": "41.15", "trialTime": 42425, "trial_type": "mouselab-mdp", "trial_index": 32, "time_elapsed": 780843, "internal_node_id": "0.0-6.0-1.0-17.0"}}, {"uniqueid": "w20049511:a75517045", "current_trial": 33, "dateTime": 1693572227263, "trialdata": {"revealed_states": [], "clicked_states": ["9", "5", "6", "7", "10", "11"], "num_clicks_accrued": [0, 0, 0, 0, 0, 0, 0, 0, 0, 0, 0, 0, 0], "stateRewards": ["", -2, -3, -5, 8, 27, 11, 43, -6, -24, -87, 69, -2, 1, 1, 9, 19, 48, -37, 9, -14, 45, 62, 1, 2, 1, 16, -81, -41, 22, 4, -6, -63, 47], "withholdReward": false, "trial_id": "mdp_trial_19", "block": "test", "trialIndex": 22, "score": 44.6, "costs": -8.4, "simulationMode": [null, null, null, null, null], "rewards": [-2, -3, -5, -6, 69], "path": ["0", "0", "1", "2", "3", "8", "11"], "rt": [12492, 166, 64, 17, 98], "actions": ["up", "up", "up", "left", "left"], "actionTimes": [13387, 14069, 14651, 15187, 15784], "queries": {"click": {"state": {"target": ["9", "5", "6", "7", "10", "11"], "time": [1847, 3463, 5438, 7298, 9111, 10942]}, "edge": {"target": [], "time": []}}, "mouseover": {"state": {"target": ["10", "11", "9", "5", "6", "7", "2", "10", "11", "28"], "time": [1202, 1252, 1585, 2269, 3969, 6003, 7553, 7937, 9652, 11519]}, "edge": {"target": [], "time": []}}, "mouseout": {"state": {"target": ["0", "10", "11", "9", "5", "6", "7", "2", "10", "11", "28"], "time": [651, 1219, 1319, 2152, 3819, 5702, 7536, 7620, 9419, 11302, 16236]}, "edge": {"target": [], "time": []}}}, "displayed_time": "16.29", "trialTime": 17487, "trial_type": "mouselab-mdp", "trial_index": 33, "time_elapsed": 798578, "internal_node_id": "0.0-6.0-1.0-18.0"}}, {"uniqueid": "w20049511:a75517045", "current_trial": 34, "dateTime": 1693572243713, "trialdata": {"revealed_states": [], "clicked_states": ["11", "9", "5"], "num_clicks_accrued": [0, 0, 0, 0, 0, 0, 0, 0, 0, 0, 0, 0, 0], "stateRewards": ["", 1, -2, 7, -14, 88, -56, -44, -14, 64, -51, -57, -2, 3, -4, -9, -11, 19, -77, -1, 68, 75, -67, -1, 1, -2, 5, -37, 70, -34, -10, -72, 63, -41], "withholdReward": false, "trial_id": "mdp_trial_20", "block": "test", "trialIndex": 23, "score": 75.8, "costs": -4.199999999999999, "simulationMode": [null, null, null, null, null], "rewards": [1, -2, 7, -14, 88], "path": ["0", "0", "1", "2", "3", "4", "5"], "rt": [6399, 163, 89, 103, 65], "actions": ["up", "up", "up", "right", "up"], "actionTimes": [7461, 8117, 8726, 9340, 9902], "queries": {"click": {"state": {"target": ["11", "9", "5"], "time": [1823, 3668, 5469]}, "edge": {"target": [], "time": []}}, "mouseover": {"state": {"target": ["10", "11", "9", "4", "5", "6"], "time": [1286, 1619, 2170, 4003, 4204, 5936]}, "edge": {"target": [], "time": []}}, "mouseout": {"state": {"target": ["0", "1", "10", "11", "9", "4", "5", "6", "15", "13", "12"], "time": [75, 569, 1387, 2003, 3922, 4053, 5819, 10269, 11084, 11451, 11553]}, "edge": {"target": [], "time": []}}}, "displayed_time": "15.06", "trialTime": 16220, "trial_type": "mouselab-mdp", "trial_index": 34, "time_elapsed": 815029, "internal_node_id": "0.0-6.0-1.0-19.0"}}, {"uniqueid": "w20049511:a75517045", "current_trial": 35, "dateTime": 1693572282465, "trialdata": {"revealed_states": [], "clicked_states": ["11", "10", "9", "5", "6", "7", "18", "16", "20", "17", "21", "22", "28", "31", "33", "27", "29"], "num_clicks_accrued": [0, 0, 0, 0, 0, 0, 0, 0, 0, 0, 0, 0, 0], "stateRewards": ["", 2, -3, -4, -1, 25, -16, 16, 10, -71, -20, -55, 1, 3, -4, -9, 1, 32, 11, -6, 32, -50, -41, -1, 4, 4, -8, 7, -81, 70, 2, -52, 45, -10], "withholdReward": false, "trial_id": "mdp_trial_21", "block": "test", "trialIndex": 24, "score": 45.2, "costs": -23.799999999999994, "simulationMode": [null, null, null, null, null], "rewards": [-1, 4, 4, -8, 70], "path": ["0", "0", "23", "24", "25", "26", "29"], "rt": [33465, 169, 66, 78, 39], "actions": ["left", "left", "left", "up", "left"], "actionTimes": [34681, 35342, 35921, 36517, 37076], "queries": {"click": {"state": {"target": ["11", "10", "9", "5", "6", "7", "18", "16", "20", "17", "21", "22", "28", "31", "33", "27", "29"], "time": [2179, 3990, 5836, 7722, 9557, 11245, 13208, 15091, 16917, 18853, 20778, 22659, 24584, 26445, 28307, 30157, 31996]}, "edge": {"target": [], "time": []}}, "mouseover": {"state": {"target": ["1", "10", "8", "11", "10", "8", "9", "9", "5", "6", "7", "16", "15", "17", "18", "16", "14", "19", "20", "17", "14", "19", "21", "21", "22", "23", "28", "24", "31", "30", "33", "27", "29", "25", "30", "32"], "time": [1572, 1672, 1788, 1989, 2588, 4305, 4455, 5621, 6223, 8072, 9822, 11588, 11972, 12171, 12771, 13538, 15722, 15955, 16155, 17339, 19123, 19206, 19523, 19939, 21221, 23138, 23471, 24822, 24972, 26721, 27171, 29088, 30505, 32237, 32305, 32421]}, "edge": {"target": [], "time": []}}, "mouseout": {"state": {"target": ["1", "10", "8", "11", "10", "8", "9", "9", "5", "6", "7", "16", "15", "17", "18", "16", "14", "19", "20", "17", "14", "19", "21", "21", "22", "23", "28", "24", "31", "30", "33", "27", "29", "25", "30", "32"], "time": [1604, 1688, 1889, 2438, 4239, 4355, 5155, 5928, 7972, 9789, 11522, 11971, 12038, 12388, 13439, 15322, 15905, 16005, 17172, 19073, 19156, 19339, 19772, 21055, 22938, 23255, 24789, 24889, 26671, 26921, 28522, 30404, 32188, 32271, 32371, 37437]}, "edge": {"target": [], "time": []}}}, "displayed_time": "37.59", "trialTime": 38526, "trial_type": "mouselab-mdp", "trial_index": 35, "time_elapsed": 853781, "internal_node_id": "0.0-6.0-1.0-20.0"}}, {"uniqueid": "w20049511:a75517045", "current_trial": 36, "dateTime": 1693572298648, "trialdata": {"revealed_states": [], "clicked_states": ["9", "5"], "num_clicks_accrued": [0, 0, 0, 0, 0, 0, 0, 0, 0, 0, 0, 0, 0], "stateRewards": ["", 2, -4, 4, 9, 69, 9, -75, 12, -86, 66, 25, -1, 3, 2, -13, -88, -3, 1, 4, -69, 49, -84, 2, -1, 4, 2, -18, -81, -52, -15, -69, -54, 25], "withholdReward": false, "trial_id": "mdp_trial_22", "block": "test", "trialIndex": 25, "score": 77.2, "costs": -2.8, "simulationMode": [null, null, null, null, null], "rewards": [2, -4, 4, 9, 69], "path": ["0", "0", "1", "2", "3", "4", "5"], "rt": [5207, 131, 119, 33, 69], "actions": ["up", "up", "up", "right", "up"], "actionTimes": [6236, 6881, 7503, 8052, 8652], "queries": {"click": {"state": {"target": ["9", "5"], "time": [1919, 3673]}, "edge": {"target": [], "time": []}}, "mouseover": {"state": {"target": ["1", "10", "11", "9", "5", "4", "5", "6"], "time": [1166, 1232, 1350, 1766, 2200, 2568, 2816, 4099]}, "edge": {"target": [], "time": []}}, "mouseout": {"state": {"target": ["12", "0", "1", "10", "11", "9", "5", "4", "5", "6", "6", "16", "18"], "time": [416, 766, 1182, 1282, 1416, 2099, 2567, 2750, 3916, 7716, 9016, 9715, 9832]}, "edge": {"target": [], "time": []}}}, "displayed_time": "15.03", "trialTime": 15953, "trial_type": "mouselab-mdp", "trial_index": 36, "time_elapsed": 869963, "internal_node_id": "0.0-6.0-1.0-21.0"}}, {"uniqueid": "w20049511:a75517045", "current_trial": 37, "dateTime": 1693572314271, "trialdata": {"revealed_states": [], "clicked_states": ["9", "11", "10", "7"], "num_clicks_accrued": [0, 0, 0, 0, 0, 0, 0, 0, 0, 0, 0, 0, 0], "stateRewards": ["", 1, 2, 3, 16, 63, -25, 16, -4, -14, 82, -66, -1, -3, -3, -11, -14, 19, 46, 3, -34, -82, 66, -2, -3, 4, -5, -63, 77, -37, -1, -45, -41, 84], "withholdReward": false, "trial_id": "mdp_trial_23", "block": "test", "trialIndex": 26, "score": 78.4, "costs": -5.6, "simulationMode": [null, null, null, null, null, null], "rewards": [1, 2, 3, -4, 82], "path": ["0", "0", "1", "2", "3", "8", "10"], "rt": [6684, 298, 110, 118, 90, 59], "actions": ["up", "up", "up", "up", "left", "down"], "actionTimes": [7637, 7936, 8579, 9185, 9774, 10343], "queries": {"click": {"state": {"target": ["9", "11", "10", "7"], "time": [1767, 3311, 5027, 6715]}, "edge": {"target": [], "time": []}}, "mouseover": {"state": {"target": ["10", "9", "11", "10", "2", "7"], "time": [1216, 1548, 2384, 3899, 5332, 5416]}, "edge": {"target": [], "time": []}}, "mouseout": {"state": {"target": ["0", "10", "9", "11", "10", "2", "7", "12"], "time": [433, 1249, 2104, 3716, 5144, 5382, 7467, 11449]}, "edge": {"target": [], "time": []}}}, "displayed_time": "14.96", "trialTime": 15394, "trial_type": "mouselab-mdp", "trial_index": 37, "time_elapsed": 885586, "internal_node_id": "0.0-6.0-1.0-22.0"}}, {"uniqueid": "w20049511:a75517045", "current_trial": 38, "dateTime": 1693572333388, "trialdata": {"revealed_states": [], "clicked_states": ["9", "5"], "num_clicks_accrued": [0, 0, 0, 0, 0, 0, 0, 0, 0, 0, 0, 0, 0], "stateRewards": ["", -1, 2, -7, -12, -62, 12, -13, 5, 77, -71, 83, 1, -4, 7, 15, -42, -87, -4, 5, -25, 44, 88, -1, 4, -5, -8, 14, 51, 8, -5, 83, -24, -19], "withholdReward": false, "trial_id": "mdp_trial_24", "block": "test", "trialIndex": 27, "score": 73.2, "costs": -2.8, "simulationMode": [null, null, null, null, null, null], "rewards": [-1, 2, -7, 5, 77], "path": ["0", "0", "1", "2", "3", "8", "9"], "rt": [3731, 295, 136, 115, 339, 51], "actions": ["up", "up", "up", "up", "left", "up"], "actionTimes": [7372, 7669, 8315, 8945, 9802, 10347], "queries": {"click": {"state": {"target": ["9", "5"], "time": [4879, 6644]}, "edge": {"target": [], "time": []}}, "mouseover": {"state": {"target": ["1", "2", "8", "9", "5", "5"], "time": [4196, 4295, 4395, 4594, 5295, 6312]}, "edge": {"target": [], "time": []}}, "mouseout": {"state": {"target": ["0", "0", "1", "2", "8", "9", "5", "5", "5", "6"], "time": [361, 1517, 4245, 4311, 4511, 5129, 6029, 6735, 7095, 7877]}, "edge": {"target": [], "time": []}}}, "displayed_time": "17.64", "trialTime": 18891, "trial_type": "mouselab-mdp", "trial_index": 38, "time_elapsed": 904704, "internal_node_id": "0.0-6.0-1.0-23.0"}}, {"uniqueid": "w20049511:a75517045", "current_trial": 39, "dateTime": 1693572361942, "trialdata": {"revealed_states": [], "clicked_states": ["9", "7", "5"], "num_clicks_accrued": [0, 0, 0, 0, 0, 0, 0, 0, 0, 0, 0, 0, 0], "stateRewards": ["", 1, 2, -3, -5, 66, -50, -47, -5, 1, 28, -27, 1, 1, -1, -6, 37, -25, 56, 1, -82, -66, -40, -1, -4, -7, 15, -61, -23, 26, 10, 14, -56, 29], "withholdReward": false, "trial_id": "mdp_trial_25", "block": "test", "trialIndex": 28, "score": 56.8, "costs": -4.199999999999999, "simulationMode": [null, null, null, null, null], "rewards": [1, 2, -3, -5, 66], "path": ["0", "0", "1", "2", "3", "4", "5"], "rt": [9123, 147, 159, 124, 185], "actions": ["up", "up", "up", "right", "up"], "actionTimes": [21160, 21821, 22482, 23116, 23806], "queries": {"click": {"state": {"target": ["9", "7", "5"], "time": [13545, 16141, 18315]}, "edge": {"target": [], "time": []}}, "mouseover": {"state": {"target": ["1", "8", "9", "4", "7", "5", "6"], "time": [12954, 13054, 13255, 13972, 14288, 17971, 20121]}, "edge": {"target": [], "time": []}}, "mouseout": {"state": {"target": ["1", "1", "8", "9", "4", "7", "5", "6", "6", "15", "17", "15", "14", "22"], "time": [11420, 12987, 13071, 13839, 14071, 17572, 19121, 22972, 23974, 24754, 24821, 26690, 26937, 27038]}, "edge": {"target": [], "time": []}}}, "displayed_time": "26.04", "trialTime": 28320, "trial_type": "mouselab-mdp", "trial_index": 39, "time_elapsed": 933257, "internal_node_id": "0.0-6.0-1.0-24.0"}}, {"uniqueid": "w20049511:a75517045", "current_trial": 40, "dateTime": 1693572380725, "trialdata": {"revealed_states": [], "clicked_states": ["9", "5", "6", "11", "10"], "num_clicks_accrued": [0, 0, 0, 0, 0, 0, 0, 0, 0, 0, 0, 0, 0], "stateRewards": ["", -1, -3, -3, 1, -38, 2, -53, -2, -1, -81, 70, -1, 1, -5, -9, 46, 15, 35, -1, -22, 38, 59, -2, 4, -8, 13, 1, -83, -43, 4, 76, 13, 48], "withholdReward": false, "trial_id": "mdp_trial_26", "block": "test", "trialIndex": 29, "score": 54, "costs": -7, "simulationMode": [null, null, null, null, null, null], "rewards": [-1, -3, -3, -2, 70], "path": ["0", "0", "1", "2", "3", "8", "11"], "rt": [9749, 201, 86, 61, 246, 12], "actions": ["up", "up", "up", "up", "left", "left"], "actionTimes": [13748, 13950, 14536, 15124, 15877, 16393], "queries": {"click": {"state": {"target": ["9", "5", "6", "11", "10"], "time": [4752, 6672, 8517, 10484, 12270]}, "edge": {"target": [], "time": []}}, "mouseover": {"state": {"target": ["10", "8", "9", "5", "6", "7", "2", "10", "11", "10", "2"], "time": [4280, 4345, 4546, 5162, 7012, 8913, 9029, 9079, 9345, 10816, 13329]}, "edge": {"target": [], "time": []}}, "mouseout": {"state": {"target": ["0", "1", "2", "9", "8", "10", "1", "10", "8", "9", "5", "6", "7", "2", "10", "11", "10", "2", "7", "0"], "time": [762, 896, 979, 1145, 3213, 3261, 3630, 4312, 4413, 4962, 6946, 8796, 8995, 9062, 9229, 10712, 13296, 13362, 17613, 17946]}, "edge": {"target": [], "time": []}}}, "displayed_time": "18.00", "trialTime": 18512, "trial_type": "mouselab-mdp", "trial_index": 40, "time_elapsed": 952040, "internal_node_id": "0.0-6.0-1.0-25.0"}}, {"uniqueid": "w20049511:a75517045", "current_trial": 41, "dateTime": 1693572396656, "trialdata": {"revealed_states": [], "clicked_states": ["11"], "num_clicks_accrued": [0, 0, 0, 0, 0, 0, 0, 0, 0, 0, 0, 0, 0], "stateRewards": ["", 1, -3, -2, 14, 49, -40, -39, 2, 26, -61, 73, 1, -4, -8, 12, 79, 29, -65, -13, 55, -26, 27, -1, 3, 3, 9, -17, -60, -18, -8, 35, -88, 69], "withholdReward": false, "trial_id": "mdp_trial_27", "block": "test", "trialIndex": 30, "score": 69.6, "costs": -1.4, "simulationMode": [null, null, null, null, null], "rewards": [1, -3, -2, 2, 73], "path": ["0", "0", "1", "2", "3", "8", "11"], "rt": [3598, 148, 141, 223, 196], "actions": ["up", "up", "up", "left", "left"], "actionTimes": [4586, 5247, 5907, 6640, 7329], "queries": {"click": {"state": {"target": ["11"], "time": [2167]}, "edge": {"target": [], "time": []}}, "mouseover": {"state": {"target": ["11", "9"], "time": [2015, 2482]}, "edge": {"target": [], "time": []}}, "mouseout": {"state": {"target": ["0", "11", "9", "3", "12"], "time": [1216, 2333, 7765, 8048, 9165]}, "edge": {"target": [], "time": []}}}, "displayed_time": "14.99", "trialTime": 15678, "trial_type": "mouselab-mdp", "trial_index": 41, "time_elapsed": 967971, "internal_node_id": "0.0-6.0-1.0-26.0"}}, {"uniqueid": "w20049511:a75517045", "current_trial": 42, "dateTime": 1693572413011, "trialdata": {"revealed_states": [], "clicked_states": ["11"], "num_clicks_accrued": [0, 0, 0, 0, 0, 0, 0, 0, 0, 0, 0, 0, 0], "stateRewards": ["", -2, 2, -1, -6, 22, 6, 6, -5, 70, -42, 65, 1, 3, 5, -6, -67, -9, 3, 14, 7, -62, -13, -2, 4, 1, 16, 42, -21, -52, -8, 32, 53, 81], "withholdReward": false, "trial_id": "mdp_trial_28", "block": "test", "trialIndex": 31, "score": 57.6, "costs": -1.4, "simulationMode": [null, null, null, null, null], "rewards": [-2, 2, -1, -5, 65], "path": ["0", "0", "1", "2", "3", "8", "11"], "rt": [3806, 165, 132, 25, 9], "actions": ["up", "up", "up", "left", "left"], "actionTimes": [4904, 5589, 6223, 6768, 7283], "queries": {"click": {"state": {"target": ["11"], "time": [2018]}, "edge": {"target": [], "time": []}}, "mouseover": {"state": {"target": ["10", "11", "9"], "time": [1573, 1740, 2391]}, "edge": {"target": [], "time": []}}, "mouseout": {"state": {"target": ["12", "0", "10", "11", "9", "5", "18", "13", "18"], "time": [540, 1424, 1623, 2106, 7756, 7889, 8841, 10219, 10273]}, "edge": {"target": [], "time": []}}}, "displayed_time": "15.10", "trialTime": 16125, "trial_type": "mouselab-mdp", "trial_index": 42, "time_elapsed": 984326, "internal_node_id": "0.0-6.0-1.0-27.0"}}, {"uniqueid": "w20049511:a75517045", "current_trial": 43, "dateTime": 1693572440558, "trialdata": {"revealed_states": [], "clicked_states": ["11", "9", "5", "7", "6", "10", "28", "27", "29", "32"], "num_clicks_accrued": [0, 0, 0, 0, 0, 0, 0, 0, 0, 0, 0, 0, 0], "stateRewards": ["", 1, 2, -6, -13, -51, 22, -4, -12, -44, -12, 6, -2, -2, -2, -14, -46, -4, -77, -2, 36, -79, 41, 2, -4, 2, -6, -55, 59, 70, -5, 39, -19, 24], "withholdReward": false, "trial_id": "mdp_trial_29", "block": "test", "trialIndex": 32, "score": 50, "costs": -14.000000000000002, "simulationMode": [null, null, null, null, null], "rewards": [2, -4, 2, -6, 70], "path": ["0", "0", "23", "24", "25", "26", "29"], "rt": [20201, 4, 176, 700, 121], "actions": ["left", "left", "left", "up", "left"], "actionTimes": [22488, 22982, 23687, 24879, 25498], "queries": {"click": {"state": {"target": ["11", "9", "5", "7", "6", "10", "28", "27", "29", "32"], "time": [3063, 4888, 6828, 8944, 10818, 12886, 14712, 16503, 18338, 20162]}, "edge": {"target": [], "time": []}}, "mouseover": {"state": {"target": ["11", "9", "5", "6", "7", "6", "10", "10", "28", "28", "27", "26", "29", "30", "32"], "time": [2711, 3429, 5710, 7127, 8810, 9260, 11176, 11459, 13342, 13726, 15127, 16959, 17243, 18926, 19142]}, "edge": {"target": [], "time": []}}, "mouseout": {"state": {"target": ["18", "10", "8", "1", "0", "11", "9", "5", "5", "6", "7", "6", "10", "10", "28", "28", "27", "26", "29", "30", "32", "30", "24", "31"], "time": [544, 1061, 1543, 1677, 2473, 3136, 5210, 6897, 7094, 8442, 9126, 10993, 11343, 13159, 13426, 14960, 16876, 16976, 18709, 19025, 22741, 26009, 26744, 26893]}, "edge": {"target": [], "time": []}}}, "displayed_time": "26.00", "trialTime": 27328, "trial_type": "mouselab-mdp", "trial_index": 43, "time_elapsed": 1011874, "internal_node_id": "0.0-6.0-1.0-28.0"}}, {"uniqueid": "w20049511:a75517045", "current_trial": 44, "dateTime": 1693572457869, "trialdata": {"revealed_states": [], "clicked_states": ["9", "5", "6", "7", "10", "11"], "num_clicks_accrued": [0, 0, 0, 0, 0, 0, 0, 0, 0, 0, 0, 0, 0], "stateRewards": ["", 1, 2, 2, -15, -84, 28, -26, 13, 31, 86, 30, -2, 1, -1, -8, 66, -40, -1, -10, -32, 57, -17, 1, 2, -2, 9, -23, 77, 85, 12, -32, -62, -35], "withholdReward": false, "trial_id": "mdp_trial_30", "block": "test", "trialIndex": 33, "score": 95.6, "costs": -8.4, "simulationMode": [null, null, null, null, null, null], "rewards": [1, 2, 2, 13, 86], "path": ["0", "0", "1", "2", "3", "8", "10"], "rt": [10812, 197, 132, 54, 68, 82], "actions": ["up", "up", "up", "up", "left", "down"], "actionTimes": [11942, 12140, 12785, 13353, 13931, 14530], "queries": {"click": {"state": {"target": ["9", "5", "6", "7", "10", "11"], "time": [1847, 3750, 5565, 7359, 9176, 11494]}, "edge": {"target": [], "time": []}}, "mouseover": {"state": {"target": ["9", "4", "7", "4", "5", "6", "7", "2", "10", "11"], "time": [1663, 2298, 2531, 2664, 2731, 4132, 5981, 7631, 7748, 9532]}, "edge": {"target": [], "time": []}}, "mouseout": {"state": {"target": ["0", "0", "9", "4", "7", "4", "5", "6", "7", "2", "10", "11", "11", "8", "10", "1", "0"], "time": [329, 1280, 2131, 2381, 2614, 2698, 4047, 5797, 7598, 7715, 9398, 12464, 12590, 15048, 16230, 16597, 16797]}, "edge": {"target": [], "time": []}}}, "displayed_time": "15.13", "trialTime": 17075, "trial_type": "mouselab-mdp", "trial_index": 44, "time_elapsed": 1029184, "internal_node_id": "0.0-6.0-1.0-29.0"}}, {"uniqueid": "w20049511:a75517045", "current_trial": 45, "dateTime": 1693572478943, "trialdata": {"revealed_states": [], "clicked_states": ["9", "5", "6", "7", "10", "11", "28", "27", "31"], "num_clicks_accrued": [0, 0, 0, 0, 0, 0, 0, 0, 0, 0, 0, 0, 0], "stateRewards": ["", 1, -2, -8, -3, 31, -84, -55, -14, 15, -58, 17, -2, -3, 7, 7, -12, 48, 67, 4, -44, -68, 46, 2, 3, -5, -7, 76, 27, 5, 11, 57, 52, 59], "withholdReward": false, "trial_id": "mdp_trial_31", "block": "test", "trialIndex": 34, "score": 56.4, "costs": -12.600000000000001, "simulationMode": [null, null, null, null, null, null], "rewards": [2, 3, -5, -7, 76], "path": ["0", "0", "23", "24", "25", "26", "27"], "rt": [15849, 234, 108, 100, 240, 100], "actions": ["left", "left", "left", "left", "up", "up"], "actionTimes": [16718, 16953, 17572, 18180, 18921, 19531], "queries": {"click": {"state": {"target": ["9", "5", "6", "7", "10", "11", "28", "27", "31"], "time": [1616, 3330, 5257, 7028, 8722, 10490, 12431, 14113, 15855]}, "edge": {"target": [], "time": []}}, "mouseover": {"state": {"target": ["1", "8", "9", "5", "6", "7", "2", "10", "11", "28", "27", "24", "31", "31"], "time": [1063, 1180, 1378, 1997, 3697, 5646, 7296, 7529, 9463, 11381, 12880, 14480, 14679, 15246]}, "edge": {"target": [], "time": []}}, "mouseout": {"state": {"target": ["0", "1", "8", "9", "5", "6", "7", "2", "10", "11", "28", "27", "28", "24", "31", "31", "24", "31"], "time": [646, 1112, 1247, 1863, 3580, 5513, 7263, 7380, 9029, 10864, 12630, 14380, 14463, 14546, 15114, 17696, 20658, 20678]}, "edge": {"target": [], "time": []}}}, "displayed_time": "20.03", "trialTime": 20816, "trial_type": "mouselab-mdp", "trial_index": 45, "time_elapsed": 1050258, "internal_node_id": "0.0-6.0-1.0-30.0"}}, {"uniqueid": "w20049511:a75517045", "current_trial": 46, "dateTime": 1693572494531, "trialdata": {"revealed_states": [], "clicked_states": ["9", "11", "10"], "num_clicks_accrued": [0, 0, 0, 0, 0, 0, 0, 0, 0, 0, 0, 0, 0], "stateRewards": ["", -1, 4, -6, -5, -22, -38, -38, -2, -56, 88, 14, -1, -1, -7, -6, 61, -60, 21, 11, 57, 31, -30, -2, -2, 6, -9, -44, -70, -44, -15, 34, 16, -78], "withholdReward": false, "trial_id": "mdp_trial_32", "block": "test", "trialIndex": 35, "score": 78.8, "costs": -4.199999999999999, "simulationMode": [null, null, null, null, null], "rewards": [-1, 4, -6, -2, 88], "path": ["0", "0", "1", "2", "3", "8", "10"], "rt": [6757, 125, 88, 657, 57], "actions": ["up", "up", "up", "left", "down"], "actionTimes": [7624, 8242, 8838, 10008, 10574], "queries": {"click": {"state": {"target": ["9", "11", "10"], "time": [1583, 3417, 5337]}, "edge": {"target": [], "time": []}}, "mouseover": {"state": {"target": ["10", "8", "9", "3", "8", "10", "11", "10", "3", "5"], "time": [1048, 1298, 1432, 1948, 2015, 2099, 2366, 4050, 5600, 5649]}, "edge": {"target": [], "time": []}}, "mouseout": {"state": {"target": ["23", "0", "10", "8", "9", "9", "3", "8", "10", "11", "10", "3", "5", "4", "7", "18"], "time": [332, 949, 1065, 1315, 1670, 1815, 1965, 2032, 2283, 3783, 5393, 5633, 11227, 11498, 11815, 11898]}, "edge": {"target": [], "time": []}}}, "displayed_time": "14.87", "trialTime": 15357, "trial_type": "mouselab-mdp", "trial_index": 46, "time_elapsed": 1065847, "internal_node_id": "0.0-6.0-1.0-31.0"}}, {"uniqueid": "w20049511:a75517045", "current_trial": 47, "dateTime": 1693572510281, "trialdata": {"revealed_states": [], "clicked_states": ["9", "5", "6", "7"], "num_clicks_accrued": [0, 0, 0, 0, 0, 0, 0, 0, 0, 0, 0, 0, 0], "stateRewards": ["", 1, 1, -6, -2, 7, 77, 3, 16, -16, 66, 31, -1, 3, -8, -6, 33, -50, -48, 7, -60, -66, 36, 2, -3, 3, -7, -12, -61, -79, -4, 8, 74, -70], "withholdReward": false, "trial_id": "mdp_trial_33", "block": "test", "trialIndex": 36, "score": 65.4, "costs": -5.6, "simulationMode": [null, null, null, null, null, null], "rewards": [1, 1, -6, -2, 77], "path": ["0", "0", "1", "2", "3", "4", "6"], "rt": [6740, 201, 70, 70, 38, 97], "actions": ["up", "up", "up", "up", "right", "right"], "actionTimes": [7642, 7845, 8422, 9021, 9574, 10197], "queries": {"click": {"state": {"target": ["9", "5", "6", "7"], "time": [1538, 3390, 5228, 7036]}, "edge": {"target": [], "time": []}}, "mouseover": {"state": {"target": ["1", "8", "9", "9", "5", "6", "7"], "time": [1049, 1132, 1217, 1434, 1968, 3801, 5566]}, "edge": {"target": [], "time": []}}, "mouseout": {"state": {"target": ["0", "1", "8", "9", "9", "5", "6", "7"], "time": [937, 1066, 1166, 1300, 1751, 3635, 5450, 8717]}, "edge": {"target": [], "time": []}}}, "displayed_time": "14.90", "trialTime": 15524, "trial_type": "mouselab-mdp", "trial_index": 47, "time_elapsed": 1081596, "internal_node_id": "0.0-6.0-1.0-32.0"}}, {"uniqueid": "w20049511:a75517045", "current_trial": 48, "dateTime": 1693572550872, "trialdata": {"revealed_states": [], "clicked_states": ["9", "5", "6", "7", "10", "11", "29", "28", "31", "32", "33", "27", "16", "17", "22", "18", "21", "20"], "num_clicks_accrued": [0, 0, 0, 0, 0, 0, 0, 0, 0, 0, 0, 0, 0], "stateRewards": ["", 2, 4, 7, -6, -76, -81, 2, 5, -66, -3, 36, -2, -4, 6, -2, -69, 4, -49, -6, 67, 38, -67, 2, 1, 1, 6, -68, -21, 52, -16, -16, 6, -70], "withholdReward": false, "trial_id": "mdp_trial_34", "block": "test", "trialIndex": 37, "score": 35.80000000000001, "costs": -25.199999999999992, "simulationMode": [null, null, null, null, null], "rewards": [-2, -4, 6, -6, 67], "path": ["0", "0", "12", "13", "14", "19", "20"], "rt": [35792, 173, 6, 87, 4], "actions": ["right", "right", "right", "down", "right"], "actionTimes": [36750, 37439, 37957, 38570, 39071], "queries": {"click": {"state": {"target": ["9", "5", "6", "7", "10", "11", "29", "28", "31", "32", "33", "27", "16", "17", "22", "18", "21", "20"], "time": [1580, 3754, 5581, 7596, 9529, 11387, 13451, 15276, 17153, 19083, 20965, 22893, 24820, 26516, 28187, 30090, 31948, 33962]}, "edge": {"target": [], "time": []}}, "mouseover": {"state": {"target": ["1", "9", "5", "6", "7", "2", "10", "11", "27", "26", "29", "26", "28", "27", "24", "31", "32", "33", "25", "26", "27", "10", "2", "16", "17", "20", "19", "22", "13", "18", "14", "19", "21", "21", "20"], "time": [1148, 1498, 1966, 4316, 6165, 7983, 8250, 10015, 11798, 12417, 12649, 13899, 14249, 15799, 16233, 16599, 17649, 19515, 21231, 21265, 21365, 23248, 23331, 23898, 25166, 26949, 27616, 27732, 28482, 28733, 30364, 30481, 30615, 31398, 32282]}, "edge": {"target": [], "time": []}}, "mouseout": {"state": {"target": ["7", "1", "1", "9", "5", "6", "7", "2", "10", "11", "27", "26", "29", "26", "28", "27", "28", "24", "31", "32", "33", "25", "26", "27", "10", "2", "16", "17", "20", "19", "22", "13", "18", "14", "19", "21", "21", "20", "20", "20"], "time": [366, 448, 1198, 1816, 4016, 5832, 7916, 8133, 9920, 11683, 12416, 12498, 13490, 14049, 15354, 16149, 16217, 16283, 17365, 19266, 21115, 21248, 21298, 23181, 23299, 23348, 25050, 26782, 27565, 27683, 28415, 28599, 30314, 30431, 30564, 30674, 32131, 35133, 39614, 39681]}, "edge": {"target": [], "time": []}}}, "displayed_time": "39.60", "trialTime": 40366, "trial_type": "mouselab-mdp", "trial_index": 48, "time_elapsed": 1122187, "internal_node_id": "0.0-6.0-1.0-33.0"}}, {"uniqueid": "w20049511:a75517045", "current_trial": 49, "dateTime": 1693572571845, "trialdata": {"revealed_states": [], "clicked_states": ["9", "5", "6", "7", "10", "11"], "num_clicks_accrued": [0, 0, 0, 0, 0, 0, 0, 0, 0, 0, 0, 0, 0], "stateRewards": ["", 2, -2, 7, -11, -76, -65, -23, 16, -58, 30, 81, 1, 2, 7, 14, 9, 55, -2, 6, 11, -15, 31, -1, -1, -3, 2, 15, 2, 46, 15, 18, 45, -34], "withholdReward": false, "trial_id": "mdp_trial_35", "block": "test", "trialIndex": 38, "score": 95.6, "costs": -8.4, "simulationMode": [null, null, null, null, null], "rewards": [2, -2, 7, 16, 81], "path": ["0", "0", "1", "2", "3", "8", "11"], "rt": [12999, 106, 102, 28, 142], "actions": ["up", "up", "up", "left", "left"], "actionTimes": [14104, 14727, 15325, 15849, 16498], "queries": {"click": {"state": {"target": ["9", "5", "6", "7", "10", "11"], "time": [1878, 3740, 5790, 8077, 9790, 11778]}, "edge": {"target": [], "time": []}}, "mouseover": {"state": {"target": ["1", "9", "5", "6", "7", "2", "10", "11", "28"], "time": [1288, 1721, 2322, 4337, 7337, 8505, 8688, 10521, 12354]}, "edge": {"target": [], "time": []}}, "mouseout": {"state": {"target": ["12", "0", "1", "9", "5", "6", "7", "7", "2", "10", "11", "28", "1", "13", "14", "20"], "time": [637, 1188, 1307, 2155, 3989, 7123, 8152, 8421, 8554, 10370, 12122, 17155, 17204, 17237, 17254, 19888]}, "edge": {"target": [], "time": []}}}, "displayed_time": "16.99", "trialTime": 20745, "trial_type": "mouselab-mdp", "trial_index": 49, "time_elapsed": 1143160, "internal_node_id": "0.0-6.0-1.0-34.0"}}, {"uniqueid": "w20049511:a75517045", "current_trial": 50, "dateTime": 1693572587450, "trialdata": {"revealed_states": [], "clicked_states": ["9", "5"], "num_clicks_accrued": [0, 0, 0, 0, 0, 0, 0, 0, 0, 0, 0, 0, 0], "stateRewards": ["", -2, -1, -5, 10, -36, -70, 68, -9, 86, 71, -10, 2, -4, 7, -7, 66, 44, -66, -13, -69, 43, 15, -2, 2, 6, -13, 62, 57, 50, -10, -69, 42, -72], "withholdReward": false, "trial_id": "mdp_trial_36", "block": "test", "trialIndex": 39, "score": 66.2, "costs": -2.8, "simulationMode": [null, null, null, null, null, null], "rewards": [-2, -1, -5, -9, 86], "path": ["0", "0", "1", "2", "3", "8", "9"], "rt": [3220, 249, 51, 95, 71, 75], "actions": ["up", "up", "up", "up", "left", "up"], "actionTimes": [4176, 4426, 5005, 5631, 6220, 6808], "queries": {"click": {"state": {"target": ["9", "5"], "time": [1748, 3578]}, "edge": {"target": [], "time": []}}, "mouseover": {"state": {"target": ["1", "8", "9", "5"], "time": [1182, 1383, 1581, 2183]}, "edge": {"target": [], "time": []}}, "mouseout": {"state": {"target": ["0", "1", "8", "9", "5", "4", "7", "18", "0"], "time": [1104, 1215, 1515, 1966, 4516, 5233, 5440, 13632, 14999]}, "edge": {"target": [], "time": []}}}, "displayed_time": "14.96", "trialTime": 15377, "trial_type": "mouselab-mdp", "trial_index": 50, "time_elapsed": 1158765, "internal_node_id": "0.0-6.0-1.0-35.0"}}, {"uniqueid": "w20049511:a75517045", "current_trial": 51, "dateTime": 1693572603429, "trialdata": {"revealed_states": [], "clicked_states": ["9", "5", "6"], "num_clicks_accrued": [0, 0, 0, 0, 0, 0, 0, 0, 0, 0, 0, 0, 0], "stateRewards": ["", -2, -4, -8, 8, 63, -50, -19, -7, -17, -31, 31, 1, 3, -5, 12, -35, -63, -29, -4, -17, -75, -79, -2, -3, -2, 8, -3, -85, 10, -2, -82, -82, 56], "withholdReward": false, "trial_id": "mdp_trial_37", "block": "test", "trialIndex": 40, "score": 52.8, "costs": -4.199999999999999, "simulationMode": [null, null, null, null, null, null], "rewards": [-2, -4, -8, 8, 63], "path": ["0", "0", "1", "2", "3", "4", "5"], "rt": [6329, 210, 71, 113, 16, 43], "actions": ["up", "up", "up", "up", "right", "up"], "actionTimes": [7279, 7492, 8072, 8697, 9215, 9760], "queries": {"click": {"state": {"target": ["9", "5", "6"], "time": [1664, 3647, 5929]}, "edge": {"target": [], "time": []}}, "mouseover": {"state": {"target": ["1", "8", "9", "5", "6", "7"], "time": [1100, 1298, 1481, 2067, 4033, 6567]}, "edge": {"target": [], "time": []}}, "mouseout": {"state": {"target": ["1", "8", "9", "5", "6", "7", "12", "12"], "time": [1115, 1365, 1935, 3900, 6284, 10982, 13192, 14382]}, "edge": {"target": [], "time": []}}}, "displayed_time": "14.95", "trialTime": 15741, "trial_type": "mouselab-mdp", "trial_index": 51, "time_elapsed": 1174744, "internal_node_id": "0.0-6.0-1.0-36.0"}}, {"uniqueid": "w20049511:a75517045", "current_trial": 52, "dateTime": 1693572621534, "trialdata": {"revealed_states": [], "clicked_states": ["9", "11", "10", "7", "5", "6"], "num_clicks_accrued": [0, 0, 0, 0, 0, 0, 0, 0, 0, 0, 0, 0, 0], "stateRewards": ["", -2, -4, -2, -13, -15, 87, -19, -6, -80, 30, 12, 1, 1, -8, 2, 55, 56, 15, 11, -68, -7, 55, -2, 3, -3, -3, 48, 62, 4, 1, -3, 69, -33], "withholdReward": false, "trial_id": "mdp_trial_38", "block": "test", "trialIndex": 41, "score": 57.6, "costs": -8.4, "simulationMode": [null, null, null, null, null], "rewards": [-2, -4, -2, -13, 87], "path": ["0", "0", "1", "2", "3", "4", "6"], "rt": [12316, 110, 181, 49, 70], "actions": ["up", "up", "up", "right", "right"], "actionTimes": [13696, 14325, 15040, 15608, 16181], "queries": {"click": {"state": {"target": ["9", "11", "10", "7", "5", "6"], "time": [2011, 3932, 5923, 7746, 9631, 11461]}, "edge": {"target": [], "time": []}}, "mouseover": {"state": {"target": ["1", "8", "9", "8", "11", "10", "2", "7", "5", "6"], "time": [1510, 1710, 1893, 2265, 2561, 4344, 6178, 6361, 8377, 9944]}, "edge": {"target": [], "time": []}}, "mouseout": {"state": {"target": ["2", "3", "3", "2", "1", "1", "8", "9", "8", "11", "10", "2", "7", "5", "6", "3", "4", "6", "6"], "time": [193, 243, 676, 759, 909, 1560, 1727, 2226, 2393, 4227, 6145, 6211, 7993, 9860, 11727, 16643, 16676, 16726, 17309]}, "edge": {"target": [], "time": []}}}, "displayed_time": "16.70", "trialTime": 17875, "trial_type": "mouselab-mdp", "trial_index": 52, "time_elapsed": 1192849, "internal_node_id": "0.0-6.0-1.0-37.0"}}, {"uniqueid": "w20049511:a75517045", "current_trial": 53, "dateTime": 1693572637146, "trialdata": {"revealed_states": [], "clicked_states": ["9", "6", "5", "7"], "num_clicks_accrued": [0, 0, 0, 0, 0, 0, 0, 0, 0, 0, 0, 0, 0], "stateRewards": ["", -2, -1, 3, -3, 71, -58, -21, 7, -10, -75, -37, 2, 4, -1, -12, -79, -29, -48, 3, -41, -10, -30, -1, -2, 1, -15, 13, 66, 22, -1, -42, -86, -55], "withholdReward": false, "trial_id": "mdp_trial_39", "block": "test", "trialIndex": 42, "score": 62.4, "costs": -5.6, "simulationMode": [null, null, null, null, null, null], "rewards": [-2, -1, 3, -3, 71], "path": ["0", "0", "1", "2", "3", "4", "5"], "rt": [7084, 197, 78, 111, 184, 78], "actions": ["up", "up", "up", "up", "right", "up"], "actionTimes": [8065, 8265, 8866, 9480, 10170, 10764], "queries": {"click": {"state": {"target": ["9", "6", "5", "7"], "time": [1771, 3608, 5419, 7133]}, "edge": {"target": [], "time": []}}, "mouseover": {"state": {"target": ["1", "2", "3", "9", "6", "5", "4", "7", "2", "10", "10"], "time": [1135, 1234, 1334, 1568, 2169, 4069, 5819, 6002, 7552, 7636, 8102]}, "edge": {"target": [], "time": []}}, "mouseout": {"state": {"target": ["2", "1", "1", "2", "3", "9", "6", "5", "4", "7", "2", "10", "10", "0", "0"], "time": [485, 567, 1184, 1284, 1402, 2003, 3969, 5769, 5902, 7519, 7603, 8035, 8264, 12068, 13802]}, "edge": {"target": [], "time": []}}}, "displayed_time": "14.98", "trialTime": 15378, "trial_type": "mouselab-mdp", "trial_index": 53, "time_elapsed": 1208461, "internal_node_id": "0.0-6.0-1.0-38.0"}}, {"uniqueid": "w20049511:a75517045", "current_trial": 54, "dateTime": 1693572652886, "trialdata": {"revealed_states": [], "clicked_states": ["9", "11", "10", "5"], "num_clicks_accrued": [0, 0, 0, 0, 0, 0, 0, 0, 0, 0, 0, 0, 0], "stateRewards": ["", -1, -4, -1, -5, -28, -23, -15, -15, -38, 59, -87, 2, 2, -5, 9, -55, -39, -71, -6, 85, -85, -11, -1, -2, 5, -10, 1, 25, 41, -4, 69, -35, 86], "withholdReward": false, "trial_id": "mdp_trial_40", "block": "test", "trialIndex": 43, "score": 32.4, "costs": -5.6, "simulationMode": [null, null, null, null, null], "rewards": [-1, -4, -1, -15, 59], "path": ["0", "0", "1", "2", "3", "8", "10"], "rt": [8025, 87, 78, 23, 20], "actions": ["up", "up", "up", "left", "down"], "actionTimes": [8875, 9466, 10060, 10602, 11133], "queries": {"click": {"state": {"target": ["9", "11", "10", "5"], "time": [1459, 3280, 5130, 6989]}, "edge": {"target": [], "time": []}}, "mouseover": {"state": {"target": ["1", "10", "8", "9", "8", "11", "11", "11", "10", "2", "4", "5", "7"], "time": [995, 1078, 1128, 1278, 1745, 1902, 1995, 2111, 3829, 5478, 5713, 6045, 7678]}, "edge": {"target": [], "time": []}}, "mouseout": {"state": {"target": ["1", "10", "8", "9", "8", "11", "11", "11", "10", "2", "4", "5", "7", "18"], "time": [1012, 1094, 1212, 1679, 1779, 1978, 2028, 3646, 5446, 5529, 5846, 7345, 12069, 13673]}, "edge": {"target": [], "time": []}}}, "displayed_time": "14.85", "trialTime": 15496, "trial_type": "mouselab-mdp", "trial_index": 54, "time_elapsed": 1224202, "internal_node_id": "0.0-6.0-1.0-39.0"}}, {"uniqueid": "w20049511:a75517045", "current_trial": 55, "dateTime": 1693572685557, "trialdata": {"rt": 32666, "response": {"Q0": "$-2 to $2", "Q1": "$-16 to $16", "Q2": "$-88 to $88", "Q3": "The cost was always $1.4.", "Q4": "Slightly motivated"}, "question_order": [0, 1, 2, 3, 4], "trial_id": "final_quiz_control", "trial_type": "survey-multi-choice", "trial_index": 55, "time_elapsed": 1256873, "internal_node_id": "0.0-6.0-2.0"}}, {"uniqueid": "w20049511:a75517045", "current_trial": 56, "dateTime": 1693572783137, "trialdata": {"rt": 97571, "response": {"Q0": "Effect of first four step is small enough to be ignored, i just reveal the furthest step and as soon as it hits value between 60-80 its good enough to move spider.", "Q1": "i made a few reveal of closer steps at beginning rounds, find it not worthwhile to reveal, then move to the strategy above", "Q2": "very easy"}, "trial_id": "self_report_control", "trial_type": "survey-text", "trial_index": 56, "time_elapsed": 1354452, "internal_node_id": "0.0-6.0-3.0"}}, {"uniqueid": "w20049511:a75517045", "current_trial": 57, "dateTime": 1693572794027, "trialdata": {"rt": 10884, "response": {"gender": "male", "age": "35", "colorblind": "0", "effort": "0"}, "trial_type": "survey-html-form", "trial_index": 57, "time_elapsed": 1365343, "internal_node_id": "0.0-6.0-4.0"}}, {"uniqueid": "w20049511:a75517045", "current_trial": 58, "dateTime": 1693572816257, "trialdata": {"rt": 22226, "response": {"Q0": "no", "Q1": "first time here", "Q2": "no"}, "trial_type": "survey-text", "trial_index": 58, "time_elapsed": 1387573, "internal_node_id": "0.0-6.0-5.0"}}, {"uniqueid": "w20049511:a75517045", "current_trial": 59, "dateTime": 1693572837634, "trialdata": {"rt": 21371, "stimulus": "<h1>Completion Code Instructions (1/2)</h1>\n<br><br><br><br>\nYou have reached the end of the experiment! The completion code consists of two parts: (1) a code with 2 characters (2) a code with 6 characters. On this page, you will receive the second part of the code. The first part of the completion code will be on the next page.\n<br><br>\nThe second part of your completion code is: <b>EWEK22</b>\n<br><br>\nPlease note this down. Then, press 'Finish HIT' in order to find the first part of your completion code. Once the data has been saved, you will receive this code either in this window or in the original browser window where you started the experiment.\n", "response": 0, "trial_type": "html-button-response", "trial_index": 59, "time_elapsed": 1408950, "internal_node_id": "0.0-6.0-6.0"}}, {"uniqueid": "w20049511:a75517045", "current_trial": 60, "dateTime": 1693572838638, "trialdata": {"success": true, "trial_type": "fullscreen", "trial_index": 60, "time_elapsed": 1409954, "internal_node_id": "0.0-7.0"}}], "questiondata": {"params": {"CODE": "C6DMOQA6", "MIN_TIME": 14, "inspectCost": 1, "startTime": "Fri Sep 01 2023 13:30:22 GMT+0100 (British Summer Time)", "bonusRate": 0.002, "variance": "1_2_4_8_44", "branching": "31123"}, "final_score": 2506}, "eventdata": [{"eventtype": "initialized", "value": null, "timestamp": 1693571422378, "interval": 0}, {"eventtype": "window_resize", "value": [1032, 608], "timestamp": 1693571422378, "interval": 0}, {"eventtype": "window_resize", "value": [1032, 608], "timestamp": 1693571422819, "interval": 441}, {"eventtype": "window_resize", "value": [1280, 720], "timestamp": 1693571430521, "interval": 7702}, {"eventtype": "focus", "value": "off", "timestamp": 1693571587417, "interval": 156896}, {"eventtype": "focus", "value": "on", "timestamp": 1693571587418, "interval": 1}, {"eventtype": "window_resize", "value": [1032, 608], "timestamp": 1693571587628, "interval": 210}, {"eventtype": "window_resize", "value": [1280, 622], "timestamp": 1693571589347, "interval": 1719}, {"eventtype": "window_resize", "value": [1280, 720], "timestamp": 1693571590105, "interval": 758}, {"eventtype": "focus", "value": "off", "timestamp": 1693572125167, "interval": 535062}, {"eventtype": "focus", "value": "on", "timestamp": 1693572126542, "interval": 1375}, {"eventtype": "focus", "value": "off", "timestamp": 1693572569473, "interval": 442931}, {"eventtype": "focus", "value": "on", "timestamp": 1693572571370, "interval": 1897}, {"eventtype": "window_resize", "value": [1280, 622], "timestamp": 1693572837882, "interval": 266512}], "useragent": "Mozilla/5.0 (Windows NT 10.0; Win64; x64) AppleWebKit/537.36 (KHTML, like Gecko) Chrome/116.0.0.0 Safari/537.36", "mode": "live", "id": "w20049511:a75517045", "status": "user data saved", "Beginhit": "2023-09-01 12:30:28.620487", "Beginexp": "2023-09-01 12:30:40.664493", "Endhit": "2023-09-01 12:54:09.659263", "psiturkStatus": 3, "browser": "<redacted>", "platform": "windows", "language": "en-GB"}