{"condition": 1, "counterbalance": 0, "assignmentId": "a93072268", "workerId": "w73737219", "hitId": "h77365271", "currenttrial": 56, "bonus": 0, "data": [{"uniqueid": "w73737219:a93072268", "current_trial": 0, "dateTime": 1693569371972, "trialdata": {"success": true, "trial_type": "fullscreen", "trial_index": 0, "time_elapsed": 5048, "internal_node_id": "0.0-0.0"}}, {"uniqueid": "w73737219:a93072268", "current_trial": 1, "dateTime": 1693569389626, "trialdata": {"view_history": [{"page_index": 0, "viewing_time": 17646}], "rt": 17646, "trial_id": "exp_instructions_misaligned", "trial_type": "instructions", "trial_index": 1, "time_elapsed": 22702, "internal_node_id": "0.0-1.0"}}, {"uniqueid": "w73737219:a93072268", "current_trial": 2, "dateTime": 1693569663842, "trialdata": {"view_history": [{"page_index": 0, "viewing_time": 106120}, {"page_index": 1, "viewing_time": 84618}, {"page_index": 2, "viewing_time": 35149}, {"page_index": 3, "viewing_time": 48323}], "rt": 274210, "trial_id": "mouselab_instructions_1_misaligned", "trial_type": "instructions", "trial_index": 2, "time_elapsed": 296918, "internal_node_id": "0.0-2.0-1.0"}}, {"uniqueid": "w73737219:a93072268", "current_trial": 3, "dateTime": 1693569754405, "trialdata": {"revealed_states": [], "clicked_states": ["9", "5", "17", "21", "32", "23", "24", "25", "26", "27", "12", "13", "14", "15", "18", "1", "2", "3", "8", "11"], "num_clicks_accrued": [0, 0, 0, 0, 0, 0, 0, 0, 0, 0, 0, 0, 0], "stateRewards": ["", 10, 10, 10, 10, 10, -10, 10, -10, -10, -10, 10, -10, -10, -10, -10, 10, -10, 10, 10, 10, 10, 10, -10, 10, 10, 10, 10, -10, -10, -10, -10, -10, -10], "withholdReward": false, "trial_id": "practice_1", "block": "test", "trialIndex": 0, "score": -16.5, "costs": -10, "simulationMode": [null, null, null, null, null], "rewards": [-10, 10, 10, -10, -10], "path": ["0", "0", "23", "24", "25", "30", "32"], "rt": [75155, 723, 686, 882, 681], "actions": ["left", "left", "left", "down", "down"], "actionTimes": [77552, 78859, 80122, 81578, 82836], "queries": {"click": {"state": {"target": ["9", "5", "17", "21", "32", "23", "24", "25", "26", "27", "12", "13", "14", "15", "18", "1", "2", "3", "8", "11"], "time": [3904, 5581, 7997, 10202, 12117, 14084, 16029, 17216, 19641, 21458, 27536, 29946, 31303, 32753, 39096, 42084, 43437, 44623, 45869, 48453]}, "edge": {"target": [], "time": []}}, "mouseover": {"state": {"target": ["8", "9", "5", "16", "17", "14", "21", "32", "23", "24", "25", "26", "27", "26", "27", "27", "28", "12", "13", "13", "14", "13", "14", "15", "17", "17", "17", "15", "18", "0", "1", "2", "3", "8", "11", "11", "23", "23", "1", "1", "0", "1", "7", "4", "0", "23", "23", "15"], "time": [3294, 3331, 4695, 6821, 7136, 8768, 10031, 11747, 13579, 14997, 16470, 17692, 18575, 18909, 20290, 26699, 26794, 27233, 28047, 28337, 28947, 29679, 30263, 32076, 33535, 35227, 36473, 38539, 38639, 41468, 41790, 42593, 44019, 45136, 46449, 47995, 50845, 52159, 53611, 54055, 54723, 58524, 60092, 61008, 69657, 70924, 73022, 73679]}, "edge": {"target": [], "time": []}}, "mouseout": {"state": {"target": ["0", "8", "9", "9", "5", "16", "17", "14", "21", "32", "23", "24", "25", "26", "27", "26", "27", "27", "28", "12", "13", "13", "14", "13", "14", "15", "17", "17", "17", "15", "18", "0", "1", "2", "3", "8", "11", "11", "23", "23", "1", "1", "0", "1", "7", "4", "0", "23", "23", "15"], "time": [3228, 3328, 4077, 4628, 5885, 6857, 8766, 8834, 10497, 12384, 14651, 16466, 17625, 18538, 18875, 20144, 21631, 26733, 26861, 27986, 28121, 28902, 29613, 30193, 32014, 32763, 34187, 35891, 38423, 38586, 39393, 41503, 42455, 43941, 44798, 46377, 47197, 48625, 52043, 53556, 53660, 54110, 58483, 59289, 60967, 65550, 70890, 72038, 73645, 73743]}, "edge": {"target": [], "time": []}}}, "displayed_time": "83.41", "trialTime": 89603, "trial_type": "mouselab-mdp", "trial_index": 3, "time_elapsed": 387481, "internal_node_id": "0.0-2.0-2.0-0.0"}}, {"uniqueid": "w73737219:a93072268", "current_trial": 4, "dateTime": 1693569791889, "trialdata": {"revealed_states": [], "clicked_states": ["2", "24"], "num_clicks_accrued": [0, 0, 0, 0, 0, 0, 0, 0, 0, 0, 0, 0, 0], "stateRewards": ["", 10, -10, -10, 10, -10, 10, 10, -10, 10, -10, 10, -10, -10, 10, -10, -10, 10, 10, 10, 10, 10, -10, 10, 10, 10, 10, -10, 10, 10, 10, -10, -10, 10], "withholdReward": false, "trial_id": "practice_2", "block": "test", "trialIndex": 1, "score": 32.5, "costs": -1, "simulationMode": [null, null, null, null, null], "rewards": [10, 10, 10, 10, -10], "path": ["0", "0", "23", "24", "25", "26", "27"], "rt": [19803, 749, 722, 1198, 1026], "actions": ["left", "left", "left", "up", "up"], "actionTimes": [23472, 24799, 26098, 27869, 29420], "queries": {"click": {"state": {"target": ["2", "24"], "time": [12601, 16166]}, "edge": {"target": [], "time": []}}, "mouseover": {"state": {"target": ["12", "9", "2", "10", "28", "24", "13"], "time": [4771, 4870, 9320, 12911, 13888, 14454, 17696]}, "edge": {"target": [], "time": []}}, "mouseout": {"state": {"target": ["13", "12", "0", "12", "9", "2", "10", "28", "24", "13"], "time": [2446, 2760, 3706, 4804, 8589, 12776, 13723, 14201, 16473, 21257]}, "edge": {"target": [], "time": []}}}, "displayed_time": "29.99", "trialTime": 36713, "trial_type": "mouselab-mdp", "trial_index": 4, "time_elapsed": 424965, "internal_node_id": "0.0-2.0-2.0-1.0"}}, {"uniqueid": "w73737219:a93072268", "current_trial": 5, "dateTime": 1693569835229, "trialdata": {"view_history": [{"page_index": 0, "viewing_time": 30691}, {"page_index": 1, "viewing_time": 12647}], "rt": 43338, "trial_id": "mouselab_instructions_2_misaligned", "trial_type": "instructions", "trial_index": 5, "time_elapsed": 468305, "internal_node_id": "0.0-2.0-3.0"}}, {"uniqueid": "w73737219:a93072268", "current_trial": 6, "dateTime": 1693569935291, "trialdata": {"rt": 100049, "response": {"Q0": "The cost for clicking on nodes may vary between nodes.", "Q1": "The better I perform the higher my bonus will be.", "Q2": "No, the amount of cash at each node of the web may be different each time.", "Q3": "To get the highest total score.", "Q4": "Only before moving the spider.", "Q5": "3 seconds"}, "question_order": [0, 1, 2, 3, 4, 5], "correct": {"Q0": "The cost for clicking on nodes may vary between nodes.", "Q1": "The better I perform the higher my bonus will be.", "Q2": "No, the amount of cash at each node of the web may be different each time.", "Q3": "To get the highest total score.", "Q4": "Only before moving the spider.", "Q5": "3 seconds"}, "trial_id": "mouselab_quiz_misaligned", "trial_type": "survey-multi-choice", "trial_index": 6, "time_elapsed": 568367, "internal_node_id": "0.0-2.0-4.0"}}, {"uniqueid": "w73737219:a93072268", "current_trial": 7, "dateTime": 1693569945741, "trialdata": {"rt": 10436, "response": {"Q0": "No"}, "question_order": [0], "trial_id": "repeat_check", "trial_type": "survey-multi-choice", "trial_index": 7, "time_elapsed": 578817, "internal_node_id": "0.0-4.0-0.0"}}, {"uniqueid": "w73737219:a93072268", "current_trial": 8, "dateTime": 1693569951178, "trialdata": {"rt": 5430, "stimulus": "\n<h1> Get ready to start the game! </h1>\n\nThank you for reading the instructions. Get ready start with the 40 rounds of this game.\n<br><br>\nIf you need to take a break, feel free to take one after the end of a round, before continuing to the next one.\n<br><br>\nRemember, the more money the spider gets, the bigger your bonus will be!\n<br><br>\n<div style='text-align: center;'>Press <code>space</code> to begin.</div>\n\n<br><br>\n(If, at any point, the <code>space</code> key does not take you to the next page, click once on the text and try again.)", "response": " ", "trial_id": "mdp_ready", "trial_type": "html-keyboard-response", "trial_index": 8, "time_elapsed": 584253, "internal_node_id": "0.0-6.0-0.0"}}, {"uniqueid": "w73737219:a93072268", "current_trial": 9, "dateTime": 1693569975769, "trialdata": {"revealed_states": [], "clicked_states": [], "num_clicks_accrued": [0, 0, 0, 0, 0, 0, 0, 0, 0, 0, 0, 0, 0], "stateRewards": ["", 1, -1, 4, -2, -75, -75, 84, -9, -60, -79, 59, 2, -4, 8, 9, -17, -82, 80, 14, -4, 49, 49, -1, 3, 6, -11, -33, 34, 55, 9, -57, 5, 59], "withholdReward": false, "trial_id": "mdp_trial_1", "block": "test", "trialIndex": 2, "score": -36, "costs": 0, "simulationMode": [null, null, null, null, null], "rewards": [-1, 3, 6, -11, -33], "path": ["0", "0", "23", "24", "25", "26", "27"], "rt": [10627, 499, 455, 1228, 328], "actions": ["left", "left", "left", "up", "up"], "actionTimes": [12648, 13735, 14764, 16560, 17466], "queries": {"click": {"state": {"target": [], "time": []}, "edge": {"target": [], "time": []}}, "mouseover": {"state": {"target": ["23", "24", "25", "24"], "time": [3011, 4975, 7441, 7999]}, "edge": {"target": [], "time": []}}, "mouseout": {"state": {"target": ["0", "23", "24", "25", "24", "22"], "time": [1227, 3048, 7356, 7991, 8026, 21939]}, "edge": {"target": [], "time": []}}}, "displayed_time": "18.05", "trialTime": 23836, "trial_type": "mouselab-mdp", "trial_index": 9, "time_elapsed": 608845, "internal_node_id": "0.0-6.0-1.0-0.0"}}, {"uniqueid": "w73737219:a93072268", "current_trial": 10, "dateTime": 1693569998994, "trialdata": {"revealed_states": [], "clicked_states": ["25", "14", "3"], "num_clicks_accrued": [0, 0, 0, 0, 0, 0, 0, 0, 0, 0, 0, 0, 0], "stateRewards": ["", 1, 1, -5, 8, -6, 45, 16, -6, -7, -22, -38, -1, -4, 8, -11, -16, 21, -45, -15, -59, -32, 42, -1, 3, 6, 11, -7, 34, -27, -8, 85, 43, -9], "withholdReward": false, "trial_id": "mdp_trial_2", "block": "test", "trialIndex": 3, "score": -26.85, "costs": -2.8499999999999996, "simulationMode": [null, null, null, null, null], "rewards": [-1, -4, 8, -11, -16], "path": ["0", "0", "12", "13", "14", "15", "16"], "rt": [7764, 408, 350, 839, 497], "actions": ["right", "right", "right", "up", "up"], "actionTimes": [10569, 11564, 12492, 13903, 14974], "queries": {"click": {"state": {"target": ["25", "14", "3"], "time": [4262, 6294, 8339]}, "edge": {"target": [], "time": []}}, "mouseover": {"state": {"target": ["23", "24", "25", "13", "14", "0", "1", "2", "3", "12"], "time": [2851, 3356, 4053, 5243, 5487, 7601, 7700, 7766, 7917, 9831]}, "edge": {"target": [], "time": []}}, "mouseout": {"state": {"target": ["21", "0", "23", "24", "25", "13", "14", "0", "1", "2", "3", "12"], "time": [790, 2840, 3287, 3887, 4769, 5436, 6533, 7635, 7763, 7880, 8572, 20356]}, "edge": {"target": [], "time": []}}}, "displayed_time": "17.60", "trialTime": 22396, "trial_type": "mouselab-mdp", "trial_index": 10, "time_elapsed": 632070, "internal_node_id": "0.0-6.0-1.0-1.0"}}, {"uniqueid": "w73737219:a93072268", "current_trial": 11, "dateTime": 1693570023989, "trialdata": {"revealed_states": [], "clicked_states": ["25", "3", "14", "5"], "num_clicks_accrued": [0, 0, 0, 0, 0, 0, 0, 0, 0, 0, 0, 0, 0], "stateRewards": ["", -2, -4, -8, 8, 63, -50, -19, -7, -17, -31, 31, 1, 3, -5, 12, -35, -63, -29, -4, -17, -75, -79, -2, -3, -2, 8, -3, -85, 10, -2, -82, -82, 56], "withholdReward": false, "trial_id": "mdp_trial_3", "block": "test", "trialIndex": 4, "score": -43, "costs": -5, "simulationMode": [null, null, null, null, null], "rewards": [-2, -4, -8, -7, -17], "path": ["0", "0", "1", "2", "3", "8", "9"], "rt": [11876, 266, 352, 436, 953], "actions": ["up", "up", "up", "left", "up"], "actionTimes": [16732, 17511, 18429, 19434, 20959], "queries": {"click": {"state": {"target": ["25", "3", "14", "5"], "time": [6271, 7892, 9581, 11751]}, "edge": {"target": [], "time": []}}, "mouseover": {"state": {"target": ["23", "24", "25", "1", "2", "3", "12", "14", "12", "18", "4", "5", "25", "27", "28"], "time": [5371, 5470, 5787, 7057, 7190, 7617, 8199, 9015, 10950, 11020, 11316, 11582, 13728, 13948, 14363]}, "edge": {"target": [], "time": []}}, "mouseout": {"state": {"target": ["0", "23", "24", "25", "1", "2", "3", "12", "14", "12", "18", "4", "5", "25", "27", "28"], "time": [3986, 5437, 5722, 6508, 7115, 7552, 7999, 8875, 9817, 11015, 11075, 11365, 11987, 13821, 14357, 14480]}, "edge": {"target": [], "time": []}}}, "displayed_time": "21.53", "trialTime": 24249, "trial_type": "mouselab-mdp", "trial_index": 11, "time_elapsed": 657065, "internal_node_id": "0.0-6.0-1.0-2.0"}}, {"uniqueid": "w73737219:a93072268", "current_trial": 12, "dateTime": 1693570050399, "trialdata": {"revealed_states": [], "clicked_states": ["9", "5", "29"], "num_clicks_accrued": [0, 0, 0, 0, 0, 0, 0, 0, 0, 0, 0, 0, 0], "stateRewards": ["", -1, 1, 3, -8, -23, -15, -14, -11, -23, 58, 68, 1, 3, 5, 12, -17, -41, -7, -10, -4, 82, 10, 1, 4, -4, 11, 73, 55, -55, -1, -86, -86, 54], "withholdReward": false, "trial_id": "mdp_trial_4", "block": "test", "trialIndex": 5, "score": -11.45, "costs": -6.449999999999999, "simulationMode": [null, null, null, null, null], "rewards": [1, 3, 5, -10, -4], "path": ["0", "0", "12", "13", "14", "19", "20"], "rt": [12979, 285, 364, 1879, 712], "actions": ["right", "right", "right", "down", "right"], "actionTimes": [17345, 18211, 19210, 21664, 22889], "queries": {"click": {"state": {"target": ["9", "5", "29"], "time": [5482, 9213, 12443]}, "edge": {"target": [], "time": []}}, "mouseover": {"state": {"target": ["10", "9", "9", "5", "5", "3", "5", "3", "28", "29", "30"], "time": [4906, 4984, 5288, 5795, 7538, 8553, 8952, 9656, 10674, 10962, 15628]}, "edge": {"target": [], "time": []}}, "mouseout": {"state": {"target": ["0", "10", "9", "9", "5", "5", "3", "5", "3", "28", "29", "30"], "time": [4870, 4977, 5044, 5790, 6871, 8072, 8588, 9654, 9722, 10750, 15565, 15663]}, "edge": {"target": [], "time": []}}}, "displayed_time": "23.46", "trialTime": 25584, "trial_type": "mouselab-mdp", "trial_index": 12, "time_elapsed": 683475, "internal_node_id": "0.0-6.0-1.0-3.0"}}, {"uniqueid": "w73737219:a93072268", "current_trial": 13, "dateTime": 1693570073597, "trialdata": {"revealed_states": [], "clicked_states": ["8", "25", "14"], "num_clicks_accrued": [0, 0, 0, 0, 0, 0, 0, 0, 0, 0, 0, 0, 0], "stateRewards": ["", 1, 1, 6, -14, -40, 37, 16, -13, 33, -68, 49, 2, 4, 3, 6, 55, 27, 32, 10, -65, 20, -87, 2, 1, -6, -5, -42, 12, 29, -8, 16, 76, -33], "withholdReward": false, "trial_id": "mdp_trial_5", "block": "test", "trialIndex": 6, "score": 35.55, "costs": -3.45, "simulationMode": [null, null, null, null, null], "rewards": [2, 4, 3, 10, 20], "path": ["0", "0", "12", "13", "14", "19", "21"], "rt": [7155, 467, 502, 529, 824], "actions": ["right", "right", "right", "down", "down"], "actionTimes": [8913, 9893, 10972, 12070, 13463], "queries": {"click": {"state": {"target": ["8", "25", "14"], "time": [3230, 5125, 7010]}, "edge": {"target": [], "time": []}}, "mouseover": {"state": {"target": ["1", "2", "8", "12", "25", "14"], "time": [2497, 2677, 2980, 4079, 4461, 6592]}, "edge": {"target": [], "time": []}}, "mouseout": {"state": {"target": ["0", "1", "2", "8", "12", "25", "14"], "time": [2429, 2613, 2829, 3467, 4146, 5365, 7250]}, "edge": {"target": [], "time": []}}}, "displayed_time": "16.79", "trialTime": 22379, "trial_type": "mouselab-mdp", "trial_index": 13, "time_elapsed": 706672, "internal_node_id": "0.0-6.0-1.0-4.0"}}, {"uniqueid": "w73737219:a93072268", "current_trial": 14, "dateTime": 1693570095612, "trialdata": {"revealed_states": [], "clicked_states": ["25", "14"], "num_clicks_accrued": [0, 0, 0, 0, 0, 0, 0, 0, 0, 0, 0, 0, 0], "stateRewards": ["", 2, -1, -4, -13, 74, 77, 3, 2, -43, -2, -11, 2, 3, 7, 11, -26, -29, -33, -3, -3, -13, -3, 1, 3, -7, 14, -59, 33, 9, -5, 34, 79, 68], "withholdReward": false, "trial_id": "mdp_trial_6", "block": "test", "trialIndex": 7, "score": -4.899999999999999, "costs": -1.9, "simulationMode": [null, null, null, null, null], "rewards": [2, 3, 7, 11, -26], "path": ["0", "0", "12", "13", "14", "15", "16"], "rt": [5322, 481, 572, 1011, 598], "actions": ["right", "right", "right", "up", "up"], "actionTimes": [6808, 7867, 9009, 10602, 11779], "queries": {"click": {"state": {"target": ["25", "14"], "time": [2633, 4441]}, "edge": {"target": [], "time": []}}, "mouseover": {"state": {"target": ["23", "24", "25", "22", "14"], "time": [2158, 2225, 2404, 3486, 3766]}, "edge": {"target": [], "time": []}}, "mouseout": {"state": {"target": ["0", "23", "24", "25", "22", "14", "20"], "time": [2120, 2222, 2290, 2872, 3551, 4683, 19536]}, "edge": {"target": [], "time": []}}}, "displayed_time": "16.67", "trialTime": 21256, "trial_type": "mouselab-mdp", "trial_index": 14, "time_elapsed": 728688, "internal_node_id": "0.0-6.0-1.0-5.0"}}, {"uniqueid": "w73737219:a93072268", "current_trial": 15, "dateTime": 1693570118821, "trialdata": {"revealed_states": [], "clicked_states": ["25", "3", "14"], "num_clicks_accrued": [0, 0, 0, 0, 0, 0, 0, 0, 0, 0, 0, 0, 0], "stateRewards": ["", -1, 1, 8, -8, -49, 62, -78, 16, 28, -81, 78, -2, -3, -1, -4, 67, 49, -2, -13, -16, -39, 83, 1, -4, 4, -5, -20, 7, 84, 7, -32, -59, 19], "withholdReward": false, "trial_id": "mdp_trial_7", "block": "test", "trialIndex": 8, "score": 99.15, "costs": -2.8499999999999996, "simulationMode": [null, null, null, null, null], "rewards": [-1, 1, 8, 16, 78], "path": ["0", "0", "1", "2", "3", "8", "11"], "rt": [7467, 542, 502, 1556, 458], "actions": ["up", "up", "up", "left", "left"], "actionTimes": [8871, 9984, 11054, 13141, 14180], "queries": {"click": {"state": {"target": ["25", "3", "14"], "time": [2701, 4952, 6931]}, "edge": {"target": [], "time": []}}, "mouseover": {"state": {"target": ["25", "2", "3", "22", "14"], "time": [2479, 3837, 4143, 6095, 6194]}, "edge": {"target": [], "time": []}}, "mouseout": {"state": {"target": ["0", "25", "2", "3", "22", "14"], "time": [724, 2934, 4110, 5183, 6127, 7175]}, "edge": {"target": [], "time": []}}}, "displayed_time": "16.58", "trialTime": 22446, "trial_type": "mouselab-mdp", "trial_index": 15, "time_elapsed": 751896, "internal_node_id": "0.0-6.0-1.0-6.0"}}, {"uniqueid": "w73737219:a93072268", "current_trial": 16, "dateTime": 1693570139926, "trialdata": {"revealed_states": [], "clicked_states": ["3", "25", "14"], "num_clicks_accrued": [0, 0, 0, 0, 0, 0, 0, 0, 0, 0, 0, 0, 0], "stateRewards": ["", -1, 2, -7, -12, -62, 12, -13, 5, 77, -71, 83, 1, -4, 7, 15, -42, -87, -4, 5, -25, 44, 88, -1, 4, -5, -8, 14, 51, 8, -5, 83, -24, -19], "withholdReward": false, "trial_id": "mdp_trial_8", "block": "test", "trialIndex": 9, "score": -25.85, "costs": -2.8499999999999996, "simulationMode": [null, null, null, null, null], "rewards": [1, -4, 7, 15, -42], "path": ["0", "0", "12", "13", "14", "15", "16"], "rt": [7517, 476, 515, 632, 732], "actions": ["right", "right", "right", "up", "up"], "actionTimes": [8999, 10056, 11144, 12387, 13753], "queries": {"click": {"state": {"target": ["3", "25", "14"], "time": [3110, 5097, 7074]}, "edge": {"target": [], "time": []}}, "mouseover": {"state": {"target": ["0", "10", "8", "3", "10", "28", "26", "25", "14"], "time": [2028, 2173, 2367, 2825, 3768, 3915, 4334, 4547, 6298]}, "edge": {"target": [], "time": []}}, "mouseout": {"state": {"target": ["0", "0", "10", "8", "3", "10", "28", "26", "25", "14"], "time": [1515, 2114, 2333, 2784, 3762, 3829, 4270, 4479, 5282, 7370]}, "edge": {"target": [], "time": []}}}, "displayed_time": "16.08", "trialTime": 20295, "trial_type": "mouselab-mdp", "trial_index": 16, "time_elapsed": 773002, "internal_node_id": "0.0-6.0-1.0-7.0"}}, {"uniqueid": "w73737219:a93072268", "current_trial": 17, "dateTime": 1693570160597, "trialdata": {"revealed_states": [], "clicked_states": ["25", "3", "14"], "num_clicks_accrued": [0, 0, 0, 0, 0, 0, 0, 0, 0, 0, 0, 0, 0], "stateRewards": ["", 2, -4, 4, 9, 69, 9, -75, 12, -86, 66, 25, -1, 3, 2, -13, -88, -3, 1, 4, -69, 49, -84, 2, -1, 4, 2, -18, -81, -52, -15, -69, -54, 25], "withholdReward": false, "trial_id": "mdp_trial_9", "block": "test", "trialIndex": 10, "score": -66.85, "costs": -2.8499999999999996, "simulationMode": [null, null, null, null, null], "rewards": [2, -1, 4, -15, -54], "path": ["0", "0", "23", "24", "25", "30", "32"], "rt": [6964, 348, 510, 1098, 898], "actions": ["left", "left", "left", "down", "down"], "actionTimes": [9046, 9975, 11079, 12752, 14206], "queries": {"click": {"state": {"target": ["25", "3", "14"], "time": [3344, 4860, 6575]}, "edge": {"target": [], "time": []}}, "mouseover": {"state": {"target": ["24", "25", "2", "3", "14"], "time": [2763, 3029, 4134, 4272, 6234]}, "edge": {"target": [], "time": []}}, "mouseout": {"state": {"target": ["0", "24", "25", "2", "3", "14"], "time": [2144, 2801, 3588, 4200, 5039, 6814]}, "edge": {"target": [], "time": []}}}, "displayed_time": "17.55", "trialTime": 19736, "trial_type": "mouselab-mdp", "trial_index": 17, "time_elapsed": 793673, "internal_node_id": "0.0-6.0-1.0-8.0"}}, {"uniqueid": "w73737219:a93072268", "current_trial": 18, "dateTime": 1693570188111, "trialdata": {"revealed_states": [], "clicked_states": ["9", "5", "17"], "num_clicks_accrued": [0, 0, 0, 0, 0, 0, 0, 0, 0, 0, 0, 0, 0], "stateRewards": ["", -2, 2, 2, -6, 9, 37, 50, -13, -7, -18, -75, -2, -4, 4, 7, 23, -57, -66, -7, -81, -48, -76, 1, 1, -8, 1, 51, -2, 70, 14, 59, 71, -37], "withholdReward": false, "trial_id": "mdp_trial_10", "block": "test", "trialIndex": 11, "score": -1.4499999999999993, "costs": -6.449999999999999, "simulationMode": [null, null, null, null, null, null], "rewards": [-2, 2, 2, -6, 9], "path": ["0", "0", "1", "2", "3", "4", "5"], "rt": [10184, 592, 441, 507, 614, 431], "actions": ["up", "up", "up", "up", "right", "up"], "actionTimes": [11837, 12435, 13455, 14537, 15733, 16736], "queries": {"click": {"state": {"target": ["9", "5", "17"], "time": [3164, 6386, 9369]}, "edge": {"target": [], "time": []}}, "mouseover": {"state": {"target": ["1", "8", "9", "5", "5", "17", "13", "12"], "time": [2329, 2449, 2744, 4672, 6207, 7696, 10196, 10290]}, "edge": {"target": [], "time": []}}, "mouseout": {"state": {"target": ["0", "1", "8", "9", "5", "5", "17", "13", "12", "31"], "time": [829, 2364, 2696, 3466, 5406, 7024, 10189, 10278, 23491, 26105]}, "edge": {"target": [], "time": []}}}, "displayed_time": "17.31", "trialTime": 26600, "trial_type": "mouselab-mdp", "trial_index": 18, "time_elapsed": 821187, "internal_node_id": "0.0-6.0-1.0-9.0"}}, {"uniqueid": "w73737219:a93072268", "current_trial": 19, "dateTime": 1693570209718, "trialdata": {"revealed_states": [], "clicked_states": ["32", "21"], "num_clicks_accrued": [0, 0, 0, 0, 0, 0, 0, 0, 0, 0, 0, 0, 0], "stateRewards": ["", -1, 2, -2, 5, 80, -61, -27, 12, 44, -26, -75, -2, -4, 1, -16, 42, -49, -50, 4, -44, 2, 80, -2, -2, 5, -2, 59, 10, 24, 7, -48, -86, -44], "withholdReward": false, "trial_id": "mdp_trial_11", "block": "test", "trialIndex": 12, "score": -3.3000000000000007, "costs": -4.3, "simulationMode": [null, null, null, null, null], "rewards": [-2, -4, 1, 4, 2], "path": ["0", "0", "12", "13", "14", "19", "21"], "rt": [8999, 253, 283, 588, 586], "actions": ["right", "right", "right", "down", "down"], "actionTimes": [10302, 11070, 11926, 13094, 14259], "queries": {"click": {"state": {"target": ["32", "21"], "time": [2456, 5385]}, "edge": {"target": [], "time": []}}, "mouseover": {"state": {"target": ["32", "32", "21", "4", "5", "17"], "time": [1985, 2254, 3235, 7861, 8349, 9064]}, "edge": {"target": [], "time": []}}, "mouseout": {"state": {"target": ["0", "32", "32", "21", "4", "5", "17"], "time": [1337, 2040, 2692, 5526, 7938, 8570, 9184]}, "edge": {"target": [], "time": []}}}, "displayed_time": "16.71", "trialTime": 20858, "trial_type": "mouselab-mdp", "trial_index": 19, "time_elapsed": 842794, "internal_node_id": "0.0-6.0-1.0-10.0"}}, {"uniqueid": "w73737219:a93072268", "current_trial": 20, "dateTime": 1693570230881, "trialdata": {"revealed_states": [], "clicked_states": ["3"], "num_clicks_accrued": [0, 0, 0, 0, 0, 0, 0, 0, 0, 0, 0, 0, 0], "stateRewards": ["", 1, -2, 7, -14, 88, -56, -44, -14, 64, -51, -57, -2, 3, -4, -9, -11, 19, -77, -1, 68, 75, -67, -1, 1, -2, 5, -37, 70, -34, -10, -72, 63, -41], "withholdReward": false, "trial_id": "mdp_trial_12", "block": "test", "trialIndex": 13, "score": -65.95, "costs": -0.95, "simulationMode": [null, null, null, null, null], "rewards": [1, -2, 7, -14, -57], "path": ["0", "0", "1", "2", "3", "8", "11"], "rt": [4088, 291, 446, 729, 332], "actions": ["up", "up", "up", "left", "left"], "actionTimes": [6027, 6895, 7917, 9219, 10126], "queries": {"click": {"state": {"target": ["3"], "time": [3078]}, "edge": {"target": [], "time": []}}, "mouseover": {"state": {"target": ["1", "2", "3", "2", "24", "25", "23"], "time": [2499, 2544, 2727, 3318, 3935, 4080, 5172]}, "edge": {"target": [], "time": []}}, "mouseout": {"state": {"target": ["15", "12", "1", "2", "3", "2", "24", "25", "23"], "time": [760, 843, 2536, 2599, 3314, 3375, 3999, 5090, 5209]}, "edge": {"target": [], "time": []}}}, "displayed_time": "16.94", "trialTime": 20400, "trial_type": "mouselab-mdp", "trial_index": 20, "time_elapsed": 863957, "internal_node_id": "0.0-6.0-1.0-11.0"}}, {"uniqueid": "w73737219:a93072268", "current_trial": 21, "dateTime": 1693570256494, "trialdata": {"revealed_states": [], "clicked_states": ["25", "3", "14", "21", "16"], "num_clicks_accrued": [0, 0, 0, 0, 0, 0, 0, 0, 0, 0, 0, 0, 0], "stateRewards": ["", -2, 1, -7, -8, -37, -76, -87, 11, 30, -63, 80, -1, 4, 2, -1, 42, 17, 52, -3, -75, -80, -68, 2, -3, -5, -15, -48, 82, 24, -7, 5, -22, -71], "withholdReward": false, "trial_id": "mdp_trial_13", "block": "test", "trialIndex": 14, "score": 38.85, "costs": -7.15, "simulationMode": [null, null, null, null, null], "rewards": [-1, 4, 2, -1, 42], "path": ["0", "0", "12", "13", "14", "15", "16"], "rt": [14624, 166, 259, 367, 486], "actions": ["right", "right", "right", "up", "up"], "actionTimes": [16366, 17113, 17960, 18896, 19965], "queries": {"click": {"state": {"target": ["25", "3", "14", "21", "16"], "time": [3262, 4623, 6368, 8053, 11748]}, "edge": {"target": [], "time": []}}, "mouseover": {"state": {"target": ["24", "25", "2", "3", "0", "15", "14", "21", "16", "16", "17", "13"], "time": [2574, 2676, 4109, 4180, 5550, 5768, 5988, 7688, 9559, 11281, 14063, 15557]}, "edge": {"target": [], "time": []}}, "mouseout": {"state": {"target": ["0", "24", "25", "2", "3", "0", "15", "14", "21", "16", "16", "17", "13"], "time": [807, 2611, 3502, 4175, 4874, 5617, 5936, 6603, 8288, 9628, 12052, 15526, 15622]}, "edge": {"target": [], "time": []}}}, "displayed_time": "20.55", "trialTime": 24846, "trial_type": "mouselab-mdp", "trial_index": 21, "time_elapsed": 889569, "internal_node_id": "0.0-6.0-1.0-12.0"}}, {"uniqueid": "w73737219:a93072268", "current_trial": 22, "dateTime": 1693570281013, "trialdata": {"revealed_states": [], "clicked_states": ["25", "27", "32", "33"], "num_clicks_accrued": [0, 0, 0, 0, 0, 0, 0, 0, 0, 0, 0, 0, 0], "stateRewards": ["", -1, 1, -5, -6, -78, 47, -13, 12, 48, -88, 20, 2, -3, -2, 13, -20, 37, -57, 14, -38, 30, 31, -2, -2, 8, 2, -23, 78, 28, 12, -74, -88, 8], "withholdReward": false, "trial_id": "mdp_trial_14", "block": "test", "trialIndex": 15, "score": 16.6, "costs": -7.4, "simulationMode": [null, null, null, null, null], "rewards": [-2, -2, 8, 12, 8], "path": ["0", "0", "23", "24", "25", "30", "33"], "rt": [14565, 330, 401, 644, 561], "actions": ["left", "left", "left", "down", "left"], "actionTimes": [16238, 17144, 18120, 19339, 20476], "queries": {"click": {"state": {"target": ["25", "27", "32", "33"], "time": [2855, 4870, 8144, 11521]}, "edge": {"target": [], "time": []}}, "mouseover": {"state": {"target": ["25", "24", "26", "27", "32", "33", "31"], "time": [2529, 4327, 4492, 4595, 6184, 8592, 15067]}, "edge": {"target": [], "time": []}}, "mouseout": {"state": {"target": ["0", "25", "24", "26", "27", "32", "33", "31"], "time": [1707, 3091, 4428, 4527, 5110, 8258, 12292, 15167]}, "edge": {"target": [], "time": []}}}, "displayed_time": "21.05", "trialTime": 23798, "trial_type": "mouselab-mdp", "trial_index": 22, "time_elapsed": 914089, "internal_node_id": "0.0-6.0-1.0-13.0"}}, {"uniqueid": "w73737219:a93072268", "current_trial": 23, "dateTime": 1693570302376, "trialdata": {"revealed_states": [], "clicked_states": ["25", "33"], "num_clicks_accrued": [0, 0, 0, 0, 0, 0, 0, 0, 0, 0, 0, 0, 0], "stateRewards": ["", -1, -4, -1, -5, -28, -23, -15, -15, -38, 59, -87, 2, 2, -5, 9, -55, -39, -71, -6, 85, -85, -11, -1, -2, 5, -10, 1, 25, 41, -4, 69, -35, 86], "withholdReward": false, "trial_id": "mdp_trial_15", "block": "test", "trialIndex": 16, "score": 80.9, "costs": -3.0999999999999996, "simulationMode": [null, null, null, null, null], "rewards": [-1, -2, 5, -4, 86], "path": ["0", "0", "23", "24", "25", "30", "33"], "rt": [8309, 232, 481, 414, 635], "actions": ["left", "left", "left", "down", "left"], "actionTimes": [10205, 11014, 12071, 13062, 14268], "queries": {"click": {"state": {"target": ["25", "33"], "time": [3115, 5193]}, "edge": {"target": [], "time": []}}, "mouseover": {"state": {"target": ["24", "25", "33", "31"], "time": [2757, 2908, 4656, 6964]}, "edge": {"target": [], "time": []}}, "mouseout": {"state": {"target": ["0", "24", "25", "33", "31"], "time": [1938, 2794, 3358, 5426, 8719]}, "edge": {"target": [], "time": []}}}, "displayed_time": "16.92", "trialTime": 20612, "trial_type": "mouselab-mdp", "trial_index": 23, "time_elapsed": 935451, "internal_node_id": "0.0-6.0-1.0-14.0"}}, {"uniqueid": "w73737219:a93072268", "current_trial": 24, "dateTime": 1693570329864, "trialdata": {"revealed_states": [], "clicked_states": ["25", "27", "33", "32"], "num_clicks_accrued": [0, 0, 0, 0, 0, 0, 0, 0, 0, 0, 0, 0, 0], "stateRewards": ["", -1, 3, 1, -7, 56, 76, 57, 3, 11, -9, 14, 1, -2, 2, 8, -77, -3, 79, -5, 88, 24, -66, -2, -1, 7, -7, -30, 14, -76, 11, -36, 28, -6], "withholdReward": false, "trial_id": "mdp_trial_16", "block": "test", "trialIndex": 17, "score": 35.6, "costs": -7.4, "simulationMode": [null, null, null, null, null], "rewards": [-2, -1, 7, 11, 28], "path": ["0", "0", "23", "24", "25", "30", "32"], "rt": [15252, 192, 402, 458, 532], "actions": ["left", "left", "left", "down", "down"], "actionTimes": [16597, 17409, 18391, 19423, 20529], "queries": {"click": {"state": {"target": ["25", "27", "33", "32"], "time": [2479, 4593, 8388, 12098]}, "edge": {"target": [], "time": []}}, "mouseover": {"state": {"target": ["25", "24", "27", "29", "33", "32"], "time": [2119, 3966, 4332, 6704, 7531, 11942]}, "edge": {"target": [], "time": []}}, "mouseout": {"state": {"target": ["0", "25", "24", "27", "29", "33", "32"], "time": [2019, 2719, 4000, 4828, 7312, 8636, 12341]}, "edge": {"target": [], "time": []}}}, "displayed_time": "21.07", "trialTime": 26614, "trial_type": "mouselab-mdp", "trial_index": 24, "time_elapsed": 962940, "internal_node_id": "0.0-6.0-1.0-15.0"}}, {"uniqueid": "w73737219:a93072268", "current_trial": 25, "dateTime": 1693570352350, "trialdata": {"revealed_states": [], "clicked_states": ["25", "3", "14", "16"], "num_clicks_accrued": [0, 0, 0, 0, 0, 0, 0, 0, 0, 0, 0, 0, 0], "stateRewards": ["", -2, 3, -5, -7, 66, 43, -60, -4, -70, -75, 4, -1, 2, 2, -13, 54, 11, -40, -1, 77, 32, 15, -2, 3, -8, -9, -35, 83, -27, 6, -74, -34, 44], "withholdReward": false, "trial_id": "mdp_trial_17", "block": "test", "trialIndex": 18, "score": 39, "costs": -5, "simulationMode": [null, null, null, null, null], "rewards": [-1, 2, 2, -13, 54], "path": ["0", "0", "12", "13", "14", "15", "16"], "rt": [10857, 227, 477, 801, 448], "actions": ["right", "right", "right", "up", "up"], "actionTimes": [12421, 13228, 14281, 15656, 16679], "queries": {"click": {"state": {"target": ["25", "3", "14", "16"], "time": [2847, 4583, 6082, 7763]}, "edge": {"target": [], "time": []}}, "mouseover": {"state": {"target": ["31", "25", "2", "3", "14", "13", "15", "15", "16"], "time": [2300, 2402, 4163, 4268, 5710, 7062, 7276, 7376, 7577]}, "edge": {"target": [], "time": []}}, "mouseout": {"state": {"target": ["0", "31", "25", "2", "3", "14", "13", "15", "15", "16", "21"], "time": [1612, 2333, 3085, 4226, 4699, 6263, 7130, 7328, 7445, 7950, 18450]}, "edge": {"target": [], "time": []}}}, "displayed_time": "17.25", "trialTime": 21407, "trial_type": "mouselab-mdp", "trial_index": 25, "time_elapsed": 985426, "internal_node_id": "0.0-6.0-1.0-16.0"}}, {"uniqueid": "w73737219:a93072268", "current_trial": 26, "dateTime": 1693570373421, "trialdata": {"revealed_states": [], "clicked_states": ["25", "14", "3", "29"], "num_clicks_accrued": [0, 0, 0, 0, 0, 0, 0, 0, 0, 0, 0, 0, 0], "stateRewards": ["", 2, 3, -6, -5, -3, 55, 40, 11, 61, 11, 51, 2, -4, -6, 9, -25, 29, -15, -6, 7, -77, -2, -2, -4, 1, 14, -43, -1, 56, -12, -54, 41, -74], "withholdReward": false, "trial_id": "mdp_trial_18", "block": "test", "trialIndex": 19, "score": 60, "costs": -5, "simulationMode": [null, null, null, null, null], "rewards": [-2, -4, 1, 14, 56], "path": ["0", "0", "23", "24", "25", "26", "29"], "rt": [10852, 247, 360, 686, 577], "actions": ["left", "left", "left", "up", "left"], "actionTimes": [12553, 13382, 14326, 15587, 16733], "queries": {"click": {"state": {"target": ["25", "14", "3", "29"], "time": [3076, 5277, 6544, 8016]}, "edge": {"target": [], "time": []}}, "mouseover": {"state": {"target": ["31", "25", "26", "26", "14", "3", "29", "27"], "time": [2528, 2649, 4394, 4675, 4859, 6328, 7524, 9659]}, "edge": {"target": [], "time": []}}, "mouseout": {"state": {"target": ["0", "31", "25", "26", "26", "14", "3", "29", "27"], "time": [1735, 2567, 3312, 4427, 4710, 5517, 6717, 8256, 11579]}, "edge": {"target": [], "time": []}}}, "displayed_time": "17.31", "trialTime": 20282, "trial_type": "mouselab-mdp", "trial_index": 26, "time_elapsed": 1006497, "internal_node_id": "0.0-6.0-1.0-17.0"}}, {"uniqueid": "w73737219:a93072268", "current_trial": 27, "dateTime": 1693570398388, "trialdata": {"revealed_states": [], "clicked_states": ["25", "3", "14", "9", "11"], "num_clicks_accrued": [0, 0, 0, 0, 0, 0, 0, 0, 0, 0, 0, 0, 0], "stateRewards": ["", 1, 3, 3, -10, 52, 68, 59, 12, 7, 49, 21, -2, -3, -4, -2, -2, 63, 63, -4, 44, 43, -76, -2, -3, -6, 13, 48, 36, 12, -5, -36, -33, -11], "withholdReward": false, "trial_id": "mdp_trial_19", "block": "test", "trialIndex": 20, "score": 32.85, "costs": -7.15, "simulationMode": [null, null, null, null, null], "rewards": [1, 3, 3, 12, 21], "path": ["0", "0", "1", "2", "3", "8", "11"], "rt": [15012, 185, 430, 243, 335], "actions": ["up", "up", "up", "left", "left"], "actionTimes": [16348, 17112, 18112, 18932, 19842], "queries": {"click": {"state": {"target": ["25", "3", "14", "9", "11"], "time": [2583, 4357, 6323, 7787, 11657]}, "edge": {"target": [], "time": []}}, "mouseover": {"state": {"target": ["24", "25", "1", "2", "3", "14", "10", "9", "23", "23", "11", "10"], "time": [2122, 2423, 3627, 3768, 4006, 6021, 7232, 7371, 8038, 8848, 9948, 12706]}, "edge": {"target": [], "time": []}}, "mouseout": {"state": {"target": ["0", "24", "25", "1", "2", "3", "14", "10", "9", "23", "23", "11", "10"], "time": [1378, 2166, 2812, 3693, 3831, 4595, 6562, 7304, 8029, 8091, 8922, 11897, 14112]}, "edge": {"target": [], "time": []}}}, "displayed_time": "20.42", "trialTime": 24180, "trial_type": "mouselab-mdp", "trial_index": 27, "time_elapsed": 1031463, "internal_node_id": "0.0-6.0-1.0-18.0"}}, {"uniqueid": "w73737219:a93072268", "current_trial": 28, "dateTime": 1693570421994, "trialdata": {"revealed_states": [], "clicked_states": ["25", "14", "3"], "num_clicks_accrued": [0, 0, 0, 0, 0, 0, 0, 0, 0, 0, 0, 0, 0], "stateRewards": ["", 1, 4, -8, -13, -13, -87, -77, -10, -44, 54, 42, 2, -3, -4, 12, -9, -80, 52, 9, 84, -2, -65, 1, -4, -5, -6, 8, 80, 32, 13, -59, -5, -13], "withholdReward": false, "trial_id": "mdp_trial_20", "block": "test", "trialIndex": 21, "score": -8.850000000000001, "costs": -2.8499999999999996, "simulationMode": [null, null, null, null, null], "rewards": [1, -4, -5, -6, 8], "path": ["0", "0", "23", "24", "25", "26", "27"], "rt": [13572, 220, 298, 224, 338], "actions": ["left", "left", "left", "up", "up"], "actionTimes": [15237, 16044, 16922, 17727, 18635], "queries": {"click": {"state": {"target": ["25", "14", "3"], "time": [3207, 4686, 6270]}, "edge": {"target": [], "time": []}}, "mouseover": {"state": {"target": ["24", "25", "31", "22", "14", "3", "0", "24", "25", "26", "27", "29", "24"], "time": [2688, 2858, 3352, 3972, 4111, 5800, 6549, 9189, 9225, 9300, 9504, 11206, 13772]}, "edge": {"target": [], "time": []}}, "mouseout": {"state": {"target": ["0", "24", "25", "31", "22", "14", "3", "0", "24", "25", "26", "27", "29", "24"], "time": [2606, 2782, 3345, 3466, 4036, 4923, 6542, 6598, 9223, 9292, 9431, 9872, 13730, 13825]}, "edge": {"target": [], "time": []}}}, "displayed_time": "19.21", "trialTime": 22618, "trial_type": "mouselab-mdp", "trial_index": 28, "time_elapsed": 1055070, "internal_node_id": "0.0-6.0-1.0-19.0"}}, {"uniqueid": "w73737219:a93072268", "current_trial": 29, "dateTime": 1693570449761, "trialdata": {"revealed_states": [], "clicked_states": ["25", "27", "29", "28", "32"], "num_clicks_accrued": [0, 0, 0, 0, 0, 0, 0, 0, 0, 0, 0, 0, 0], "stateRewards": ["", 1, -2, -8, -13, 4, 34, -84, -4, -49, 88, -70, -1, 3, -4, 10, -77, 13, -34, 15, -21, -16, 27, 1, -2, 8, -8, -6, 38, -26, 6, -15, 66, -3], "withholdReward": false, "trial_id": "mdp_trial_21", "block": "test", "trialIndex": 22, "score": 69.45, "costs": -9.55, "simulationMode": [null, null, null, null, null], "rewards": [1, -2, 8, 6, 66], "path": ["0", "0", "23", "24", "25", "30", "32"], "rt": [15881, 267, 359, 448, 485], "actions": ["left", "left", "left", "down", "down"], "actionTimes": [17280, 18126, 19057, 20078, 21138], "queries": {"click": {"state": {"target": ["25", "27", "29", "28", "32"], "time": [2564, 4539, 7554, 10511, 13969]}, "edge": {"target": [], "time": []}}, "mouseover": {"state": {"target": ["31", "25", "2", "1", "28", "27", "29", "28", "33", "32"], "time": [2117, 2159, 3677, 3814, 4112, 4314, 5794, 8966, 11854, 13600]}, "edge": {"target": [], "time": []}}, "mouseout": {"state": {"target": ["0", "31", "25", "2", "1", "28", "27", "29", "28", "33", "32"], "time": [715, 2153, 2798, 3740, 3897, 4148, 4727, 8126, 10843, 13532, 14273]}, "edge": {"target": [], "time": []}}}, "displayed_time": "21.72", "trialTime": 27010, "trial_type": "mouselab-mdp", "trial_index": 29, "time_elapsed": 1082837, "internal_node_id": "0.0-6.0-1.0-20.0"}}, {"uniqueid": "w73737219:a93072268", "current_trial": 30, "dateTime": 1693570480296, "trialdata": {"revealed_states": [], "clicked_states": ["25", "3", "14", "16", "18", "17"], "num_clicks_accrued": [0, 0, 0, 0, 0, 0, 0, 0, 0, 0, 0, 0, 0], "stateRewards": ["", -2, -3, 1, -7, 39, -67, 16, 5, -20, 73, 66, -1, 4, 5, -3, 23, -68, -87, -8, 3, -3, 17, 1, -4, -2, -13, -32, 34, 61, -5, -11, -18, 12], "withholdReward": false, "trial_id": "mdp_trial_22", "block": "test", "trialIndex": 23, "score": 18.7, "costs": -9.3, "simulationMode": [null, null, null, null, null], "rewards": [-1, 4, 5, -3, 23], "path": ["0", "0", "12", "13", "14", "15", "16"], "rt": [18705, 266, 323, 347, 435], "actions": ["right", "right", "right", "up", "up"], "actionTimes": [20051, 20899, 21800, 22724, 23731], "queries": {"click": {"state": {"target": ["25", "3", "14", "16", "18", "17"], "time": [2637, 4469, 6004, 7543, 13044, 16669]}, "edge": {"target": [], "time": []}}, "mouseover": {"state": {"target": ["24", "25", "1", "3", "22", "14", "13", "15", "16", "15", "18", "13", "17", "15", "18", "17", "17"], "time": [2000, 2057, 3570, 3978, 5547, 5588, 6985, 7062, 7329, 8269, 8616, 11928, 12057, 12524, 12617, 13955, 14304]}, "edge": {"target": [], "time": []}}, "mouseout": {"state": {"target": ["0", "24", "25", "1", "3", "22", "14", "13", "15", "16", "15", "18", "13", "17", "15", "18", "17", "17"], "time": [1381, 2047, 2880, 3648, 4577, 5584, 6248, 7054, 7129, 7792, 8474, 11741, 11971, 12124, 12560, 13278, 14098, 16787]}, "edge": {"target": [], "time": []}}}, "displayed_time": "24.30", "trialTime": 29756, "trial_type": "mouselab-mdp", "trial_index": 30, "time_elapsed": 1113372, "internal_node_id": "0.0-6.0-1.0-21.0"}}, {"uniqueid": "w73737219:a93072268", "current_trial": 31, "dateTime": 1693570518293, "trialdata": {"revealed_states": [], "clicked_states": ["25", "3", "9", "11", "10", "5", "7", "6"], "num_clicks_accrued": [0, 0, 0, 0, 0, 0, 0, 0, 0, 0, 0, 0, 0], "stateRewards": ["", -1, -1, 7, -15, -43, -21, -84, -9, -45, -66, 2, 1, -2, 2, 8, -27, 44, -52, -5, -84, 11, 53, 1, 4, -4, 16, 83, -82, -15, -16, 68, -43, 81], "withholdReward": false, "trial_id": "mdp_trial_23", "block": "test", "trialIndex": 24, "score": -16.8, "costs": -14.8, "simulationMode": [null, null, null, null, null], "rewards": [-1, -1, 7, -9, 2], "path": ["0", "0", "1", "2", "3", "8", "11"], "rt": [25480, 231, 251, 353, 291], "actions": ["up", "up", "up", "left", "left"], "actionTimes": [26867, 27680, 28509, 29437, 30299], "queries": {"click": {"state": {"target": ["25", "3", "9", "11", "10", "5", "7", "6"], "time": [2555, 4255, 6183, 9597, 13224, 16507, 20116, 23450]}, "edge": {"target": [], "time": []}}, "mouseover": {"state": {"target": ["31", "25", "2", "3", "1", "10", "9", "11", "10", "5", "7", "6"], "time": [2053, 2184, 3466, 3682, 5466, 5513, 5881, 7368, 9980, 13880, 17619, 20634]}, "edge": {"target": [], "time": []}}, "mouseout": {"state": {"target": ["0", "31", "25", "2", "3", "1", "10", "9", "11", "10", "5", "7", "6"], "time": [767, 2084, 2857, 3536, 4364, 5501, 5571, 6487, 9904, 13539, 16811, 20423, 23814]}, "edge": {"target": [], "time": []}}}, "displayed_time": "30.87", "trialTime": 37169, "trial_type": "mouselab-mdp", "trial_index": 31, "time_elapsed": 1151369, "internal_node_id": "0.0-6.0-1.0-22.0"}}, {"uniqueid": "w73737219:a93072268", "current_trial": 32, "dateTime": 1693570541610, "trialdata": {"revealed_states": [], "clicked_states": ["25", "3", "14", "27", "16"], "num_clicks_accrued": [0, 0, 0, 0, 0, 0, 0, 0, 0, 0, 0, 0, 0], "stateRewards": ["", -2, -3, -5, 8, 27, 11, 43, -6, -24, -87, 69, -2, 1, 1, 9, 19, 48, -37, 9, -14, 45, 62, 1, 2, 1, 16, -81, -41, 22, 4, -6, -63, 47], "withholdReward": false, "trial_id": "mdp_trial_24", "block": "test", "trialIndex": 25, "score": 20.85, "costs": -7.15, "simulationMode": [null, null, null, null, null], "rewards": [-2, 1, 1, 9, 19], "path": ["0", "0", "12", "13", "14", "15", "16"], "rt": [13706, 105, 253, 370, 320], "actions": ["right", "right", "right", "up", "up"], "actionTimes": [15546, 16230, 17054, 18001, 18899], "queries": {"click": {"state": {"target": ["25", "3", "14", "27", "16"], "time": [2929, 4581, 5913, 8000, 11227]}, "edge": {"target": [], "time": []}}, "mouseover": {"state": {"target": ["31", "25", "1", "2", "3", "14", "31", "27", "23", "18", "16"], "time": [2463, 2586, 4033, 4115, 4179, 5554, 7442, 7660, 8248, 10657, 10972]}, "edge": {"target": [], "time": []}}, "mouseout": {"state": {"target": ["12", "0", "31", "25", "1", "2", "3", "14", "31", "27", "23", "18", "16"], "time": [951, 1875, 2496, 3162, 4108, 4171, 4815, 6212, 7482, 8239, 8301, 10729, 11464]}, "edge": {"target": [], "time": []}}}, "displayed_time": "19.47", "trialTime": 22535, "trial_type": "mouselab-mdp", "trial_index": 32, "time_elapsed": 1174686, "internal_node_id": "0.0-6.0-1.0-23.0"}}, {"uniqueid": "w73737219:a93072268", "current_trial": 33, "dateTime": 1693570569800, "trialdata": {"revealed_states": [], "clicked_states": ["25", "3", "14", "29", "27", "28"], "num_clicks_accrued": [0, 0, 0, 0, 0, 0, 0, 0, 0, 0, 0, 0, 0], "stateRewards": ["", -1, 3, -4, -14, 78, 67, 2, 13, -32, 28, 39, -2, 1, -4, -4, -4, -42, -86, 11, 64, -29, -32, -1, -4, 2, -7, 5, 68, -61, 2, -21, 85, 50], "withholdReward": false, "trial_id": "mdp_trial_25", "block": "test", "trialIndex": 26, "score": 48.7, "costs": -9.3, "simulationMode": [null, null, null, null, null], "rewards": [-1, -4, 2, -7, 68], "path": ["0", "0", "23", "24", "25", "26", "28"], "rt": [18378, 236, 246, 576, 284], "actions": ["left", "left", "left", "up", "right"], "actionTimes": [19569, 20327, 21156, 22315, 23172], "queries": {"click": {"state": {"target": ["25", "3", "14", "29", "27", "28"], "time": [2232, 4004, 5518, 7184, 10635, 14123]}, "edge": {"target": [], "time": []}}, "mouseover": {"state": {"target": ["24", "25", "2", "3", "14", "22", "33", "29", "26", "27", "28", "33", "33"], "time": [1804, 1970, 3701, 3835, 4919, 5700, 6507, 6882, 8033, 8174, 11083, 14500, 15525]}, "edge": {"target": [], "time": []}}, "mouseout": {"state": {"target": ["0", "24", "25", "2", "3", "14", "22", "33", "29", "26", "27", "28", "33", "33"], "time": [564, 1855, 2472, 3786, 4245, 5696, 5820, 6570, 7423, 8104, 10946, 14432, 14575, 17896]}, "edge": {"target": [], "time": []}}}, "displayed_time": "23.75", "trialTime": 27403, "trial_type": "mouselab-mdp", "trial_index": 33, "time_elapsed": 1202876, "internal_node_id": "0.0-6.0-1.0-24.0"}}, {"uniqueid": "w73737219:a93072268", "current_trial": 34, "dateTime": 1693570600676, "trialdata": {"revealed_states": [], "clicked_states": ["25", "14", "3", "27", "29", "28", "33"], "num_clicks_accrued": [0, 0, 0, 0, 0, 0, 0, 0, 0, 0, 0, 0, 0], "stateRewards": ["", 1, -3, -2, 14, 49, -40, -39, 2, 26, -61, 73, 1, -4, -8, 12, 79, 29, -65, -13, 55, -26, 27, -1, 3, 3, 9, -17, -60, -18, -8, 35, -88, 69], "withholdReward": false, "trial_id": "mdp_trial_26", "block": "test", "trialIndex": 27, "score": 54.55, "costs": -11.450000000000001, "simulationMode": [null, null, null, null, null], "rewards": [-1, 3, 3, -8, 69], "path": ["0", "0", "23", "24", "25", "30", "33"], "rt": [20136, 252, 314, 385, 566], "actions": ["left", "left", "left", "down", "left"], "actionTimes": [21816, 22586, 23479, 24434, 25574], "queries": {"click": {"state": {"target": ["25", "14", "3", "27", "29", "28", "33"], "time": [2988, 4346, 5662, 6979, 10456, 13868, 17244]}, "edge": {"target": [], "time": []}}, "mouseover": {"state": {"target": ["24", "25", "14", "1", "2", "3", "2", "1", "0", "26", "27", "29", "29", "28", "33", "32", "31"], "time": [2283, 2661, 3831, 5195, 5339, 5499, 5993, 6050, 6140, 6543, 6695, 7219, 8038, 11436, 14646, 17615, 18241]}, "edge": {"target": [], "time": []}}, "mouseout": {"state": {"target": ["0", "24", "25", "14", "1", "2", "3", "2", "1", "0", "26", "27", "29", "29", "28", "33", "32", "31"], "time": [2213, 2345, 3221, 4533, 5262, 5415, 5834, 6041, 6135, 6478, 6691, 7091, 7292, 10564, 14174, 17548, 17687, 26838]}, "edge": {"target": [], "time": []}}}, "displayed_time": "26.14", "trialTime": 30067, "trial_type": "mouselab-mdp", "trial_index": 34, "time_elapsed": 1233752, "internal_node_id": "0.0-6.0-1.0-25.0"}}, {"uniqueid": "w73737219:a93072268", "current_trial": 35, "dateTime": 1693570628011, "trialdata": {"revealed_states": [], "clicked_states": ["25", "14", "3", "33", "32", "31"], "num_clicks_accrued": [0, 0, 0, 0, 0, 0, 0, 0, 0, 0, 0, 0, 0], "stateRewards": ["", -2, 1, -5, 2, -68, 80, 33, 10, 67, -59, 20, -1, -3, 3, 14, 74, -2, 24, -16, 63, 80, 46, -1, 4, 6, 12, 83, -38, -43, -4, 43, 14, -79], "withholdReward": false, "trial_id": "mdp_trial_27", "block": "test", "trialIndex": 28, "score": 38.7, "costs": -9.3, "simulationMode": [null, null, null, null, null], "rewards": [-1, 4, 6, -4, 43], "path": ["0", "0", "23", "24", "25", "30", "31"], "rt": [17546, 327, 408, 381, 465], "actions": ["left", "left", "left", "down", "right"], "actionTimes": [18883, 19726, 20705, 21662, 22697], "queries": {"click": {"state": {"target": ["25", "14", "3", "33", "32", "31"], "time": [2367, 4121, 5872, 7201, 10690, 14235]}, "edge": {"target": [], "time": []}}, "mouseover": {"state": {"target": ["31", "24", "25", "14", "3", "30", "33", "30", "32", "31", "27"], "time": [1963, 1995, 2066, 3351, 5263, 6720, 7036, 7592, 8408, 11534, 15212]}, "edge": {"target": [], "time": []}}, "mouseout": {"state": {"target": ["0", "31", "24", "25", "14", "3", "30", "33", "30", "32", "31"], "time": [1374, 1991, 2059, 2479, 4304, 6109, 6784, 7388, 7655, 10925, 14540]}, "edge": {"target": [], "time": []}}}, "displayed_time": "23.27", "trialTime": 26562, "trial_type": "mouselab-mdp", "trial_index": 35, "time_elapsed": 1261087, "internal_node_id": "0.0-6.0-1.0-26.0"}}, {"uniqueid": "w73737219:a93072268", "current_trial": 36, "dateTime": 1693570655820, "trialdata": {"revealed_states": [], "clicked_states": ["25", "14", "3", "27", "33", "32"], "num_clicks_accrued": [0, 0, 0, 0, 0, 0, 0, 0, 0, 0, 0, 0, 0], "stateRewards": ["", -2, 3, -1, -9, 44, 48, -37, -3, 71, -39, 87, -1, 3, -4, 4, -21, 59, -15, -8, -1, 28, -38, 2, 4, 4, 8, -85, -72, -63, 14, 58, 63, -46], "withholdReward": false, "trial_id": "mdp_trial_28", "block": "test", "trialIndex": 29, "score": 77.7, "costs": -9.3, "simulationMode": [null, null, null, null, null], "rewards": [2, 4, 4, 14, 63], "path": ["0", "0", "23", "24", "25", "30", "32"], "rt": [17539, 172, 339, 432, 466], "actions": ["left", "left", "left", "down", "down"], "actionTimes": [19848, 20601, 21510, 22511, 23552], "queries": {"click": {"state": {"target": ["25", "14", "3", "27", "33", "32"], "time": [3415, 5193, 6734, 8036, 11982, 15348]}, "edge": {"target": [], "time": []}}, "mouseover": {"state": {"target": ["31", "25", "14", "2", "3", "26", "27", "33", "32", "33", "32", "29", "25", "31"], "time": [3029, 3125, 4952, 5970, 6181, 7574, 7791, 9220, 9355, 11682, 13226, 16993, 18778, 19042]}, "edge": {"target": [], "time": []}}, "mouseout": {"state": {"target": ["27", "23", "0", "31", "25", "14", "2", "3", "26", "27", "33", "32", "33", "32", "29", "25", "31"], "time": [null, 460, 2347, 3063, 3648, 5429, 6111, 6962, 7639, 8271, 9286, 11534, 12219, 16112, 18744, 18840, 19076]}, "edge": {"target": [], "time": []}}}, "displayed_time": "24.12", "trialTime": 26980, "trial_type": "mouselab-mdp", "trial_index": 36, "time_elapsed": 1288896, "internal_node_id": "0.0-6.0-1.0-27.0"}}, {"uniqueid": "w73737219:a93072268", "current_trial": 37, "dateTime": 1693570680546, "trialdata": {"revealed_states": [], "clicked_states": ["25", "14", "3", "9", "11"], "num_clicks_accrued": [0, 0, 0, 0, 0, 0, 0, 0, 0, 0, 0, 0, 0], "stateRewards": ["", 2, -3, 5, -14, -63, -9, -24, -11, -54, -43, 68, 2, -2, -4, 7, -64, 30, 47, 12, -74, 11, 86, 1, -3, 3, 10, -71, -42, -52, -1, -29, -16, 69], "withholdReward": false, "trial_id": "mdp_trial_29", "block": "test", "trialIndex": 30, "score": 53.85, "costs": -7.15, "simulationMode": [null, null, null, null, null], "rewards": [2, -3, 5, -11, 68], "path": ["0", "0", "1", "2", "3", "8", "11"], "rt": [14733, 176, 442, 275, 309], "actions": ["up", "up", "up", "left", "left"], "actionTimes": [16222, 16997, 18019, 18874, 19752], "queries": {"click": {"state": {"target": ["25", "14", "3", "9", "11"], "time": [2568, 4227, 5578, 7365, 10941]}, "edge": {"target": [], "time": []}}, "mouseover": {"state": {"target": ["25", "14", "14", "1", "3", "8", "9", "11", "10", "10"], "time": [2238, 3736, 4021, 5143, 5221, 6800, 6917, 8480, 11245, 11464]}, "edge": {"target": [], "time": []}}, "mouseout": {"state": {"target": ["0", "25", "14", "14", "1", "3", "8", "9", "11", "10"], "time": [1523, 2806, 3795, 4468, 5211, 5690, 6884, 7604, 11181, 11316]}, "edge": {"target": [], "time": []}}}, "displayed_time": "20.33", "trialTime": 23979, "trial_type": "mouselab-mdp", "trial_index": 37, "time_elapsed": 1313622, "internal_node_id": "0.0-6.0-1.0-28.0"}}, {"uniqueid": "w73737219:a93072268", "current_trial": 38, "dateTime": 1693570714625, "trialdata": {"revealed_states": [], "clicked_states": ["25", "3", "14", "16", "17", "18", "22", "21"], "num_clicks_accrued": [0, 0, 0, 0, 0, 0, 0, 0, 0, 0, 0, 0, 0], "stateRewards": ["", 2, -4, 1, -12, -59, -53, -74, 16, -88, -66, 66, 1, -2, 8, -9, -14, 22, 25, -1, -39, 47, -14, -1, -1, -2, 1, -4, 52, -26, 15, -7, 46, 43], "withholdReward": false, "trial_id": "mdp_trial_30", "block": "test", "trialIndex": 31, "score": 39.4, "costs": -13.600000000000001, "simulationMode": [null, null, null, null, null], "rewards": [1, -2, 8, -1, 47], "path": ["0", "0", "12", "13", "14", "19", "21"], "rt": [25168, 157, 296, 534, 378], "actions": ["right", "right", "right", "down", "down"], "actionTimes": [26398, 27145, 28016, 29123, 30077], "queries": {"click": {"state": {"target": ["25", "3", "14", "16", "17", "18", "22", "21"], "time": [2395, 3847, 5312, 7277, 10669, 14219, 17969, 21444]}, "edge": {"target": [], "time": []}}, "mouseover": {"state": {"target": ["23", "24", "25", "2", "3", "14", "22", "16", "17", "14", "13", "18", "22", "21", "20", "19"], "time": [1284, 1450, 2042, 3117, 3267, 5057, 6472, 6889, 9250, 11051, 11332, 11614, 14996, 18747, 22360, 25629]}, "edge": {"target": [], "time": []}}, "mouseout": {"state": {"target": ["10", "0", "23", "24", "25", "2", "3", "14", "22", "16", "17", "14", "13", "18", "22", "21", "20", "19"], "time": [175, 1269, 1444, 2010, 2639, 3192, 4024, 5544, 6508, 7519, 10912, 11115, 11400, 14529, 18279, 21684, 25626, 25660]}, "edge": {"target": [], "time": []}}}, "displayed_time": "30.65", "trialTime": 33354, "trial_type": "mouselab-mdp", "trial_index": 38, "time_elapsed": 1347701, "internal_node_id": "0.0-6.0-1.0-29.0"}}, {"uniqueid": "w73737219:a93072268", "current_trial": 39, "dateTime": 1693570753753, "trialdata": {"revealed_states": [], "clicked_states": ["25", "14", "3", "9", "11", "10", "5", "7", "6"], "num_clicks_accrued": [0, 0, 0, 0, 0, 0, 0, 0, 0, 0, 0, 0, 0], "stateRewards": ["", 1, -1, 4, 5, -32, 18, 20, 6, -88, -74, 9, -2, 1, -2, -14, 34, -77, -38, -1, 80, -36, 73, 2, 3, -8, 10, -48, -73, -71, -11, -22, 20, 54], "withholdReward": false, "trial_id": "mdp_trial_31", "block": "test", "trialIndex": 32, "score": 13.249999999999998, "costs": -15.750000000000002, "simulationMode": [null, null, null, null, null], "rewards": [1, -1, 4, 5, 20], "path": ["0", "0", "1", "2", "3", "4", "7"], "rt": [27755, 117, 302, 607, 546], "actions": ["up", "up", "up", "right", "down"], "actionTimes": [29543, 30214, 31111, 32284, 33414], "queries": {"click": {"state": {"target": ["25", "14", "3", "9", "11", "10", "5", "7", "6"], "time": [3005, 4191, 5399, 7215, 10645, 14028, 17794, 21229, 25315]}, "edge": {"target": [], "time": []}}, "mouseover": {"state": {"target": ["31", "25", "22", "14", "2", "3", "10", "9", "11", "10", "5", "7", "6"], "time": [2514, 2731, 3719, 3860, 4986, 5200, 6382, 6759, 7511, 11027, 14809, 18376, 21872]}, "edge": {"target": [], "time": []}}, "mouseout": {"state": {"target": ["0", "31", "25", "22", "14", "2", "3", "10", "9", "11", "10", "5", "5", "7", "6"], "time": [1146, 2617, 3240, 3787, 4451, 5132, 5510, 6445, 7505, 10955, 14270, 17905, 18104, 21530, 25623]}, "edge": {"target": [], "time": []}}}, "displayed_time": "33.99", "trialTime": 38354, "trial_type": "mouselab-mdp", "trial_index": 39, "time_elapsed": 1386829, "internal_node_id": "0.0-6.0-1.0-30.0"}}, {"uniqueid": "w73737219:a93072268", "current_trial": 40, "dateTime": 1693570807912, "trialdata": {"revealed_states": [], "clicked_states": ["25", "14", "3", "9", "11", "10", "5", "7", "6", "29", "27", "33", "32"], "num_clicks_accrued": [0, 0, 0, 0, 0, 0, 0, 0, 0, 0, 0, 0, 0], "stateRewards": ["", 1, 4, 7, -16, -84, -6, -46, -12, -7, -49, -26, -1, 2, -4, 2, 22, 37, -64, 1, 88, -13, -10, 1, -4, -2, 5, 2, -10, -34, 9, 66, 55, 38], "withholdReward": false, "trial_id": "mdp_trial_32", "block": "test", "trialIndex": 33, "score": 34.650000000000006, "costs": -24.349999999999998, "simulationMode": [null, null, null, null, null], "rewards": [1, -4, -2, 9, 55], "path": ["0", "0", "23", "24", "25", "30", "32"], "rt": [43303, 171, 241, 216, 400], "actions": ["left", "left", "left", "down", "down"], "actionTimes": [44631, 45319, 46140, 46933, 47904], "queries": {"click": {"state": {"target": ["25", "14", "3", "9", "11", "10", "5", "7", "6", "29", "27", "33", "32"], "time": [2451, 3723, 5372, 7023, 10391, 13739, 17143, 20523, 24132, 28410, 31915, 37065, 40394]}, "edge": {"target": [], "time": []}}, "mouseover": {"state": {"target": ["24", "25", "14", "3", "10", "8", "9", "11", "10", "10", "5", "7", "6", "29", "29", "27", "33", "32"], "time": [1989, 2284, 3307, 4855, 6366, 6534, 6651, 8050, 11007, 11560, 14875, 18473, 21513, 27908, 28277, 29609, 32706, 38234]}, "edge": {"target": [], "time": []}}, "mouseout": {"state": {"target": ["0", "24", "25", "14", "3", "10", "8", "9", "11", "10", "10", "5", "7", "6", "29", "29", "27", "29", "33", "32"], "time": [1941, 2052, 2685, 3839, 5614, 6441, 6587, 7298, 10860, 11236, 14079, 17271, 20834, 24434, 27940, 28658, 32154, 32229, 37431, 40691]}, "edge": {"target": [], "time": []}}}, "displayed_time": "48.48", "trialTime": 53301, "trial_type": "mouselab-mdp", "trial_index": 40, "time_elapsed": 1440987, "internal_node_id": "0.0-6.0-1.0-31.0"}}, {"uniqueid": "w73737219:a93072268", "current_trial": 41, "dateTime": 1693570837436, "trialdata": {"revealed_states": [], "clicked_states": ["25", "14", "3", "32", "5"], "num_clicks_accrued": [0, 0, 0, 0, 0, 0, 0, 0, 0, 0, 0, 0, 0], "stateRewards": ["", 1, 1, 4, 11, 83, -66, 18, -16, -23, 5, 25, 1, -3, 1, -12, 18, 24, -86, -11, -64, 36, 40, 2, 1, -6, 13, 55, 29, 72, -2, 81, -72, -41], "withholdReward": false, "trial_id": "mdp_trial_33", "block": "test", "trialIndex": 34, "score": 92.85, "costs": -7.15, "simulationMode": [null, null, null, null, null], "rewards": [1, 1, 4, 11, 83], "path": ["0", "0", "1", "2", "3", "4", "5"], "rt": [19804, 120, 177, 120, 366], "actions": ["up", "up", "up", "right", "up"], "actionTimes": [21279, 21984, 22735, 23427, 24366], "queries": {"click": {"state": {"target": ["25", "14", "3", "32", "5"], "time": [4366, 6022, 7776, 10674, 14102]}, "edge": {"target": [], "time": []}}, "mouseover": {"state": {"target": ["0", "23", "25", "25", "14", "0", "3", "0", "31", "25", "32", "9", "9", "5", "5", "22", "21", "20", "21"], "time": [1701, 2395, 2514, 4045, 5468, 6863, 7257, 9071, 9457, 10157, 10337, 11772, 12058, 12858, 13204, 14467, 15155, 15503, 16303]}, "edge": {"target": [], "time": []}}, "mouseout": {"state": {"target": ["0", "0", "23", "25", "25", "14", "0", "3", "0", "31", "25", "32", "9", "9", "5", "5", "22", "21", "20", "21"], "time": [1522, 2348, 2451, 2978, 5063, 6322, 6926, 7945, 9136, 9990, 10192, 10980, 11918, 12848, 12915, 14407, 15014, 15225, 15969, 20161]}, "edge": {"target": [], "time": []}}}, "displayed_time": "24.94", "trialTime": 28624, "trial_type": "mouselab-mdp", "trial_index": 41, "time_elapsed": 1470512, "internal_node_id": "0.0-6.0-1.0-32.0"}}, {"uniqueid": "w73737219:a93072268", "current_trial": 42, "dateTime": 1693570857978, "trialdata": {"revealed_states": [], "clicked_states": ["25", "3", "14", "5"], "num_clicks_accrued": [0, 0, 0, 0, 0, 0, 0, 0, 0, 0, 0, 0, 0], "stateRewards": ["", -1, 1, 6, -6, 70, 66, 67, -16, -75, -35, 37, -1, 4, 4, -6, 47, -9, 63, 15, 21, -63, 13, 1, 3, -6, 10, 79, -29, 18, -15, 9, -67, -19], "withholdReward": false, "trial_id": "mdp_trial_34", "block": "test", "trialIndex": 35, "score": 65, "costs": -5, "simulationMode": [null, null, null, null, null], "rewards": [-1, 1, 6, -6, 70], "path": ["0", "0", "1", "2", "3", "4", "5"], "rt": [11292, 114, 307, 206, 260], "actions": ["up", "up", "up", "right", "up"], "actionTimes": [12836, 13530, 14349, 15130, 15968], "queries": {"click": {"state": {"target": ["25", "3", "14", "5"], "time": [3070, 4452, 6761, 8198]}, "edge": {"target": [], "time": []}}, "mouseover": {"state": {"target": ["25", "3", "2", "22", "14", "18", "14", "20", "14", "5", "11"], "time": [2866, 4176, 4636, 5384, 5696, 5798, 5959, 6164, 6493, 7734, 9373]}, "edge": {"target": [], "time": []}}, "mouseout": {"state": {"target": ["0", "25", "3", "2", "22", "14", "18", "14", "20", "14", "5"], "time": [1587, 3304, 4634, 4760, 5453, 5729, 5863, 5996, 6328, 6997, 8310]}, "edge": {"target": [], "time": []}}}, "displayed_time": "16.77", "trialTime": 19766, "trial_type": "mouselab-mdp", "trial_index": 42, "time_elapsed": 1491054, "internal_node_id": "0.0-6.0-1.0-33.0"}}, {"uniqueid": "w73737219:a93072268", "current_trial": 43, "dateTime": 1693570899569, "trialdata": {"revealed_states": [], "clicked_states": ["25", "3", "14", "32", "5", "9", "11", "6", "21", "20"], "num_clicks_accrued": [0, 0, 0, 0, 0, 0, 0, 0, 0, 0, 0, 0, 0], "stateRewards": ["", -2, 2, -5, -6, 10, -66, -58, -10, -11, -63, -70, -1, -4, -5, 7, 66, -64, -43, -3, 45, -37, 4, -2, -2, -6, -4, -30, 33, 43, 15, -32, -65, -59], "withholdReward": false, "trial_id": "mdp_trial_35", "block": "test", "trialIndex": 36, "score": 14.099999999999998, "costs": -17.900000000000002, "simulationMode": [null, null, null, null, null], "rewards": [-1, -4, -5, -3, 45], "path": ["0", "0", "12", "13", "14", "19", "20"], "rt": [30249, 51, 184, 959, 425], "actions": ["right", "right", "right", "down", "right"], "actionTimes": [32028, 32665, 33404, 34930, 35930], "queries": {"click": {"state": {"target": ["25", "3", "14", "32", "5", "9", "11", "6", "21", "20"], "time": [2939, 4219, 5419, 6904, 10384, 13951, 17448, 20803, 24307, 27429]}, "edge": {"target": [], "time": []}}, "mouseover": {"state": {"target": ["24", "25", "7", "4", "3", "22", "14", "32", "3", "5", "9", "11", "6", "21", "20", "17"], "time": [2404, 2675, 3181, 3331, 3554, 4930, 5158, 6586, 7619, 7757, 11100, 14396, 18096, 21581, 24752, 29213]}, "edge": {"target": [], "time": []}}, "mouseout": {"state": {"target": ["11", "28", "23", "0", "24", "25", "7", "4", "3", "22", "14", "32", "3", "5", "9", "11", "6", "21", "20"], "time": [191, 591, 655, 1819, 2440, 3179, 3250, 3408, 4329, 5003, 5668, 7146, 7689, 10625, 14259, 17748, 21040, 24483, 28202]}, "edge": {"target": [], "time": []}}}, "displayed_time": "36.51", "trialTime": 40818, "trial_type": "mouselab-mdp", "trial_index": 43, "time_elapsed": 1532645, "internal_node_id": "0.0-6.0-1.0-34.0"}}, {"uniqueid": "w73737219:a93072268", "current_trial": 44, "dateTime": 1693570934492, "trialdata": {"revealed_states": [], "clicked_states": ["25", "3", "14", "10", "11", "9", "5", "6"], "num_clicks_accrued": [0, 0, 0, 0, 0, 0, 0, 0, 0, 0, 0, 0, 0], "stateRewards": ["", 2, -3, 5, 11, -79, 54, 11, -9, -78, 33, 22, -2, -1, 2, 14, 43, 34, 1, 10, 49, -65, 39, -1, 1, -1, 3, -16, -2, 11, 2, 12, 48, -65], "withholdReward": false, "trial_id": "mdp_trial_36", "block": "test", "trialIndex": 37, "score": 55.4, "costs": -13.600000000000001, "simulationMode": [null, null, null, null, null], "rewards": [2, -3, 5, 11, 54], "path": ["0", "0", "1", "2", "3", "4", "6"], "rt": [24407, 140, 318, 196, 237], "actions": ["up", "up", "up", "right", "right"], "actionTimes": [26308, 27029, 27928, 28701, 29514], "queries": {"click": {"state": {"target": ["25", "3", "14", "10", "11", "9", "5", "6"], "time": [2891, 4235, 5705, 6986, 10689, 14050, 17784, 21477]}, "edge": {"target": [], "time": []}}, "mouseover": {"state": {"target": ["24", "25", "3", "14", "10", "24", "28", "11", "9", "9", "5", "6", "7"], "time": [2547, 2718, 3953, 5345, 6822, 7699, 7771, 8465, 10944, 11222, 14956, 19156, 22326]}, "edge": {"target": [], "time": []}}, "mouseout": {"state": {"target": ["17", "18", "24", "25", "3", "14", "10", "24", "28", "11", "9", "9", "5", "6", "7"], "time": [615, 683, 2584, 3125, 4477, 5946, 7176, 7763, 7840, 10932, 10998, 14888, 18552, 21852, 31735]}, "edge": {"target": [], "time": []}}}, "displayed_time": "30.09", "trialTime": 34125, "trial_type": "mouselab-mdp", "trial_index": 44, "time_elapsed": 1567568, "internal_node_id": "0.0-6.0-1.0-35.0"}}, {"uniqueid": "w73737219:a93072268", "current_trial": 45, "dateTime": 1693570982116, "trialdata": {"revealed_states": [], "clicked_states": ["25", "3", "7", "5", "6", "11", "9", "10", "29", "27", "32"], "num_clicks_accrued": [0, 0, 0, 0, 0, 0, 0, 0, 0, 0, 0, 0, 0], "stateRewards": ["", -1, 3, 8, 9, -53, 20, -84, 2, -28, -62, -31, -1, -2, -7, 2, 51, 58, 45, -4, -17, -41, 36, 2, -2, -7, -15, 29, -54, -37, -16, -43, 65, -17], "withholdReward": false, "trial_id": "mdp_trial_37", "block": "test", "trialIndex": 38, "score": 20.75, "costs": -21.249999999999996, "simulationMode": [null, null, null, null, null], "rewards": [2, -2, -7, -16, 65], "path": ["0", "0", "23", "24", "25", "30", "32"], "rt": [38946, 68, 292, 360, 360], "actions": ["left", "left", "left", "down", "down"], "actionTimes": [40398, 41051, 41877, 42811, 43747], "queries": {"click": {"state": {"target": ["25", "3", "7", "5", "6", "11", "9", "10", "29", "27", "32"], "time": [2513, 3651, 5708, 9133, 13265, 16806, 20307, 23885, 27818, 31595, 35690]}, "edge": {"target": [], "time": []}}, "mouseover": {"state": {"target": ["25", "2", "3", "8", "9", "7", "16", "5", "6", "27", "11", "28", "9", "10", "10", "26", "29", "27", "27", "10", "32"], "time": [2299, 3284, 3494, 4797, 5145, 5362, 6019, 7179, 9980, 13577, 14064, 17118, 17791, 20749, 21232, 27357, 27605, 28668, 29077, 32037, 34402]}, "edge": {"target": [], "time": []}}, "mouseout": {"state": {"target": ["1", "25", "2", "3", "8", "9", "7", "16", "5", "6", "27", "11", "28", "9", "10", "10", "26", "29", "27", "27", "10", "32"], "time": [579, 2746, 3426, 3920, 4865, 5178, 5946, 6664, 9244, 13507, 13922, 17111, 17452, 20680, 20817, 24059, 27390, 28125, 28873, 31969, 33315, 36004]}, "edge": {"target": [], "time": []}}}, "displayed_time": "44.32", "trialTime": 46832, "trial_type": "mouselab-mdp", "trial_index": 45, "time_elapsed": 1615192, "internal_node_id": "0.0-6.0-1.0-36.0"}}, {"uniqueid": "w73737219:a93072268", "current_trial": 46, "dateTime": 1693571006134, "trialdata": {"revealed_states": [], "clicked_states": ["25", "27", "32", "33"], "num_clicks_accrued": [0, 0, 0, 0, 0, 0, 0, 0, 0, 0, 0, 0, 0], "stateRewards": ["", 2, 4, -3, 16, -58, 30, -35, 11, -60, 47, 27, -2, -1, -7, -16, 23, -70, 68, -10, -65, -43, -34, -2, 1, 7, 9, -63, 34, -31, -8, -12, -86, 59], "withholdReward": false, "trial_id": "mdp_trial_38", "block": "test", "trialIndex": 39, "score": 49.6, "costs": -7.4, "simulationMode": [null, null, null, null, null], "rewards": [-2, 1, 7, -8, 59], "path": ["0", "0", "23", "24", "25", "30", "33"], "rt": [14990, 144, 187, 263, 1250], "actions": ["left", "left", "left", "down", "left"], "actionTimes": [16374, 17089, 17859, 18700, 20519], "queries": {"click": {"state": {"target": ["25", "27", "32", "33"], "time": [2412, 4573, 8055, 11761]}, "edge": {"target": [], "time": []}}, "mouseover": {"state": {"target": ["25", "2", "24", "26", "27", "32", "33", "29", "29"], "time": [2096, 3196, 3993, 4088, 4309, 5691, 8482, 12149, 12577]}, "edge": {"target": [], "time": []}}, "mouseout": {"state": {"target": ["0", "25", "2", "24", "26", "27", "32", "33", "29"], "time": [610, 2657, 3596, 4026, 4210, 4814, 8339, 12085, 12302]}, "edge": {"target": [], "time": []}}}, "displayed_time": "21.11", "trialTime": 23274, "trial_type": "mouselab-mdp", "trial_index": 46, "time_elapsed": 1639210, "internal_node_id": "0.0-6.0-1.0-37.0"}}, {"uniqueid": "w73737219:a93072268", "current_trial": 47, "dateTime": 1693571025806, "trialdata": {"revealed_states": [], "clicked_states": ["25", "32"], "num_clicks_accrued": [0, 0, 0, 0, 0, 0, 0, 0, 0, 0, 0, 0, 0], "stateRewards": ["", -2, -1, -5, 10, -36, -70, 68, -9, 86, 71, -10, 2, -4, 7, -7, 66, 44, -66, -13, -69, 43, 15, -2, 2, 6, -13, 62, 57, 50, -10, -69, 42, -72], "withholdReward": false, "trial_id": "mdp_trial_39", "block": "test", "trialIndex": 40, "score": 34.9, "costs": -3.0999999999999996, "simulationMode": [null, null, null, null, null], "rewards": [-2, 2, 6, -10, 42], "path": ["0", "0", "23", "24", "25", "30", "32"], "rt": [7081, 118, 283, 184, 346], "actions": ["left", "left", "left", "down", "down"], "actionTimes": [8540, 9235, 10100, 10854, 11770], "queries": {"click": {"state": {"target": ["25", "32"], "time": [2401, 4065]}, "edge": {"target": [], "time": []}}, "mouseover": {"state": {"target": ["25", "30", "32"], "time": [2076, 3676, 3809]}, "edge": {"target": [], "time": []}}, "mouseout": {"state": {"target": ["29", "23", "0", "25", "30", "32"], "time": [352, 491, 1533, 2642, 3731, 4296]}, "edge": {"target": [], "time": []}}}, "displayed_time": "16.51", "trialTime": 18836, "trial_type": "mouselab-mdp", "trial_index": 47, "time_elapsed": 1658882, "internal_node_id": "0.0-6.0-1.0-38.0"}}, {"uniqueid": "w73737219:a93072268", "current_trial": 48, "dateTime": 1693571046269, "trialdata": {"revealed_states": [], "clicked_states": ["25", "33"], "num_clicks_accrued": [0, 0, 0, 0, 0, 0, 0, 0, 0, 0, 0, 0, 0], "stateRewards": ["", 2, 3, -2, -8, -8, -41, 74, 15, -23, -80, 1, 1, 3, 3, -15, -63, -78, 67, 13, 75, -41, 86, 2, -2, 6, -3, -8, -49, 50, -6, 83, 74, 80], "withholdReward": false, "trial_id": "mdp_trial_40", "block": "test", "trialIndex": 41, "score": 76.9, "costs": -3.0999999999999996, "simulationMode": [null, null, null, null, null], "rewards": [2, -2, 6, -6, 80], "path": ["0", "0", "23", "24", "25", "30", "33"], "rt": [7745, 820, 626, 475, 1157], "actions": ["left", "left", "left", "down", "left"], "actionTimes": [9870, 11222, 12405, 13454, 15185], "queries": {"click": {"state": {"target": ["25", "33"], "time": [3140, 4843]}, "edge": {"target": [], "time": []}}, "mouseover": {"state": {"target": ["31", "25", "32", "33", "31"], "time": [2709, 2809, 4407, 4513, 7336]}, "edge": {"target": [], "time": []}}, "mouseout": {"state": {"target": ["0", "31", "25", "32", "33", "31"], "time": [2274, 2749, 3377, 4444, 5081, 17528]}, "edge": {"target": [], "time": []}}}, "displayed_time": "17.10", "trialTime": 19433, "trial_type": "mouselab-mdp", "trial_index": 48, "time_elapsed": 1679345, "internal_node_id": "0.0-6.0-1.0-39.0"}}, {"uniqueid": "w73737219:a93072268", "current_trial": 49, "dateTime": 1693571149177, "trialdata": {"rt": 102887, "response": {"Q0": "$-2 to $2", "Q1": "$-16 to $16", "Q2": "$-88 to $88", "Q3": "The cost for clicking on nodes varied between nodes.", "Q4": "Very motivated"}, "question_order": [0, 1, 2, 3, 4], "trial_id": "final_quiz_control", "trial_type": "survey-multi-choice", "trial_index": 49, "time_elapsed": 1782253, "internal_node_id": "0.0-6.0-2.0"}}, {"uniqueid": "w73737219:a93072268", "current_trial": 50, "dateTime": 1693571302257, "trialdata": {"rt": 153032, "response": {"Q0": "Chosing the end and middle nodes to inspect and chosing the path with the highest green number ", "Q1": "Yes I started inspecting more nodes", "Q2": "The diffuculty was inspecting and finding the highest nodes while being mindful of the cost of inspecting each one"}, "trial_id": "self_report_control", "trial_type": "survey-text", "trial_index": 50, "time_elapsed": 1935333, "internal_node_id": "0.0-6.0-3.0"}}, {"uniqueid": "w73737219:a93072268", "current_trial": 51, "dateTime": 1693571357930, "trialdata": {"rt": 55665, "response": {"Q0": "Disagree", "Q1": "Disagree", "Q2": "Agree", "Q3": "Agree", "Q4": "Disagree", "Q5": "Strongly agree", "Q6": "Strongly disagree"}, "question_order": [0, 1, 2, 3, 4, 5, 6], "trial_id": "self_report_2", "trial_type": "survey-multi-choice", "trial_index": 51, "time_elapsed": 1991005, "internal_node_id": "0.0-6.0-4.0"}}, {"uniqueid": "w73737219:a93072268", "current_trial": 52, "dateTime": 1693571386585, "trialdata": {"rt": 28644, "response": {"gender": "female", "age": "55", "colorblind": "0", "effort": "0"}, "trial_type": "survey-html-form", "trial_index": 52, "time_elapsed": 2019661, "internal_node_id": "0.0-6.0-5.0"}}, {"uniqueid": "w73737219:a93072268", "current_trial": 53, "dateTime": 1693571418506, "trialdata": {"rt": 31910, "response": {"Q0": "No", "Q1": "No", "Q2": "Interesting study"}, "trial_type": "survey-text", "trial_index": 53, "time_elapsed": 2051582, "internal_node_id": "0.0-6.0-6.0"}}, {"uniqueid": "w73737219:a93072268", "current_trial": 54, "dateTime": 1693571472438, "trialdata": {"rt": 53927, "stimulus": "<h1>Completion Code Instructions (1/2)</h1>\n<br><br><br><br>\nYou have reached the end of the experiment! The completion code consists of two parts: (1) a code with 2 characters (2) a code with 6 characters. On this page, you will receive the second part of the code. The first part of the completion code will be on the next page.\n<br><br>\nThe second part of your completion code is: <b>EWEK22</b>\n<br><br>\nPlease note this down. Then, press 'Finish HIT' in order to find the first part of your completion code. Once the data has been saved, you will receive this code either in this window or in the original browser window where you started the experiment.\n", "response": 0, "trial_type": "html-button-response", "trial_index": 54, "time_elapsed": 2105514, "internal_node_id": "0.0-6.0-7.0"}}, {"uniqueid": "w73737219:a93072268", "current_trial": 55, "dateTime": 1693571473462, "trialdata": {"success": true, "trial_type": "fullscreen", "trial_index": 55, "time_elapsed": 2106537, "internal_node_id": "0.0-7.0"}}], "questiondata": {"params": {"CODE": "C6DMOQA6", "MIN_TIME": 14, "inspectCost": 1, "startTime": "Fri Sep 01 2023 12:56:06 GMT+0100 (British Summer Time)", "bonusRate": 0.002, "variance": "1_2_4_8_44", "branching": "31123"}, "final_score": 1006.55}, "eventdata": [{"eventtype": "initialized", "value": null, "timestamp": 1693569365871, "interval": 0}, {"eventtype": "window_resize", "value": [1366, 664], "timestamp": 1693569365871, "interval": 0}, {"eventtype": "focus", "value": "on", "timestamp": 1693569365995, "interval": 124}, {"eventtype": "window_resize", "value": [1366, 664], "timestamp": 1693569366206, "interval": 211}, {"eventtype": "window_resize", "value": [1366, 768], "timestamp": 1693569371398, "interval": 5192}, {"eventtype": "window_resize", "value": [1366, 664], "timestamp": 1693571472957, "interval": 2101559}], "useragent": "Mozilla/5.0 (Windows NT 10.0; Win64; x64; rv:109.0) Gecko/20100101 Firefox/117.0", "mode": "live", "id": "w73737219:a93072268", "status": "user data saved", "Beginhit": "2023-09-01 11:56:04.531142", "Beginexp": "2023-09-01 11:56:12.118173", "Endhit": "2023-09-01 12:31:14.405978", "psiturkStatus": 3, "browser": "<redacted>", "platform": "windows", "language": "en-GB"}