{"condition": 1, "counterbalance": 0, "assignmentId": "a61158963", "workerId": "w33634672", "hitId": "h98880174", "currenttrial": 7, "bonus": 0, "data": [{"uniqueid": "w33634672:a61158963", "current_trial": 0, "dateTime": 1693388845142, "trialdata": {"success": true, "trial_type": "fullscreen", "trial_index": 0, "time_elapsed": 5755, "internal_node_id": "0.0-0.0"}}, {"uniqueid": "w33634672:a61158963", "current_trial": 1, "dateTime": 1693388847942, "trialdata": {"view_history": [{"page_index": 0, "viewing_time": 2794}], "rt": 2794, "trial_id": "exp_instructions_misaligned", "trial_type": "instructions", "trial_index": 1, "time_elapsed": 8555, "internal_node_id": "0.0-1.0"}}, {"uniqueid": "w33634672:a61158963", "current_trial": 2, "dateTime": 1693389055794, "trialdata": {"view_history": [{"page_index": 0, "viewing_time": 70841}, {"page_index": 1, "viewing_time": 103964}, {"page_index": 2, "viewing_time": 8623}, {"page_index": 3, "viewing_time": 24424}], "rt": 207853, "trial_id": "mouselab_instructions_1_misaligned", "trial_type": "instructions", "trial_index": 2, "time_elapsed": 216407, "internal_node_id": "0.0-2.0-1.0"}}, {"uniqueid": "w33634672:a61158963", "current_trial": 3, "dateTime": 1693389173761, "trialdata": {"revealed_states": [], "clicked_states": ["23", "24", "25", "2", "3", "4", "12", "13", "14", "19", "22", "21", "32", "30", "31", "26", "28", "27", "29", "11", "10", "8", "9", "6", "7", "5", "16", "15", "17", "18", "20", "1", "33"], "num_clicks_accrued": [0, 0, 0, 0, 0, 0, 0, 0, 0, 0, 0, 0, 0], "stateRewards": ["", 10, -10, -10, -10, -10, 10, 10, 10, 10, -10, -10, 10, 10, 10, -10, -10, 10, 10, -10, 10, -10, -10, 10, 10, -10, -10, -10, -10, 10, -10, -10, 10, -10], "withholdReward": false, "trial_id": "practice_1", "block": "test", "trialIndex": 0, "score": -3, "costs": -16.5, "simulationMode": [null, null, null, null, null], "rewards": [10, 10, 10, -10, -10], "path": ["0", "0", "12", "13", "14", "15", "16"], "rt": [99872, 3703, 3839, 1987, 196], "actions": ["right", "right", "right", "up", "up"], "actionTimes": [101664, 105864, 110214, 112713, 113404], "queries": {"click": {"state": {"target": ["23", "24", "25", "2", "3", "4", "12", "13", "14", "19", "22", "21", "32", "30", "31", "26", "28", "27", "29", "11", "10", "8", "9", "6", "7", "5", "16", "15", "17", "18", "20", "1", "33"], "time": [5141, 10237, 14126, 21099, 23816, 26730, 33481, 35305, 37089, 39398, 43033, 44330, 45839, 47312, 49145, 53650, 55697, 57560, 59684, 62680, 64159, 67448, 69033, 71696, 72894, 74064, 75271, 76606, 78025, 79598, 81072, 82444, 83680]}, "edge": {"target": [], "time": []}}, "mouseover": {"state": {"target": ["0", "12", "13", "14", "13", "12", "13", "13", "23", "24", "12", "0", "23", "24", "23", "25", "24", "13", "14", "14", "15", "15", "13", "12", "1", "2", "16", "3", "4", "6", "6", "4", "6", "17", "14", "13", "12", "13", "12", "0", "0", "0", "12", "13", "14", "19", "20", "22", "21", "20", "19", "32", "33", "30", "31", "31", "25", "33", "26", "10", "28", "28", "27", "29", "26", "27", "10", "11", "8", "10", "8", "9", "3", "4", "16", "6", "7", "4", "5", "4", "16", "15", "17", "18", "20", "1", "13", "33", "21"], "time": [1879, 2066, 2180, 2265, 2981, 3013, 3915, 4246, 4582, 5564, 8098, 8548, 9648, 9763, 13147, 13364, 14513, 14696, 14716, 19031, 19181, 19697, 20014, 20163, 20747, 20896, 22196, 22798, 24395, 24495, 26180, 26363, 27164, 29844, 30680, 30814, 30964, 31163, 31396, 31727, 31964, 32480, 33196, 35127, 36796, 38763, 39845, 42563, 44027, 44711, 45162, 45578, 46477, 46877, 47594, 48895, 50712, 52795, 53329, 54477, 55278, 55545, 57193, 59474, 61276, 61608, 61826, 62360, 63058, 63225, 64592, 68560, 69591, 69641, 69757, 71526, 72090, 73257, 73625, 74374, 75074, 75542, 76991, 78807, 80691, 82292, 82806, 83506, 84606]}, "edge": {"target": [], "time": []}}, "mouseout": {"state": {"target": ["19", "14", "13", "12", "12", "13", "14", "14", "13", "12", "0", "12", "13", "14", "13", "12", "13", "13", "23", "24", "23", "23", "23", "12", "0", "23", "24", "23", "24", "25", "25", "24", "13", "14", "14", "15", "15", "13", "12", "1", "2", "16", "3", "4", "6", "6", "4", "6", "17", "14", "13", "12", "13", "12", "0", "0", "0", "12", "13", "14", "19", "20", "22", "21", "20", "19", "22", "32", "33", "30", "31", "30", "31", "31", "25", "33", "26", "10", "28", "28", "27", "29", "26", "27", "10", "11", "8", "10", "8", "9", "3", "4", "16", "6", "7", "4", "5", "4", "16", "15", "17", "15", "18", "20", "1", "13", "33", "21", "21", "21", "21", "13", "13", "13"], "time": [80, 265, 298, 415, 815, 982, 1065, 1165, 1197, 1315, 1964, 2132, 2231, 2315, 2997, 3064, 3965, 4281, 5347, 6982, 7031, 7232, 7615, 8480, 8898, 9748, 10596, 13162, 13249, 14227, 14463, 14531, 14713, 14731, 19097, 19431, 19781, 20097, 20662, 20762, 21678, 22247, 24262, 24462, 24529, 26297, 27113, 27245, 29914, 30762, 30880, 31103, 31361, 31429, 31761, 31996, 33146, 34178, 35746, 37445, 39828, 39928, 43461, 44545, 45128, 45178, 45195, 46061, 46828, 47461, 48329, 48762, 49543, 50579, 52312, 52962, 54060, 54493, 55412, 56158, 57942, 60027, 61343, 61624, 62076, 62925, 63091, 64282, 67957, 69424, 69624, 69657, 69824, 72024, 73158, 73324, 74307, 74390, 75492, 76908, 78441, 78657, 79940, 81324, 82657, 82874, 83873, 84640, 102973, 103239, 104724, 107740, 109057, 110222]}, "edge": {"target": [], "time": []}}}, "displayed_time": "113.91", "trialTime": 117388, "trial_type": "mouselab-mdp", "trial_index": 3, "time_elapsed": 334373, "internal_node_id": "0.0-2.0-2.0-0.0"}}, {"uniqueid": "w33634672:a61158963", "current_trial": 4, "dateTime": 1693389241293, "trialdata": {"revealed_states": [], "clicked_states": ["23", "24", "25", "26", "27", "12", "13", "14", "15", "16", "1", "2", "3", "28", "29", "30", "32", "19", "21"], "num_clicks_accrued": [0, 0, 0, 0, 0, 0, 0, 0, 0, 0, 0, 0, 0], "stateRewards": ["", -10, -10, -10, -10, -10, 10, -10, 10, 10, -10, -10, -10, -10, 10, -10, 10, 10, 10, -10, 10, 10, 10, -10, 10, 10, 10, -10, 10, -10, 10, 10, 10, 10], "withholdReward": false, "trial_id": "practice_2", "block": "test", "trialIndex": 1, "score": -16, "costs": -9.5, "simulationMode": [null, null, null, null, null], "rewards": [-10, -10, 10, -10, 10], "path": ["0", "0", "12", "13", "14", "19", "21"], "rt": [54242, 3055, 659, 372, 283], "actions": ["right", "right", "right", "down", "down"], "actionTimes": [56843, 60413, 61585, 62464, 63259], "queries": {"click": {"state": {"target": ["23", "24", "25", "26", "27", "12", "13", "14", "15", "16", "1", "2", "3", "28", "29", "30", "32", "19", "21"], "time": [6296, 8385, 10060, 11747, 13818, 17709, 19095, 20506, 21980, 23334, 26348, 27735, 29516, 34876, 38620, 40798, 42412, 47692, 49080]}, "edge": {"target": [], "time": []}}, "mouseover": {"state": {"target": ["0", "0", "23", "24", "25", "26", "28", "27", "28", "0", "0", "23", "28", "23", "0", "12", "12", "12", "13", "14", "15", "16", "17", "12", "0", "1", "2", "3", "7", "18", "25", "25", "24", "23", "23", "28", "28", "29", "26", "28", "24", "30", "30", "32", "23", "24", "25", "30", "22", "19", "20", "19", "21", "20"], "time": [4279, 5510, 6176, 8043, 9093, 11377, 13243, 13462, 14276, 14526, 16278, 16378, 16945, 17060, 17110, 17161, 17328, 17376, 18226, 19492, 21459, 22860, 25194, 25461, 25493, 25844, 26842, 29144, 30025, 31443, 33160, 33343, 33379, 33409, 34114, 34277, 34460, 38327, 38959, 38994, 40025, 40126, 40527, 41274, 44675, 44724, 44793, 45174, 45691, 45708, 47209, 47476, 48759, 51974]}, "edge": {"target": [], "time": []}}, "mouseout": {"state": {"target": ["12", "32", "22", "12", "0", "0", "0", "23", "24", "24", "25", "26", "28", "27", "27", "28", "0", "0", "23", "28", "23", "0", "12", "12", "12", "13", "14", "15", "16", "17", "12", "0", "1", "2", "3", "7", "18", "25", "25", "24", "23", "23", "28", "28", "29", "26", "28", "24", "30", "30", "32", "23", "24", "25", "30", "32", "22", "19", "20", "19", "21", "21", "20"], "time": [1111, 1845, 2078, 2196, 3160, 5079, 5993, 7010, 8505, 8927, 10175, 12259, 13312, 13953, 14209, 14326, 14659, 16310, 16460, 16996, 17076, 17144, 17192, 17343, 18176, 19410, 20878, 22078, 23792, 25227, 25492, 25509, 26609, 28708, 29926, 30275, 31545, 33192, 33377, 33408, 33442, 34176, 34310, 35242, 38925, 38992, 39026, 40057, 40142, 41174, 42424, 44708, 44758, 45026, 45326, 45476, 45707, 45724, 47260, 48158, 49167, 49374, 51990]}, "edge": {"target": [], "time": []}}}, "displayed_time": "63.76", "trialTime": 67409, "trial_type": "mouselab-mdp", "trial_index": 4, "time_elapsed": 401905, "internal_node_id": "0.0-2.0-2.0-1.0"}}, {"uniqueid": "w33634672:a61158963", "current_trial": 5, "dateTime": 1693389265106, "trialdata": {"view_history": [{"page_index": 0, "viewing_time": 11035}, {"page_index": 1, "viewing_time": 12775}], "rt": 23811, "trial_id": "mouselab_instructions_2_misaligned", "trial_type": "instructions", "trial_index": 5, "time_elapsed": 425719, "internal_node_id": "0.0-2.0-3.0"}}, {"uniqueid": "w33634672:a61158963", "current_trial": 6, "dateTime": 1693389321206, "trialdata": {"rt": 56097, "response": {"Q0": "The cost is always $2.", "Q1": "I will receive a $1 bonus if I perform well, otherwise I will receive no bonus.", "Q2": "No, the structure of the web will be different each time.", "Q3": "To finish the game in the shortest amount of time.", "Q4": "Only before moving the spider.", "Q5": "10 seconds"}, "question_order": [0, 1, 2, 3, 4, 5], "correct": {"Q0": "The cost for clicking on nodes may vary between nodes.", "Q1": "The better I perform the higher my bonus will be.", "Q2": "No, the amount of cash at each node of the web may be different each time.", "Q3": "To get the highest total score.", "Q4": "Only before moving the spider.", "Q5": "3 seconds"}, "trial_id": "mouselab_quiz_misaligned", "trial_type": "survey-multi-choice", "trial_index": 6, "time_elapsed": 481819, "internal_node_id": "0.0-2.0-4.0"}}], "questiondata": {"params": {"CODE": "C6DMOQA6", "MIN_TIME": 14, "inspectCost": 1, "startTime": "Wed Aug 30 2023 11:47:17 GMT+0200 (South Africa Standard Time)", "bonusRate": 0.002, "variance": "1_2_4_8_44", "branching": "31123"}}, "eventdata": [{"eventtype": "initialized", "value": null, "timestamp": 1693388836839, "interval": 0}, {"eventtype": "window_resize", "value": [1028, 744], "timestamp": 1693388836839, "interval": 0}, {"eventtype": "window_resize", "value": [1028, 744], "timestamp": 1693388837333, "interval": 494}, {"eventtype": "window_resize", "value": [1536, 864], "timestamp": 1693388844375, "interval": 7042}, {"eventtype": "focus", "value": "off", "timestamp": 1693388850036, "interval": 5661}, {"eventtype": "focus", "value": "on", "timestamp": 1693388851910, "interval": 1874}, {"eventtype": "focus", "value": "off", "timestamp": 1693388860701, "interval": 8791}, {"eventtype": "focus", "value": "on", "timestamp": 1693388895904, "interval": 35203}, {"eventtype": "focus", "value": "off", "timestamp": 1693388922849, "interval": 26945}, {"eventtype": "focus", "value": "on", "timestamp": 1693388958151, "interval": 35302}, {"eventtype": "focus", "value": "off", "timestamp": 1693388958151, "interval": 0}, {"eventtype": "focus", "value": "on", "timestamp": 1693388958157, "interval": 6}, {"eventtype": "window_resize", "value": [1028, 744], "timestamp": 1693388958359, "interval": 202}, {"eventtype": "focus", "value": "off", "timestamp": 1693389143444, "interval": 185085}, {"eventtype": "focus", "value": "on", "timestamp": 1693389146717, "interval": 3273}, {"eventtype": "window_resize", "value": [1022, 744], "timestamp": 1693389248900, "interval": 102183}, {"eventtype": "focus", "value": "off", "timestamp": 1693389327160, "interval": 78260}, {"eventtype": "focus", "value": "on", "timestamp": 1693389327161, "interval": 1}, {"eventtype": "focus", "value": "off", "timestamp": 1693389328636, "interval": 1475}, {"eventtype": "focus", "value": "on", "timestamp": 1693393050142, "interval": 3721506}, {"eventtype": "focus", "value": "off", "timestamp": 1693393054406, "interval": 4264}, {"eventtype": "focus", "value": "on", "timestamp": 1693393054409, "interval": 3}], "useragent": "Mozilla/5.0 (Windows NT 10.0; Win64; x64) AppleWebKit/537.36 (KHTML, like Gecko) Chrome/116.0.0.0 Safari/537.36", "mode": "live", "id": "w33634672:a61158963", "status": "user data saved", "Beginhit": "2023-08-30 09:47:14.138047", "Beginexp": "2023-08-30 09:47:25.886554", "Endhit": null, "psiturkStatus": 6, "browser": "<redacted>", "platform": "windows", "language": "en-ZA", "excludeReason": "quizfail"}