{"condition": 1, "counterbalance": 0, "assignmentId": "a63374786", "workerId": "w48950164", "hitId": "h31629369", "currenttrial": 56, "bonus": 0, "data": [{"uniqueid": "w48950164:a63374786", "current_trial": 0, "dateTime": 1693564865365, "trialdata": {"success": true, "trial_type": "fullscreen", "trial_index": 0, "time_elapsed": 5233, "internal_node_id": "0.0-0.0"}}, {"uniqueid": "w48950164:a63374786", "current_trial": 1, "dateTime": 1693564889806, "trialdata": {"view_history": [{"page_index": 0, "viewing_time": 24430}], "rt": 24431, "trial_id": "exp_instructions_misaligned", "trial_type": "instructions", "trial_index": 1, "time_elapsed": 29674, "internal_node_id": "0.0-1.0"}}, {"uniqueid": "w48950164:a63374786", "current_trial": 2, "dateTime": 1693565074716, "trialdata": {"view_history": [{"page_index": 0, "viewing_time": 53937}, {"page_index": 1, "viewing_time": 65627}, {"page_index": 2, "viewing_time": 31407}, {"page_index": 3, "viewing_time": 33935}], "rt": 184907, "trial_id": "mouselab_instructions_1_misaligned", "trial_type": "instructions", "trial_index": 2, "time_elapsed": 214584, "internal_node_id": "0.0-2.0-1.0"}}, {"uniqueid": "w48950164:a63374786", "current_trial": 3, "dateTime": 1693565122538, "trialdata": {"revealed_states": [], "clicked_states": ["19", "20", "21", "22", "15", "17"], "num_clicks_accrued": [0, 0, 0, 0, 0, 0, 0, 0, 0, 0, 0, 0, 0], "stateRewards": ["", -10, -10, 10, 10, 10, 10, 10, -10, -10, -10, 10, -10, 10, -10, -10, 10, 10, -10, 10, -10, -10, -10, -10, 10, -10, 10, -10, -10, -10, 10, 10, -10, -10], "withholdReward": false, "trial_id": "practice_1", "block": "test", "trialIndex": 0, "score": -9.5, "costs": -3, "simulationMode": [null, null, null, null, null], "rewards": [-10, 10, -10, -10, 10], "path": ["0", "0", "12", "13", "14", "15", "17"], "rt": [29380, 513, 480, 1576, 505], "actions": ["right", "right", "right", "up", "right"], "actionTimes": [36563, 37592, 38592, 40688, 41701], "queries": {"click": {"state": {"target": ["19", "20", "21", "22", "15", "17"], "time": [14801, 17820, 20473, 24045, 27851, 30818]}, "edge": {"target": [], "time": []}}, "mouseover": {"state": {"target": ["12", "22", "19", "20", "19", "20", "14", "19", "20", "21", "22", "13", "15", "17", "14", "13"], "time": [9047, 9347, 9930, 10147, 11496, 12847, 13763, 14479, 17429, 19778, 22178, 27062, 27461, 29977, 34360, 34379]}, "edge": {"target": [], "time": []}}, "mouseout": {"state": {"target": ["0", "12", "22", "19", "20", "19", "20", "14", "19", "20", "21", "22", "22", "13", "15", "17", "14", "13"], "time": [9030, 9063, 9400, 9996, 11246, 12581, 13646, 14413, 17080, 18862, 21861, 25478, 27027, 27110, 29911, 34311, 34377, 34427]}, "edge": {"target": [], "time": []}}}, "displayed_time": "42.21", "trialTime": 47304, "trial_type": "mouselab-mdp", "trial_index": 3, "time_elapsed": 262405, "internal_node_id": "0.0-2.0-2.0-0.0"}}, {"uniqueid": "w48950164:a63374786", "current_trial": 4, "dateTime": 1693565162816, "trialdata": {"revealed_states": [], "clicked_states": ["3", "25", "14", "17", "16", "18", "21"], "num_clicks_accrued": [0, 0, 0, 0, 0, 0, 0, 0, 0, 0, 0, 0, 0], "stateRewards": ["", 10, 10, -10, -10, -10, 10, 10, 10, -10, 10, -10, -10, 10, 10, 10, -10, -10, -10, -10, -10, 10, 10, 10, 10, -10, 10, -10, -10, 10, 10, 10, 10, -10], "withholdReward": false, "trial_id": "practice_2", "block": "test", "trialIndex": 1, "score": 10, "costs": -3.5, "simulationMode": [null, null, null, null, null], "rewards": [-10, 10, 10, -10, 10], "path": ["0", "0", "12", "13", "14", "19", "21"], "rt": [28857, 418, 801, 796, 479], "actions": ["right", "right", "right", "down", "down"], "actionTimes": [31233, 32171, 33487, 34799, 35798], "queries": {"click": {"state": {"target": ["3", "25", "14", "17", "16", "18", "21"], "time": [6137, 10258, 13306, 17183, 19761, 22172, 25398]}, "edge": {"target": [], "time": []}}, "mouseover": {"state": {"target": ["1", "2", "3", "2", "10", "28", "25", "12", "13", "14", "15", "17", "16", "18", "13", "22", "19", "21"], "time": [3938, 4388, 5487, 9155, 9187, 9254, 9620, 12337, 12356, 12772, 16521, 16571, 19003, 21520, 24452, 24535, 24836, 24953]}, "edge": {"target": [], "time": []}}, "mouseout": {"state": {"target": ["0", "1", "2", "3", "2", "10", "28", "25", "12", "13", "14", "14", "15", "17", "16", "18", "13", "22", "19", "21"], "time": [3872, 4155, 5455, 8170, 9171, 9204, 9353, 12288, 12354, 12371, 13517, 15870, 16537, 18887, 21455, 24436, 24502, 24770, 24886, 27651]}, "edge": {"target": [], "time": []}}}, "displayed_time": "36.30", "trialTime": 40061, "trial_type": "mouselab-mdp", "trial_index": 4, "time_elapsed": 302683, "internal_node_id": "0.0-2.0-2.0-1.0"}}, {"uniqueid": "w48950164:a63374786", "current_trial": 5, "dateTime": 1693565206365, "trialdata": {"view_history": [{"page_index": 0, "viewing_time": 35369}, {"page_index": 1, "viewing_time": 8176}], "rt": 43547, "trial_id": "mouselab_instructions_2_misaligned", "trial_type": "instructions", "trial_index": 5, "time_elapsed": 346233, "internal_node_id": "0.0-2.0-3.0"}}, {"uniqueid": "w48950164:a63374786", "current_trial": 6, "dateTime": 1693565242843, "trialdata": {"rt": 36471, "response": {"Q0": "The cost for clicking on nodes may vary between nodes.", "Q1": "The better I perform the higher my bonus will be.", "Q2": "No, the amount of cash at each node of the web may be different each time.", "Q3": "To get the highest total score.", "Q4": "Only before moving the spider.", "Q5": "3 seconds"}, "question_order": [0, 1, 2, 3, 4, 5], "correct": {"Q0": "The cost for clicking on nodes may vary between nodes.", "Q1": "The better I perform the higher my bonus will be.", "Q2": "No, the amount of cash at each node of the web may be different each time.", "Q3": "To get the highest total score.", "Q4": "Only before moving the spider.", "Q5": "3 seconds"}, "trial_id": "mouselab_quiz_misaligned", "trial_type": "survey-multi-choice", "trial_index": 6, "time_elapsed": 382711, "internal_node_id": "0.0-2.0-4.0"}}, {"uniqueid": "w48950164:a63374786", "current_trial": 7, "dateTime": 1693565251581, "trialdata": {"rt": 8729, "response": {"Q0": "No"}, "question_order": [0], "trial_id": "repeat_check", "trial_type": "survey-multi-choice", "trial_index": 7, "time_elapsed": 391449, "internal_node_id": "0.0-4.0-0.0"}}, {"uniqueid": "w48950164:a63374786", "current_trial": 8, "dateTime": 1693565269649, "trialdata": {"rt": 18059, "stimulus": "\n<h1> Get ready to start the game! </h1>\n\nThank you for reading the instructions. Get ready start with the 40 rounds of this game.\n<br><br>\nIf you need to take a break, feel free to take one after the end of a round, before continuing to the next one.\n<br><br>\nRemember, the more money the spider gets, the bigger your bonus will be!\n<br><br>\n<div style='text-align: center;'>Press <code>space</code> to begin.</div>\n\n<br><br>\n(If, at any point, the <code>space</code> key does not take you to the next page, click once on the text and try again.)", "response": " ", "trial_id": "mdp_ready", "trial_type": "html-keyboard-response", "trial_index": 8, "time_elapsed": 409517, "internal_node_id": "0.0-6.0-0.0"}}, {"uniqueid": "w48950164:a63374786", "current_trial": 9, "dateTime": 1693565303591, "trialdata": {"revealed_states": [], "clicked_states": [], "num_clicks_accrued": [0, 0, 0, 0, 0, 0, 0, 0, 0, 0, 0, 0, 0], "stateRewards": ["", 1, 4, 5, -5, 58, -80, 75, 6, 25, -39, 46, 2, -2, 4, 2, 59, 31, -22, -12, -61, 15, 72, 1, -2, -7, 8, 77, 76, -23, -7, 71, -15, -3], "withholdReward": false, "trial_id": "mdp_trial_1", "block": "test", "trialIndex": 2, "score": -30, "costs": 0, "simulationMode": [null, null, null, null, null], "rewards": [1, -2, -7, -7, -15], "path": ["0", "0", "23", "24", "25", "30", "32"], "rt": [13066, 451, 396, 1297, 390], "actions": ["left", "left", "left", "down", "down"], "actionTimes": [15704, 16676, 17587, 19404, 20314], "queries": {"click": {"state": {"target": [], "time": []}, "edge": {"target": [], "time": []}}, "mouseover": {"state": {"target": ["0", "23", "24", "25", "0"], "time": [3525, 4257, 4290, 4356, 14006]}, "edge": {"target": [], "time": []}}, "mouseout": {"state": {"target": ["0", "23", "24", "25", "0"], "time": [3556, 4273, 4323, 7207, 14039]}, "edge": {"target": [], "time": []}}}, "displayed_time": "20.82", "trialTime": 33725, "trial_type": "mouselab-mdp", "trial_index": 9, "time_elapsed": 443458, "internal_node_id": "0.0-6.0-1.0-0.0"}}, {"uniqueid": "w48950164:a63374786", "current_trial": 10, "dateTime": 1693565334528, "trialdata": {"revealed_states": [], "clicked_states": ["14", "22", "21", "24", "25", "32"], "num_clicks_accrued": [0, 0, 0, 0, 0, 0, 0, 0, 0, 0, 0, 0, 0], "stateRewards": ["", -2, 2, -2, -7, -50, -62, -45, 7, 36, -24, -72, -1, -1, 8, -1, -67, 20, -52, 2, 35, -50, 80, -1, 1, 6, -6, -70, 6, 88, 8, -47, 74, -19], "withholdReward": false, "trial_id": "mdp_trial_2", "block": "test", "trialIndex": 3, "score": 79.3, "costs": -8.7, "simulationMode": [null, null, null, null, null], "rewards": [-1, 1, 6, 8, 74], "path": ["0", "0", "23", "24", "25", "30", "32"], "rt": [21088, 372, 442, 551, 380], "actions": ["left", "left", "left", "down", "down"], "actionTimes": [22816, 23703, 24656, 25716, 26611], "queries": {"click": {"state": {"target": ["14", "22", "21", "24", "25", "32"], "time": [2558, 5261, 8668, 12968, 14780, 17374]}, "edge": {"target": [], "time": []}}, "mouseover": {"state": {"target": ["12", "13", "14", "14", "15", "19", "22", "21", "24", "25", "30", "32", "33", "26", "33"], "time": [1949, 1967, 2015, 2415, 3515, 4098, 4415, 7599, 12447, 13963, 16463, 16614, 19682, 20215, 21230]}, "edge": {"target": [], "time": []}}, "mouseout": {"state": {"target": ["0", "12", "13", "14", "14", "15", "14", "19", "22", "21", "21", "24", "25", "30", "32", "33", "26", "33"], "time": [1933, 1966, 1999, 2165, 3448, 3998, 4065, 4368, 6349, 10747, 11865, 13798, 16413, 16530, 18498, 19731, 20281, 21312]}, "edge": {"target": [], "time": []}}}, "displayed_time": "27.13", "trialTime": 30707, "trial_type": "mouselab-mdp", "trial_index": 10, "time_elapsed": 474395, "internal_node_id": "0.0-6.0-1.0-1.0"}}, {"uniqueid": "w48950164:a63374786", "current_trial": 11, "dateTime": 1693565362092, "trialdata": {"revealed_states": [], "clicked_states": ["2", "4", "5", "6", "11"], "num_clicks_accrued": [0, 0, 0, 0, 0, 0, 0, 0, 0, 0, 0, 0, 0], "stateRewards": ["", -1, -3, 1, 13, -64, -29, 12, -4, -33, 50, 56, 2, -3, 4, 11, -64, -58, -55, 12, 47, 38, -25, -2, 2, 5, -15, 85, 7, 84, 10, 8, 57, 26], "withholdReward": false, "trial_id": "mdp_trial_3", "block": "test", "trialIndex": 4, "score": 40.65, "costs": -8.35, "simulationMode": [null, null, null, null, null], "rewards": [-1, -3, 1, -4, 56], "path": ["0", "0", "1", "2", "3", "8", "11"], "rt": [17149, 469, 517, 390, 407], "actions": ["up", "up", "up", "left", "left"], "actionTimes": [20412, 21399, 22429, 23334, 24254], "queries": {"click": {"state": {"target": ["2", "4", "5", "6", "11"], "time": [4274, 6773, 8612, 11634, 14841]}, "edge": {"target": [], "time": []}}, "mouseover": {"state": {"target": ["1", "2", "10", "10", "4", "3", "3", "5", "6", "4", "11", "28"], "time": [3629, 3679, 5130, 6113, 6329, 7664, 7864, 8014, 10530, 13130, 13778, 18795]}, "edge": {"target": [], "time": []}}, "mouseout": {"state": {"target": ["33", "30", "31", "0", "1", "2", "10", "10", "2", "4", "3", "3", "5", "6", "4", "11"], "time": [2095, 2146, 2329, 3587, 3646, 5096, 5146, 6128, 6179, 7647, 7730, 7946, 8711, 13128, 13145, 17745]}, "edge": {"target": [], "time": []}}}, "displayed_time": "24.76", "trialTime": 27339, "trial_type": "mouselab-mdp", "trial_index": 11, "time_elapsed": 501959, "internal_node_id": "0.0-6.0-1.0-2.0"}}, {"uniqueid": "w48950164:a63374786", "current_trial": 12, "dateTime": 1693565380434, "trialdata": {"revealed_states": [], "clicked_states": [], "num_clicks_accrued": [0, 0, 0, 0, 0, 0, 0, 0, 0, 0, 0, 0, 0], "stateRewards": ["", 1, 3, 3, -10, 52, 68, 59, 12, 7, 49, 21, -2, -3, -4, -2, -2, 63, 63, -4, 44, 43, -76, -2, -3, -6, 13, 48, 36, 12, -5, -36, -33, -11], "withholdReward": false, "trial_id": "mdp_trial_4", "block": "test", "trialIndex": 5, "score": 50, "costs": 0, "simulationMode": [null, null, null, null, null], "rewards": [-2, -3, -6, 13, 48], "path": ["0", "0", "23", "24", "25", "26", "27"], "rt": [7390, 294, 262, 348, 250], "actions": ["left", "left", "left", "up", "up"], "actionTimes": [9847, 10654, 11422, 12290, 13060], "queries": {"click": {"state": {"target": [], "time": []}, "edge": {"target": [], "time": []}}, "mouseover": {"state": {"target": ["24", "25", "24", "25"], "time": [2926, 2959, 3426, 5475]}, "edge": {"target": [], "time": []}}, "mouseout": {"state": {"target": ["28", "24", "25", "24"], "time": [1459, 2942, 3309, 5441]}, "edge": {"target": [], "time": []}}}, "displayed_time": "16.46", "trialTime": 18115, "trial_type": "mouselab-mdp", "trial_index": 12, "time_elapsed": 520301, "internal_node_id": "0.0-6.0-1.0-3.0"}}, {"uniqueid": "w48950164:a63374786", "current_trial": 13, "dateTime": 1693565420859, "trialdata": {"revealed_states": [], "clicked_states": ["17", "19", "16"], "num_clicks_accrued": [0, 0, 0, 0, 0, 0, 0, 0, 0, 0, 0, 0, 0], "stateRewards": ["", 1, -3, -2, 14, 49, -40, -39, 2, 26, -61, 73, 1, -4, -8, 12, 79, 29, -65, -13, 55, -26, 27, -1, 3, 3, 9, -17, -60, -18, -8, 35, -88, 69], "withholdReward": false, "trial_id": "mdp_trial_5", "block": "test", "trialIndex": 6, "score": 74.15, "costs": -5.85, "simulationMode": [null, null, null, null, null], "rewards": [1, -4, -8, 12, 79], "path": ["0", "0", "12", "13", "14", "15", "16"], "rt": [13079, 257, 310, 534, 298], "actions": ["right", "right", "right", "up", "up"], "actionTimes": [34520, 35298, 36117, 37158, 37971], "queries": {"click": {"state": {"target": ["17", "19", "16"], "time": [23276, 26448, 29404]}, "edge": {"target": [], "time": []}}, "mouseover": {"state": {"target": ["18", "15", "17", "14", "19", "18", "16", "18", "18"], "time": [22307, 22390, 22690, 24425, 25974, 28507, 28973, 30023, 32456]}, "edge": {"target": [], "time": []}}, "mouseout": {"state": {"target": ["25", "24", "23", "18", "15", "17", "14", "19", "19", "18", "16", "18", "18"], "time": [20013, 20040, 20073, 22340, 22639, 24108, 25907, 26581, 27623, 28890, 30007, 30091, 32955]}, "edge": {"target": [], "time": []}}}, "displayed_time": "38.49", "trialTime": 40177, "trial_type": "mouselab-mdp", "trial_index": 13, "time_elapsed": 560726, "internal_node_id": "0.0-6.0-1.0-4.0"}}, {"uniqueid": "w48950164:a63374786", "current_trial": 14, "dateTime": 1693565453913, "trialdata": {"revealed_states": [], "clicked_states": ["3", "9", "11", "6", "7", "5", "29"], "num_clicks_accrued": [0, 0, 0, 0, 0, 0, 0, 0, 0, 0, 0, 0, 0], "stateRewards": ["", -1, 4, 3, 12, -27, 34, -33, 3, -63, 1, 6, 2, 2, -6, -11, -77, -85, 68, -6, 51, 81, -60, -2, -2, 1, 15, 20, 15, 68, -10, -14, 6, -4], "withholdReward": false, "trial_id": "mdp_trial_6", "block": "test", "trialIndex": 7, "score": 66.15, "costs": -13.850000000000001, "simulationMode": [null, null, null, null, null], "rewards": [-2, -2, 1, 15, 68], "path": ["0", "0", "23", "24", "25", "26", "29"], "rt": [24622, 349, 330, 987, 367], "actions": ["left", "left", "left", "up", "left"], "actionTimes": [26011, 26853, 27683, 29190, 30069], "queries": {"click": {"state": {"target": ["3", "9", "11", "6", "7", "5", "29"], "time": [3409, 4919, 8125, 11058, 13936, 17365, 21139]}, "edge": {"target": [], "time": []}}, "mouseover": {"state": {"target": ["1", "3", "9", "11", "11", "8", "4", "6", "6", "7", "4", "5", "4", "2", "10", "26", "29"], "time": [1853, 2954, 4554, 5887, 6287, 9053, 9086, 9119, 9470, 12618, 15469, 15585, 19490, 19919, 20351, 20518, 20817]}, "edge": {"target": [], "time": []}}, "mouseout": {"state": {"target": ["0", "1", "3", "9", "11", "11", "8", "4", "6", "6", "7", "4", "5", "4", "2", "10", "26", "29"], "time": [1820, 1870, 4487, 5838, 5937, 9036, 9069, 9103, 9153, 12519, 15435, 15536, 19469, 19502, 19972, 20368, 20785, 23451]}, "edge": {"target": [], "time": []}}}, "displayed_time": "30.59", "trialTime": 32797, "trial_type": "mouselab-mdp", "trial_index": 14, "time_elapsed": 593780, "internal_node_id": "0.0-6.0-1.0-5.0"}}, {"uniqueid": "w48950164:a63374786", "current_trial": 15, "dateTime": 1693565515522, "trialdata": {"revealed_states": [], "clicked_states": ["22", "20", "21", "17", "18", "16", "3", "11", "5", "7", "27", "31", "33", "29"], "num_clicks_accrued": [0, 0, 0, 0, 0, 0, 0, 0, 0, 0, 0, 0, 0], "stateRewards": ["", 1, 4, -4, 14, 35, 51, 19, -13, 54, 78, -74, -2, -1, -3, 13, -11, -42, -73, -15, -24, -3, -69, 2, -1, 5, 16, -27, 73, 58, 9, -60, 5, -60], "withholdReward": false, "trial_id": "mdp_trial_7", "block": "test", "trialIndex": 8, "score": 51.10000000000001, "costs": -28.89999999999999, "simulationMode": [null, null, null, null, null], "rewards": [2, -1, 5, 16, 58], "path": ["0", "0", "23", "24", "25", "26", "29"], "rt": [52221, 255, 353, 853, 343], "actions": ["left", "left", "left", "up", "left"], "actionTimes": [55002, 55779, 56628, 57994, 58834], "queries": {"click": {"state": {"target": ["22", "20", "21", "17", "18", "16", "3", "11", "5", "7", "27", "31", "33", "29"], "time": [4296, 7965, 10870, 15912, 19549, 22818, 25924, 28713, 31912, 35978, 39993, 43424, 46811, 50394]}, "edge": {"target": [], "time": []}}, "mouseover": {"state": {"target": ["12", "22", "19", "20", "21", "19", "14", "15", "16", "17", "15", "18", "16", "7", "2", "3", "8", "11", "8", "3", "5", "4", "7", "2", "27", "26", "24", "31", "30", "33", "29"], "time": [3294, 3727, 7445, 7494, 9812, 11644, 11680, 11712, 11795, 14964, 17077, 17544, 22009, 23710, 24343, 24477, 27945, 28444, 30359, 30575, 31076, 34324, 34858, 39141, 39756, 41940, 42824, 43207, 46123, 46156, 49972]}, "edge": {"target": [], "time": []}}, "mouseout": {"state": {"target": ["25", "24", "23", "0", "12", "22", "22", "19", "20", "21", "19", "14", "15", "16", "17", "15", "18", "16", "7", "2", "3", "8", "11", "8", "3", "5", "4", "7", "2", "27", "26", "24", "31", "30", "33", "29"], "time": [1528, 1895, 2127, 3278, 3344, 4400, 7428, 7461, 9661, 11629, 11679, 11695, 11745, 14645, 17043, 17194, 21575, 23643, 23776, 24376, 27927, 27977, 30325, 30409, 30642, 34275, 34591, 39124, 39158, 41924, 41973, 42839, 46106, 46139, 49873, 53172]}, "edge": {"target": [], "time": []}}}, "displayed_time": "59.34", "trialTime": 61351, "trial_type": "mouselab-mdp", "trial_index": 15, "time_elapsed": 655389, "internal_node_id": "0.0-6.0-1.0-6.0"}}, {"uniqueid": "w48950164:a63374786", "current_trial": 16, "dateTime": 1693565542433, "trialdata": {"revealed_states": [], "clicked_states": ["7", "6"], "num_clicks_accrued": [0, 0, 0, 0, 0, 0, 0, 0, 0, 0, 0, 0, 0], "stateRewards": ["", 2, 3, 8, 11, 25, -80, 6, -4, -56, 84, -23, -2, -4, -3, 4, -51, -9, -61, -15, -64, 67, -35, 1, -1, -7, -6, 83, 59, -15, 12, -79, 56, 41], "withholdReward": false, "trial_id": "mdp_trial_8", "block": "test", "trialIndex": 9, "score": 65.7, "costs": -4.3, "simulationMode": [null, null, null, null, null], "rewards": [1, -1, -7, -6, 83], "path": ["0", "0", "23", "24", "25", "26", "27"], "rt": [17332, 195, 228, 196, 229], "actions": ["left", "left", "left", "up", "up"], "actionTimes": [19190, 19891, 20624, 21342, 22090], "queries": {"click": {"state": {"target": ["7", "6"], "time": [4101, 7387]}, "edge": {"target": [], "time": []}}, "mouseover": {"state": {"target": ["1", "2", "3", "7", "6", "9", "11", "27"], "time": [2445, 2609, 3063, 3895, 6015, 8979, 11627, 12060]}, "edge": {"target": [], "time": []}}, "mouseout": {"state": {"target": ["0", "1", "2", "3", "7", "6", "9", "11"], "time": [2413, 2479, 3045, 3479, 5895, 7474, 11595, 11661]}, "edge": {"target": [], "time": []}}}, "displayed_time": "22.61", "trialTime": 26653, "trial_type": "mouselab-mdp", "trial_index": 16, "time_elapsed": 682300, "internal_node_id": "0.0-6.0-1.0-7.0"}}, {"uniqueid": "w48950164:a63374786", "current_trial": 17, "dateTime": 1693565565209, "trialdata": {"revealed_states": [], "clicked_states": ["32", "33", "28"], "num_clicks_accrued": [0, 0, 0, 0, 0, 0, 0, 0, 0, 0, 0, 0, 0], "stateRewards": ["", -1, -2, 8, -6, -79, -6, 87, 9, -5, -66, -38, 2, 2, 5, -6, -82, 74, 85, -8, 67, -30, -15, 1, -2, -2, -2, 87, 64, 49, 7, 2, -38, -9], "withholdReward": false, "trial_id": "mdp_trial_9", "block": "test", "trialIndex": 10, "score": 52.55, "costs": -6.449999999999999, "simulationMode": [null, null, null, null, null], "rewards": [1, -2, -2, -2, 64], "path": ["0", "0", "23", "24", "25", "26", "28"], "rt": [12879, 255, 212, 887, 329], "actions": ["left", "left", "left", "up", "right"], "actionTimes": [16122, 16898, 17638, 19045, 19888], "queries": {"click": {"state": {"target": ["32", "33", "28"], "time": [4726, 7518, 11103]}, "edge": {"target": [], "time": []}}, "mouseover": {"state": {"target": ["23", "30", "32", "33", "25", "28", "11"], "time": [3825, 4075, 4360, 6226, 8841, 8991, 14591]}, "edge": {"target": [], "time": []}}, "mouseout": {"state": {"target": ["27", "0", "23", "30", "32", "33", "25", "28", "11"], "time": [1275, 3809, 3842, 4175, 6160, 8758, 8858, 14242, 14690]}, "edge": {"target": [], "time": []}}}, "displayed_time": "20.41", "trialTime": 22496, "trial_type": "mouselab-mdp", "trial_index": 17, "time_elapsed": 705076, "internal_node_id": "0.0-6.0-1.0-8.0"}}, {"uniqueid": "w48950164:a63374786", "current_trial": 18, "dateTime": 1693565595587, "trialdata": {"revealed_states": [], "clicked_states": ["17", "21", "22", "9", "6"], "num_clicks_accrued": [0, 0, 0, 0, 0, 0, 0, 0, 0, 0, 0, 0, 0], "stateRewards": ["", 1, 1, -6, -2, 7, 77, 3, 16, -16, 66, 31, -1, 3, -8, -6, 33, -50, -48, 7, -60, -66, 36, 2, -3, 3, -7, -12, -61, -79, -4, 8, 74, -70], "withholdReward": false, "trial_id": "mdp_trial_10", "block": "test", "trialIndex": 11, "score": 60.25, "costs": -10.75, "simulationMode": [null, null, null, null, null], "rewards": [1, 1, -6, -2, 77], "path": ["0", "0", "1", "2", "3", "4", "6"], "rt": [21480, 361, 244, 965, 493], "actions": ["up", "up", "up", "right", "right"], "actionTimes": [23574, 24444, 25209, 26681, 27691], "queries": {"click": {"state": {"target": ["17", "21", "22", "9", "6"], "time": [3550, 6781, 11310, 14706, 18612]}, "edge": {"target": [], "time": []}}, "mouseover": {"state": {"target": ["17", "19", "21", "13", "22", "12", "3", "9", "4", "6"], "time": [3331, 5166, 5416, 10148, 11015, 12281, 12349, 12666, 18131, 18348]}, "edge": {"target": [], "time": []}}, "mouseout": {"state": {"target": ["8", "2", "1", "17", "19", "21", "13", "22", "12", "3", "9", "4"], "time": [1032, 1382, 1432, 4949, 5333, 10062, 10982, 12249, 12299, 12365, 18064, 18197]}, "edge": {"target": [], "time": []}}}, "displayed_time": "28.20", "trialTime": 30118, "trial_type": "mouselab-mdp", "trial_index": 18, "time_elapsed": 735454, "internal_node_id": "0.0-6.0-1.0-9.0"}}, {"uniqueid": "w48950164:a63374786", "current_trial": 19, "dateTime": 1693565619067, "trialdata": {"revealed_states": [], "clicked_states": ["6", "7", "5"], "num_clicks_accrued": [0, 0, 0, 0, 0, 0, 0, 0, 0, 0, 0, 0, 0], "stateRewards": ["", -1, 3, 2, 9, 41, 4, -46, -12, -54, -87, -25, 2, 3, -1, 11, -77, 12, -33, -9, -32, 35, 72, 1, 3, -7, 4, 37, 65, -73, 6, 77, -43, 8], "withholdReward": false, "trial_id": "mdp_trial_11", "block": "test", "trialIndex": 12, "score": 47.55, "costs": -6.449999999999999, "simulationMode": [null, null, null, null, null], "rewards": [-1, 3, 2, 9, 41], "path": ["0", "0", "1", "2", "3", "4", "5"], "rt": [15583, 210, 223, 301, 206], "actions": ["up", "up", "up", "right", "up"], "actionTimes": [17868, 18600, 19330, 20140, 20861], "queries": {"click": {"state": {"target": ["6", "7", "5"], "time": [3927, 8804, 13444]}, "edge": {"target": [], "time": []}}, "mouseover": {"state": {"target": ["7", "6", "7", "4", "5", "4", "6"], "time": [3107, 3206, 8172, 12921, 12988, 16638, 16788]}, "edge": {"target": [], "time": []}}, "mouseout": {"state": {"target": ["6", "7", "0", "7", "6", "7", "4", "5", "4", "6"], "time": [1473, 1539, 3016, 3156, 8105, 12888, 12955, 16422, 16754, 16837]}, "edge": {"target": [], "time": []}}}, "displayed_time": "21.37", "trialTime": 23208, "trial_type": "mouselab-mdp", "trial_index": 19, "time_elapsed": 758934, "internal_node_id": "0.0-6.0-1.0-10.0"}}, {"uniqueid": "w48950164:a63374786", "current_trial": 20, "dateTime": 1693565638075, "trialdata": {"revealed_states": [], "clicked_states": ["17"], "num_clicks_accrued": [0, 0, 0, 0, 0, 0, 0, 0, 0, 0, 0, 0, 0], "stateRewards": ["", -2, 1, -7, 9, 8, 25, 61, -7, -17, 69, -81, 1, 4, -4, -11, 16, 67, 44, 3, 6, -45, -54, -2, 3, 6, -11, -15, 32, -47, 3, -39, -6, -88], "withholdReward": false, "trial_id": "mdp_trial_12", "block": "test", "trialIndex": 13, "score": 54.85, "costs": -2.15, "simulationMode": [null, null, null, null, null], "rewards": [1, 4, -4, -11, 67], "path": ["0", "0", "12", "13", "14", "15", "17"], "rt": [6322, 147, 191, 434, 158], "actions": ["right", "right", "right", "up", "right"], "actionTimes": [8226, 8887, 9597, 10540, 11214], "queries": {"click": {"state": {"target": ["17"], "time": [3598]}, "edge": {"target": [], "time": []}}, "mouseover": {"state": {"target": ["12", "13", "15", "17"], "time": [2756, 2788, 2904, 3088]}, "edge": {"target": [], "time": []}}, "mouseout": {"state": {"target": ["12", "13", "15"], "time": [2771, 2821, 2954]}, "edge": {"target": [], "time": []}}}, "displayed_time": "15.91", "trialTime": 18751, "trial_type": "mouselab-mdp", "trial_index": 20, "time_elapsed": 777942, "internal_node_id": "0.0-6.0-1.0-11.0"}}, {"uniqueid": "w48950164:a63374786", "current_trial": 21, "dateTime": 1693565674286, "trialdata": {"revealed_states": [], "clicked_states": ["11", "31", "29", "18"], "num_clicks_accrued": [0, 0, 0, 0, 0, 0, 0, 0, 0, 0, 0, 0, 0], "stateRewards": ["", -1, 3, 1, -7, 56, 76, 57, 3, 11, -9, 14, 1, -2, 2, 8, -77, -3, 79, -5, 88, 24, -66, -2, -1, 7, -7, -30, 14, -76, 11, -36, 28, -6], "withholdReward": false, "trial_id": "mdp_trial_13", "block": "test", "trialIndex": 14, "score": 79.4, "costs": -8.6, "simulationMode": [null, null, null, null, null], "rewards": [1, -2, 2, 8, 79], "path": ["0", "0", "12", "13", "14", "15", "18"], "rt": [20045, 201, 224, 599, 272], "actions": ["right", "right", "right", "up", "left"], "actionTimes": [24227, 24939, 25677, 26787, 27576], "queries": {"click": {"state": {"target": ["11", "31", "29", "18"], "time": [5817, 10145, 14863, 19339]}, "edge": {"target": [], "time": []}}, "mouseover": {"state": {"target": ["10", "11", "26", "25", "31", "25", "29", "18"], "time": [4904, 5422, 9421, 9504, 9871, 13870, 14471, 18936]}, "edge": {"target": [], "time": []}}, "mouseout": {"state": {"target": ["17", "15", "13", "12", "10", "11", "26", "25", "31", "25", "29"], "time": [3188, 3238, 3438, 3621, 5288, 9354, 9471, 9637, 13837, 13887, 18453]}, "edge": {"target": [], "time": []}}}, "displayed_time": "28.07", "trialTime": 35933, "trial_type": "mouselab-mdp", "trial_index": 21, "time_elapsed": 814153, "internal_node_id": "0.0-6.0-1.0-12.0"}}, {"uniqueid": "w48950164:a63374786", "current_trial": 22, "dateTime": 1693565710594, "trialdata": {"revealed_states": [], "clicked_states": ["18", "22", "20", "11", "28", "10"], "num_clicks_accrued": [0, 0, 0, 0, 0, 0, 0, 0, 0, 0, 0, 0, 0], "stateRewards": ["", -2, 4, 3, 5, -61, 4, 30, 1, -47, 83, 10, 1, 4, 7, -14, 19, -74, -83, 6, -2, -2, -65, -1, -2, 4, -11, 12, -1, -68, 11, -38, -28, 66], "withholdReward": false, "trial_id": "mdp_trial_14", "block": "test", "trialIndex": 15, "score": 76.1, "costs": -12.9, "simulationMode": [null, null, null, null, null], "rewards": [-2, 4, 3, 1, 83], "path": ["0", "0", "1", "2", "3", "8", "10"], "rt": [26875, 203, 311, 709, 221], "actions": ["up", "up", "up", "left", "down"], "actionTimes": [28392, 29114, 29940, 31155, 31883], "queries": {"click": {"state": {"target": ["18", "22", "20", "11", "28", "10"], "time": [2527, 5964, 10852, 14571, 18335, 22942]}, "edge": {"target": [], "time": []}}, "mouseover": {"state": {"target": ["12", "18", "13", "22", "19", "20", "2", "8", "11", "28", "10", "10"], "time": [1963, 2229, 4379, 5113, 10228, 10346, 13695, 13762, 14361, 18062, 22345, 22710]}, "edge": {"target": [], "time": []}}, "mouseout": {"state": {"target": ["18", "12", "0", "12", "18", "13", "22", "19", "20", "2", "8", "11", "28", "10", "10"], "time": [664, 746, 1949, 1996, 4346, 4396, 10212, 10278, 13195, 13728, 14261, 17279, 22295, 22477, 26843]}, "edge": {"target": [], "time": []}}}, "displayed_time": "32.38", "trialTime": 36004, "trial_type": "mouselab-mdp", "trial_index": 22, "time_elapsed": 850461, "internal_node_id": "0.0-6.0-1.0-13.0"}}, {"uniqueid": "w48950164:a63374786", "current_trial": 23, "dateTime": 1693565733789, "trialdata": {"revealed_states": [], "clicked_states": ["31"], "num_clicks_accrued": [0, 0, 0, 0, 0, 0, 0, 0, 0, 0, 0, 0, 0], "stateRewards": ["", 1, 1, -3, 7, 49, 78, 26, -5, 26, 48, -43, -1, -3, 2, -5, 4, -1, -60, 10, -35, 51, 81, -2, 1, -7, -5, -39, -86, -54, 4, -3, 74, 77], "withholdReward": false, "trial_id": "mdp_trial_15", "block": "test", "trialIndex": 16, "score": -101.15, "costs": -2.15, "simulationMode": [null, null, null, null, null], "rewards": [-2, 1, -7, -5, -86], "path": ["0", "0", "23", "24", "25", "26", "28"], "rt": [15127, 12, 51, 926, 177], "actions": ["left", "left", "left", "up", "right"], "actionTimes": [16965, 17489, 18082, 19519, 20203], "queries": {"click": {"state": {"target": ["31"], "time": [3730]}, "edge": {"target": [], "time": []}}, "mouseover": {"state": {"target": ["0", "31", "25", "33"], "time": [2977, 3176, 8975, 11476]}, "edge": {"target": [], "time": []}}, "mouseout": {"state": {"target": ["0", "31", "31", "25"], "time": [2991, 7592, 8858, 11428]}, "edge": {"target": [], "time": []}}}, "displayed_time": "20.71", "trialTime": 22901, "trial_type": "mouselab-mdp", "trial_index": 23, "time_elapsed": 873657, "internal_node_id": "0.0-6.0-1.0-14.0"}}, {"uniqueid": "w48950164:a63374786", "current_trial": 24, "dateTime": 1693565764222, "trialdata": {"revealed_states": [], "clicked_states": ["17", "20", "6", "9", "27"], "num_clicks_accrued": [0, 0, 0, 0, 0, 0, 0, 0, 0, 0, 0, 0, 0], "stateRewards": ["", -2, -1, -4, -15, -14, -67, 32, -3, -59, 63, 31, 2, -1, -7, -15, 71, -66, -27, -3, -54, -39, 72, 2, 1, 1, -13, 77, -40, 35, -9, 35, 75, 57], "withholdReward": false, "trial_id": "mdp_trial_16", "block": "test", "trialIndex": 17, "score": 57.25, "costs": -10.75, "simulationMode": [null, null, null, null, null], "rewards": [2, 1, 1, -13, 77], "path": ["0", "0", "23", "24", "25", "26", "27"], "rt": [22985, 127, 135, 558, 274], "actions": ["left", "left", "left", "up", "up"], "actionTimes": [24815, 25451, 26086, 27151, 27915], "queries": {"click": {"state": {"target": ["17", "20", "6", "9", "27"], "time": [3266, 7040, 11267, 15520, 20037]}, "edge": {"target": [], "time": []}}, "mouseover": {"state": {"target": ["15", "17", "14", "20", "19", "13", "18", "6", "4", "9", "11", "27", "27"], "time": [2541, 2874, 6291, 6590, 10240, 10307, 10373, 11090, 14856, 14957, 18856, 18973, 19539]}, "edge": {"target": [], "time": []}}, "mouseout": {"state": {"target": ["33", "30", "0", "15", "17", "14", "20", "20", "19", "13", "18", "6", "4", "9", "11", "27"], "time": [909, 941, 2434, 2675, 5658, 6474, 7187, 9390, 10290, 10341, 10674, 14824, 14874, 18539, 18907, 19055]}, "edge": {"target": [], "time": []}}}, "displayed_time": "28.42", "trialTime": 30102, "trial_type": "mouselab-mdp", "trial_index": 24, "time_elapsed": 904090, "internal_node_id": "0.0-6.0-1.0-15.0"}}, {"uniqueid": "w48950164:a63374786", "current_trial": 25, "dateTime": 1693565795313, "trialdata": {"revealed_states": [], "clicked_states": ["32", "31", "22", "16"], "num_clicks_accrued": [0, 0, 0, 0, 0, 0, 0, 0, 0, 0, 0, 0, 0], "stateRewards": ["", 1, 2, -3, 6, -88, 74, -45, 7, -46, 40, -77, 1, -4, 4, 3, 22, -25, -59, 8, -83, 19, -60, -1, -1, -1, -8, 26, -29, 64, -7, -88, -51, -55], "withholdReward": false, "trial_id": "mdp_trial_17", "block": "test", "trialIndex": 18, "score": -63.6, "costs": -8.6, "simulationMode": [null, null, null, null, null], "rewards": [1, -4, 4, 3, -59], "path": ["0", "0", "12", "13", "14", "15", "18"], "rt": [23352, 336, 175, 495, 545], "actions": ["right", "right", "right", "up", "left"], "actionTimes": [25224, 26076, 26765, 27769, 28834], "queries": {"click": {"state": {"target": ["32", "31", "22", "16"], "time": [3719, 7713, 10671, 15038]}, "edge": {"target": [], "time": []}}, "mouseover": {"state": {"target": ["0", "32", "31", "31", "22", "22", "21", "19", "14", "15", "16", "17", "14", "17", "17"], "time": [2690, 3490, 7274, 7491, 8523, 8989, 13289, 14172, 14222, 14289, 14788, 18655, 20055, 21204, 21604]}, "edge": {"target": [], "time": []}}, "mouseout": {"state": {"target": ["27", "0", "32", "31", "31", "22", "22", "21", "19", "14", "15", "16", "16", "17", "14", "17", "17"], "time": [1006, 2697, 3851, 7290, 8473, 8556, 12912, 14140, 14206, 14256, 14389, 15150, 18588, 19938, 21154, 21255, 21938]}, "edge": {"target": [], "time": []}}}, "displayed_time": "29.37", "trialTime": 30779, "trial_type": "mouselab-mdp", "trial_index": 25, "time_elapsed": 935180, "internal_node_id": "0.0-6.0-1.0-16.0"}}, {"uniqueid": "w48950164:a63374786", "current_trial": 26, "dateTime": 1693565818454, "trialdata": {"revealed_states": [], "clicked_states": ["9"], "num_clicks_accrued": [0, 0, 0, 0, 0, 0, 0, 0, 0, 0, 0, 0, 0], "stateRewards": ["", -2, 2, -4, -4, -59, 88, 62, -3, 69, -15, -34, 1, -2, -5, 7, -54, -20, 78, -16, -74, -53, -21, 2, -4, 2, 13, -8, -44, 26, 9, 72, 4, 17], "withholdReward": false, "trial_id": "mdp_trial_18", "block": "test", "trialIndex": 19, "score": 59.85, "costs": -2.15, "simulationMode": [null, null, null, null, null], "rewards": [-2, 2, -4, -3, 69], "path": ["0", "0", "1", "2", "3", "8", "9"], "rt": [5995, 203, 182, 518, 338], "actions": ["up", "up", "up", "left", "up"], "actionTimes": [8210, 8928, 9621, 10656, 11510], "queries": {"click": {"state": {"target": ["9"], "time": [3296]}, "edge": {"target": [], "time": []}}, "mouseover": {"state": {"target": ["8", "9", "9", "11", "27"], "time": [2737, 2954, 3180, 4055, 4226]}, "edge": {"target": [], "time": []}}, "mouseout": {"state": {"target": ["22", "0", "8", "9", "9", "9", "11"], "time": [1255, 2589, 2870, 3088, 3410, 3872, 4155]}, "edge": {"target": [], "time": []}}}, "displayed_time": "16.22", "trialTime": 22837, "trial_type": "mouselab-mdp", "trial_index": 26, "time_elapsed": 958321, "internal_node_id": "0.0-6.0-1.0-17.0"}}, {"uniqueid": "w48950164:a63374786", "current_trial": 27, "dateTime": 1693565845807, "trialdata": {"revealed_states": [], "clicked_states": ["22", "21", "18", "16"], "num_clicks_accrued": [0, 0, 0, 0, 0, 0, 0, 0, 0, 0, 0, 0, 0], "stateRewards": ["", 1, -4, -6, 11, -20, 8, -30, 1, -38, 88, 42, 2, 3, 5, -12, -8, -74, 30, -8, 67, -19, 42, 2, -1, 4, 13, 50, -68, 2, -8, -15, 87, -46], "withholdReward": false, "trial_id": "mdp_trial_19", "block": "test", "trialIndex": 20, "score": 19.4, "costs": -8.6, "simulationMode": [null, null, null, null, null], "rewards": [2, 3, 5, -12, 30], "path": ["0", "0", "12", "13", "14", "15", "18"], "rt": [19046, 212, 233, 268, 314], "actions": ["right", "right", "right", "up", "left"], "actionTimes": [22250, 22981, 23736, 24504, 25333], "queries": {"click": {"state": {"target": ["22", "21", "18", "16"], "time": [4110, 8562, 13223, 16796]}, "edge": {"target": [], "time": []}}, "mouseover": {"state": {"target": ["0", "22", "14", "17", "19", "21", "19", "13", "18", "16", "17"], "time": [3526, 3870, 5270, 5404, 7986, 8336, 12153, 12585, 12986, 14585, 21068]}, "edge": {"target": [], "time": []}}, "mouseout": {"state": {"target": ["27", "1", "0", "22", "14", "17", "19", "21", "19", "13", "18", "16"], "time": [2271, 2687, 3541, 4209, 5287, 7902, 8052, 11753, 12168, 12635, 14168, 20117]}, "edge": {"target": [], "time": []}}}, "displayed_time": "25.85", "trialTime": 27042, "trial_type": "mouselab-mdp", "trial_index": 27, "time_elapsed": 985674, "internal_node_id": "0.0-6.0-1.0-18.0"}}, {"uniqueid": "w48950164:a63374786", "current_trial": 28, "dateTime": 1693565895778, "trialdata": {"revealed_states": [], "clicked_states": ["5", "7", "27", "33", "31"], "num_clicks_accrued": [0, 0, 0, 0, 0, 0, 0, 0, 0, 0, 0, 0, 0], "stateRewards": ["", -2, 3, -1, -9, 44, 48, -37, -3, 71, -39, 87, -1, 3, -4, 4, -21, 59, -15, -8, -1, 28, -38, 2, 4, 4, 8, -85, -72, -63, 14, 58, 63, -46], "withholdReward": false, "trial_id": "mdp_trial_20", "block": "test", "trialIndex": 21, "score": 71.25, "costs": -10.75, "simulationMode": [null, null, null, null, null], "rewards": [2, 4, 4, 14, 58], "path": ["0", "0", "23", "24", "25", "30", "31"], "rt": [21308, 165, 171, 402, 159], "actions": ["left", "left", "left", "down", "right"], "actionTimes": [25795, 26477, 27150, 28065, 28738], "queries": {"click": {"state": {"target": ["5", "7", "27", "33", "31"], "time": [6065, 9539, 13558, 17139, 21381]}, "edge": {"target": [], "time": []}}, "mouseover": {"state": {"target": ["2", "3", "5", "4", "7", "2", "28", "27", "27", "33", "30", "31"], "time": [5196, 5262, 5662, 7613, 7780, 12246, 12846, 12978, 13279, 16229, 20844, 20994]}, "edge": {"target": [], "time": []}}, "mouseout": {"state": {"target": ["17", "15", "12", "2", "3", "5", "4", "7", "2", "28", "27", "27", "33", "30"], "time": [2729, 2746, 2812, 5213, 5480, 7580, 7663, 12230, 12264, 12861, 12995, 13668, 17234, 20878]}, "edge": {"target": [], "time": []}}}, "displayed_time": "29.23", "trialTime": 49660, "trial_type": "mouselab-mdp", "trial_index": 28, "time_elapsed": 1035646, "internal_node_id": "0.0-6.0-1.0-19.0"}}, {"uniqueid": "w48950164:a63374786", "current_trial": 29, "dateTime": 1693565917910, "trialdata": {"revealed_states": [], "clicked_states": ["10", "6", "18"], "num_clicks_accrued": [0, 0, 0, 0, 0, 0, 0, 0, 0, 0, 0, 0, 0], "stateRewards": ["", -2, 4, -7, -3, -76, 39, -28, 10, 14, 12, 60, 2, -3, 6, -10, 88, -34, -41, -3, 72, -13, -56, 1, 3, 2, 8, -51, 23, -57, 1, 14, -46, -16], "withholdReward": false, "trial_id": "mdp_trial_21", "block": "test", "trialIndex": 22, "score": 24.55, "costs": -6.449999999999999, "simulationMode": [null, null, null, null, null], "rewards": [-2, 4, -7, -3, 39], "path": ["0", "0", "1", "2", "3", "4", "6"], "rt": [12971, 86, 271, 1835, 383], "actions": ["up", "up", "up", "right", "right"], "actionTimes": [15243, 15849, 16618, 18964, 19863], "queries": {"click": {"state": {"target": ["10", "6", "18"], "time": [3879, 7103, 10401]}, "edge": {"target": [], "time": []}}, "mouseover": {"state": {"target": ["1", "2", "10", "4", "6", "18"], "time": [3180, 3280, 3530, 4880, 4969, 8729]}, "edge": {"target": [], "time": []}}, "mouseout": {"state": {"target": ["31", "0", "1", "2", "10", "4", "6"], "time": [1296, 3147, 3230, 3463, 3985, 4914, 8379]}, "edge": {"target": [], "time": []}}}, "displayed_time": "20.38", "trialTime": 21798, "trial_type": "mouselab-mdp", "trial_index": 29, "time_elapsed": 1057777, "internal_node_id": "0.0-6.0-1.0-20.0"}}, {"uniqueid": "w48950164:a63374786", "current_trial": 30, "dateTime": 1693565943531, "trialdata": {"revealed_states": [], "clicked_states": ["27", "28"], "num_clicks_accrued": [0, 0, 0, 0, 0, 0, 0, 0, 0, 0, 0, 0, 0], "stateRewards": ["", -2, 3, -5, -7, 66, 43, -60, -4, -70, -75, 4, -1, 2, 2, -13, 54, 11, -40, -1, 77, 32, 15, -2, 3, -8, -9, -35, 83, -27, 6, -74, -34, 44], "withholdReward": false, "trial_id": "mdp_trial_22", "block": "test", "trialIndex": 23, "score": 62.7, "costs": -4.3, "simulationMode": [null, null, null, null, null], "rewards": [-2, 3, -8, -9, 83], "path": ["0", "0", "23", "24", "25", "26", "28"], "rt": [11192, 200, 215, 1641, 193], "actions": ["left", "left", "left", "up", "right"], "actionTimes": [18466, 19187, 19915, 22077, 22780], "queries": {"click": {"state": {"target": ["27", "28"], "time": [10048, 13451]}, "edge": {"target": [], "time": []}}, "mouseover": {"state": {"target": ["23", "24", "25", "26", "27", "28", "10"], "time": [8403, 8437, 8786, 9352, 9652, 11242, 14071]}, "edge": {"target": [], "time": []}}, "mouseout": {"state": {"target": ["18", "0", "23", "24", "25", "26", "27", "28"], "time": [6370, 8387, 8419, 8469, 8836, 9603, 11087, 13903]}, "edge": {"target": [], "time": []}}}, "displayed_time": "23.29", "trialTime": 25312, "trial_type": "mouselab-mdp", "trial_index": 30, "time_elapsed": 1083398, "internal_node_id": "0.0-6.0-1.0-21.0"}}, {"uniqueid": "w48950164:a63374786", "current_trial": 31, "dateTime": 1693565979632, "trialdata": {"revealed_states": [], "clicked_states": ["17"], "num_clicks_accrued": [0, 0, 0, 0, 0, 0, 0, 0, 0, 0, 0, 0, 0], "stateRewards": ["", -1, -3, 1, -4, -48, -63, -49, -2, -84, -19, 65, 2, -2, -2, -12, -4, 59, 9, 6, 75, 69, -13, -1, -3, -3, -2, -37, -68, -36, 13, 32, 18, -14], "withholdReward": false, "trial_id": "mdp_trial_23", "block": "test", "trialIndex": 24, "score": 42.85, "costs": -2.15, "simulationMode": [null, null, null, null, null], "rewards": [2, -2, -2, -12, 59], "path": ["0", "0", "12", "13", "14", "15", "17"], "rt": [6456, 138, 202, 372, 283], "actions": ["right", "right", "right", "up", "right"], "actionTimes": [8394, 9049, 9748, 10617, 11395], "queries": {"click": {"state": {"target": ["17"], "time": [2890]}, "edge": {"target": [], "time": []}}, "mouseover": {"state": {"target": ["12", "13", "17"], "time": [2246, 2278, 2610]}, "edge": {"target": [], "time": []}}, "mouseout": {"state": {"target": ["10", "1", "12", "13", "17"], "time": [809, 1159, 2276, 2293, 6692]}, "edge": {"target": [], "time": []}}}, "displayed_time": "15.94", "trialTime": 35789, "trial_type": "mouselab-mdp", "trial_index": 31, "time_elapsed": 1119499, "internal_node_id": "0.0-6.0-1.0-22.0"}}, {"uniqueid": "w48950164:a63374786", "current_trial": 32, "dateTime": 1693565997446, "trialdata": {"revealed_states": [], "clicked_states": ["9"], "num_clicks_accrued": [0, 0, 0, 0, 0, 0, 0, 0, 0, 0, 0, 0, 0], "stateRewards": ["", 1, -2, 7, -14, 88, -56, -44, -14, 64, -51, -57, -2, 3, -4, -9, -11, 19, -77, -1, 68, 75, -67, -1, 1, -2, 5, -37, 70, -34, -10, -72, 63, -41], "withholdReward": false, "trial_id": "mdp_trial_24", "block": "test", "trialIndex": 25, "score": 53.85, "costs": -2.15, "simulationMode": [null, null, null, null, null], "rewards": [1, -2, 7, -14, 64], "path": ["0", "0", "1", "2", "3", "8", "9"], "rt": [7230, 177, 831, 436, 125], "actions": ["up", "up", "up", "left", "up"], "actionTimes": [9162, 9853, 11176, 12129, 12753], "queries": {"click": {"state": {"target": ["9"], "time": [2871]}, "edge": {"target": [], "time": []}}, "mouseover": {"state": {"target": ["1", "2", "3", "9", "4", "7"], "time": [2126, 2159, 2209, 2559, 6042, 6142]}, "edge": {"target": [], "time": []}}, "mouseout": {"state": {"target": ["2", "1", "0", "0", "1", "2", "3", "9", "4", "7"], "time": [677, 742, 792, 2110, 2142, 2175, 2259, 5774, 6092, 6208]}, "edge": {"target": [], "time": []}}}, "displayed_time": "15.93", "trialTime": 17475, "trial_type": "mouselab-mdp", "trial_index": 32, "time_elapsed": 1137313, "internal_node_id": "0.0-6.0-1.0-23.0"}}, {"uniqueid": "w48950164:a63374786", "current_trial": 33, "dateTime": 1693566029060, "trialdata": {"revealed_states": [], "clicked_states": ["17", "20", "22", "9", "6", "7"], "num_clicks_accrued": [0, 0, 0, 0, 0, 0, 0, 0, 0, 0, 0, 0, 0], "stateRewards": ["", -2, 2, 3, -7, -31, -33, 29, -8, -57, 50, -83, -1, -1, 5, 13, -23, -62, 25, 5, -66, -85, 14, 1, -2, -1, 16, 71, 33, -19, -14, 5, -43, 79], "withholdReward": false, "trial_id": "mdp_trial_25", "block": "test", "trialIndex": 26, "score": 12.100000000000001, "costs": -12.9, "simulationMode": [null, null, null, null, null], "rewards": [-2, 2, 3, -7, 29], "path": ["0", "0", "1", "2", "3", "4", "7"], "rt": [24177, 189, 135, 727, 399], "actions": ["up", "up", "up", "right", "down"], "actionTimes": [25969, 26676, 27324, 28564, 29470], "queries": {"click": {"state": {"target": ["17", "20", "22", "9", "6", "7"], "time": [3007, 6382, 9676, 13012, 16614, 20119]}, "edge": {"target": [], "time": []}}, "mouseover": {"state": {"target": ["12", "13", "17", "20", "19", "22", "12", "2", "9", "6", "7"], "time": [2139, 2172, 2605, 5421, 8939, 9039, 10404, 10470, 11304, 16353, 19786]}, "edge": {"target": [], "time": []}}, "mouseout": {"state": {"target": ["0", "12", "13", "17", "20", "19", "22", "12", "2", "9", "6", "7"], "time": [2109, 2156, 2223, 5071, 8921, 8989, 10371, 10420, 10504, 15936, 19753, 23286]}, "edge": {"target": [], "time": []}}}, "displayed_time": "29.99", "trialTime": 31304, "trial_type": "mouselab-mdp", "trial_index": 33, "time_elapsed": 1168927, "internal_node_id": "0.0-6.0-1.0-24.0"}}, {"uniqueid": "w48950164:a63374786", "current_trial": 34, "dateTime": 1693566058736, "trialdata": {"revealed_states": [], "clicked_states": ["29", "11", "6", "22", "31"], "num_clicks_accrued": [0, 0, 0, 0, 0, 0, 0, 0, 0, 0, 0, 0, 0], "stateRewards": ["", 2, -1, 5, 8, 75, -35, -77, 1, -9, -81, -58, 1, 2, -7, 5, 77, -16, 19, 16, -10, -18, 40, -2, 3, 7, -5, 64, 1, -62, 10, 27, 10, 65], "withholdReward": false, "trial_id": "mdp_trial_26", "block": "test", "trialIndex": 27, "score": 41.25, "costs": -10.75, "simulationMode": [null, null, null, null, null], "rewards": [1, 2, -7, 16, 40], "path": ["0", "0", "12", "13", "14", "19", "22"], "rt": [22121, 140, 528, 223, 323], "actions": ["right", "right", "right", "down", "left"], "actionTimes": [23838, 24498, 25538, 26282, 27100], "queries": {"click": {"state": {"target": ["29", "11", "6", "22", "31"], "time": [2907, 6055, 9284, 13226, 18894]}, "edge": {"target": [], "time": []}}, "mouseover": {"state": {"target": ["23", "26", "29", "27", "11", "8", "4", "6", "18", "13", "22", "31"], "time": [2277, 2360, 2627, 4249, 4644, 6961, 7095, 7178, 12027, 12464, 12558, 16842]}, "edge": {"target": [], "time": []}}, "mouseout": {"state": {"target": ["0", "0", "23", "26", "29", "27", "11", "8", "4", "6", "18", "13", "22"], "time": [811, 1243, 2293, 2444, 4211, 4278, 6944, 6993, 7144, 11960, 12076, 12508, 15960]}, "edge": {"target": [], "time": []}}}, "displayed_time": "27.61", "trialTime": 29356, "trial_type": "mouselab-mdp", "trial_index": 34, "time_elapsed": 1198603, "internal_node_id": "0.0-6.0-1.0-25.0"}}, {"uniqueid": "w48950164:a63374786", "current_trial": 35, "dateTime": 1693566093729, "trialdata": {"revealed_states": [], "clicked_states": ["20", "18", "5", "11", "28", "31"], "num_clicks_accrued": [0, 0, 0, 0, 0, 0, 0, 0, 0, 0, 0, 0, 0], "stateRewards": ["", -1, -1, 7, -15, -43, -21, -84, -9, -45, -66, 2, 1, -2, 2, 8, -27, 44, -52, -5, -84, 11, 53, 1, 4, -4, 16, 83, -82, -15, -16, 68, -43, 81], "withholdReward": false, "trial_id": "mdp_trial_27", "block": "test", "trialIndex": 28, "score": 40.1, "costs": -12.9, "simulationMode": [null, null, null, null, null], "rewards": [1, 4, -4, -16, 68], "path": ["0", "0", "23", "24", "25", "30", "31"], "rt": [27373, 198, 165, 298, 255], "actions": ["left", "left", "left", "down", "right"], "actionTimes": [29145, 29861, 30528, 31343, 32116], "queries": {"click": {"state": {"target": ["20", "18", "5", "11", "28", "31"], "time": [3957, 7239, 11292, 15781, 19822, 23152]}, "edge": {"target": [], "time": []}}, "mouseover": {"state": {"target": ["12", "13", "14", "19", "20", "15", "18", "4", "5", "8", "11", "28", "24", "31", "30", "33"], "time": [3113, 3163, 3347, 3547, 3713, 4998, 5498, 10745, 10846, 15179, 15529, 18345, 21880, 22046, 25028, 25087]}, "edge": {"target": [], "time": []}}, "mouseout": {"state": {"target": ["31", "0", "12", "13", "14", "19", "20", "15", "18", "4", "5", "8", "11", "28", "24", "31", "30"], "time": [1104, 3099, 3131, 3214, 3463, 3597, 4914, 5048, 10647, 10780, 15097, 15279, 18179, 21862, 21946, 25011, 25066]}, "edge": {"target": [], "time": []}}}, "displayed_time": "32.63", "trialTime": 34690, "trial_type": "mouselab-mdp", "trial_index": 35, "time_elapsed": 1233596, "internal_node_id": "0.0-6.0-1.0-26.0"}}, {"uniqueid": "w48950164:a63374786", "current_trial": 36, "dateTime": 1693566111286, "trialdata": {"revealed_states": [], "clicked_states": ["22"], "num_clicks_accrued": [0, 0, 0, 0, 0, 0, 0, 0, 0, 0, 0, 0, 0], "stateRewards": ["", -2, 3, 3, -14, 62, 36, 49, 16, 11, 17, -84, 2, -1, 6, 2, -82, -73, 49, -6, -87, 48, 50, -1, -2, -1, -16, -11, 37, -44, 4, 55, 73, -10], "withholdReward": false, "trial_id": "mdp_trial_28", "block": "test", "trialIndex": 29, "score": 48.85, "costs": -2.15, "simulationMode": [null, null, null, null, null], "rewards": [2, -1, 6, -6, 50], "path": ["0", "0", "12", "13", "14", "19", "22"], "rt": [6559, 190, 480, 369, 666], "actions": ["right", "right", "right", "down", "left"], "actionTimes": [8538, 9244, 10235, 11124, 12304], "queries": {"click": {"state": {"target": ["22"], "time": [3253]}, "edge": {"target": [], "time": []}}, "mouseover": {"state": {"target": ["12", "13", "22", "13", "18", "2", "10"], "time": [2619, 2703, 2937, 4257, 4353, 4854, 4953]}, "edge": {"target": [], "time": []}}, "mouseout": {"state": {"target": ["33", "23", "0", "12", "13", "22", "13", "18", "2"], "time": [821, 903, 2604, 2654, 2786, 4226, 4304, 4404, 4915]}, "edge": {"target": [], "time": []}}}, "displayed_time": "15.98", "trialTime": 17257, "trial_type": "mouselab-mdp", "trial_index": 36, "time_elapsed": 1251153, "internal_node_id": "0.0-6.0-1.0-27.0"}}, {"uniqueid": "w48950164:a63374786", "current_trial": 37, "dateTime": 1693566133132, "trialdata": {"revealed_states": [], "clicked_states": ["6"], "num_clicks_accrued": [0, 0, 0, 0, 0, 0, 0, 0, 0, 0, 0, 0, 0], "stateRewards": ["", -1, 2, 7, 8, 75, 67, -11, 6, 52, -17, 38, -1, 4, -8, 14, 74, -37, -17, -12, 52, 55, 71, -2, -1, -5, 2, 21, 6, -88, -14, 64, -61, -47], "withholdReward": false, "trial_id": "mdp_trial_29", "block": "test", "trialIndex": 30, "score": 80.85, "costs": -2.15, "simulationMode": [null, null, null, null, null], "rewards": [-1, 2, 7, 8, 67], "path": ["0", "0", "1", "2", "3", "4", "6"], "rt": [5958, 416, 501, 895, 376], "actions": ["up", "up", "up", "right", "right"], "actionTimes": [7919, 8857, 9873, 11284, 12198], "queries": {"click": {"state": {"target": ["6"], "time": [2839]}, "edge": {"target": [], "time": []}}, "mouseover": {"state": {"target": ["6", "7"], "time": [2504, 5038]}, "edge": {"target": [], "time": []}}, "mouseout": {"state": {"target": ["10", "28", "23", "0", "6"], "time": [571, 1174, 1287, 1521, 4822]}, "edge": {"target": [], "time": []}}}, "displayed_time": "15.96", "trialTime": 21523, "trial_type": "mouselab-mdp", "trial_index": 37, "time_elapsed": 1272999, "internal_node_id": "0.0-6.0-1.0-28.0"}}, {"uniqueid": "w48950164:a63374786", "current_trial": 38, "dateTime": 1693566163271, "trialdata": {"revealed_states": [], "clicked_states": ["27", "31"], "num_clicks_accrued": [0, 0, 0, 0, 0, 0, 0, 0, 0, 0, 0, 0, 0], "stateRewards": ["", 2, -1, -3, 16, -3, -16, -62, -1, 13, -26, 43, -1, 4, 3, -9, -54, -37, -3, -12, -71, -68, -57, 1, -3, 2, -9, 2, -2, -9, -11, 84, -52, 55], "withholdReward": false, "trial_id": "mdp_trial_30", "block": "test", "trialIndex": 31, "score": 68.7, "costs": -4.3, "simulationMode": [null, null, null, null, null], "rewards": [1, -3, 2, -11, 84], "path": ["0", "0", "23", "24", "25", "30", "31"], "rt": [10521, 268, 393, 301, 186], "actions": ["left", "left", "left", "down", "right"], "actionTimes": [12909, 13715, 14623, 15433, 16132], "queries": {"click": {"state": {"target": ["27", "31"], "time": [3614, 7392]}, "edge": {"target": [], "time": []}}, "mouseover": {"state": {"target": ["26", "27", "26", "31", "31"], "time": [2614, 3163, 4698, 4764, 5180]}, "edge": {"target": [], "time": []}}, "mouseout": {"state": {"target": ["7", "1", "0", "26", "27", "26", "31"], "time": [1096, 1362, 2565, 2629, 4681, 4714, 4797]}, "edge": {"target": [], "time": []}}}, "displayed_time": "16.65", "trialTime": 29807, "trial_type": "mouselab-mdp", "trial_index": 38, "time_elapsed": 1303138, "internal_node_id": "0.0-6.0-1.0-29.0"}}, {"uniqueid": "w48950164:a63374786", "current_trial": 39, "dateTime": 1693566189225, "trialdata": {"revealed_states": [], "clicked_states": ["10", "5", "18", "31"], "num_clicks_accrued": [0, 0, 0, 0, 0, 0, 0, 0, 0, 0, 0, 0, 0], "stateRewards": ["", -1, 3, -5, -2, -13, -9, -34, -7, -81, 32, 35, -2, -2, 1, -14, -32, 81, 7, 4, 82, 56, -8, -1, 3, -8, 6, -24, -24, -53, 2, 38, 61, 54], "withholdReward": false, "trial_id": "mdp_trial_31", "block": "test", "trialIndex": 32, "score": 25.4, "costs": -8.6, "simulationMode": [null, null, null, null, null], "rewards": [-1, 3, -8, 2, 38], "path": ["0", "0", "23", "24", "25", "30", "31"], "rt": [19193, 130, 158, 177, 152], "actions": ["left", "left", "left", "down", "right"], "actionTimes": [20965, 21611, 22272, 22957, 23616], "queries": {"click": {"state": {"target": ["10", "5", "18", "31"], "time": [3399, 7526, 11712, 16043]}, "edge": {"target": [], "time": []}}, "mouseover": {"state": {"target": ["1", "2", "10", "3", "5", "6", "18", "12", "31"], "time": [2580, 2681, 2913, 4864, 5279, 10829, 11479, 14879, 15511]}, "edge": {"target": [], "time": []}}, "mouseout": {"state": {"target": ["31", "0", "1", "2", "10", "3", "5", "6", "18", "18", "12", "31"], "time": [897, 2536, 2613, 2730, 4798, 4929, 10580, 11079, 11808, 14862, 14894, 20028]}, "edge": {"target": [], "time": []}}}, "displayed_time": "24.13", "trialTime": 25581, "trial_type": "mouselab-mdp", "trial_index": 39, "time_elapsed": 1329092, "internal_node_id": "0.0-6.0-1.0-30.0"}}, {"uniqueid": "w48950164:a63374786", "current_trial": 40, "dateTime": 1693566206682, "trialdata": {"revealed_states": [], "clicked_states": ["21"], "num_clicks_accrued": [0, 0, 0, 0, 0, 0, 0, 0, 0, 0, 0, 0, 0], "stateRewards": ["", 2, 3, 6, -5, -74, -53, 17, -12, 46, 44, 18, -2, 4, 1, -8, 22, -23, -49, 9, -45, 55, 81, 1, -1, -7, -16, -83, -71, -45, 2, 51, 82, 61], "withholdReward": false, "trial_id": "mdp_trial_32", "block": "test", "trialIndex": 33, "score": 64.85, "costs": -2.15, "simulationMode": [null, null, null, null, null], "rewards": [-2, 4, 1, 9, 55], "path": ["0", "0", "12", "13", "14", "19", "21"], "rt": [7564, 294, 710, 271, 192], "actions": ["right", "right", "right", "down", "down"], "actionTimes": [9241, 10051, 11299, 12076, 12779], "queries": {"click": {"state": {"target": ["21"], "time": [3867]}, "edge": {"target": [], "time": []}}, "mouseover": {"state": {"target": ["21", "20", "19", "22", "21", "22", "13", "18"], "time": [2238, 2622, 2805, 2922, 3389, 6472, 6506, 6605]}, "edge": {"target": [], "time": []}}, "mouseout": {"state": {"target": ["0", "21", "20", "19", "22", "21", "22", "13"], "time": [1889, 2405, 2772, 2856, 3255, 6405, 6488, 6556]}, "edge": {"target": [], "time": []}}}, "displayed_time": "15.68", "trialTime": 17101, "trial_type": "mouselab-mdp", "trial_index": 40, "time_elapsed": 1346549, "internal_node_id": "0.0-6.0-1.0-31.0"}}, {"uniqueid": "w48950164:a63374786", "current_trial": 41, "dateTime": 1693566230905, "trialdata": {"revealed_states": [], "clicked_states": ["6", "18", "22", "28"], "num_clicks_accrued": [0, 0, 0, 0, 0, 0, 0, 0, 0, 0, 0, 0, 0], "stateRewards": ["", -2, -1, 3, -3, 71, -58, -21, 7, -10, -75, -37, 2, 4, -1, -12, -79, -29, -48, 3, -41, -10, -30, -1, -2, 1, -15, 13, 66, 22, -1, -42, -86, -55], "withholdReward": false, "trial_id": "mdp_trial_33", "block": "test", "trialIndex": 34, "score": 40.4, "costs": -8.6, "simulationMode": [null, null, null, null, null], "rewards": [-1, -2, 1, -15, 66], "path": ["0", "0", "23", "24", "25", "26", "28"], "rt": [15775, 120, 229, 1314, 225], "actions": ["left", "left", "left", "up", "right"], "actionTimes": [17629, 18264, 19008, 20843, 21585], "queries": {"click": {"state": {"target": ["6", "18", "22", "28"], "time": [2798, 6349, 9657, 13003]}, "edge": {"target": [], "time": []}}, "mouseover": {"state": {"target": ["6", "18", "13", "22", "23", "24", "28", "27"], "time": [2596, 6079, 8028, 8361, 10546, 10833, 10883, 16076]}, "edge": {"target": [], "time": []}}, "mouseout": {"state": {"target": ["18", "6", "18", "13", "22", "23", "24", "28", "27"], "time": [912, 5681, 8011, 8086, 10446, 10562, 10853, 15984, 16644]}, "edge": {"target": [], "time": []}}}, "displayed_time": "22.09", "trialTime": 23801, "trial_type": "mouselab-mdp", "trial_index": 41, "time_elapsed": 1370772, "internal_node_id": "0.0-6.0-1.0-32.0"}}, {"uniqueid": "w48950164:a63374786", "current_trial": 42, "dateTime": 1693566252646, "trialdata": {"revealed_states": [], "clicked_states": ["28", "27"], "num_clicks_accrued": [0, 0, 0, 0, 0, 0, 0, 0, 0, 0, 0, 0, 0], "stateRewards": ["", 1, -2, -8, -3, 31, -84, -55, -14, 15, -58, 17, -2, -3, 7, 7, -12, 48, 67, 4, -44, -68, 46, 2, 3, -5, -7, 76, 27, 5, 11, 57, 52, 59], "withholdReward": false, "trial_id": "mdp_trial_34", "block": "test", "trialIndex": 35, "score": 64.7, "costs": -4.3, "simulationMode": [null, null, null, null, null], "rewards": [2, 3, -5, -7, 76], "path": ["0", "0", "23", "24", "25", "26", "27"], "rt": [10641, 219, 158, 1950, 156], "actions": ["left", "left", "left", "up", "up"], "actionTimes": [14720, 15446, 16118, 18576, 19249], "queries": {"click": {"state": {"target": ["28", "27"], "time": [5860, 9283]}, "edge": {"target": [], "time": []}}, "mouseover": {"state": {"target": ["28", "27"], "time": [5491, 7342]}, "edge": {"target": [], "time": []}}, "mouseout": {"state": {"target": ["1", "28"], "time": [2541, 7277]}, "edge": {"target": [], "time": []}}}, "displayed_time": "19.76", "trialTime": 21274, "trial_type": "mouselab-mdp", "trial_index": 42, "time_elapsed": 1392513, "internal_node_id": "0.0-6.0-1.0-33.0"}}, {"uniqueid": "w48950164:a63374786", "current_trial": 43, "dateTime": 1693566273400, "trialdata": {"revealed_states": [], "clicked_states": ["27", "29"], "num_clicks_accrued": [0, 0, 0, 0, 0, 0, 0, 0, 0, 0, 0, 0, 0], "stateRewards": ["", -2, -4, -2, -13, -15, 87, -19, -6, -80, 30, 12, 1, 1, -8, 2, 55, 56, 15, 11, -68, -7, 55, -2, 3, -3, -3, 48, 62, 4, 1, -3, 69, -33], "withholdReward": false, "trial_id": "mdp_trial_35", "block": "test", "trialIndex": 36, "score": 38.7, "costs": -4.3, "simulationMode": [null, null, null, null, null], "rewards": [-2, 3, -3, -3, 48], "path": ["0", "0", "23", "24", "25", "26", "27"], "rt": [11800, 65, 182, 784, 230], "actions": ["left", "left", "left", "up", "up"], "actionTimes": [14493, 15069, 15768, 17070, 17818], "queries": {"click": {"state": {"target": ["27", "29"], "time": [4507, 9476]}, "edge": {"target": [], "time": []}}, "mouseover": {"state": {"target": ["28", "26", "27", "29"], "time": [3070, 3153, 3554, 5686]}, "edge": {"target": [], "time": []}}, "mouseout": {"state": {"target": ["27", "0", "28", "26", "27", "29", "29"], "time": [1852, 3006, 3103, 3187, 5636, 9558, 10404]}, "edge": {"target": [], "time": []}}}, "displayed_time": "18.32", "trialTime": 20425, "trial_type": "mouselab-mdp", "trial_index": 43, "time_elapsed": 1413267, "internal_node_id": "0.0-6.0-1.0-34.0"}}, {"uniqueid": "w48950164:a63374786", "current_trial": 44, "dateTime": 1693566299480, "trialdata": {"revealed_states": [], "clicked_states": ["33", "31", "10"], "num_clicks_accrued": [0, 0, 0, 0, 0, 0, 0, 0, 0, 0, 0, 0, 0], "stateRewards": ["", 2, -4, 4, 9, 69, 9, -75, 12, -86, 66, 25, -1, 3, 2, -13, -88, -3, 1, 4, -69, 49, -84, 2, -1, 4, 2, -18, -81, -52, -15, -69, -54, 25], "withholdReward": false, "trial_id": "mdp_trial_36", "block": "test", "trialIndex": 37, "score": 73.55, "costs": -6.449999999999999, "simulationMode": [null, null, null, null, null], "rewards": [2, -4, 4, 12, 66], "path": ["0", "0", "1", "2", "3", "8", "10"], "rt": [15947, 115, 189, 439, 237], "actions": ["up", "up", "up", "left", "down"], "actionTimes": [17942, 18575, 19282, 20233, 20980], "queries": {"click": {"state": {"target": ["33", "31", "10"], "time": [3445, 8752, 12987]}, "edge": {"target": [], "time": []}}, "mouseover": {"state": {"target": ["23", "30", "33", "30", "31", "31", "10"], "time": [2661, 2877, 3127, 7959, 8009, 8475, 12492]}, "edge": {"target": [], "time": []}}, "mouseout": {"state": {"target": ["23", "23", "30", "33", "30", "31", "31", "10"], "time": [1344, 2676, 2994, 7943, 7993, 8092, 11726, 16759]}, "edge": {"target": [], "time": []}}}, "displayed_time": "21.49", "trialTime": 25748, "trial_type": "mouselab-mdp", "trial_index": 44, "time_elapsed": 1439347, "internal_node_id": "0.0-6.0-1.0-35.0"}}, {"uniqueid": "w48950164:a63374786", "current_trial": 45, "dateTime": 1693566317588, "trialdata": {"revealed_states": [], "clicked_states": ["10"], "num_clicks_accrued": [0, 0, 0, 0, 0, 0, 0, 0, 0, 0, 0, 0, 0], "stateRewards": ["", 1, -4, -6, -1, -21, 17, -72, 10, 77, 67, -46, -1, 4, -2, 14, -66, -49, -45, -15, -52, 23, -67, 2, -2, -2, 15, -3, 45, -64, 5, -44, 83, 61], "withholdReward": false, "trial_id": "mdp_trial_37", "block": "test", "trialIndex": 38, "score": 65.85, "costs": -2.15, "simulationMode": [null, null, null, null, null], "rewards": [1, -4, -6, 10, 67], "path": ["0", "0", "1", "2", "3", "8", "10"], "rt": [6626, 165, 237, 661, 413], "actions": ["up", "up", "up", "left", "down"], "actionTimes": [8388, 9062, 9817, 10992, 11926], "queries": {"click": {"state": {"target": ["10"], "time": [3744]}, "edge": {"target": [], "time": []}}, "mouseover": {"state": {"target": ["10"], "time": [2829]}, "edge": {"target": [], "time": []}}, "mouseout": {"state": {"target": ["0"], "time": [2713]}, "edge": {"target": [], "time": []}}}, "displayed_time": "15.76", "trialTime": 17695, "trial_type": "mouselab-mdp", "trial_index": 45, "time_elapsed": 1457455, "internal_node_id": "0.0-6.0-1.0-36.0"}}, {"uniqueid": "w48950164:a63374786", "current_trial": 46, "dateTime": 1693566340599, "trialdata": {"revealed_states": [], "clicked_states": ["10", "7"], "num_clicks_accrued": [0, 0, 0, 0, 0, 0, 0, 0, 0, 0, 0, 0, 0], "stateRewards": ["", -2, 1, -8, 12, -65, -79, 16, 7, -80, -17, -45, -2, 2, -5, -2, -85, 23, -4, -7, 48, 27, -76, 2, 3, 5, 2, 43, 71, -13, 7, -49, 59, -31], "withholdReward": false, "trial_id": "mdp_trial_38", "block": "test", "trialIndex": 39, "score": 14.7, "costs": -4.3, "simulationMode": [null, null, null, null, null], "rewards": [-2, 1, -8, 12, 16], "path": ["0", "0", "1", "2", "3", "4", "7"], "rt": [15530, 191, 256, 892, 215], "actions": ["up", "up", "up", "right", "down"], "actionTimes": [17290, 17991, 18756, 20158, 20881], "queries": {"click": {"state": {"target": ["10", "7"], "time": [2827, 8172]}, "edge": {"target": [], "time": []}}, "mouseover": {"state": {"target": ["10", "10", "2", "7", "16"], "time": [2217, 2566, 6730, 6965, 13831]}, "edge": {"target": [], "time": []}}, "mouseout": {"state": {"target": ["10", "10", "10", "2", "7"], "time": [817, 2350, 6715, 6748, 13598]}, "edge": {"target": [], "time": []}}}, "displayed_time": "21.40", "trialTime": 22661, "trial_type": "mouselab-mdp", "trial_index": 46, "time_elapsed": 1480466, "internal_node_id": "0.0-6.0-1.0-37.0"}}, {"uniqueid": "w48950164:a63374786", "current_trial": 47, "dateTime": 1693566384984, "trialdata": {"revealed_states": [], "clicked_states": ["22", "27", "33", "31", "5", "9", "10", "7", "18"], "num_clicks_accrued": [0, 0, 0, 0, 0, 0, 0, 0, 0, 0, 0, 0, 0], "stateRewards": ["", -1, 1, -1, 2, 19, 85, -18, 2, -3, -26, 36, 2, 4, 7, -9, -18, 70, 72, -5, 35, -20, -28, 1, -2, -4, -3, -59, -11, -63, -2, -72, 59, -69], "withholdReward": false, "trial_id": "mdp_trial_39", "block": "test", "trialIndex": 40, "score": 56.650000000000006, "costs": -19.349999999999998, "simulationMode": [null, null, null, null, null], "rewards": [2, 4, 7, -9, 72], "path": ["0", "0", "12", "13", "14", "15", "18"], "rt": [35825, 207, 259, 388, 488], "actions": ["right", "right", "right", "up", "left"], "actionTimes": [37563, 38284, 39052, 39947, 40947], "queries": {"click": {"state": {"target": ["22", "27", "33", "31", "5", "9", "10", "7", "18"], "time": [2634, 5916, 10365, 14397, 17693, 21436, 25269, 28762, 32574]}, "edge": {"target": [], "time": []}}, "mouseover": {"state": {"target": ["22", "26", "27", "29", "33", "30", "31", "23", "3", "5", "9", "8", "10", "2", "7", "18"], "time": [2461, 4145, 4511, 8478, 10144, 12827, 13920, 15443, 15893, 16410, 20959, 24741, 24875, 28209, 28258, 32274]}, "edge": {"target": [], "time": []}}, "mouseout": {"state": {"target": ["16", "18", "0", "22", "26", "27", "29", "33", "30", "31", "23", "3", "5", "9", "8", "10", "10", "2", "7", "18"], "time": [778, 845, 2095, 2761, 4161, 8228, 9744, 12810, 12844, 15410, 15476, 16010, 20676, 24726, 24775, 25382, 28208, 28242, 32191, 36290]}, "edge": {"target": [], "time": []}}}, "displayed_time": "41.46", "trialTime": 44012, "trial_type": "mouselab-mdp", "trial_index": 47, "time_elapsed": 1524851, "internal_node_id": "0.0-6.0-1.0-38.0"}}, {"uniqueid": "w48950164:a63374786", "current_trial": 48, "dateTime": 1693566403547, "trialdata": {"revealed_states": [], "clicked_states": ["18"], "num_clicks_accrued": [0, 0, 0, 0, 0, 0, 0, 0, 0, 0, 0, 0, 0], "stateRewards": ["", 1, 2, 8, -2, 23, -69, -18, -16, 54, -21, 71, -1, -4, 7, 11, 43, -6, 88, 6, -55, 72, 43, 1, -3, -2, -1, 68, -31, -54, 4, -8, 25, -2], "withholdReward": false, "trial_id": "mdp_trial_40", "block": "test", "trialIndex": 41, "score": 98.85, "costs": -2.15, "simulationMode": [null, null, null, null, null], "rewards": [-1, -4, 7, 11, 88], "path": ["0", "0", "12", "13", "14", "15", "18"], "rt": [5674, 200, 186, 566, 349], "actions": ["right", "right", "right", "up", "left"], "actionTimes": [7222, 7939, 8641, 9722, 10586], "queries": {"click": {"state": {"target": ["18"], "time": [2673]}, "edge": {"target": [], "time": []}}, "mouseover": {"state": {"target": ["18"], "time": [2404]}, "edge": {"target": [], "time": []}}, "mouseout": {"state": {"target": ["13", "12"], "time": [753, 886]}, "edge": {"target": [], "time": []}}}, "displayed_time": "15.55", "trialTime": 18223, "trial_type": "mouselab-mdp", "trial_index": 48, "time_elapsed": 1543414, "internal_node_id": "0.0-6.0-1.0-39.0"}}, {"uniqueid": "w48950164:a63374786", "current_trial": 49, "dateTime": 1693566475929, "trialdata": {"rt": 72376, "response": {"Q0": "$-2 to $2", "Q1": "$-32 to $32", "Q2": "$-88 to $88", "Q3": "The cost for clicking on nodes varied between nodes.", "Q4": "Slightly motivated"}, "question_order": [0, 1, 2, 3, 4], "trial_id": "final_quiz_control", "trial_type": "survey-multi-choice", "trial_index": 49, "time_elapsed": 1615797, "internal_node_id": "0.0-6.0-2.0"}}, {"uniqueid": "w48950164:a63374786", "current_trial": 50, "dateTime": 1693566693953, "trialdata": {"rt": 218010, "response": {"Q0": "I only clicked on the outer nodes, guesswork as each cluster had both negative and positive amounts.", "Q1": "Not really, I returned to previous high scoring node to see if repeated or if certain clusters had more positive or more negative but all appeared to be random.", "Q2": "I think it was all random so was difficult and with only 3 seconds to choose was hard to decide in time what might be a pattern to check."}, "trial_id": "self_report_control", "trial_type": "survey-text", "trial_index": 50, "time_elapsed": 1833821, "internal_node_id": "0.0-6.0-3.0"}}, {"uniqueid": "w48950164:a63374786", "current_trial": 51, "dateTime": 1693566745178, "trialdata": {"rt": 51218, "response": {"Q0": "Strongly disagree", "Q1": "Neither disagree nor agree", "Q2": "Neither disagree nor agree", "Q3": "Neither disagree nor agree", "Q4": "Neither disagree nor agree", "Q5": "Neither disagree nor agree", "Q6": "Neither disagree nor agree"}, "question_order": [0, 1, 2, 3, 4, 5, 6], "trial_id": "self_report_2", "trial_type": "survey-multi-choice", "trial_index": 51, "time_elapsed": 1885046, "internal_node_id": "0.0-6.0-4.0"}}, {"uniqueid": "w48950164:a63374786", "current_trial": 52, "dateTime": 1693566767767, "trialdata": {"rt": 22581, "response": {"gender": "female", "age": "50", "colorblind": "0", "effort": "0"}, "trial_type": "survey-html-form", "trial_index": 52, "time_elapsed": 1907635, "internal_node_id": "0.0-6.0-5.0"}}, {"uniqueid": "w48950164:a63374786", "current_trial": 53, "dateTime": 1693566788925, "trialdata": {"rt": 21148, "response": {"Q0": "No", "Q1": "No", "Q2": ""}, "trial_type": "survey-text", "trial_index": 53, "time_elapsed": 1928793, "internal_node_id": "0.0-6.0-6.0"}}, {"uniqueid": "w48950164:a63374786", "current_trial": 54, "dateTime": 1693566832042, "trialdata": {"rt": 43110, "stimulus": "<h1>Completion Code Instructions (1/2)</h1>\n<br><br><br><br>\nYou have reached the end of the experiment! The completion code consists of two parts: (1) a code with 2 characters (2) a code with 6 characters. On this page, you will receive the second part of the code. The first part of the completion code will be on the next page.\n<br><br>\nThe second part of your completion code is: <b>EWEK22</b>\n<br><br>\nPlease note this down. Then, press 'Finish HIT' in order to find the first part of your completion code. Once the data has been saved, you will receive this code either in this window or in the original browser window where you started the experiment.\n", "response": 0, "trial_type": "html-button-response", "trial_index": 54, "time_elapsed": 1971910, "internal_node_id": "0.0-6.0-7.0"}}, {"uniqueid": "w48950164:a63374786", "current_trial": 55, "dateTime": 1693566833048, "trialdata": {"success": true, "trial_type": "fullscreen", "trial_index": 55, "time_elapsed": 1972916, "internal_node_id": "0.0-7.0"}}], "questiondata": {"params": {"CODE": "C6DMOQA6", "MIN_TIME": 14, "inspectCost": 1, "startTime": "Fri Sep 01 2023 11:40:58 GMT+0100 (British Summer Time)", "bonusRate": 0.002, "variance": "1_2_4_8_44", "branching": "31123"}, "final_score": 1830.2}, "eventdata": [{"eventtype": "initialized", "value": null, "timestamp": 1693564858368, "interval": 0}, {"eventtype": "window_resize", "value": [1028, 744], "timestamp": 1693564858368, "interval": 0}, {"eventtype": "window_resize", "value": [1028, 744], "timestamp": 1693564858701, "interval": 333}, {"eventtype": "window_resize", "value": [1536, 864], "timestamp": 1693564864587, "interval": 5886}, {"eventtype": "window_resize", "value": [1028, 744], "timestamp": 1693566832342, "interval": 1967755}], "useragent": "Mozilla/5.0 (Windows NT 10.0; Win64; x64) AppleWebKit/537.36 (KHTML, like Gecko) Chrome/116.0.0.0 Safari/537.36", "mode": "live", "id": "w48950164:a63374786", "status": "user data saved", "Beginhit": "2023-09-01 10:40:56.556944", "Beginexp": "2023-09-01 10:41:05.667962", "Endhit": "2023-09-01 11:13:54.603743", "psiturkStatus": 3, "browser": "<redacted>", "platform": "windows", "language": "en-US"}