{"condition": 0, "counterbalance": 0, "assignmentId": "a38105871", "workerId": "w53698886", "hitId": "h85794708", "currenttrial": 55, "bonus": 0, "data": [{"uniqueid": "w53698886:a38105871", "current_trial": 0, "dateTime": 1693483304451, "trialdata": {"success": true, "trial_type": "fullscreen", "trial_index": 0, "time_elapsed": 7049, "internal_node_id": "0.0-0.0"}}, {"uniqueid": "w53698886:a38105871", "current_trial": 1, "dateTime": 1693483341490, "trialdata": {"view_history": [{"page_index": 0, "viewing_time": 37020}], "rt": 37021, "trial_id": "exp_instructions_control", "trial_type": "instructions", "trial_index": 1, "time_elapsed": 44088, "internal_node_id": "0.0-1.0"}}, {"uniqueid": "w53698886:a38105871", "current_trial": 2, "dateTime": 1693483624387, "trialdata": {"view_history": [{"page_index": 0, "viewing_time": 67409}, {"page_index": 1, "viewing_time": 137320}, {"page_index": 2, "viewing_time": 24288}, {"page_index": 3, "viewing_time": 53876}], "rt": 282893, "trial_id": "mouselab_instructions_1_control", "trial_type": "instructions", "trial_index": 2, "time_elapsed": 326985, "internal_node_id": "0.0-2.0-1.0"}}, {"uniqueid": "w53698886:a38105871", "current_trial": 3, "dateTime": 1693483644433, "trialdata": {"revealed_states": [], "clicked_states": [], "num_clicks_accrued": [0, 0, 0, 0, 0, 0, 0, 0, 0, 0, 0, 0, 0], "stateRewards": ["", 10, -10, 10, 10, -10, -10, -10, 10, 10, 10, 10, 10, -10, 10, -10, -10, -10, -10, 10, 10, -10, 10, -10, -10, 10, -10, -10, -10, 10, -10, -10, 10, 10], "withholdReward": false, "trial_id": "practice_1", "block": "test", "trialIndex": 0, "score": 33.5, "costs": 0, "simulationMode": [null, null, null, null, null], "rewards": [10, -10, 10, 10, 10], "path": ["0", "0", "12", "13", "14", "19", "20"], "rt": [1810, 373, 505, 3047, 457], "actions": ["right", "right", "right", "down", "right"], "actionTimes": [6707, 7589, 8604, 12147, 13108], "queries": {"click": {"state": {"target": [], "time": []}, "edge": {"target": [], "time": []}}, "mouseover": {"state": {"target": [], "time": []}, "edge": {"target": [], "time": []}}, "mouseout": {"state": {"target": ["0"], "time": [17999]}, "edge": {"target": [], "time": []}}}, "displayed_time": "13.62", "trialTime": 19494, "trial_type": "mouselab-mdp", "trial_index": 3, "time_elapsed": 347030, "internal_node_id": "0.0-2.0-2.0-0.0"}}, {"uniqueid": "w53698886:a38105871", "current_trial": 4, "dateTime": 1693483658140, "trialdata": {"revealed_states": [], "clicked_states": [], "num_clicks_accrued": [0, 0, 0, 0, 0, 0, 0, 0, 0, 0, 0, 0, 0], "stateRewards": ["", 10, -10, -10, -10, -10, -10, -10, -10, 10, 10, 10, 10, -10, 10, 10, 10, -10, 10, -10, 10, -10, 10, -10, 10, -10, 10, 10, 10, 10, -10, 10, -10, 10], "withholdReward": false, "trial_id": "practice_2", "block": "test", "trialIndex": 1, "score": -26.5, "costs": 0, "simulationMode": [null, null, null, null, null], "rewards": [10, -10, -10, -10, -10], "path": ["0", "0", "1", "2", "3", "4", "5"], "rt": [1856, 126, 186, 579, 363], "actions": ["up", "up", "up", "right", "up"], "actionTimes": [5833, 6457, 7151, 8228, 9097], "queries": {"click": {"state": {"target": [], "time": []}, "edge": {"target": [], "time": []}}, "mouseover": {"state": {"target": [], "time": []}, "edge": {"target": [], "time": []}}, "mouseout": {"state": {"target": ["0", "0"], "time": [11316, 12367]}, "edge": {"target": [], "time": []}}}, "displayed_time": "9.60", "trialTime": 13344, "trial_type": "mouselab-mdp", "trial_index": 4, "time_elapsed": 360737, "internal_node_id": "0.0-2.0-2.0-1.0"}}, {"uniqueid": "w53698886:a38105871", "current_trial": 5, "dateTime": 1693483710827, "trialdata": {"view_history": [{"page_index": 0, "viewing_time": 39655}, {"page_index": 1, "viewing_time": 13024}], "rt": 52679, "trial_id": "mouselab_instructions_2_control", "trial_type": "instructions", "trial_index": 5, "time_elapsed": 413424, "internal_node_id": "0.0-2.0-3.0"}}, {"uniqueid": "w53698886:a38105871", "current_trial": 6, "dateTime": 1693483752224, "trialdata": {"rt": 41392, "response": {"Q0": "The cost for clicking on nodes may vary between nodes.", "Q1": "The better I perform the higher my bonus will be.", "Q2": "No, the amount of cash at each node of the web may be different each time.", "Q3": "To get the highest total score.", "Q4": "Only before moving the spider.", "Q5": "3 seconds"}, "question_order": [0, 1, 2, 3, 4, 5], "correct": {"Q0": "The cost for clicking on nodes may vary between nodes.", "Q1": "The better I perform the higher my bonus will be.", "Q2": "No, the amount of cash at each node of the web may be different each time.", "Q3": "To get the highest total score.", "Q4": "Only before moving the spider.", "Q5": "3 seconds"}, "trial_id": "mouselab_quiz_control", "trial_type": "survey-multi-choice", "trial_index": 6, "time_elapsed": 454822, "internal_node_id": "0.0-2.0-4.0"}}, {"uniqueid": "w53698886:a38105871", "current_trial": 7, "dateTime": 1693483760003, "trialdata": {"rt": 7771, "response": {"Q0": "No"}, "question_order": [0], "trial_id": "repeat_check", "trial_type": "survey-multi-choice", "trial_index": 7, "time_elapsed": 462601, "internal_node_id": "0.0-4.0-0.0"}}, {"uniqueid": "w53698886:a38105871", "current_trial": 8, "dateTime": 1693483774448, "trialdata": {"rt": 14436, "stimulus": "\n<h1> Get ready to start the game! </h1>\n\nThank you for reading the instructions. Get ready start with the 40 rounds of this game.\n<br><br>\nIf you need to take a break, feel free to take one after the end of a round, before continuing to the next one.\n<br><br>\nRemember, the more money the spider gets, the bigger your bonus will be!\n<br><br>\n<div style='text-align: center;'>Press <code>space</code> to begin.</div>\n\n<br><br>\n(If, at any point, the <code>space</code> key does not take you to the next page, click once on the text and try again.)", "response": " ", "trial_id": "mdp_ready", "trial_type": "html-keyboard-response", "trial_index": 8, "time_elapsed": 477046, "internal_node_id": "0.0-6.0-0.0"}}, {"uniqueid": "w53698886:a38105871", "current_trial": 9, "dateTime": 1693483797004, "trialdata": {"revealed_states": [], "clicked_states": ["12", "1", "23"], "num_clicks_accrued": [0, 0, 0, 0, 0, 0, 0, 0, 0, 0, 0, 0, 0], "stateRewards": ["", -1, 1, -5, -6, -78, 47, -13, 12, 48, -88, 20, 2, -3, -2, 13, -20, 37, -57, 14, -38, 30, 31, -2, -2, 8, 2, -23, 78, 28, 12, -74, -88, 8], "withholdReward": false, "trial_id": "mdp_trial_1", "block": "test", "trialIndex": 2, "score": 50.8, "costs": -4.199999999999999, "simulationMode": [null, null, null, null, null], "rewards": [-1, 1, -5, 12, 48], "path": ["0", "0", "1", "2", "3", "8", "9"], "rt": [10125, 255, 531, 503, 192], "actions": ["up", "up", "up", "left", "up"], "actionTimes": [12606, 13364, 14407, 15412, 16103], "queries": {"click": {"state": {"target": ["12", "1", "23"], "time": [4372, 6886, 10515]}, "edge": {"target": [], "time": []}}, "mouseover": {"state": {"target": ["12", "13", "1", "23", "23", "1"], "time": [3168, 5492, 6708, 7902, 9909, 11844]}, "edge": {"target": [], "time": []}}, "mouseout": {"state": {"target": ["0", "12", "13", "1", "23", "23", "1", "12", "12"], "time": [3118, 5341, 6290, 7822, 9408, 11594, 18845, 19009, 19029]}, "edge": {"target": [], "time": []}}}, "displayed_time": "16.61", "trialTime": 22182, "trial_type": "mouselab-mdp", "trial_index": 9, "time_elapsed": 499601, "internal_node_id": "0.0-6.0-1.0-0.0"}}, {"uniqueid": "w53698886:a38105871", "current_trial": 10, "dateTime": 1693483819529, "trialdata": {"revealed_states": [], "clicked_states": ["12", "23", "3"], "num_clicks_accrued": [0, 0, 0, 0, 0, 0, 0, 0, 0, 0, 0, 0, 0], "stateRewards": ["", -2, 2, 8, -6, -25, 3, 87, 2, -62, -2, 74, -2, -1, 2, -1, 79, 49, -37, -14, 5, 67, -9, -1, 2, -2, 5, 15, 38, 32, -14, -38, -38, 30], "withholdReward": false, "trial_id": "mdp_trial_2", "block": "test", "trialIndex": 3, "score": 10.8, "costs": -4.199999999999999, "simulationMode": [null, null, null, null, null], "rewards": [-1, 2, -2, -14, 30], "path": ["0", "0", "23", "24", "25", "30", "33"], "rt": [8048, 85, 2599, 1470, 646], "actions": ["left", "left", "left", "down", "left"], "actionTimes": [10536, 11115, 14217, 16204, 17350], "queries": {"click": {"state": {"target": ["12", "23", "3"], "time": [3432, 5996, 7642]}, "edge": {"target": [], "time": []}}, "mouseover": {"state": {"target": ["12", "1", "23", "1", "2", "3"], "time": [3141, 4011, 5630, 6742, 7178, 7345]}, "edge": {"target": [], "time": []}}, "mouseout": {"state": {"target": ["0", "12", "1", "23", "1", "2", "3", "2", "1", "0"], "time": [3078, 3763, 5431, 6644, 7079, 7278, 20663, 20713, 20747, 20779]}, "edge": {"target": [], "time": []}}}, "displayed_time": "17.85", "trialTime": 22123, "trial_type": "mouselab-mdp", "trial_index": 10, "time_elapsed": 522126, "internal_node_id": "0.0-6.0-1.0-1.0"}}, {"uniqueid": "w53698886:a38105871", "current_trial": 11, "dateTime": 1693483840027, "trialdata": {"revealed_states": [], "clicked_states": ["24"], "num_clicks_accrued": [0, 0, 0, 0, 0, 0, 0, 0, 0, 0, 0, 0, 0], "stateRewards": ["", 1, 1, -7, -9, -44, 24, -83, -15, 44, -24, 72, -2, -3, 4, -5, 57, 55, 29, -11, 22, 12, -25, -1, 2, 7, 12, 33, -8, 47, -4, 8, 50, -4], "withholdReward": false, "trial_id": "mdp_trial_3", "block": "test", "trialIndex": 4, "score": 65.6, "costs": -1.4, "simulationMode": [null, null, null, null, null], "rewards": [-1, 2, 7, 12, 47], "path": ["0", "0", "23", "24", "25", "26", "29"], "rt": [5799, 2, 308, 585, 224], "actions": ["left", "left", "left", "up", "left"], "actionTimes": [8859, 9378, 10208, 11302, 12024], "queries": {"click": {"state": {"target": ["24"], "time": [5327]}, "edge": {"target": [], "time": []}}, "mouseover": {"state": {"target": ["23", "24", "25", "28", "23"], "time": [4811, 5159, 5781, 6498, 7277]}, "edge": {"target": [], "time": []}}, "mouseout": {"state": {"target": ["0", "23", "24", "25", "28", "23"], "time": [4793, 4877, 5636, 6314, 7196, 14456]}, "edge": {"target": [], "time": []}}}, "displayed_time": "17.07", "trialTime": 19998, "trial_type": "mouselab-mdp", "trial_index": 11, "time_elapsed": 542624, "internal_node_id": "0.0-6.0-1.0-2.0"}}, {"uniqueid": "w53698886:a38105871", "current_trial": 12, "dateTime": 1693483861184, "trialdata": {"revealed_states": [], "clicked_states": ["2", "12", "14"], "num_clicks_accrued": [0, 0, 0, 0, 0, 0, 0, 0, 0, 0, 0, 0, 0], "stateRewards": ["", -1, 4, -3, 3, 57, -61, 5, -11, 23, -1, 34, -2, -4, -1, -13, 27, 38, -36, 4, -45, 21, 88, 1, -2, -1, 1, -69, -5, -78, -12, -9, 38, -54], "withholdReward": false, "trial_id": "mdp_trial_4", "block": "test", "trialIndex": 5, "score": -72.2, "costs": -4.199999999999999, "simulationMode": [null, null, null, null, null], "rewards": [1, -2, -1, -12, -54], "path": ["0", "0", "23", "24", "25", "30", "33"], "rt": [7634, 130, 2022, 572, 93], "actions": ["left", "left", "left", "down", "left"], "actionTimes": [9940, 10569, 13096, 14178, 14769], "queries": {"click": {"state": {"target": ["2", "12", "14"], "time": [3569, 6091, 8143]}, "edge": {"target": [], "time": []}}, "mouseover": {"state": {"target": ["1", "2", "7", "18", "12", "13", "14"], "time": [3099, 3299, 3920, 4636, 5740, 6886, 7836]}, "edge": {"target": [], "time": []}}, "mouseout": {"state": {"target": ["1", "2", "7", "18", "12", "13", "14", "20", "21"], "time": [3200, 3789, 4384, 5672, 6852, 7789, 18627, 19627, 19671]}, "edge": {"target": [], "time": []}}}, "displayed_time": "16.31", "trialTime": 20653, "trial_type": "mouselab-mdp", "trial_index": 12, "time_elapsed": 563781, "internal_node_id": "0.0-6.0-1.0-3.0"}}, {"uniqueid": "w53698886:a38105871", "current_trial": 13, "dateTime": 1693483884619, "trialdata": {"revealed_states": [], "clicked_states": ["1", "12", "23", "25"], "num_clicks_accrued": [0, 0, 0, 0, 0, 0, 0, 0, 0, 0, 0, 0, 0], "stateRewards": ["", -2, 3, -1, 2, -72, 63, 20, -1, 62, -66, 39, -2, 3, -6, 14, 22, 47, 1, 8, -49, -1, -41, 2, 2, -6, -16, -64, -60, -34, 16, 54, 22, -7], "withholdReward": false, "trial_id": "mdp_trial_5", "block": "test", "trialIndex": 6, "score": -75.6, "costs": -5.6, "simulationMode": [null, null, null, null, null], "rewards": [-2, 3, -1, 2, -72], "path": ["0", "0", "1", "2", "3", "4", "5"], "rt": [11235, 449, 2053, 420, 282], "actions": ["up", "up", "up", "right", "up"], "actionTimes": [12961, 13912, 16466, 17387, 18167], "queries": {"click": {"state": {"target": ["1", "12", "23", "25"], "time": [3008, 4773, 6659, 8962]}, "edge": {"target": [], "time": []}}, "mouseover": {"state": {"target": ["1", "12", "0", "23", "23", "24", "25", "24", "23"], "time": [2727, 4580, 6009, 6058, 6461, 7547, 8630, 11645, 11818]}, "edge": {"target": [], "time": []}}, "mouseout": {"state": {"target": ["0", "1", "12", "0", "23", "23", "24", "25", "24", "23", "0", "12"], "time": [1342, 4212, 5991, 6025, 6341, 7527, 8582, 11607, 11799, 11848, 21334, 21366]}, "edge": {"target": [], "time": []}}}, "displayed_time": "18.66", "trialTime": 22970, "trial_type": "mouselab-mdp", "trial_index": 13, "time_elapsed": 587216, "internal_node_id": "0.0-6.0-1.0-4.0"}}, {"uniqueid": "w53698886:a38105871", "current_trial": 14, "dateTime": 1693483912613, "trialdata": {"revealed_states": [], "clicked_states": ["20", "13", "25", "27", "2", "5"], "num_clicks_accrued": [0, 0, 0, 0, 0, 0, 0, 0, 0, 0, 0, 0, 0], "stateRewards": ["", -1, 1, 8, -8, -49, 62, -78, 16, 28, -81, 78, -2, -3, -1, -4, 67, 49, -2, -13, -16, -39, 83, 1, -4, 4, -5, -20, 7, 84, 7, -32, -59, 19], "withholdReward": false, "trial_id": "mdp_trial_6", "block": "test", "trialIndex": 7, "score": 43.6, "costs": -8.4, "simulationMode": [null, null, null, null, null], "rewards": [-1, 1, 8, 16, 28], "path": ["0", "0", "1", "2", "3", "8", "9"], "rt": [14329, 585, 220, 441, 2350], "actions": ["up", "up", "up", "left", "up"], "actionTimes": [17502, 18598, 19312, 20251, 23112], "queries": {"click": {"state": {"target": ["20", "13", "25", "27", "2", "5"], "time": [4572, 6507, 8811, 11565, 13451, 15827]}, "edge": {"target": [], "time": []}}, "mouseover": {"state": {"target": ["0", "22", "21", "20", "14", "13", "12", "30", "25", "26", "27", "29", "26", "10", "2", "3", "5", "1"], "time": [3900, 3983, 4066, 4338, 5319, 6221, 7119, 7573, 8508, 9636, 11291, 12270, 12808, 12906, 13171, 14389, 15487, 16754]}, "edge": {"target": [], "time": []}}, "mouseout": {"state": {"target": ["12", "0", "0", "22", "21", "20", "14", "13", "12", "30", "25", "26", "27", "29", "26", "10", "2", "3", "5", "2", "1", "0", "12", "13", "14"], "time": [2401, 2597, 3951, 4016, 4187, 5200, 6186, 7101, 7135, 8092, 9535, 10693, 12203, 12791, 12828, 13137, 14255, 15087, 16273, 16715, 16810, 25195, 25242, 25275, 25292]}, "edge": {"target": [], "time": []}}}, "displayed_time": "23.61", "trialTime": 27548, "trial_type": "mouselab-mdp", "trial_index": 14, "time_elapsed": 615210, "internal_node_id": "0.0-6.0-1.0-5.0"}}, {"uniqueid": "w53698886:a38105871", "current_trial": 15, "dateTime": 1693483932535, "trialdata": {"revealed_states": [], "clicked_states": ["8", "3", "10"], "num_clicks_accrued": [0, 0, 0, 0, 0, 0, 0, 0, 0, 0, 0, 0, 0], "stateRewards": ["", 1, 3, 3, -10, 52, 68, 59, 12, 7, 49, 21, -2, -3, -4, -2, -2, 63, 63, -4, 44, 43, -76, -2, -3, -6, 13, 48, 36, 12, -5, -36, -33, -11], "withholdReward": false, "trial_id": "mdp_trial_7", "block": "test", "trialIndex": 8, "score": 51.8, "costs": -4.199999999999999, "simulationMode": [null, null, null, null, null], "rewards": [1, 3, 3, -10, 59], "path": ["0", "0", "1", "2", "3", "4", "7"], "rt": [8685, 154, 1022, 79, 609], "actions": ["up", "up", "up", "right", "down"], "actionTimes": [10833, 11501, 13023, 13645, 14760], "queries": {"click": {"state": {"target": ["8", "3", "10"], "time": [3664, 5243, 7693]}, "edge": {"target": [], "time": []}}, "mouseover": {"state": {"target": ["1", "2", "3", "8", "9", "3", "2", "1", "10", "2", "4"], "time": [3095, 3131, 3225, 3512, 4262, 4745, 5776, 6527, 7345, 8532, 8880]}, "edge": {"target": [], "time": []}}, "mouseout": {"state": {"target": ["12", "0", "1", "2", "3", "8", "9", "3", "2", "1", "10", "2", "4", "7", "12"], "time": [1376, 3057, 3113, 3175, 3362, 4196, 4716, 5727, 6493, 7281, 8528, 8545, 9629, 18250, 18349]}, "edge": {"target": [], "time": []}}}, "displayed_time": "16.16", "trialTime": 19485, "trial_type": "mouselab-mdp", "trial_index": 15, "time_elapsed": 635132, "internal_node_id": "0.0-6.0-1.0-6.0"}}, {"uniqueid": "w53698886:a38105871", "current_trial": 16, "dateTime": 1693483952850, "trialdata": {"revealed_states": [], "clicked_states": ["15", "2"], "num_clicks_accrued": [0, 0, 0, 0, 0, 0, 0, 0, 0, 0, 0, 0, 0], "stateRewards": ["", -2, 2, -5, -6, 10, -66, -58, -10, -11, -63, -70, -1, -4, -5, 7, 66, -64, -43, -3, 45, -37, 4, -2, -2, -6, -4, -30, 33, 43, 15, -32, -65, -59], "withholdReward": false, "trial_id": "mdp_trial_8", "block": "test", "trialIndex": 9, "score": -3.8000000000000007, "costs": -2.8, "simulationMode": [null, null, null, null, null], "rewards": [-2, 2, -5, -6, 10], "path": ["0", "0", "1", "2", "3", "4", "5"], "rt": [5322, 36, 105, 413, 329], "actions": ["up", "up", "up", "right", "up"], "actionTimes": [9206, 9745, 10346, 11255, 12105], "queries": {"click": {"state": {"target": ["15", "2"], "time": [5104, 7496]}, "edge": {"target": [], "time": []}}, "mouseover": {"state": {"target": ["12", "15", "18", "1", "1", "2"], "time": [4556, 4922, 5723, 5772, 6073, 7341]}, "edge": {"target": [], "time": []}}, "mouseout": {"state": {"target": ["0", "12", "15", "15", "18", "1", "1", "2", "2", "18"], "time": [4521, 4622, 5216, 5413, 5740, 5853, 7275, 7652, 8305, 18195]}, "edge": {"target": [], "time": []}}}, "displayed_time": "17.89", "trialTime": 19838, "trial_type": "mouselab-mdp", "trial_index": 16, "time_elapsed": 655447, "internal_node_id": "0.0-6.0-1.0-7.0"}}, {"uniqueid": "w53698886:a38105871", "current_trial": 17, "dateTime": 1693483975017, "trialdata": {"revealed_states": [], "clicked_states": [], "num_clicks_accrued": [0, 0, 0, 0, 0, 0, 0, 0, 0, 0, 0, 0, 0], "stateRewards": ["", -2, -4, -2, 10, -8, -15, -47, 7, -84, 53, 5, -1, 2, -7, 3, 83, 31, 47, -1, 30, -8, 69, 2, -4, -1, 8, -7, 12, -8, -8, -13, 30, -84], "withholdReward": false, "trial_id": "mdp_trial_9", "block": "test", "trialIndex": 10, "score": -3, "costs": 0, "simulationMode": [null, null, null, null, null], "rewards": [2, -4, -1, 8, -8], "path": ["0", "0", "23", "24", "25", "26", "29"], "rt": [1813, 125, 84, 642, 189], "actions": ["left", "left", "left", "up", "left"], "actionTimes": [5488, 6126, 6719, 7860, 8556], "queries": {"click": {"state": {"target": [], "time": []}, "edge": {"target": [], "time": []}}, "mouseover": {"state": {"target": [], "time": []}, "edge": {"target": [], "time": []}}, "mouseout": {"state": {"target": ["0", "12"], "time": [11035, 11085]}, "edge": {"target": [], "time": []}}}, "displayed_time": "17.69", "trialTime": 21708, "trial_type": "mouselab-mdp", "trial_index": 17, "time_elapsed": 677614, "internal_node_id": "0.0-6.0-1.0-8.0"}}, {"uniqueid": "w53698886:a38105871", "current_trial": 18, "dateTime": 1693483995802, "trialdata": {"revealed_states": [], "clicked_states": ["32"], "num_clicks_accrued": [0, 0, 0, 0, 0, 0, 0, 0, 0, 0, 0, 0, 0], "stateRewards": ["", 1, -3, -6, -5, 47, 80, -29, 11, -71, 10, -29, -2, 3, -6, 12, 2, -78, -6, 8, 34, -16, -5, -1, 3, 3, -13, 84, -36, -62, -3, -27, 66, 15], "withholdReward": false, "trial_id": "mdp_trial_10", "block": "test", "trialIndex": 11, "score": 66.6, "costs": -1.4, "simulationMode": [null, null, null, null, null], "rewards": [-1, 3, 3, -3, 66], "path": ["0", "0", "23", "24", "25", "30", "32"], "rt": [13435, 27, 476, 493, 39], "actions": ["left", "left", "left", "down", "down"], "actionTimes": [14854, 15382, 16366, 17367, 17911], "queries": {"click": {"state": {"target": ["32"], "time": [2616]}, "edge": {"target": [], "time": []}}, "mouseover": {"state": {"target": ["31", "32", "32", "30", "25", "24", "24", "23"], "time": [2030, 2080, 2449, 3350, 3651, 5682, 7800, 8067]}, "edge": {"target": [], "time": []}}, "mouseout": {"state": {"target": ["0", "31", "32", "32", "30", "25", "24", "24", "23"], "time": [1980, 2049, 2132, 3262, 3482, 5648, 6350, 7916, 9383]}, "edge": {"target": [], "time": []}}}, "displayed_time": "18.41", "trialTime": 20300, "trial_type": "mouselab-mdp", "trial_index": 18, "time_elapsed": 698398, "internal_node_id": "0.0-6.0-1.0-9.0"}}, {"uniqueid": "w53698886:a38105871", "current_trial": 19, "dateTime": 1693484017330, "trialdata": {"revealed_states": [], "clicked_states": ["21"], "num_clicks_accrued": [0, 0, 0, 0, 0, 0, 0, 0, 0, 0, 0, 0, 0], "stateRewards": ["", -2, -1, -2, -15, 87, 57, 29, -10, 77, -80, -7, 1, -3, 6, 14, -11, 87, -59, 4, -71, 16, -11, 2, 2, -7, 2, -47, 61, 50, 14, -20, 17, 81], "withholdReward": false, "trial_id": "mdp_trial_11", "block": "test", "trialIndex": 12, "score": 103.6, "costs": -1.4, "simulationMode": [null, null, null, null, null, null], "rewards": [1, -3, 6, 14, 87], "path": ["0", "0", "12", "13", "14", "15", "17"], "rt": [2769, 937, 244, 140, 451, 92], "actions": ["right", "right", "right", "right", "up", "right"], "actionTimes": [4471, 5415, 6152, 6815, 7761, 8353], "queries": {"click": {"state": {"target": ["21"], "time": [3357]}, "edge": {"target": [], "time": []}}, "mouseover": {"state": {"target": ["12", "22", "21", "21"], "time": [2356, 2397, 2443, 2758]}, "edge": {"target": [], "time": []}}, "mouseout": {"state": {"target": ["23", "12", "22", "21", "21"], "time": [922, 2389, 2418, 2467, 12015]}, "edge": {"target": [], "time": []}}}, "displayed_time": "15.71", "trialTime": 21044, "trial_type": "mouselab-mdp", "trial_index": 19, "time_elapsed": 719927, "internal_node_id": "0.0-6.0-1.0-10.0"}}, {"uniqueid": "w53698886:a38105871", "current_trial": 20, "dateTime": 1693484037011, "trialdata": {"revealed_states": [], "clicked_states": [], "num_clicks_accrued": [0, 0, 0, 0, 0, 0, 0, 0, 0, 0, 0, 0, 0], "stateRewards": ["", -1, 1, 6, -6, 70, 66, 67, -16, -75, -35, 37, -1, 4, 4, -6, 47, -9, 63, 15, 21, -63, 13, 1, 3, -6, 10, 79, -29, 18, -15, 9, -67, -19], "withholdReward": false, "trial_id": "mdp_trial_12", "block": "test", "trialIndex": 13, "score": -8, "costs": 0, "simulationMode": [null, null, null, null, null], "rewards": [-1, 4, 4, -6, -9], "path": ["0", "0", "12", "13", "14", "15", "17"], "rt": [2896, 363, 336, 1143, 946], "actions": ["right", "right", "right", "up", "right"], "actionTimes": [5704, 6563, 7403, 9041, 10497], "queries": {"click": {"state": {"target": [], "time": []}, "edge": {"target": [], "time": []}}, "mouseover": {"state": {"target": [], "time": []}, "edge": {"target": [], "time": []}}, "mouseout": {"state": {"target": ["20", "19", "12", "23", "0"], "time": [1661, 1694, 1759, 2094, 14267]}, "edge": {"target": [], "time": []}}}, "displayed_time": "16.81", "trialTime": 19223, "trial_type": "mouselab-mdp", "trial_index": 20, "time_elapsed": 739608, "internal_node_id": "0.0-6.0-1.0-11.0"}}, {"uniqueid": "w53698886:a38105871", "current_trial": 21, "dateTime": 1693484057174, "trialdata": {"revealed_states": [], "clicked_states": ["29", "26", "27"], "num_clicks_accrued": [0, 0, 0, 0, 0, 0, 0, 0, 0, 0, 0, 0, 0], "stateRewards": ["", 2, 1, -3, 7, 46, 11, -36, 16, 71, 5, 1, 2, -2, -8, -3, -4, 6, 55, 7, 68, -54, 2, 1, 1, 6, -6, 42, -4, -84, -11, -65, 63, 25], "withholdReward": false, "trial_id": "mdp_trial_13", "block": "test", "trialIndex": 14, "score": 39.8, "costs": -4.199999999999999, "simulationMode": [null, null, null, null, null], "rewards": [1, 1, 6, -6, 42], "path": ["0", "0", "23", "24", "25", "26", "27"], "rt": [10470, 92, 101, 570, 3], "actions": ["left", "left", "left", "up", "up"], "actionTimes": [12369, 12976, 13585, 14652, 15153], "queries": {"click": {"state": {"target": ["29", "26", "27"], "time": [3636, 6017, 7783]}, "edge": {"target": [], "time": []}}, "mouseover": {"state": {"target": ["28", "26", "29", "26", "27", "25", "26"], "time": [3069, 3134, 3384, 4305, 6632, 8700, 10705]}, "edge": {"target": [], "time": []}}, "mouseout": {"state": {"target": ["28", "26", "29", "29", "26", "27", "26", "25", "26"], "time": [3100, 3334, 3737, 4281, 6433, 8515, 8656, 10566, 10730]}, "edge": {"target": [], "time": []}}}, "displayed_time": "15.90", "trialTime": 19614, "trial_type": "mouselab-mdp", "trial_index": 21, "time_elapsed": 759771, "internal_node_id": "0.0-6.0-1.0-12.0"}}, {"uniqueid": "w53698886:a38105871", "current_trial": 22, "dateTime": 1693484077460, "trialdata": {"revealed_states": [], "clicked_states": ["14", "16"], "num_clicks_accrued": [0, 0, 0, 0, 0, 0, 0, 0, 0, 0, 0, 0, 0], "stateRewards": ["", 1, -1, 8, -3, 38, 85, -20, -4, 8, 23, 73, 2, -4, 6, -13, 44, 7, -28, -11, -77, 45, -69, 1, -1, -7, -11, 75, -51, -87, 7, 36, -53, -26], "withholdReward": false, "trial_id": "mdp_trial_14", "block": "test", "trialIndex": 15, "score": 32.2, "costs": -2.8, "simulationMode": [null, null, null, null, null], "rewards": [2, -4, 6, -13, 44], "path": ["0", "0", "12", "13", "14", "15", "16"], "rt": [9503, 92, 650, 378, 69], "actions": ["right", "right", "right", "up", "up"], "actionTimes": [11058, 11645, 12802, 13679, 14256], "queries": {"click": {"state": {"target": ["14", "16"], "time": [3485, 7308]}, "edge": {"target": [], "time": []}}, "mouseover": {"state": {"target": ["12", "13", "14", "17", "15", "16", "17"], "time": [2539, 2567, 2965, 4252, 5618, 7051, 7873]}, "edge": {"target": [], "time": []}}, "mouseout": {"state": {"target": ["12", "13", "14", "17", "15", "16", "16"], "time": [2559, 2916, 4118, 5234, 7001, 7423, 7551]}, "edge": {"target": [], "time": []}}}, "displayed_time": "15.56", "trialTime": 19798, "trial_type": "mouselab-mdp", "trial_index": 22, "time_elapsed": 780057, "internal_node_id": "0.0-6.0-1.0-13.0"}}, {"uniqueid": "w53698886:a38105871", "current_trial": 23, "dateTime": 1693484102383, "trialdata": {"revealed_states": [], "clicked_states": ["3"], "num_clicks_accrued": [0, 0, 0, 0, 0, 0, 0, 0, 0, 0, 0, 0, 0], "stateRewards": ["", -1, -3, 3, 5, 56, 39, 50, -1, -80, 33, -46, 1, -2, -6, -8, 87, 48, 54, -11, -20, -64, -54, -2, 3, -7, -3, 12, 88, 35, -16, -46, -70, -3], "withholdReward": false, "trial_id": "mdp_trial_15", "block": "test", "trialIndex": 16, "score": -83.4, "costs": -1.4, "simulationMode": [null, null, null, null, null], "rewards": [-1, -3, 3, -1, -80], "path": ["0", "0", "1", "2", "3", "8", "9"], "rt": [11084, 618, 2527, 338, 81], "actions": ["up", "up", "up", "left", "up"], "actionTimes": [13926, 15049, 18078, 18925, 19547], "queries": {"click": {"state": {"target": ["3"], "time": [5121]}, "edge": {"target": [], "time": []}}, "mouseover": {"state": {"target": ["1", "2", "3", "5", "4", "8", "11", "9", "5", "4", "6"], "time": [4128, 4379, 4762, 5844, 7443, 8430, 8631, 8997, 10364, 13051, 13183]}, "edge": {"target": [], "time": []}}, "mouseout": {"state": {"target": ["17", "15", "18", "1", "0", "1", "2", "3", "5", "4", "8", "11", "9", "5", "4", "6", "6", "18"], "time": [813, 856, 874, 971, 4048, 4295, 4579, 5611, 7376, 8380, 8445, 8913, 10248, 13031, 13064, 13265, 23453, 23603]}, "edge": {"target": [], "time": []}}}, "displayed_time": "20.06", "trialTime": 24408, "trial_type": "mouselab-mdp", "trial_index": 23, "time_elapsed": 804980, "internal_node_id": "0.0-6.0-1.0-14.0"}}, {"uniqueid": "w53698886:a38105871", "current_trial": 24, "dateTime": 1693484124533, "trialdata": {"revealed_states": [], "clicked_states": ["31", "29"], "num_clicks_accrued": [0, 0, 0, 0, 0, 0, 0, 0, 0, 0, 0, 0, 0], "stateRewards": ["", -2, -1, -5, 10, -36, -70, 68, -9, 86, 71, -10, 2, -4, 7, -7, 66, 44, -66, -13, -69, 43, 15, -2, 2, 6, -13, 62, 57, 50, -10, -69, 42, -72], "withholdReward": false, "trial_id": "mdp_trial_16", "block": "test", "trialIndex": 17, "score": 40.2, "costs": -2.8, "simulationMode": [null, null, null, null, null], "rewards": [-2, 2, 6, -13, 50], "path": ["0", "0", "23", "24", "25", "26", "29"], "rt": [6968, 39, 47, 631, 178], "actions": ["left", "left", "left", "up", "left"], "actionTimes": [8730, 9291, 9847, 10983, 11664], "queries": {"click": {"state": {"target": ["31", "29"], "time": [2929, 5350]}, "edge": {"target": [], "time": []}}, "mouseover": {"state": {"target": ["31", "31", "24", "25", "29", "27"], "time": [2526, 2710, 3689, 4406, 4995, 6557]}, "edge": {"target": [], "time": []}}, "mouseout": {"state": {"target": ["0", "0", "31", "31", "24", "25", "29", "27", "3"], "time": [674, 2409, 2574, 3610, 4326, 4423, 6391, 14288, 14402]}, "edge": {"target": [], "time": []}}}, "displayed_time": "15.77", "trialTime": 21613, "trial_type": "mouselab-mdp", "trial_index": 24, "time_elapsed": 827130, "internal_node_id": "0.0-6.0-1.0-15.0"}}, {"uniqueid": "w53698886:a38105871", "current_trial": 25, "dateTime": 1693484143637, "trialdata": {"revealed_states": [], "clicked_states": ["9"], "num_clicks_accrued": [0, 0, 0, 0, 0, 0, 0, 0, 0, 0, 0, 0, 0], "stateRewards": ["", 2, -1, -1, 7, 11, -40, -22, -2, 69, 37, 8, -2, 4, -8, -12, -2, -72, -3, -12, 17, 63, 12, 1, 3, -7, 6, 25, 61, 61, -9, 28, -17, 27], "withholdReward": false, "trial_id": "mdp_trial_17", "block": "test", "trialIndex": 18, "score": 65.6, "costs": -1.4, "simulationMode": [null, null, null, null, null], "rewards": [2, -1, -1, -2, 69], "path": ["0", "0", "1", "2", "3", "8", "9"], "rt": [4858, 325, 615, 784, 382], "actions": ["up", "up", "up", "left", "up"], "actionTimes": [6637, 7480, 8603, 9886, 10772], "queries": {"click": {"state": {"target": ["9"], "time": [3196]}, "edge": {"target": [], "time": []}}, "mouseover": {"state": {"target": ["1", "9", "5", "5", "8"], "time": [2553, 2900, 3766, 4955, 5503]}, "edge": {"target": [], "time": []}}, "mouseout": {"state": {"target": ["1", "1", "9", "5", "5", "8", "3"], "time": [1098, 2583, 3686, 4719, 5404, 14483, 14536]}, "edge": {"target": [], "time": []}}}, "displayed_time": "15.79", "trialTime": 18528, "trial_type": "mouselab-mdp", "trial_index": 25, "time_elapsed": 846233, "internal_node_id": "0.0-6.0-1.0-16.0"}}, {"uniqueid": "w53698886:a38105871", "current_trial": 26, "dateTime": 1693484163779, "trialdata": {"revealed_states": [], "clicked_states": ["17", "20", "5"], "num_clicks_accrued": [0, 0, 0, 0, 0, 0, 0, 0, 0, 0, 0, 0, 0], "stateRewards": ["", 2, -1, 4, -9, -43, 7, 54, -13, 38, -40, -83, -1, 2, -8, -10, 34, -33, 11, -14, -79, 65, 26, 1, 2, 4, 10, 21, 1, 86, 4, -53, 28, -29], "withholdReward": false, "trial_id": "mdp_trial_18", "block": "test", "trialIndex": 19, "score": 98.8, "costs": -4.199999999999999, "simulationMode": [null, null, null, null, null], "rewards": [1, 2, 4, 10, 86], "path": ["0", "0", "23", "24", "25", "26", "29"], "rt": [9055, 62, 87, 424, 133], "actions": ["left", "left", "left", "up", "left"], "actionTimes": [10994, 11578, 12170, 13088, 13716], "queries": {"click": {"state": {"target": ["17", "20", "5"], "time": [3262, 4902, 6772]}, "edge": {"target": [], "time": []}}, "mouseover": {"state": {"target": ["12", "13", "14", "17", "20", "14", "15", "16", "6", "5", "9"], "time": [2578, 2621, 2637, 2981, 4029, 5762, 5805, 5848, 6155, 6376, 7743]}, "edge": {"target": [], "time": []}}, "mouseout": {"state": {"target": ["4", "7", "0", "12", "13", "14", "17", "20", "14", "15", "16", "6", "5", "9", "6", "7", "12"], "time": [880, 926, 2531, 2605, 2633, 2656, 3612, 5742, 5790, 5822, 6091, 6258, 7577, 16583, 17083, 17550, 18017]}, "edge": {"target": [], "time": []}}}, "displayed_time": "15.94", "trialTime": 19589, "trial_type": "mouselab-mdp", "trial_index": 26, "time_elapsed": 866376, "internal_node_id": "0.0-6.0-1.0-17.0"}}, {"uniqueid": "w53698886:a38105871", "current_trial": 27, "dateTime": 1693484193265, "trialdata": {"revealed_states": [], "clicked_states": ["9", "29", "5"], "num_clicks_accrued": [0, 0, 0, 0, 0, 0, 0, 0, 0, 0, 0, 0, 0], "stateRewards": ["", 1, 1, -3, 7, 49, 78, 26, -5, 26, 48, -43, -1, -3, 2, -5, 4, -1, -60, 10, -35, 51, 81, -2, 1, -7, -5, -39, -86, -54, 4, -3, 74, 77], "withholdReward": false, "trial_id": "mdp_trial_19", "block": "test", "trialIndex": 20, "score": 50.8, "costs": -4.199999999999999, "simulationMode": [null, null, null, null, null], "rewards": [1, 1, -3, 7, 49], "path": ["0", "0", "1", "2", "3", "4", "5"], "rt": [8324, 99, 360, 415, 269], "actions": ["up", "up", "up", "right", "up"], "actionTimes": [10302, 10924, 11780, 12705, 13491], "queries": {"click": {"state": {"target": ["9", "29", "5"], "time": [3462, 5275, 7402]}, "edge": {"target": [], "time": []}}, "mouseover": {"state": {"target": ["1", "2", "3", "9", "11", "27", "29", "26", "10", "2", "4", "5", "4", "7"], "time": [2699, 2765, 2831, 3151, 4185, 4371, 4688, 6066, 6182, 6202, 6316, 6650, 7651, 8533]}, "edge": {"target": [], "time": []}}, "mouseout": {"state": {"target": ["0", "0", "1", "2", "3", "9", "11", "27", "29", "26", "10", "2", "4", "5", "4", "7"], "time": [1315, 2657, 2731, 2798, 3084, 4019, 4304, 4483, 5469, 6116, 6199, 6232, 6550, 7600, 8215, 8566]}, "edge": {"target": [], "time": []}}}, "displayed_time": "15.99", "trialTime": 28926, "trial_type": "mouselab-mdp", "trial_index": 27, "time_elapsed": 895862, "internal_node_id": "0.0-6.0-1.0-18.0"}}, {"uniqueid": "w53698886:a38105871", "current_trial": 28, "dateTime": 1693484218798, "trialdata": {"revealed_states": [], "clicked_states": ["21", "17"], "num_clicks_accrued": [0, 0, 0, 0, 0, 0, 0, 0, 0, 0, 0, 0, 0], "stateRewards": ["", -1, 4, 3, 12, -27, 34, -33, 3, -63, 1, 6, 2, 2, -6, -11, -77, -85, 68, -6, 51, 81, -60, -2, -2, 1, 15, 20, 15, 68, -10, -14, 6, -4], "withholdReward": false, "trial_id": "mdp_trial_20", "block": "test", "trialIndex": 21, "score": 70.2, "costs": -2.8, "simulationMode": [null, null, null, null, null], "rewards": [2, 2, -6, -6, 81], "path": ["0", "0", "12", "13", "14", "19", "21"], "rt": [5408, 32, 227, 510, 6], "actions": ["right", "right", "right", "down", "down"], "actionTimes": [7395, 7972, 8716, 9733, 10246], "queries": {"click": {"state": {"target": ["21", "17"], "time": [3318, 5468]}, "edge": {"target": [], "time": []}}, "mouseover": {"state": {"target": ["22", "21", "20", "17"], "time": [2604, 2788, 4384, 5122]}, "edge": {"target": [], "time": []}}, "mouseout": {"state": {"target": ["0", "22", "21", "20", "17"], "time": [2536, 2670, 4218, 4500, 22493]}, "edge": {"target": [], "time": []}}}, "displayed_time": "16.00", "trialTime": 24982, "trial_type": "mouselab-mdp", "trial_index": 28, "time_elapsed": 921394, "internal_node_id": "0.0-6.0-1.0-19.0"}}, {"uniqueid": "w53698886:a38105871", "current_trial": 29, "dateTime": 1693484237861, "trialdata": {"revealed_states": [], "clicked_states": ["9"], "num_clicks_accrued": [0, 0, 0, 0, 0, 0, 0, 0, 0, 0, 0, 0, 0], "stateRewards": ["", 2, -4, 4, 9, 69, 9, -75, 12, -86, 66, 25, -1, 3, 2, -13, -88, -3, 1, 4, -69, 49, -84, 2, -1, 4, 2, -18, -81, -52, -15, -69, -54, 25], "withholdReward": false, "trial_id": "mdp_trial_21", "block": "test", "trialIndex": 22, "score": 13.6, "costs": -1.4, "simulationMode": [null, null, null, null, null], "rewards": [2, -1, 4, -15, 25], "path": ["0", "0", "23", "24", "25", "30", "33"], "rt": [8135, 6, 211, 635, 110], "actions": ["left", "left", "left", "down", "left"], "actionTimes": [9753, 10271, 11002, 12139, 12751], "queries": {"click": {"state": {"target": ["9"], "time": [2839]}, "edge": {"target": [], "time": []}}, "mouseover": {"state": {"target": ["10", "8", "9", "5", "4", "5"], "time": [2305, 2346, 2374, 3228, 5568, 8258]}, "edge": {"target": [], "time": []}}, "mouseout": {"state": {"target": ["14", "13", "12", "0", "10", "8", "9", "5", "4", "5", "4", "7"], "time": [802, 852, 902, 2238, 2323, 2370, 3158, 5542, 7991, 17307, 17425, 17471]}, "edge": {"target": [], "time": []}}}, "displayed_time": "15.63", "trialTime": 18490, "trial_type": "mouselab-mdp", "trial_index": 29, "time_elapsed": 940458, "internal_node_id": "0.0-6.0-1.0-20.0"}}, {"uniqueid": "w53698886:a38105871", "current_trial": 30, "dateTime": 1693484256939, "trialdata": {"revealed_states": [], "clicked_states": ["5"], "num_clicks_accrued": [0, 0, 0, 0, 0, 0, 0, 0, 0, 0, 0, 0, 0], "stateRewards": ["", 2, 3, 6, -12, -29, 12, 87, 4, 35, -30, 67, 2, 3, -5, -9, 44, 69, -8, 1, 45, -8, 28, -2, -1, -8, 11, -12, -5, 81, 9, 87, 82, 88], "withholdReward": false, "trial_id": "mdp_trial_22", "block": "test", "trialIndex": 23, "score": 44.6, "costs": -1.4, "simulationMode": [null, null, null, null, null, null], "rewards": [2, 3, -5, 1, 45], "path": ["0", "0", "12", "13", "14", "19", "20"], "rt": [3243, 576, 455, 126, 342, 200], "actions": ["right", "right", "right", "right", "down", "right"], "actionTimes": [5637, 6219, 7193, 7825, 8676, 9384], "queries": {"click": {"state": {"target": ["5"], "time": [5020]}, "edge": {"target": [], "time": []}}, "mouseover": {"state": {"target": ["4", "5"], "time": [4431, 4846]}, "edge": {"target": [], "time": []}}, "mouseout": {"state": {"target": ["7", "1", "0", "4", "5", "4", "6", "16", "15", "13"], "time": [1245, 1309, 1675, 4613, 12849, 12900, 12963, 17318, 17802, 17849]}, "edge": {"target": [], "time": []}}}, "displayed_time": "16.41", "trialTime": 18503, "trial_type": "mouselab-mdp", "trial_index": 30, "time_elapsed": 959535, "internal_node_id": "0.0-6.0-1.0-21.0"}}, {"uniqueid": "w53698886:a38105871", "current_trial": 31, "dateTime": 1693484277521, "trialdata": {"revealed_states": [], "clicked_states": ["29", "9"], "num_clicks_accrued": [0, 0, 0, 0, 0, 0, 0, 0, 0, 0, 0, 0, 0], "stateRewards": ["", -1, -4, -1, -5, -28, -23, -15, -15, -38, 59, -87, 2, 2, -5, 9, -55, -39, -71, -6, 85, -85, -11, -1, -2, 5, -10, 1, 25, 41, -4, 69, -35, 86], "withholdReward": false, "trial_id": "mdp_trial_23", "block": "test", "trialIndex": 24, "score": 30.2, "costs": -2.8, "simulationMode": [null, null, null, null, null, null], "rewards": [-1, -2, 5, -10, 41], "path": ["0", "0", "23", "24", "25", "26", "29"], "rt": [5426, 501, 144, 104, 602, 215], "actions": ["left", "left", "left", "left", "up", "left"], "actionTimes": [7976, 8482, 9126, 9738, 10834, 11557], "queries": {"click": {"state": {"target": ["29", "9"], "time": [4459, 6769]}, "edge": {"target": [], "time": []}}, "mouseover": {"state": {"target": ["23", "24", "29", "27", "9"], "time": [3931, 3978, 4032, 5220, 5387]}, "edge": {"target": [], "time": []}}, "mouseout": {"state": {"target": ["12", "0", "23", "24", "29", "27", "9", "4", "2"], "time": [1680, 1995, 3953, 4000, 5163, 5252, 14337, 14818, 14952]}, "edge": {"target": [], "time": []}}}, "displayed_time": "16.56", "trialTime": 19980, "trial_type": "mouselab-mdp", "trial_index": 31, "time_elapsed": 980118, "internal_node_id": "0.0-6.0-1.0-22.0"}}, {"uniqueid": "w53698886:a38105871", "current_trial": 32, "dateTime": 1693484296408, "trialdata": {"revealed_states": [], "clicked_states": ["17"], "num_clicks_accrued": [0, 0, 0, 0, 0, 0, 0, 0, 0, 0, 0, 0, 0], "stateRewards": ["", 2, 4, 4, -8, -36, -33, 38, 16, -51, 57, 57, 1, 3, 4, -6, 45, 68, 87, 1, 63, 24, -55, -2, 2, -6, -13, -63, -50, 8, 2, 80, 6, 60], "withholdReward": false, "trial_id": "mdp_trial_24", "block": "test", "trialIndex": 25, "score": 68.6, "costs": -1.4, "simulationMode": [null, null, null, null, null], "rewards": [1, 3, 4, -6, 68], "path": ["0", "0", "12", "13", "14", "15", "17"], "rt": [4430, 384, 257, 628, 137], "actions": ["right", "right", "right", "up", "right"], "actionTimes": [6230, 7131, 7888, 9058, 9703], "queries": {"click": {"state": {"target": ["17"], "time": [3286]}, "edge": {"target": [], "time": []}}, "mouseover": {"state": {"target": ["12", "13", "14", "17"], "time": [2551, 2585, 2741, 2995]}, "edge": {"target": [], "time": []}}, "mouseout": {"state": {"target": ["2", "1", "0", "12", "13", "14", "17"], "time": [856, 942, 2545, 2574, 2606, 2860, 4017]}, "edge": {"target": [], "time": []}}}, "displayed_time": "15.81", "trialTime": 18323, "trial_type": "mouselab-mdp", "trial_index": 32, "time_elapsed": 999004, "internal_node_id": "0.0-6.0-1.0-23.0"}}, {"uniqueid": "w53698886:a38105871", "current_trial": 33, "dateTime": 1693484316631, "trialdata": {"revealed_states": [], "clicked_states": ["9", "5", "17"], "num_clicks_accrued": [0, 0, 0, 0, 0, 0, 0, 0, 0, 0, 0, 0, 0], "stateRewards": ["", -2, 1, -3, -16, -39, -52, 30, -7, -41, -59, 11, 2, 1, 8, 2, -11, -26, -42, -13, 87, -59, -48, -1, -1, -1, 16, -79, 31, 50, -1, -84, 34, -82], "withholdReward": false, "trial_id": "mdp_trial_25", "block": "test", "trialIndex": 26, "score": -90.2, "costs": -4.199999999999999, "simulationMode": [null, null, null, null, null], "rewards": [-1, -1, -1, -1, -82], "path": ["0", "0", "23", "24", "25", "30", "33"], "rt": [9394, 156, 67, 354, 212], "actions": ["left", "left", "left", "down", "left"], "actionTimes": [11266, 11919, 12480, 13353, 14060], "queries": {"click": {"state": {"target": ["9", "5", "17"], "time": [3119, 5808, 7887]}, "edge": {"target": [], "time": []}}, "mouseover": {"state": {"target": ["10", "9", "5", "4", "16", "17", "17"], "time": [2546, 2762, 4054, 6143, 6359, 6409, 6759]}, "edge": {"target": [], "time": []}}, "mouseout": {"state": {"target": ["15", "18", "12", "0", "10", "9", "5", "4", "16", "17", "17"], "time": [892, 925, 1124, 1338, 2577, 3982, 6074, 6258, 6376, 6425, 18849]}, "edge": {"target": [], "time": []}}}, "displayed_time": "15.88", "trialTime": 19649, "trial_type": "mouselab-mdp", "trial_index": 33, "time_elapsed": 1019228, "internal_node_id": "0.0-6.0-1.0-24.0"}}, {"uniqueid": "w53698886:a38105871", "current_trial": 34, "dateTime": 1693484336373, "trialdata": {"revealed_states": [], "clicked_states": ["32"], "num_clicks_accrued": [0, 0, 0, 0, 0, 0, 0, 0, 0, 0, 0, 0, 0], "stateRewards": ["", 1, -1, -7, -7, -22, 15, -13, 13, 26, -32, 38, -1, 1, -7, -4, 16, -62, 86, 12, -54, 56, 64, -2, -1, 6, 14, -57, 37, 62, -6, -25, 50, -70], "withholdReward": false, "trial_id": "mdp_trial_26", "block": "test", "trialIndex": 27, "score": 45.6, "costs": -1.4, "simulationMode": [null, null, null, null, null], "rewards": [-2, -1, 6, -6, 50], "path": ["0", "0", "23", "24", "25", "30", "32"], "rt": [4827, 114, 680, 758, 431], "actions": ["left", "left", "left", "down", "down"], "actionTimes": [8016, 8651, 9833, 11096, 12035], "queries": {"click": {"state": {"target": ["32"], "time": [4384]}, "edge": {"target": [], "time": []}}, "mouseover": {"state": {"target": ["32", "32"], "time": [3868, 4150]}, "edge": {"target": [], "time": []}}, "mouseout": {"state": {"target": ["17", "25", "25", "24", "23", "0", "32", "32", "21"], "time": [1147, 1248, 1613, 1649, 1698, 3784, 3918, 5131, 14688]}, "edge": {"target": [], "time": []}}}, "displayed_time": "17.19", "trialTime": 19172, "trial_type": "mouselab-mdp", "trial_index": 34, "time_elapsed": 1038969, "internal_node_id": "0.0-6.0-1.0-25.0"}}, {"uniqueid": "w53698886:a38105871", "current_trial": 35, "dateTime": 1693484357510, "trialdata": {"revealed_states": [], "clicked_states": ["21", "32", "29"], "num_clicks_accrued": [0, 0, 0, 0, 0, 0, 0, 0, 0, 0, 0, 0, 0], "stateRewards": ["", 1, 2, -6, -13, -51, 22, -4, -12, -44, -12, 6, -2, -2, -2, -14, -46, -4, -77, -2, 36, -79, 41, 2, -4, 2, -6, -55, 59, 70, -5, 39, -19, 24], "withholdReward": false, "trial_id": "mdp_trial_27", "block": "test", "trialIndex": 28, "score": 59.8, "costs": -4.199999999999999, "simulationMode": [null, null, null, null, null], "rewards": [2, -4, 2, -6, 70], "path": ["0", "0", "23", "24", "25", "26", "29"], "rt": [10388, 80, 175, 542, 162], "actions": ["left", "left", "left", "up", "left"], "actionTimes": [13540, 14144, 14819, 15856, 16527], "queries": {"click": {"state": {"target": ["21", "32", "29"], "time": [4325, 7535, 10606]}, "edge": {"target": [], "time": []}}, "mouseover": {"state": {"target": ["22", "21", "32", "30", "25", "29"], "time": [3778, 3862, 7264, 10066, 10112, 10352]}, "edge": {"target": [], "time": []}}, "mouseout": {"state": {"target": ["20", "22", "12", "0", "22", "21", "32", "30", "25", "29", "26", "28"], "time": [1407, 1457, 1812, 3698, 3833, 5218, 8228, 10092, 10147, 10673, 18580, 18611]}, "edge": {"target": [], "time": []}}}, "displayed_time": "17.16", "trialTime": 20414, "trial_type": "mouselab-mdp", "trial_index": 35, "time_elapsed": 1060106, "internal_node_id": "0.0-6.0-1.0-26.0"}}, {"uniqueid": "w53698886:a38105871", "current_trial": 36, "dateTime": 1693484375571, "trialdata": {"revealed_states": [], "clicked_states": ["17", "20"], "num_clicks_accrued": [0, 0, 0, 0, 0, 0, 0, 0, 0, 0, 0, 0, 0], "stateRewards": ["", 1, 1, -5, 10, -31, 73, 14, -8, -23, 63, -70, -1, 2, 8, 7, 25, -59, 27, -10, -40, -71, -15, -2, 3, -8, -5, -19, 77, -34, 7, 67, 63, 19], "withholdReward": false, "trial_id": "mdp_trial_28", "block": "test", "trialIndex": 29, "score": -26.8, "costs": -2.8, "simulationMode": [null, null, null, null, null], "rewards": [1, 1, -5, 10, -31], "path": ["0", "0", "1", "2", "3", "4", "5"], "rt": [7590, 376, 20, 359, 264], "actions": ["up", "up", "up", "right", "up"], "actionTimes": [9016, 9907, 10442, 11306, 12076], "queries": {"click": {"state": {"target": ["17", "20"], "time": [2665, 5662]}, "edge": {"target": [], "time": []}}, "mouseover": {"state": {"target": ["12", "13", "14", "17", "15", "15", "16", "20"], "time": [1541, 1608, 2076, 2375, 3389, 4882, 4994, 5362]}, "edge": {"target": [], "time": []}}, "mouseout": {"state": {"target": ["1", "12", "13", "14", "17", "15", "15", "16", "20", "19"], "time": [603, 1574, 2041, 2099, 3343, 3433, 4927, 5043, 8179, 16780]}, "edge": {"target": [], "time": []}}}, "displayed_time": "15.43", "trialTime": 17486, "trial_type": "mouselab-mdp", "trial_index": 36, "time_elapsed": 1078168, "internal_node_id": "0.0-6.0-1.0-27.0"}}, {"uniqueid": "w53698886:a38105871", "current_trial": 37, "dateTime": 1693484402345, "trialdata": {"revealed_states": [], "clicked_states": ["9", "5", "29", "33", "20"], "num_clicks_accrued": [0, 0, 0, 0, 0, 0, 0, 0, 0, 0, 0, 0, 0], "stateRewards": ["", -1, -3, -6, -2, -7, 80, -45, -3, -38, -72, 76, 2, 1, 7, 4, -62, 14, -74, 14, -87, -21, -88, -2, 1, -7, -10, 66, 56, -76, 10, -29, -72, -70], "withholdReward": false, "trial_id": "mdp_trial_29", "block": "test", "trialIndex": 30, "score": 21, "costs": -7, "simulationMode": [null, null, null, null, null], "rewards": [2, 1, 7, 4, 14], "path": ["0", "0", "12", "13", "14", "15", "17"], "rt": [16513, 701, 159, 582, 247], "actions": ["right", "right", "right", "up", "right"], "actionTimes": [18781, 19988, 20647, 21739, 22484], "queries": {"click": {"state": {"target": ["9", "5", "29", "33", "20"], "time": [4702, 6919, 8990, 11185, 14459]}, "edge": {"target": [], "time": []}}, "mouseover": {"state": {"target": ["1", "8", "9", "5", "5", "8", "27", "29", "33", "30", "31", "22", "22", "19", "22", "19", "20", "20"], "time": [3551, 3917, 4032, 5799, 6131, 7547, 7613, 7997, 10264, 11482, 11503, 11849, 12836, 13083, 13557, 13800, 13883, 14241]}, "edge": {"target": [], "time": []}}, "mouseout": {"state": {"target": ["0", "1", "8", "9", "5", "5", "8", "27", "29", "33", "30", "31", "22", "22", "19", "22", "19", "20", "20"], "time": [3525, 3574, 3966, 5746, 5818, 7470, 7565, 7647, 9336, 11450, 11499, 11520, 11948, 13003, 13505, 13765, 13849, 13971, 17854]}, "edge": {"target": [], "time": []}}}, "displayed_time": "22.99", "trialTime": 26159, "trial_type": "mouselab-mdp", "trial_index": 37, "time_elapsed": 1104942, "internal_node_id": "0.0-6.0-1.0-28.0"}}, {"uniqueid": "w53698886:a38105871", "current_trial": 38, "dateTime": 1693484422393, "trialdata": {"revealed_states": [], "clicked_states": ["9"], "num_clicks_accrued": [0, 0, 0, 0, 0, 0, 0, 0, 0, 0, 0, 0, 0], "stateRewards": ["", -1, 1, -6, -1, 80, 23, 2, -11, 73, -81, 59, 1, 3, 5, -1, -26, 28, -3, 16, -59, -13, -50, -2, -2, 2, 15, -50, 86, 17, -4, 37, 35, 44], "withholdReward": false, "trial_id": "mdp_trial_30", "block": "test", "trialIndex": 31, "score": 54.6, "costs": -1.4, "simulationMode": [null, null, null, null, null], "rewards": [-1, 1, -6, -11, 73], "path": ["0", "0", "1", "2", "3", "8", "9"], "rt": [5707, 636, 149, 473, 404], "actions": ["up", "up", "up", "left", "up"], "actionTimes": [8365, 9517, 10169, 11139, 12052], "queries": {"click": {"state": {"target": ["9"], "time": [4379]}, "edge": {"target": [], "time": []}}, "mouseover": {"state": {"target": ["1", "2", "9", "8", "5"], "time": [3496, 3548, 3949, 5141, 5290]}, "edge": {"target": [], "time": []}}, "mouseout": {"state": {"target": ["12", "1", "2", "9", "8", "5", "4", "6"], "time": [1572, 3523, 3578, 4642, 5181, 15016, 15098, 15200]}, "edge": {"target": [], "time": []}}}, "displayed_time": "16.66", "trialTime": 19406, "trial_type": "mouselab-mdp", "trial_index": 38, "time_elapsed": 1124989, "internal_node_id": "0.0-6.0-1.0-29.0"}}, {"uniqueid": "w53698886:a38105871", "current_trial": 39, "dateTime": 1693484443955, "trialdata": {"revealed_states": [], "clicked_states": ["5", "9", "17"], "num_clicks_accrued": [0, 0, 0, 0, 0, 0, 0, 0, 0, 0, 0, 0, 0], "stateRewards": ["", -2, -3, -5, 8, 27, 11, 43, -6, -24, -87, 69, -2, 1, 1, 9, 19, 48, -37, 9, -14, 45, 62, 1, 2, 1, 16, -81, -41, 22, 4, -6, -63, 47], "withholdReward": false, "trial_id": "mdp_trial_31", "block": "test", "trialIndex": 32, "score": 52.8, "costs": -4.199999999999999, "simulationMode": [null, null, null, null, null], "rewards": [-2, 1, 1, 9, 48], "path": ["0", "0", "12", "13", "14", "15", "17"], "rt": [10525, 81, 151, 356, 205], "actions": ["right", "right", "right", "up", "right"], "actionTimes": [13561, 14168, 14821, 15686, 16397], "queries": {"click": {"state": {"target": ["5", "9", "17"], "time": [4374, 7025, 10125]}, "edge": {"target": [], "time": []}}, "mouseover": {"state": {"target": ["5", "5", "9", "11", "17"], "time": [3948, 4199, 5499, 7780, 9919]}, "edge": {"target": [], "time": []}}, "mouseout": {"state": {"target": ["12", "0", "5", "5", "9", "11", "17", "14", "22"], "time": [2097, 3732, 4036, 5279, 7747, 7798, 19894, 19970, 20004]}, "edge": {"target": [], "time": []}}}, "displayed_time": "17.04", "trialTime": 20962, "trial_type": "mouselab-mdp", "trial_index": 39, "time_elapsed": 1146551, "internal_node_id": "0.0-6.0-1.0-30.0"}}, {"uniqueid": "w53698886:a38105871", "current_trial": 40, "dateTime": 1693484466027, "trialdata": {"revealed_states": [], "clicked_states": [], "num_clicks_accrued": [0, 0, 0, 0, 0, 0, 0, 0, 0, 0, 0, 0, 0], "stateRewards": ["", 1, 2, 3, 16, 63, -25, 16, -4, -14, 82, -66, -1, -3, -3, -11, -14, 19, 46, 3, -34, -82, 66, -2, -3, 4, -5, -63, 77, -37, -1, -45, -41, 84], "withholdReward": false, "trial_id": "mdp_trial_32", "block": "test", "trialIndex": 33, "score": -38, "costs": 0, "simulationMode": [null, null, null, null, null], "rewards": [-1, -3, -3, 3, -34], "path": ["0", "0", "12", "13", "14", "19", "20"], "rt": [5659, 41, 29, 505, 284], "actions": ["right", "right", "right", "down", "right"], "actionTimes": [7263, 7805, 8325, 9338, 10116], "queries": {"click": {"state": {"target": [], "time": []}, "edge": {"target": [], "time": []}}, "mouseover": {"state": {"target": ["1", "18", "15", "17", "12"], "time": [4444, 4629, 4728, 4980, 6395]}, "edge": {"target": [], "time": []}}, "mouseout": {"state": {"target": ["0", "1", "18", "15", "17", "12", "25", "23", "0", "0"], "time": [4157, 4529, 4694, 4881, 6300, 14667, 15201, 15265, 15648, 19769]}, "edge": {"target": [], "time": []}}}, "displayed_time": "15.61", "trialTime": 21475, "trial_type": "mouselab-mdp", "trial_index": 40, "time_elapsed": 1168623, "internal_node_id": "0.0-6.0-1.0-31.0"}}, {"uniqueid": "w53698886:a38105871", "current_trial": 41, "dateTime": 1693484483227, "trialdata": {"revealed_states": [], "clicked_states": ["31"], "num_clicks_accrued": [0, 0, 0, 0, 0, 0, 0, 0, 0, 0, 0, 0, 0], "stateRewards": ["", 1, 1, -2, 7, -31, -6, 76, 1, -36, -16, -53, 2, 1, 7, 13, -47, -10, 47, -7, 72, 46, -56, -2, -2, -2, 11, -80, 44, 38, 16, 67, 85, -78], "withholdReward": false, "trial_id": "mdp_trial_33", "block": "test", "trialIndex": 34, "score": 75.6, "costs": -1.4, "simulationMode": [null, null, null, null, null], "rewards": [-2, -2, -2, 16, 67], "path": ["0", "0", "23", "24", "25", "30", "31"], "rt": [4586, 69, 133, 337, 292], "actions": ["left", "left", "left", "down", "right"], "actionTimes": [5709, 6288, 6920, 7773, 8564], "queries": {"click": {"state": {"target": ["31"], "time": [2689]}, "edge": {"target": [], "time": []}}, "mouseover": {"state": {"target": ["31", "31", "22", "19", "22"], "time": [1768, 2188, 3705, 3751, 4402]}, "edge": {"target": [], "time": []}}, "mouseout": {"state": {"target": ["0", "31", "31", "22", "19", "22"], "time": [1721, 1807, 3626, 3727, 4374, 15722]}, "edge": {"target": [], "time": []}}}, "displayed_time": "15.13", "trialTime": 16608, "trial_type": "mouselab-mdp", "trial_index": 41, "time_elapsed": 1185824, "internal_node_id": "0.0-6.0-1.0-32.0"}}, {"uniqueid": "w53698886:a38105871", "current_trial": 42, "dateTime": 1693484503493, "trialdata": {"revealed_states": [], "clicked_states": ["32", "21", "9"], "num_clicks_accrued": [0, 0, 0, 0, 0, 0, 0, 0, 0, 0, 0, 0, 0], "stateRewards": ["", 2, -2, 7, -11, -76, -65, -23, 16, -58, 30, 81, 1, 2, 7, 14, 9, 55, -2, 6, 11, -15, 31, -1, -1, -3, 2, 15, 2, 46, 15, 18, 45, -34], "withholdReward": false, "trial_id": "mdp_trial_34", "block": "test", "trialIndex": 35, "score": 50.8, "costs": -4.199999999999999, "simulationMode": [null, null, null, null, null], "rewards": [-1, -1, -3, 15, 45], "path": ["0", "0", "23", "24", "25", "30", "32"], "rt": [9959, 15, 63, 486, 1068], "actions": ["left", "left", "left", "down", "down"], "actionTimes": [12194, 12707, 13287, 14278, 15857], "queries": {"click": {"state": {"target": ["32", "21", "9"], "time": [3952, 6418, 9400]}, "edge": {"target": [], "time": []}}, "mouseover": {"state": {"target": ["32", "21", "10", "8", "9", "9"], "time": [3551, 6205, 8672, 8711, 8819, 9020]}, "edge": {"target": [], "time": []}}, "mouseout": {"state": {"target": ["0", "32", "21", "10", "8", "9", "9", "5", "6"], "time": [3353, 4890, 6892, 8699, 8734, 8953, 10767, 18222, 18272]}, "edge": {"target": [], "time": []}}}, "displayed_time": "16.38", "trialTime": 19665, "trial_type": "mouselab-mdp", "trial_index": 42, "time_elapsed": 1206090, "internal_node_id": "0.0-6.0-1.0-33.0"}}, {"uniqueid": "w53698886:a38105871", "current_trial": 43, "dateTime": 1693484522623, "trialdata": {"revealed_states": [], "clicked_states": ["17", "6"], "num_clicks_accrued": [0, 0, 0, 0, 0, 0, 0, 0, 0, 0, 0, 0, 0], "stateRewards": ["", -2, 2, -4, -4, -59, 88, 62, -3, 69, -15, -34, 1, -2, -5, 7, -54, -20, 78, -16, -74, -53, -21, 2, -4, 2, 13, -8, -44, 26, 9, 72, 4, 17], "withholdReward": false, "trial_id": "mdp_trial_35", "block": "test", "trialIndex": 36, "score": 77.2, "costs": -2.8, "simulationMode": [null, null, null, null, null], "rewards": [-2, 2, -4, -4, 88], "path": ["0", "0", "1", "2", "3", "4", "6"], "rt": [6866, 552, 204, 811, 308], "actions": ["up", "up", "up", "right", "right"], "actionTimes": [9273, 10353, 11073, 12426, 13248], "queries": {"click": {"state": {"target": ["17", "6"], "time": [4037, 6232]}, "edge": {"target": [], "time": []}}, "mouseover": {"state": {"target": ["13", "14", "17", "16", "4", "6", "11", "8", "3"], "time": [3549, 3583, 3798, 4890, 4978, 5378, 7846, 8410, 8462]}, "edge": {"target": [], "time": []}}, "mouseout": {"state": {"target": ["16", "0", "0", "13", "14", "17", "16", "4", "6", "11", "8", "3", "4", "6", "7"], "time": [1112, 1242, 3516, 3575, 3609, 4851, 4912, 5344, 6511, 8383, 8444, 14612, 14664, 14697, 17719]}, "edge": {"target": [], "time": []}}}, "displayed_time": "16.41", "trialTime": 18482, "trial_type": "mouselab-mdp", "trial_index": 43, "time_elapsed": 1225219, "internal_node_id": "0.0-6.0-1.0-34.0"}}, {"uniqueid": "w53698886:a38105871", "current_trial": 44, "dateTime": 1693484541500, "trialdata": {"revealed_states": [], "clicked_states": ["28", "31"], "num_clicks_accrued": [0, 0, 0, 0, 0, 0, 0, 0, 0, 0, 0, 0, 0], "stateRewards": ["", -2, 4, -5, -12, 85, -24, -18, -15, -78, -22, 26, -1, -1, 2, 14, -45, 52, -23, 7, -33, 24, -6, -2, -4, 5, -7, -16, 36, -39, 5, 71, -87, -23], "withholdReward": false, "trial_id": "mdp_trial_36", "block": "test", "trialIndex": 37, "score": 72.2, "costs": -2.8, "simulationMode": [null, null, null, null, null], "rewards": [-2, -4, 5, 5, 71], "path": ["0", "0", "23", "24", "25", "30", "31"], "rt": [7881, 684, 256, 446, 346], "actions": ["left", "left", "left", "down", "right"], "actionTimes": [9584, 10791, 11548, 12491, 13341], "queries": {"click": {"state": {"target": ["28", "31"], "time": [3676, 6704]}, "edge": {"target": [], "time": []}}, "mouseover": {"state": {"target": ["23", "24", "25", "28", "28", "24", "31"], "time": [2850, 2870, 2918, 3252, 3523, 6162, 6235]}, "edge": {"target": [], "time": []}}, "mouseout": {"state": {"target": ["2", "1", "0", "23", "24", "25", "28", "28", "28", "24", "31", "0"], "time": [723, 792, 2827, 2867, 2885, 3221, 3284, 3790, 4005, 6185, 14701, 16345]}, "edge": {"target": [], "time": []}}}, "displayed_time": "15.71", "trialTime": 18261, "trial_type": "mouselab-mdp", "trial_index": 44, "time_elapsed": 1244097, "internal_node_id": "0.0-6.0-1.0-35.0"}}, {"uniqueid": "w53698886:a38105871", "current_trial": 45, "dateTime": 1693484563929, "trialdata": {"revealed_states": [], "clicked_states": ["29", "28", "18"], "num_clicks_accrued": [0, 0, 0, 0, 0, 0, 0, 0, 0, 0, 0, 0, 0], "stateRewards": ["", 2, 3, 8, 14, 69, -27, 17, 2, -71, -65, -10, 2, -3, 7, 8, 65, -10, 65, -12, 73, -12, 13, -2, -2, 6, 10, -79, -69, -18, 10, -85, 67, 74], "withholdReward": false, "trial_id": "mdp_trial_37", "block": "test", "trialIndex": 38, "score": 74.8, "costs": -4.199999999999999, "simulationMode": [null, null, null, null, null], "rewards": [2, -3, 7, 8, 65], "path": ["0", "0", "12", "13", "14", "15", "18"], "rt": [9888, 39, 65, 340, 189], "actions": ["right", "right", "right", "up", "left"], "actionTimes": [15789, 16326, 16899, 17740, 18424], "queries": {"click": {"state": {"target": ["29", "28", "18"], "time": [7414, 9517, 12390]}, "edge": {"target": [], "time": []}}, "mouseover": {"state": {"target": ["24", "29", "26", "28", "1", "18", "15", "17", "17"], "time": [6931, 7012, 8128, 8163, 11663, 12210, 13131, 13156, 13531]}, "edge": {"target": [], "time": []}}, "mouseout": {"state": {"target": ["12", "22", "0", "24", "29", "29", "26", "28", "1", "18", "15", "17", "17", "15"], "time": [1745, 1809, 6887, 6962, 7492, 7693, 8145, 11611, 11682, 13123, 13152, 13171, 19948, 20005]}, "edge": {"target": [], "time": []}}}, "displayed_time": "19.91", "trialTime": 21787, "trial_type": "mouselab-mdp", "trial_index": 45, "time_elapsed": 1266525, "internal_node_id": "0.0-6.0-1.0-36.0"}}, {"uniqueid": "w53698886:a38105871", "current_trial": 46, "dateTime": 1693484586419, "trialdata": {"revealed_states": [], "clicked_states": ["17", "5", "7", "10"], "num_clicks_accrued": [0, 0, 0, 0, 0, 0, 0, 0, 0, 0, 0, 0, 0], "stateRewards": ["", 2, 3, 6, -5, -74, -53, 17, -12, 46, 44, 18, -2, 4, 1, -8, 22, -23, -49, 9, -45, 55, 81, 1, -1, -7, -16, -83, -71, -45, 2, 51, 82, 61], "withholdReward": false, "trial_id": "mdp_trial_38", "block": "test", "trialIndex": 39, "score": 37.4, "costs": -5.6, "simulationMode": [null, null, null, null, null], "rewards": [2, 3, 6, -12, 44], "path": ["0", "0", "1", "2", "3", "8", "10"], "rt": [11819, 634, 160, 614, 354], "actions": ["up", "up", "up", "left", "down"], "actionTimes": [13733, 14930, 15591, 16712, 17567], "queries": {"click": {"state": {"target": ["17", "5", "7", "10"], "time": [3812, 6457, 8549, 10637]}, "edge": {"target": [], "time": []}}, "mouseover": {"state": {"target": ["12", "17", "6", "5", "4", "7", "10", "8"], "time": [3090, 3406, 5960, 6035, 6690, 6977, 9209, 12000]}, "edge": {"target": [], "time": []}}, "mouseout": {"state": {"target": ["18", "12", "12", "17", "6", "5", "4", "7", "7", "10", "8", "2", "1", "0"], "time": [681, 936, 3110, 5890, 5999, 6657, 6907, 8644, 8830, 11938, 12140, 21010, 21062, 21094]}, "edge": {"target": [], "time": []}}}, "displayed_time": "18.09", "trialTime": 21898, "trial_type": "mouselab-mdp", "trial_index": 46, "time_elapsed": 1289016, "internal_node_id": "0.0-6.0-1.0-37.0"}}, {"uniqueid": "w53698886:a38105871", "current_trial": 47, "dateTime": 1693484605403, "trialdata": {"revealed_states": [], "clicked_states": ["32"], "num_clicks_accrued": [0, 0, 0, 0, 0, 0, 0, 0, 0, 0, 0, 0, 0], "stateRewards": ["", 2, -2, -8, 9, -20, 55, -58, 14, 42, 2, 36, 1, -3, -5, 5, -58, 57, 60, 16, 57, 30, -70, -2, 1, 3, 10, 59, 23, 77, -13, -26, 88, -72], "withholdReward": false, "trial_id": "mdp_trial_39", "block": "test", "trialIndex": 40, "score": 75.6, "costs": -1.4, "simulationMode": [null, null, null, null, null], "rewards": [-2, 1, 3, -13, 88], "path": ["0", "0", "23", "24", "25", "30", "32"], "rt": [5079, 327, 342, 423, 318], "actions": ["left", "left", "left", "down", "down"], "actionTimes": [7074, 7925, 8771, 9703, 10517], "queries": {"click": {"state": {"target": ["32"], "time": [3873]}, "edge": {"target": [], "time": []}}, "mouseover": {"state": {"target": ["0", "31", "32", "31", "21"], "time": [2696, 2859, 3313, 4729, 4975]}, "edge": {"target": [], "time": []}}, "mouseout": {"state": {"target": ["0", "0", "31", "32", "31", "21"], "time": [1494, 2730, 3232, 4084, 4765, 6314]}, "edge": {"target": [], "time": []}}}, "displayed_time": "16.00", "trialTime": 18163, "trial_type": "mouselab-mdp", "trial_index": 47, "time_elapsed": 1308000, "internal_node_id": "0.0-6.0-1.0-38.0"}}, {"uniqueid": "w53698886:a38105871", "current_trial": 48, "dateTime": 1693484623823, "trialdata": {"revealed_states": [], "clicked_states": ["28"], "num_clicks_accrued": [0, 0, 0, 0, 0, 0, 0, 0, 0, 0, 0, 0, 0], "stateRewards": ["", 1, 1, 7, -11, 80, -20, -53, -14, 3, 31, 27, 2, -1, -8, -10, 33, 41, 86, 9, 78, -37, -13, -1, -2, -6, -8, -80, 75, 4, -16, -49, -74, 24], "withholdReward": false, "trial_id": "mdp_trial_40", "block": "test", "trialIndex": 41, "score": 56.6, "costs": -1.4, "simulationMode": [null, null, null, null, null], "rewards": [-1, -2, -6, -8, 75], "path": ["0", "0", "23", "24", "25", "26", "28"], "rt": [4723, 33, 22, 559, 223], "actions": ["left", "left", "left", "up", "right"], "actionTimes": [6673, 7228, 7748, 8827, 9555], "queries": {"click": {"state": {"target": ["28"], "time": [3686]}, "edge": {"target": [], "time": []}}, "mouseover": {"state": {"target": ["1", "24", "25", "26", "28"], "time": [2058, 2676, 2759, 3009, 3225]}, "edge": {"target": [], "time": []}}, "mouseout": {"state": {"target": ["22", "0", "1", "24", "25", "26", "28", "0"], "time": [922, 1355, 2081, 2724, 2781, 3046, 3753, 16681]}, "edge": {"target": [], "time": []}}}, "displayed_time": "15.97", "trialTime": 17788, "trial_type": "mouselab-mdp", "trial_index": 48, "time_elapsed": 1326420, "internal_node_id": "0.0-6.0-1.0-39.0"}}, {"uniqueid": "w53698886:a38105871", "current_trial": 49, "dateTime": 1693484685188, "trialdata": {"rt": 61326, "response": {"Q0": "$-2 to $2", "Q1": "$-32 to $32", "Q2": "$-88 to $88", "Q3": "The cost was always $1.4.", "Q4": "Very motivated"}, "question_order": [0, 1, 2, 3, 4], "trial_id": "final_quiz_control", "trial_type": "survey-multi-choice", "trial_index": 49, "time_elapsed": 1387785, "internal_node_id": "0.0-6.0-2.0"}}, {"uniqueid": "w53698886:a38105871", "current_trial": 50, "dateTime": 1693485113217, "trialdata": {"rt": 427991, "response": {"Q0": "I used the nodes inspector on the nodes which I thought would be my end target to see if I was satisfied with the amount, if it was a decent credit I would head to that node.  I tried to see the value of few a nodes as possible to save the expense", "Q1": "I'm not sure I did, if at all only by using the node inspector less.", "Q2": "I was happy with my performance after I concentrated on reaching an end node with a decent credit to aim for.  So long as I was in credit that was OK.  I did get frustrated a couple of times and headed off with no particular target after using the node inspector and not seeing a credit amount, but at least I had an idea of not where to head."}, "trial_id": "self_report_control", "trial_type": "survey-text", "trial_index": 50, "time_elapsed": 1815815, "internal_node_id": "0.0-6.0-3.0"}}, {"uniqueid": "w53698886:a38105871", "current_trial": 51, "dateTime": 1693485146750, "trialdata": {"rt": 33517, "response": {"gender": "female", "age": "54", "colorblind": "0", "effort": "0"}, "trial_type": "survey-html-form", "trial_index": 51, "time_elapsed": 1849348, "internal_node_id": "0.0-6.0-4.0"}}, {"uniqueid": "w53698886:a38105871", "current_trial": 52, "dateTime": 1693485295214, "trialdata": {"rt": 148453, "response": {"Q0": "I seemed to have more time to use the node inspector that I initially thought.  I thought I only had 3 seconds in total to check as many nodes as possible. but I soon realised how this worked.", "Q1": "No", "Q2": "I enjoyed that, Thank you."}, "trial_type": "survey-text", "trial_index": 52, "time_elapsed": 1997812, "internal_node_id": "0.0-6.0-5.0"}}, {"uniqueid": "w53698886:a38105871", "current_trial": 53, "dateTime": 1693485334335, "trialdata": {"rt": 39111, "stimulus": "<h1>Completion Code Instructions (1/2)</h1>\n<br><br><br><br>\nYou have reached the end of the experiment! The completion code consists of two parts: (1) a code with 2 characters (2) a code with 6 characters. On this page, you will receive the second part of the code. The first part of the completion code will be on the next page.\n<br><br>\nThe second part of your completion code is: <b>EWEK22</b>\n<br><br>\nPlease note this down. Then, press 'Finish HIT' in order to find the first part of your completion code. Once the data has been saved, you will receive this code either in this window or in the original browser window where you started the experiment.\n", "response": 0, "trial_type": "html-button-response", "trial_index": 53, "time_elapsed": 2036933, "internal_node_id": "0.0-6.0-6.0"}}, {"uniqueid": "w53698886:a38105871", "current_trial": 54, "dateTime": 1693485335354, "trialdata": {"success": true, "trial_type": "fullscreen", "trial_index": 54, "time_elapsed": 2037952, "internal_node_id": "0.0-7.0"}}], "questiondata": {"params": {"CODE": "C6DMOQA6", "MIN_TIME": 14, "inspectCost": 1, "startTime": "Thu Aug 31 2023 13:01:36 GMT+0100 (British Summer Time)", "bonusRate": 0.002, "variance": "1_2_4_8_44", "branching": "31123"}, "final_score": 1300.4}, "eventdata": [{"eventtype": "initialized", "value": null, "timestamp": 1693483296354, "interval": 0}, {"eventtype": "window_resize", "value": [1024, 654], "timestamp": 1693483296354, "interval": 0}, {"eventtype": "window_resize", "value": [1024, 654], "timestamp": 1693483296690, "interval": 336}, {"eventtype": "window_resize", "value": [1366, 768], "timestamp": 1693483303697, "interval": 7007}, {"eventtype": "window_resize", "value": [1024, 654], "timestamp": 1693485334669, "interval": 2030972}], "useragent": "Mozilla/5.0 (Windows NT 10.0; Win64; x64) AppleWebKit/537.36 (KHTML, like Gecko) Chrome/116.0.0.0 Safari/537.36", "mode": "live", "id": "w53698886:a38105871", "status": "user data saved", "Beginhit": "2023-08-31 12:01:33.467081", "Beginexp": "2023-08-31 12:01:43.781823", "Endhit": "2023-08-31 12:35:34.977005", "psiturkStatus": 3, "browser": "<redacted>", "platform": "windows", "language": "en-US"}