{"condition": 1, "counterbalance": 0, "assignmentId": "a95229869", "workerId": "w48974030", "hitId": "h55508525", "currenttrial": 14, "bonus": 0, "data": [{"uniqueid": "w48974030:a95229869", "current_trial": 0, "dateTime": 1691143916554, "trialdata": {"success": true, "trial_type": "fullscreen", "trial_index": 0, "time_elapsed": 3461, "internal_node_id": "0.0-0.0"}}, {"uniqueid": "w48974030:a95229869", "current_trial": 1, "dateTime": 1691143936389, "trialdata": {"view_history": [{"page_index": 0, "viewing_time": 19808}], "rt": 19809, "trial_id": "exp_instructions_misaligned", "trial_type": "instructions", "trial_index": 1, "time_elapsed": 23297, "internal_node_id": "0.0-1.0"}}, {"uniqueid": "w48974030:a95229869", "current_trial": 2, "dateTime": 1691143939951, "trialdata": {"success": true, "trial_type": "fullscreen", "trial_index": 2, "time_elapsed": 26859, "internal_node_id": "0.0-2.0-0.0"}}, {"uniqueid": "w48974030:a95229869", "current_trial": 3, "dateTime": 1691144112962, "trialdata": {"view_history": [{"page_index": 0, "viewing_time": 114868}, {"page_index": 1, "viewing_time": 41720}, {"page_index": 2, "viewing_time": 10240}, {"page_index": 3, "viewing_time": 6176}], "rt": 173005, "trial_id": "mouselab_instructions_1_misaligned", "trial_type": "instructions", "trial_index": 3, "time_elapsed": 199870, "internal_node_id": "0.0-2.0-1.0"}}, {"uniqueid": "w48974030:a95229869", "current_trial": 4, "dateTime": 1691144136817, "trialdata": {"revealed_states": [], "clicked_states": [], "num_clicks_accrued": [0, 0, 0, 0, 0, 0, 0, 0, 0, 0, 0, 0, 0], "stateRewards": ["", -10, -10, -10, -10, 10, -10, -10, 10, -10, 10, -10, 10, 10, 10, -10, 10, 10, -10, -10, 10, 10, 10, -10, 10, -10, 10, 10, -10, 10, -10, 10, 10, 10], "withholdReward": false, "trial_id": "practice_1", "block": "test", "trialIndex": 0, "score": 13.5, "costs": 0, "simulationMode": [null, null, null, null, null], "rewards": [-10, 10, -10, 10, 10], "path": ["0", "0", "23", "24", "25", "26", "29"], "rt": [2576, 718, 491, 1091, 2414], "actions": ["left", "left", "left", "up", "left"], "actionTimes": [12208, 13447, 14452, 16070, 19010], "queries": {"click": {"state": {"target": [], "time": []}, "edge": {"target": [], "time": []}}, "mouseover": {"state": {"target": [], "time": []}, "edge": {"target": [], "time": []}}, "mouseout": {"state": {"target": [], "time": []}, "edge": {"target": [], "time": []}}}, "displayed_time": "19.53", "trialTime": 22813, "trial_type": "mouselab-mdp", "trial_index": 4, "time_elapsed": 223723, "internal_node_id": "0.0-2.0-2.0-0.0"}}, {"uniqueid": "w48974030:a95229869", "current_trial": 5, "dateTime": 1691144155104, "trialdata": {"revealed_states": [], "clicked_states": [], "num_clicks_accrued": [0, 0, 0, 0, 0, 0, 0, 0, 0, 0, 0, 0, 0], "stateRewards": ["", 10, 10, -10, -10, 10, 10, 10, 10, 10, 10, -10, -10, -10, 10, -10, -10, -10, -10, -10, -10, -10, 10, 10, 10, -10, -10, 10, 10, 10, -10, -10, 10, 10], "withholdReward": false, "trial_id": "practice_2", "block": "test", "trialIndex": 1, "score": 13.5, "costs": 0, "simulationMode": [null, null, null, null, null], "rewards": [10, 10, -10, -10, 10], "path": ["0", "0", "23", "24", "25", "30", "32"], "rt": [1010, 1745, 4793, 751, 1187], "actions": ["left", "left", "left", "down", "down"], "actionTimes": [4071, 6338, 11653, 12927, 14628], "queries": {"click": {"state": {"target": [], "time": []}, "edge": {"target": [], "time": []}}, "mouseover": {"state": {"target": [], "time": []}, "edge": {"target": [], "time": []}}, "mouseout": {"state": {"target": ["0"], "time": [1704]}, "edge": {"target": [], "time": []}}}, "displayed_time": "15.16", "trialTime": 17665, "trial_type": "mouselab-mdp", "trial_index": 5, "time_elapsed": 242010, "internal_node_id": "0.0-2.0-2.0-1.0"}}, {"uniqueid": "w48974030:a95229869", "current_trial": 6, "dateTime": 1691144342988, "trialdata": {"view_history": [{"page_index": 0, "viewing_time": 182793}, {"page_index": 1, "viewing_time": 5081}], "rt": 187876, "trial_id": "mouselab_instructions_2_misaligned", "trial_type": "instructions", "trial_index": 6, "time_elapsed": 429896, "internal_node_id": "0.0-2.0-3.0"}}, {"uniqueid": "w48974030:a95229869", "current_trial": 7, "dateTime": 1691144405330, "trialdata": {"rt": 62314, "response": {"Q0": "The cost for clicking on nodes may vary between nodes.", "Q1": "The better I perform the higher my bonus will be.", "Q2": "No, the amount of cash at each node of the web may be different each time.", "Q3": "To get the highest total score.", "Q4": "Only after moving the spider.", "Q5": "1 second"}, "question_order": [0, 1, 2, 3, 4, 5], "correct": {"Q0": "The cost for clicking on nodes may vary between nodes.", "Q1": "The better I perform the higher my bonus will be.", "Q2": "No, the amount of cash at each node of the web may be different each time.", "Q3": "To get the highest total score.", "Q4": "Only before moving the spider.", "Q5": "3 seconds"}, "trial_id": "mouselab_quiz_misaligned", "trial_type": "survey-multi-choice", "trial_index": 7, "time_elapsed": 492237, "internal_node_id": "0.0-2.0-4.0"}}, {"uniqueid": "w48974030:a95229869", "current_trial": 8, "dateTime": 1691144413428, "trialdata": {"success": true, "trial_type": "fullscreen", "trial_index": 8, "time_elapsed": 500336, "internal_node_id": "0.0-2.1-0.1"}}, {"uniqueid": "w48974030:a95229869", "current_trial": 9, "dateTime": 1691144548169, "trialdata": {"view_history": [{"page_index": 0, "viewing_time": 98346}, {"page_index": 1, "viewing_time": 9512}, {"page_index": 2, "viewing_time": 9986}, {"page_index": 3, "viewing_time": 16883}], "rt": 134728, "trial_id": "mouselab_instructions_1_misaligned", "trial_type": "instructions", "trial_index": 9, "time_elapsed": 635077, "internal_node_id": "0.0-2.1-1.1"}}, {"uniqueid": "w48974030:a95229869", "current_trial": 10, "dateTime": 1691144560246, "trialdata": {"revealed_states": [], "clicked_states": [], "num_clicks_accrued": [0, 0, 0, 0, 0, 0, 0, 0, 0, 0, 0, 0, 0], "stateRewards": ["", -10, -10, -10, -10, 10, -10, -10, 10, -10, 10, -10, 10, 10, 10, -10, 10, 10, -10, -10, 10, 10, 10, -10, 10, -10, 10, 10, -10, 10, -10, 10, 10, 10], "withholdReward": false, "trial_id": "practice_1", "block": "test", "trialIndex": 2, "score": 13.5, "costs": 0, "simulationMode": [null, null, null, null, null], "rewards": [-10, 10, -10, 10, 10], "path": ["0", "0", "23", "24", "25", "26", "29"], "rt": [3072, 897, 138, 732, 294], "actions": ["left", "left", "left", "up", "left"], "actionTimes": [5197, 6611, 7254, 8514, 9325], "queries": {"click": {"state": {"target": [], "time": []}, "edge": {"target": [], "time": []}}, "mouseover": {"state": {"target": ["23"], "time": [4375]}, "edge": {"target": [], "time": []}}, "mouseout": {"state": {"target": ["0", "23"], "time": [1222, 10989]}, "edge": {"target": [], "time": []}}}, "displayed_time": "9.85", "trialTime": 11354, "trial_type": "mouselab-mdp", "trial_index": 10, "time_elapsed": 647152, "internal_node_id": "0.0-2.1-2.1-0.1"}}, {"uniqueid": "w48974030:a95229869", "current_trial": 11, "dateTime": 1691144574489, "trialdata": {"revealed_states": [], "clicked_states": [], "num_clicks_accrued": [0, 0, 0, 0, 0, 0, 0, 0, 0, 0, 0, 0, 0], "stateRewards": ["", 10, 10, -10, -10, 10, 10, 10, 10, 10, 10, -10, -10, -10, 10, -10, -10, -10, -10, -10, -10, -10, 10, 10, 10, -10, -10, 10, 10, 10, -10, -10, 10, 10], "withholdReward": false, "trial_id": "practice_2", "block": "test", "trialIndex": 3, "score": -26.5, "costs": 0, "simulationMode": [null, null, null, null, null], "rewards": [-10, -10, 10, -10, -10], "path": ["0", "0", "12", "13", "14", "19", "21"], "rt": [1115, 183, 3586, 488, 547], "actions": ["right", "right", "right", "down", "down"], "actionTimes": [4560, 5272, 9381, 10383, 11457], "queries": {"click": {"state": {"target": [], "time": []}, "edge": {"target": [], "time": []}}, "mouseover": {"state": {"target": [], "time": []}, "edge": {"target": [], "time": []}}, "mouseout": {"state": {"target": ["21", "21", "0"], "time": [615, 2250, 2350]}, "edge": {"target": [], "time": []}}}, "displayed_time": "11.96", "trialTime": 13556, "trial_type": "mouselab-mdp", "trial_index": 11, "time_elapsed": 661395, "internal_node_id": "0.0-2.1-2.1-1.1"}}, {"uniqueid": "w48974030:a95229869", "current_trial": 12, "dateTime": 1691144585480, "trialdata": {"view_history": [{"page_index": 0, "viewing_time": 9240}, {"page_index": 1, "viewing_time": 1734}], "rt": 10975, "trial_id": "mouselab_instructions_2_misaligned", "trial_type": "instructions", "trial_index": 12, "time_elapsed": 672388, "internal_node_id": "0.0-2.1-3.1"}}, {"uniqueid": "w48974030:a95229869", "current_trial": 13, "dateTime": 1691144929638, "trialdata": {"rt": 344144, "response": {"Q0": "The cost for clicking on nodes may vary between nodes.", "Q1": "The better I perform the higher my bonus will be.", "Q2": "No, the amount of cash at each node of the web may be different each time.", "Q3": "To get the highest total score.", "Q4": "Only after moving the spider.", "Q5": "3 seconds"}, "question_order": [0, 1, 2, 3, 4, 5], "correct": {"Q0": "The cost for clicking on nodes may vary between nodes.", "Q1": "The better I perform the higher my bonus will be.", "Q2": "No, the amount of cash at each node of the web may be different each time.", "Q3": "To get the highest total score.", "Q4": "Only before moving the spider.", "Q5": "3 seconds"}, "trial_id": "mouselab_quiz_misaligned", "trial_type": "survey-multi-choice", "trial_index": 13, "time_elapsed": 1016545, "internal_node_id": "0.0-2.1-4.1"}}], "questiondata": {"params": {"CODE": "C6DMOQA6", "MIN_TIME": 14, "inspectCost": 1, "startTime": "Fri Aug 04 2023 12:11:51 GMT+0200 (South Africa Standard Time)", "bonusRate": 0.002, "variance": "1_2_4_8_44", "branching": "31123"}}, "eventdata": [{"eventtype": "initialized", "interval": 0, "timestamp": 1691143328395, "value": null}, {"eventtype": "window_resize", "interval": 0, "timestamp": 1691143328395, "value": [1028, 752]}, {"eventtype": "window_resize", "interval": 460, "timestamp": 1691143328855, "value": [1028, 752]}, {"eventtype": "window_resize", "value": [1028, 744], "timestamp": 1691143911218, "interval": 582363}, {"eventtype": "window_resize", "value": [1536, 864], "timestamp": 1691143915859, "interval": 4641}, {"eventtype": "focus", "value": "off", "timestamp": 1691144410271, "interval": 494412}, {"eventtype": "focus", "value": "on", "timestamp": 1691144410278, "interval": 7}, {"eventtype": "window_resize", "value": [1028, 744], "timestamp": 1691144410525, "interval": 247}, {"eventtype": "window_resize", "value": [1536, 864], "timestamp": 1691144412712, "interval": 2187}, {"eventtype": "focus", "value": "off", "timestamp": 1691144934666, "interval": 521954}, {"eventtype": "focus", "value": "on", "timestamp": 1691144934667, "interval": 1}, {"eventtype": "window_resize", "value": [1028, 744], "timestamp": 1691144934920, "interval": 253}], "useragent": "Mozilla/5.0 (Windows NT 10.0; Win64; x64) AppleWebKit/537.36 (KHTML, like Gecko) Chrome/115.0.0.0 Safari/537.36", "mode": "live", "id": "w48974030:a95229869", "status": "user data saved", "Beginhit": "2023-08-04 10:02:05.645586", "Beginexp": "2023-08-04 10:11:52.817653", "Endhit": null, "psiturkStatus": 6, "browser": "<redacted>", "platform": "windows", "language": "en-US", "excludeReason": "quizfail"}