{"condition": 0, "counterbalance": 0, "assignmentId": "a75534682", "workerId": "w64012089", "hitId": "h84055443", "currenttrial": 47, "bonus": 0, "data": [{"uniqueid": "w64012089:a75534682", "current_trial": 0, "dateTime": 1691071622887, "trialdata": {"success": true, "trial_type": "fullscreen", "trial_index": 0, "time_elapsed": 4542, "internal_node_id": "0.0-0.0"}}, {"uniqueid": "w64012089:a75534682", "current_trial": 1, "dateTime": 1691071643016, "trialdata": {"view_history": [{"page_index": 0, "viewing_time": 20122}], "rt": 20123, "trial_id": "exp_instructions_control", "trial_type": "instructions", "trial_index": 1, "time_elapsed": 24672, "internal_node_id": "0.0-1.0"}}, {"uniqueid": "w64012089:a75534682", "current_trial": 2, "dateTime": 1691071645850, "trialdata": {"success": true, "trial_type": "fullscreen", "trial_index": 2, "time_elapsed": 27506, "internal_node_id": "0.0-2.0-0.0"}}, {"uniqueid": "w64012089:a75534682", "current_trial": 3, "dateTime": 1691071803391, "trialdata": {"view_history": [{"page_index": 0, "viewing_time": 50015}, {"page_index": 1, "viewing_time": 64198}, {"page_index": 2, "viewing_time": 13283}, {"page_index": 3, "viewing_time": 30033}], "rt": 157530, "trial_id": "mouselab_instructions_1_control", "trial_type": "instructions", "trial_index": 3, "time_elapsed": 185047, "internal_node_id": "0.0-2.0-1.0"}}, {"uniqueid": "w64012089:a75534682", "current_trial": 4, "dateTime": 1691071819985, "trialdata": {"revealed_states": [], "clicked_states": [], "num_clicks_accrued": [0, 0, 0, 0, 0, 0, 0, 0, 0, 0, 0, 0, 0], "stateRewards": ["", -10, -10, -10, -10, 10, 10, 10, -10, -10, -10, 10, -10, 10, 10, -10, -10, -10, -10, 10, 10, -10, 10, 10, 10, -10, 10, -10, 10, -10, 10, 10, 10, 10], "withholdReward": false, "trial_id": "practice_1", "block": "test", "trialIndex": 0, "score": -46.5, "costs": 0, "simulationMode": [null, null, null, null, null], "rewards": [-10, -10, -10, -10, -10], "path": ["0", "0", "1", "2", "3", "8", "9"], "rt": [2188, 1660, 736, 1073, 411], "actions": ["up", "up", "up", "left", "up"], "actionTimes": [6519, 8701, 9975, 11581, 12537], "queries": {"click": {"state": {"target": [], "time": []}, "edge": {"target": [], "time": []}}, "mouseover": {"state": {"target": ["0", "22"], "time": [4714, 4806]}, "edge": {"target": [], "time": []}}, "mouseout": {"state": {"target": ["12", "13", "14", "12", "0", "22"], "time": [642, 662, 672, 3713, 4770, 4812]}, "edge": {"target": [], "time": []}}}, "displayed_time": "13.07", "trialTime": 16283, "trial_type": "mouselab-mdp", "trial_index": 4, "time_elapsed": 201640, "internal_node_id": "0.0-2.0-2.0-0.0"}}, {"uniqueid": "w64012089:a75534682", "current_trial": 5, "dateTime": 1691071839356, "trialdata": {"revealed_states": [], "clicked_states": ["26", "15", "1"], "num_clicks_accrued": [0, 0, 0, 0, 0, 0, 0, 0, 0, 0, 0, 0, 0], "stateRewards": ["", 10, 10, 10, -10, 10, 10, -10, -10, -10, -10, 10, 10, -10, 10, -10, -10, -10, 10, -10, 10, 10, 10, 10, 10, -10, -10, -10, 10, 10, 10, 10, -10, -10], "withholdReward": false, "trial_id": "practice_2", "block": "test", "trialIndex": 1, "score": 12, "costs": -1.5, "simulationMode": [null, null, null, null, null], "rewards": [10, 10, -10, 10, -10], "path": ["0", "0", "23", "24", "25", "30", "33"], "rt": [6323, 888, 1434, 1279, 497], "actions": ["left", "left", "left", "down", "left"], "actionTimes": [10147, 11565, 13544, 15355, 16389], "queries": {"click": {"state": {"target": ["26", "15", "1"], "time": [5184, 7100, 8615]}, "edge": {"target": [], "time": []}}, "mouseover": {"state": {"target": ["28", "26", "28", "17", "15", "15", "15", "18", "12", "0", "1", "1", "0"], "time": [4698, 4947, 6128, 6467, 6484, 6611, 6846, 7692, 7860, 8070, 8231, 8457, 9321]}, "edge": {"target": [], "time": []}}, "mouseout": {"state": {"target": ["0", "1", "1", "28", "26", "28", "17", "15", "15", "15", "18", "12", "0", "1", "1", "0"], "time": [2314, 2354, 2571, 4743, 6102, 6133, 6475, 6520, 6722, 7664, 7710, 7937, 8105, 8366, 9245, 9578]}, "edge": {"target": [], "time": []}}}, "displayed_time": "16.93", "trialTime": 19089, "trial_type": "mouselab-mdp", "trial_index": 5, "time_elapsed": 221011, "internal_node_id": "0.0-2.0-2.0-1.0"}}, {"uniqueid": "w64012089:a75534682", "current_trial": 6, "dateTime": 1691071861191, "trialdata": {"view_history": [{"page_index": 0, "viewing_time": 13531}, {"page_index": 1, "viewing_time": 8299}], "rt": 21831, "trial_id": "mouselab_instructions_2_control", "trial_type": "instructions", "trial_index": 6, "time_elapsed": 242847, "internal_node_id": "0.0-2.0-3.0"}}, {"uniqueid": "w64012089:a75534682", "current_trial": 7, "dateTime": 1691071900116, "trialdata": {"rt": 38919, "response": {"Q0": "There is no cost for clicking on nodes.", "Q1": "The better I perform the higher my bonus will be.", "Q2": "No, the amount of cash at each node of the web may be different each time.", "Q3": "To get the highest total score.", "Q4": "Only before moving the spider.", "Q5": "3 seconds"}, "question_order": [0, 1, 2, 3, 4, 5], "correct": {"Q0": "The cost for clicking on nodes may vary between nodes.", "Q1": "The better I perform the higher my bonus will be.", "Q2": "No, the amount of cash at each node of the web may be different each time.", "Q3": "To get the highest total score.", "Q4": "Only before moving the spider.", "Q5": "3 seconds"}, "trial_id": "mouselab_quiz_control", "trial_type": "survey-multi-choice", "trial_index": 7, "time_elapsed": 281772, "internal_node_id": "0.0-2.0-4.0"}}, {"uniqueid": "w64012089:a75534682", "current_trial": 8, "dateTime": 1691071907092, "trialdata": {"success": true, "trial_type": "fullscreen", "trial_index": 8, "time_elapsed": 288748, "internal_node_id": "0.0-2.1-0.1"}}, {"uniqueid": "w64012089:a75534682", "current_trial": 9, "dateTime": 1691071943525, "trialdata": {"view_history": [{"page_index": 0, "viewing_time": 4561}, {"page_index": 1, "viewing_time": 24133}, {"page_index": 2, "viewing_time": 1700}, {"page_index": 3, "viewing_time": 6034}], "rt": 36428, "trial_id": "mouselab_instructions_1_control", "trial_type": "instructions", "trial_index": 9, "time_elapsed": 325180, "internal_node_id": "0.0-2.1-1.1"}}, {"uniqueid": "w64012089:a75534682", "current_trial": 10, "dateTime": 1691071957985, "trialdata": {"revealed_states": [], "clicked_states": [], "num_clicks_accrued": [0, 0, 0, 0, 0, 0, 0, 0, 0, 0, 0, 0, 0], "stateRewards": ["", -10, -10, -10, -10, 10, 10, 10, -10, -10, -10, 10, -10, 10, 10, -10, -10, -10, -10, 10, 10, -10, 10, 10, 10, -10, 10, -10, 10, -10, 10, 10, 10, 10], "withholdReward": false, "trial_id": "practice_1", "block": "test", "trialIndex": 2, "score": 13.5, "costs": 0, "simulationMode": [null, null, null, null, null], "rewards": [-10, 10, 10, 10, -10], "path": ["0", "0", "12", "13", "14", "19", "21"], "rt": [1821, 3165, 103, 1455, 283], "actions": ["right", "right", "right", "down", "down"], "actionTimes": [4784, 8480, 9116, 11103, 11914], "queries": {"click": {"state": {"target": [], "time": []}, "edge": {"target": [], "time": []}}, "mouseover": {"state": {"target": ["0", "12", "19"], "time": [3298, 3319, 3352]}, "edge": {"target": [], "time": []}}, "mouseout": {"state": {"target": ["13", "14", "22", "13", "12", "0", "12", "19", "13", "13", "14", "14"], "time": [1690, 1698, 2138, 2183, 2296, 3308, 3328, 3361, 6312, 6559, 6596, 7797]}, "edge": {"target": [], "time": []}}}, "displayed_time": "12.45", "trialTime": 14190, "trial_type": "mouselab-mdp", "trial_index": 10, "time_elapsed": 339640, "internal_node_id": "0.0-2.1-2.1-0.1"}}, {"uniqueid": "w64012089:a75534682", "current_trial": 11, "dateTime": 1691071970565, "trialdata": {"revealed_states": [], "clicked_states": ["14", "21"], "num_clicks_accrued": [0, 0, 0, 0, 0, 0, 0, 0, 0, 0, 0, 0, 0], "stateRewards": ["", 10, 10, 10, -10, 10, 10, -10, -10, -10, -10, 10, 10, -10, 10, -10, -10, -10, 10, -10, 10, 10, 10, 10, 10, -10, -10, -10, 10, 10, 10, 10, -10, -10], "withholdReward": false, "trial_id": "practice_2", "block": "test", "trialIndex": 3, "score": 12.5, "costs": -1, "simulationMode": [null, null, null, null, null], "rewards": [10, -10, 10, -10, 10], "path": ["0", "0", "12", "13", "14", "19", "21"], "rt": [3938, 373, 806, 718, 187], "actions": ["right", "right", "right", "down", "down"], "actionTimes": [5878, 6787, 8138, 9399, 10118], "queries": {"click": {"state": {"target": ["14", "21"], "time": [2968, 4203]}, "edge": {"target": [], "time": []}}, "mouseover": {"state": {"target": ["12", "13", "14", "19", "21"], "time": [2353, 2376, 2419, 3824, 3880]}, "edge": {"target": [], "time": []}}, "mouseout": {"state": {"target": ["17", "15", "18", "12", "0", "12", "13", "14", "19", "21"], "time": [1092, 1252, 1272, 1340, 2331, 2362, 2395, 3816, 3864, 4827]}, "edge": {"target": [], "time": []}}}, "displayed_time": "10.65", "trialTime": 12303, "trial_type": "mouselab-mdp", "trial_index": 11, "time_elapsed": 352220, "internal_node_id": "0.0-2.1-2.1-1.1"}}, {"uniqueid": "w64012089:a75534682", "current_trial": 12, "dateTime": 1691071990711, "trialdata": {"view_history": [{"page_index": 0, "viewing_time": 17555}, {"page_index": 1, "viewing_time": 2586}], "rt": 20141, "trial_id": "mouselab_instructions_2_control", "trial_type": "instructions", "trial_index": 12, "time_elapsed": 372366, "internal_node_id": "0.0-2.1-3.1"}}, {"uniqueid": "w64012089:a75534682", "current_trial": 13, "dateTime": 1691072039248, "trialdata": {"rt": 48533, "response": {"Q0": "There is no cost for clicking on nodes.", "Q1": "No.", "Q2": "No, the amount of cash at each node of the web may be different each time.", "Q3": "To get the highest total score.", "Q4": "Only before moving the spider.", "Q5": "3 seconds"}, "question_order": [0, 1, 2, 3, 4, 5], "correct": {"Q0": "The cost for clicking on nodes may vary between nodes.", "Q1": "The better I perform the higher my bonus will be.", "Q2": "No, the amount of cash at each node of the web may be different each time.", "Q3": "To get the highest total score.", "Q4": "Only before moving the spider.", "Q5": "3 seconds"}, "trial_id": "mouselab_quiz_control", "trial_type": "survey-multi-choice", "trial_index": 13, "time_elapsed": 420904, "internal_node_id": "0.0-2.1-4.1"}}, {"uniqueid": "w64012089:a75534682", "current_trial": 14, "dateTime": 1691072044011, "trialdata": {"success": true, "trial_type": "fullscreen", "trial_index": 14, "time_elapsed": 425666, "internal_node_id": "0.0-2.2-0.2"}}, {"uniqueid": "w64012089:a75534682", "current_trial": 15, "dateTime": 1691072113894, "trialdata": {"view_history": [{"page_index": 0, "viewing_time": 22059}, {"page_index": 1, "viewing_time": 20918}, {"page_index": 2, "viewing_time": 10588}, {"page_index": 1, "viewing_time": 12394}, {"page_index": 2, "viewing_time": 1616}, {"page_index": 3, "viewing_time": 2303}], "rt": 69879, "trial_id": "mouselab_instructions_1_control", "trial_type": "instructions", "trial_index": 15, "time_elapsed": 495550, "internal_node_id": "0.0-2.2-1.2"}}, {"uniqueid": "w64012089:a75534682", "current_trial": 16, "dateTime": 1691072123010, "trialdata": {"revealed_states": [], "clicked_states": [], "num_clicks_accrued": [0, 0, 0, 0, 0, 0, 0, 0, 0, 0, 0, 0, 0], "stateRewards": ["", -10, -10, -10, -10, 10, 10, 10, -10, -10, -10, 10, -10, 10, 10, -10, -10, -10, -10, 10, 10, -10, 10, 10, 10, -10, 10, -10, 10, -10, 10, 10, 10, 10], "withholdReward": false, "trial_id": "practice_1", "block": "test", "trialIndex": 4, "score": 13.5, "costs": 0, "simulationMode": [null, null, null, null, null], "rewards": [-10, 10, 10, 10, -10], "path": ["0", "0", "12", "13", "14", "19", "21"], "rt": [1569, 3, 555, 552, 137], "actions": ["right", "right", "right", "down", "down"], "actionTimes": [3103, 3634, 4719, 5784, 6453], "queries": {"click": {"state": {"target": [], "time": []}, "edge": {"target": [], "time": []}}, "mouseover": {"state": {"target": ["12", "12", "13"], "time": [1924, 2354, 2430]}, "edge": {"target": [], "time": []}}, "mouseout": {"state": {"target": ["12", "0", "12", "12", "13", "22"], "time": [845, 1880, 2164, 2422, 2467, 7865]}, "edge": {"target": [], "time": []}}}, "displayed_time": "6.98", "trialTime": 8849, "trial_type": "mouselab-mdp", "trial_index": 16, "time_elapsed": 504665, "internal_node_id": "0.0-2.2-2.2-0.2"}}, {"uniqueid": "w64012089:a75534682", "current_trial": 17, "dateTime": 1691072130950, "trialdata": {"revealed_states": [], "clicked_states": [], "num_clicks_accrued": [0, 0, 0, 0, 0, 0, 0, 0, 0, 0, 0, 0, 0], "stateRewards": ["", 10, 10, 10, -10, 10, 10, -10, -10, -10, -10, 10, 10, -10, 10, -10, -10, -10, 10, -10, 10, 10, 10, 10, 10, -10, -10, -10, 10, 10, 10, 10, -10, -10], "withholdReward": false, "trial_id": "practice_2", "block": "test", "trialIndex": 5, "score": -6.5, "costs": 0, "simulationMode": [null, null, null, null, null], "rewards": [10, -10, 10, -10, -10], "path": ["0", "0", "12", "13", "14", "15", "16"], "rt": [1047, 204, 40, 827, 295], "actions": ["right", "right", "right", "up", "up"], "actionTimes": [2528, 3258, 3826, 5181, 6012], "queries": {"click": {"state": {"target": [], "time": []}, "edge": {"target": [], "time": []}}, "mouseover": {"state": {"target": ["12", "20"], "time": [1901, 1936]}, "edge": {"target": [], "time": []}}, "mouseout": {"state": {"target": ["0", "12", "20"], "time": [1891, 1912, 1946]}, "edge": {"target": [], "time": []}}}, "displayed_time": "6.54", "trialTime": 7743, "trial_type": "mouselab-mdp", "trial_index": 17, "time_elapsed": 512606, "internal_node_id": "0.0-2.2-2.2-1.2"}}, {"uniqueid": "w64012089:a75534682", "current_trial": 18, "dateTime": 1691072137175, "trialdata": {"view_history": [{"page_index": 0, "viewing_time": 4305}, {"page_index": 1, "viewing_time": 1915}], "rt": 6220, "trial_id": "mouselab_instructions_2_control", "trial_type": "instructions", "trial_index": 18, "time_elapsed": 518830, "internal_node_id": "0.0-2.2-3.2"}}, {"uniqueid": "w64012089:a75534682", "current_trial": 19, "dateTime": 1691072170932, "trialdata": {"rt": 33753, "response": {"Q0": "The cost for clicking on nodes may vary between nodes.", "Q1": "The better I perform the higher my bonus will be.", "Q2": "No, the amount of cash at each node of the web may be different each time.", "Q3": "To get the highest total score.", "Q4": "Only before moving the spider.", "Q5": "3 seconds"}, "question_order": [0, 1, 2, 3, 4, 5], "correct": {"Q0": "The cost for clicking on nodes may vary between nodes.", "Q1": "The better I perform the higher my bonus will be.", "Q2": "No, the amount of cash at each node of the web may be different each time.", "Q3": "To get the highest total score.", "Q4": "Only before moving the spider.", "Q5": "3 seconds"}, "trial_id": "mouselab_quiz_control", "trial_type": "survey-multi-choice", "trial_index": 19, "time_elapsed": 552587, "internal_node_id": "0.0-2.2-4.2"}}, {"uniqueid": "w64012089:a75534682", "current_trial": 20, "dateTime": 1691072176774, "trialdata": {"rt": 5828, "stimulus": "\n<h1> Get ready to start the game! </h1>\n\nThank you for reading the instructions. Get ready start with the 40 rounds of this game.\n<br><br>\nIf you need to take a break, feel free to take one after the end of a round, before continuing to the next one.\n<br><br>\nRemember, the more money the spider gets, the bigger your bonus will be!\n<br><br>\n<div style='text-align: center;'>Press <code>space</code> to begin.</div>\n\n<br><br>\n(If, at any point, the <code>space</code> key does not take you to the next page, click once on the text and try again.)", "response": " ", "trial_id": "mdp_ready", "trial_type": "html-keyboard-response", "trial_index": 20, "time_elapsed": 558430, "internal_node_id": "0.0-4.0-0.0"}}, {"uniqueid": "w64012089:a75534682", "current_trial": 21, "dateTime": 1691072194412, "trialdata": {"revealed_states": [], "clicked_states": [], "num_clicks_accrued": [0, 0, 0, 0, 0, 0, 0, 0, 0, 0, 0, 0, 0], "stateRewards": ["", -2, 1, -8, 12, -65, -79, 16, 7, -80, -17, -45, -2, 2, -5, -2, -85, 23, -4, -7, 48, 27, -76, 2, 3, 5, 2, 43, 71, -13, 7, -49, 59, -31], "withholdReward": false, "trial_id": "mdp_trial_1", "block": "test", "trialIndex": 6, "score": -62, "costs": 0, "simulationMode": [null, null, null, null, null], "rewards": [-2, 1, -8, 12, -65], "path": ["0", "0", "1", "2", "3", "4", "5"], "rt": [2015, 132, 341, 241, 970], "actions": ["up", "up", "up", "right", "up"], "actionTimes": [3797, 4446, 5324, 6089, 7585], "queries": {"click": {"state": {"target": [], "time": []}, "edge": {"target": [], "time": []}}, "mouseover": {"state": {"target": [], "time": []}, "edge": {"target": [], "time": []}}, "mouseout": {"state": {"target": ["31", "30", "31", "0"], "time": [901, 1045, 1067, 1502]}, "edge": {"target": [], "time": []}}}, "displayed_time": "15.79", "trialTime": 17349, "trial_type": "mouselab-mdp", "trial_index": 21, "time_elapsed": 576068, "internal_node_id": "0.0-4.0-1.0-0.0"}}, {"uniqueid": "w64012089:a75534682", "current_trial": 22, "dateTime": 1691072212457, "trialdata": {"revealed_states": [], "clicked_states": ["5", "10"], "num_clicks_accrued": [0, 0, 0, 0, 0, 0, 0, 0, 0, 0, 0, 0, 0], "stateRewards": ["", 1, -3, -1, 9, -34, -40, 22, -7, 45, 53, -11, 2, 4, 5, 15, 21, 37, -49, -3, 80, -28, -34, 1, -3, 1, 1, -40, -6, -5, -16, -85, -86, 59], "withholdReward": false, "trial_id": "mdp_trial_2", "block": "test", "trialIndex": 7, "score": 40.2, "costs": -2.8, "simulationMode": [null, null, null, null, null], "rewards": [1, -3, -1, -7, 53], "path": ["0", "0", "1", "2", "3", "8", "10"], "rt": [6701, 501, 1863, 836, 710], "actions": ["up", "up", "up", "left", "down"], "actionTimes": [8559, 9601, 11998, 13366, 14610], "queries": {"click": {"state": {"target": ["5", "10"], "time": [2871, 5090]}, "edge": {"target": [], "time": []}}, "mouseover": {"state": {"target": ["1", "4", "5", "4", "3", "8", "10", "10", "28", "24", "23", "22", "19", "20"], "time": [2297, 2434, 2545, 3209, 3408, 3472, 3590, 3850, 6168, 6388, 7564, 7631, 7642, 7650]}, "edge": {"target": [], "time": []}}, "mouseout": {"state": {"target": ["0", "31", "23", "0", "1", "4", "5", "4", "3", "8", "10", "10", "28", "24", "23", "22", "19", "20"], "time": [722, 800, 1308, 1443, 2317, 2511, 3085, 3385, 3436, 3551, 3817, 6119, 6202, 7518, 7584, 7641, 7649, 7663]}, "edge": {"target": [], "time": []}}}, "displayed_time": "15.88", "trialTime": 17747, "trial_type": "mouselab-mdp", "trial_index": 22, "time_elapsed": 594113, "internal_node_id": "0.0-4.0-1.0-1.0"}}, {"uniqueid": "w64012089:a75534682", "current_trial": 23, "dateTime": 1691072229838, "trialdata": {"revealed_states": [], "clicked_states": ["26", "15"], "num_clicks_accrued": [0, 0, 0, 0, 0, 0, 0, 0, 0, 0, 0, 0, 0], "stateRewards": ["", 2, -1, -1, -9, -81, -30, 55, -6, 78, 25, 62, 2, 4, -1, 9, -85, 1, -19, 1, -60, 12, -34, 1, 4, -1, -13, -24, -16, -83, -8, 16, 43, 9], "withholdReward": false, "trial_id": "mdp_trial_3", "block": "test", "trialIndex": 8, "score": 15.2, "costs": -2.8, "simulationMode": [null, null, null, null, null], "rewards": [2, 4, -1, 1, 12], "path": ["0", "0", "12", "13", "14", "19", "21"], "rt": [9996, 171, 448, 544, 261], "actions": ["right", "right", "right", "down", "down"], "actionTimes": [11751, 12448, 13428, 14508, 15306], "queries": {"click": {"state": {"target": ["26", "15"], "time": [3400, 7348]}, "edge": {"target": [], "time": []}}, "mouseover": {"state": {"target": ["23", "24", "26", "24", "23", "12", "15", "16"], "time": [2509, 2566, 2800, 5965, 5998, 6034, 6653, 8696]}, "edge": {"target": [], "time": []}}, "mouseout": {"state": {"target": ["20", "14", "18", "12", "0", "23", "24", "26", "24", "23", "12", "15", "16"], "time": [846, 992, 1060, 1206, 2489, 2532, 2654, 3660, 5978, 6010, 6041, 8628, 9905]}, "edge": {"target": [], "time": []}}}, "displayed_time": "15.85", "trialTime": 17106, "trial_type": "mouselab-mdp", "trial_index": 23, "time_elapsed": 611494, "internal_node_id": "0.0-4.0-1.0-2.0"}}, {"uniqueid": "w64012089:a75534682", "current_trial": 24, "dateTime": 1691072248175, "trialdata": {"revealed_states": [], "clicked_states": [], "num_clicks_accrued": [0, 0, 0, 0, 0, 0, 0, 0, 0, 0, 0, 0, 0], "stateRewards": ["", 1, -2, -8, -13, 4, 34, -84, -4, -49, 88, -70, -1, 3, -4, 10, -77, 13, -34, 15, -21, -16, 27, 1, -2, 8, -8, -6, 38, -26, 6, -15, 66, -3], "withholdReward": false, "trial_id": "mdp_trial_4", "block": "test", "trialIndex": 9, "score": -3, "costs": 0, "simulationMode": [null, null, null, null, null], "rewards": [-1, 3, -4, 15, -16], "path": ["0", "0", "12", "13", "14", "19", "21"], "rt": [1571, 201, 249, 423, 305], "actions": ["right", "right", "right", "down", "down"], "actionTimes": [3693, 4422, 5187, 6142, 6976], "queries": {"click": {"state": {"target": [], "time": []}, "edge": {"target": [], "time": []}}, "mouseover": {"state": {"target": ["0", "12"], "time": [2189, 2593]}, "edge": {"target": [], "time": []}}, "mouseout": {"state": {"target": ["18", "18", "12", "0", "12"], "time": [1506, 1552, 1642, 2540, 2632]}, "edge": {"target": [], "time": []}}}, "displayed_time": "16.14", "trialTime": 18034, "trial_type": "mouselab-mdp", "trial_index": 24, "time_elapsed": 629831, "internal_node_id": "0.0-4.0-1.0-3.0"}}, {"uniqueid": "w64012089:a75534682", "current_trial": 25, "dateTime": 1691072265781, "trialdata": {"revealed_states": [], "clicked_states": [], "num_clicks_accrued": [0, 0, 0, 0, 0, 0, 0, 0, 0, 0, 0, 0, 0], "stateRewards": ["", 2, 3, -1, 16, -78, -11, 46, 2, -20, 79, -67, 2, 3, 2, 11, -83, -42, -58, -11, -67, -22, 55, 2, -1, -1, -16, -83, -82, 23, -11, -29, 13, 13], "withholdReward": false, "trial_id": "mdp_trial_5", "block": "test", "trialIndex": 10, "score": 2, "costs": 0, "simulationMode": [null, null, null, null, null], "rewards": [2, -1, -1, -11, 13], "path": ["0", "0", "23", "24", "25", "30", "33"], "rt": [1322, 445, 462, 441, 816], "actions": ["left", "left", "left", "down", "left"], "actionTimes": [3329, 4309, 5308, 6288, 7648], "queries": {"click": {"state": {"target": [], "time": []}, "edge": {"target": [], "time": []}}, "mouseover": {"state": {"target": [], "time": []}, "edge": {"target": [], "time": []}}, "mouseout": {"state": {"target": ["16", "1", "0"], "time": [1175, 1266, 2234]}, "edge": {"target": [], "time": []}}}, "displayed_time": "16.02", "trialTime": 17334, "trial_type": "mouselab-mdp", "trial_index": 25, "time_elapsed": 647437, "internal_node_id": "0.0-4.0-1.0-4.0"}}, {"uniqueid": "w64012089:a75534682", "current_trial": 26, "dateTime": 1691072283455, "trialdata": {"revealed_states": [], "clicked_states": [], "num_clicks_accrued": [0, 0, 0, 0, 0, 0, 0, 0, 0, 0, 0, 0, 0], "stateRewards": ["", 2, 4, 7, 7, -79, -2, -21, -5, -53, 47, -21, 1, -3, -1, 7, 83, 7, 84, -7, 80, -37, 69, 2, -4, 5, 2, 4, -20, -30, 7, 71, 44, -81], "withholdReward": false, "trial_id": "mdp_trial_6", "block": "test", "trialIndex": 11, "score": -13, "costs": 0, "simulationMode": [null, null, null, null, null], "rewards": [2, 4, 7, -5, -21], "path": ["0", "0", "1", "2", "3", "8", "11"], "rt": [1147, 351, 425, 358, 420], "actions": ["up", "up", "up", "left", "left"], "actionTimes": [3481, 4370, 5326, 6226, 7170], "queries": {"click": {"state": {"target": [], "time": []}, "edge": {"target": [], "time": []}}, "mouseover": {"state": {"target": ["22", "19"], "time": [2472, 2485]}, "edge": {"target": [], "time": []}}, "mouseout": {"state": {"target": ["19", "22", "0", "0", "22", "19"], "time": [1396, 1429, 1552, 2428, 2484, 2498]}, "edge": {"target": [], "time": []}}}, "displayed_time": "16.35", "trialTime": 17396, "trial_type": "mouselab-mdp", "trial_index": 26, "time_elapsed": 665111, "internal_node_id": "0.0-4.0-1.0-5.0"}}, {"uniqueid": "w64012089:a75534682", "current_trial": 27, "dateTime": 1691072301106, "trialdata": {"revealed_states": [], "clicked_states": [], "num_clicks_accrued": [0, 0, 0, 0, 0, 0, 0, 0, 0, 0, 0, 0, 0], "stateRewards": ["", 2, 3, -3, 12, -43, 81, -82, -15, 58, -7, -75, -1, -1, 3, -5, 50, -25, -8, 4, 66, 65, -66, 2, -4, 2, -1, -10, 10, 37, 11, 88, -37, 8], "withholdReward": false, "trial_id": "mdp_trial_7", "block": "test", "trialIndex": 12, "score": -11, "costs": 0, "simulationMode": [null, null, null, null, null], "rewards": [2, -4, 2, -1, -10], "path": ["0", "0", "23", "24", "25", "26", "27"], "rt": [1663, 192, 387, 326, 461], "actions": ["left", "left", "left", "up", "up"], "actionTimes": [3891, 4610, 5522, 6376, 7379], "queries": {"click": {"state": {"target": [], "time": []}, "edge": {"target": [], "time": []}}, "mouseover": {"state": {"target": ["0", "12"], "time": [2234, 2319]}, "edge": {"target": [], "time": []}}, "mouseout": {"state": {"target": ["21", "22", "12", "0"], "time": [1560, 1567, 1590, 2296]}, "edge": {"target": [], "time": []}}}, "displayed_time": "16.25", "trialTime": 17378, "trial_type": "mouselab-mdp", "trial_index": 27, "time_elapsed": 682761, "internal_node_id": "0.0-4.0-1.0-6.0"}}, {"uniqueid": "w64012089:a75534682", "current_trial": 28, "dateTime": 1691072318730, "trialdata": {"revealed_states": [], "clicked_states": [], "num_clicks_accrued": [0, 0, 0, 0, 0, 0, 0, 0, 0, 0, 0, 0, 0], "stateRewards": ["", 2, -4, -4, 13, -80, 62, 13, -11, 57, -13, -44, 1, 4, 3, -4, -29, -88, 15, 16, -58, 68, -45, -1, -3, -1, -9, -44, -86, -19, -7, -36, 59, 66], "withholdReward": false, "trial_id": "mdp_trial_8", "block": "test", "trialIndex": 13, "score": -21, "costs": 0, "simulationMode": [null, null, null, null, null], "rewards": [1, 4, 3, 16, -45], "path": ["0", "0", "12", "13", "14", "19", "22"], "rt": [894, 405, 308, 804, 741], "actions": ["right", "right", "right", "down", "left"], "actionTimes": [3131, 4078, 4897, 6227, 7495], "queries": {"click": {"state": {"target": [], "time": []}, "edge": {"target": [], "time": []}}, "mouseover": {"state": {"target": [], "time": []}, "edge": {"target": [], "time": []}}, "mouseout": {"state": {"target": ["12", "12", "28", "26", "29", "29", "12", "13", "12"], "time": [1092, 1110, 1180, 1204, 1223, 1395, 1473, 1687, 1742]}, "edge": {"target": [], "time": []}}}, "displayed_time": "16.25", "trialTime": 17359, "trial_type": "mouselab-mdp", "trial_index": 28, "time_elapsed": 700386, "internal_node_id": "0.0-4.0-1.0-7.0"}}, {"uniqueid": "w64012089:a75534682", "current_trial": 29, "dateTime": 1691072336995, "trialdata": {"revealed_states": [], "clicked_states": ["30", "33"], "num_clicks_accrued": [0, 0, 0, 0, 0, 0, 0, 0, 0, 0, 0, 0, 0], "stateRewards": ["", 2, -2, -8, 9, -20, 55, -58, 14, 42, 2, 36, 1, -3, -5, 5, -58, 57, 60, 16, 57, 30, -70, -2, 1, 3, 10, 59, 23, 77, -13, -26, 88, -72], "withholdReward": false, "trial_id": "mdp_trial_9", "block": "test", "trialIndex": 14, "score": 68.2, "costs": -2.8, "simulationMode": [null, null, null, null, null], "rewards": [-2, 1, 3, 10, 59], "path": ["0", "0", "23", "24", "25", "26", "27"], "rt": [7894, 728, 472, 536, 120], "actions": ["left", "left", "left", "up", "up"], "actionTimes": [10028, 11289, 12300, 13381, 14033], "queries": {"click": {"state": {"target": ["30", "33"], "time": [4518, 6649]}, "edge": {"target": [], "time": []}}, "mouseover": {"state": {"target": ["12", "13", "31", "30", "30", "33", "33"], "time": [3519, 3563, 4050, 4081, 4287, 5038, 5278]}, "edge": {"target": [], "time": []}}, "mouseout": {"state": {"target": ["0", "0", "1", "10", "8", "11", "10", "1", "12", "22", "0", "12", "13", "31", "30", "30", "33", "33"], "time": [993, 1000, 1056, 1089, 1113, 1282, 1327, 1347, 1372, 1511, 3499, 3543, 3700, 4072, 4128, 5004, 5083, 7659]}, "edge": {"target": [], "time": []}}}, "displayed_time": "16.15", "trialTime": 17995, "trial_type": "mouselab-mdp", "trial_index": 29, "time_elapsed": 718651, "internal_node_id": "0.0-4.0-1.0-8.0"}}, {"uniqueid": "w64012089:a75534682", "current_trial": 30, "dateTime": 1691072354993, "trialdata": {"revealed_states": [], "clicked_states": ["27"], "num_clicks_accrued": [0, 0, 0, 0, 0, 0, 0, 0, 0, 0, 0, 0, 0], "stateRewards": ["", 1, 1, 4, 11, 83, -66, 18, -16, -23, 5, 25, 1, -3, 1, -12, 18, 24, -86, -11, -64, 36, 40, 2, 1, -6, 13, 55, 29, 72, -2, 81, -72, -41], "withholdReward": false, "trial_id": "mdp_trial_10", "block": "test", "trialIndex": 15, "score": 63.6, "costs": -1.4, "simulationMode": [null, null, null, null, null], "rewards": [2, 1, -6, 13, 55], "path": ["0", "0", "23", "24", "25", "26", "27"], "rt": [4776, 119, 267, 378, 215], "actions": ["left", "left", "left", "up", "up"], "actionTimes": [6893, 7545, 8345, 9256, 10010], "queries": {"click": {"state": {"target": ["27"], "time": [4383]}, "edge": {"target": [], "time": []}}, "mouseover": {"state": {"target": ["22", "27", "15"], "time": [2304, 4099, 4853]}, "edge": {"target": [], "time": []}}, "mouseout": {"state": {"target": ["19", "13", "12", "0", "22", "27", "15"], "time": [1319, 1363, 1488, 2207, 2318, 4762, 4860]}, "edge": {"target": [], "time": []}}}, "displayed_time": "16.13", "trialTime": 17725, "trial_type": "mouselab-mdp", "trial_index": 30, "time_elapsed": 736648, "internal_node_id": "0.0-4.0-1.0-9.0"}}, {"uniqueid": "w64012089:a75534682", "current_trial": 31, "dateTime": 1691072375470, "trialdata": {"revealed_states": [], "clicked_states": ["27"], "num_clicks_accrued": [0, 0, 0, 0, 0, 0, 0, 0, 0, 0, 0, 0, 0], "stateRewards": ["", -2, 2, 3, -7, 76, 63, 21, 15, 35, -8, -44, 1, 1, -2, -12, 23, 24, 76, -9, 46, 66, -49, -2, -1, 7, 12, 40, -71, -45, -6, 38, -49, 46], "withholdReward": false, "trial_id": "mdp_trial_11", "block": "test", "trialIndex": 16, "score": 54.6, "costs": -1.4, "simulationMode": [null, null, null, null, null], "rewards": [-2, -1, 7, 12, 40], "path": ["0", "0", "23", "24", "25", "26", "27"], "rt": [3665, 156, 390, 334, 336], "actions": ["left", "left", "left", "up", "up"], "actionTimes": [8715, 9388, 10321, 11198, 12065], "queries": {"click": {"state": {"target": ["27"], "time": [6185]}, "edge": {"target": [], "time": []}}, "mouseover": {"state": {"target": ["28", "26", "27", "28", "23"], "time": [5612, 5633, 5931, 6554, 6600]}, "edge": {"target": [], "time": []}}, "mouseout": {"state": {"target": ["19", "22", "12", "0", "28", "26", "27", "28", "23"], "time": [4082, 4232, 4354, 5544, 5621, 5647, 6509, 6580, 6622]}, "edge": {"target": [], "time": []}}}, "displayed_time": "19.07", "trialTime": 20221, "trial_type": "mouselab-mdp", "trial_index": 31, "time_elapsed": 757125, "internal_node_id": "0.0-4.0-1.0-10.0"}}, {"uniqueid": "w64012089:a75534682", "current_trial": 32, "dateTime": 1691072396382, "trialdata": {"revealed_states": [], "clicked_states": ["5"], "num_clicks_accrued": [0, 0, 0, 0, 0, 0, 0, 0, 0, 0, 0, 0, 0], "stateRewards": ["", 1, -3, -2, 14, 49, -40, -39, 2, 26, -61, 73, 1, -4, -8, 12, 79, 29, -65, -13, 55, -26, 27, -1, 3, 3, 9, -17, -60, -18, -8, 35, -88, 69], "withholdReward": false, "trial_id": "mdp_trial_12", "block": "test", "trialIndex": 17, "score": 57.6, "costs": -1.4, "simulationMode": [null, null, null, null, null], "rewards": [1, -3, -2, 14, 49], "path": ["0", "0", "1", "2", "3", "4", "5"], "rt": [3369, 199, 368, 107, 427], "actions": ["up", "up", "up", "right", "up"], "actionTimes": [8843, 9584, 10484, 11126, 12061], "queries": {"click": {"state": {"target": ["5"], "time": [6834]}, "edge": {"target": [], "time": []}}, "mouseover": {"state": {"target": ["3", "4", "5"], "time": [5925, 6082, 6374]}, "edge": {"target": [], "time": []}}, "mouseout": {"state": {"target": ["19", "7", "3", "2", "1", "0", "0", "3", "4", "5"], "time": [2145, 2232, 4710, 4734, 4765, 4925, 5836, 5957, 6116, 7117]}, "edge": {"target": [], "time": []}}}, "displayed_time": "19.50", "trialTime": 20620, "trial_type": "mouselab-mdp", "trial_index": 32, "time_elapsed": 778037, "internal_node_id": "0.0-4.0-1.0-11.0"}}, {"uniqueid": "w64012089:a75534682", "current_trial": 33, "dateTime": 1691072413727, "trialdata": {"revealed_states": [], "clicked_states": ["9", "5"], "num_clicks_accrued": [0, 0, 0, 0, 0, 0, 0, 0, 0, 0, 0, 0, 0], "stateRewards": ["", 1, -2, -8, -3, 31, -84, -55, -14, 15, -58, 17, -2, -3, 7, 7, -12, 48, 67, 4, -44, -68, 46, 2, 3, -5, -7, 76, 27, 5, 11, 57, 52, 59], "withholdReward": false, "trial_id": "mdp_trial_13", "block": "test", "trialIndex": 18, "score": 16.2, "costs": -2.8, "simulationMode": [null, null, null, null, null], "rewards": [1, -2, -8, -3, 31], "path": ["0", "0", "1", "2", "3", "4", "5"], "rt": [6678, 339, 47, 555, 580], "actions": ["up", "up", "up", "right", "up"], "actionTimes": [8526, 9392, 9966, 11057, 12148], "queries": {"click": {"state": {"target": ["9", "5"], "time": [3027, 5708]}, "edge": {"target": [], "time": []}}, "mouseover": {"state": {"target": ["1", "2", "3", "9", "8", "2", "7", "6", "5", "5", "5", "4"], "time": [2513, 2557, 2579, 2624, 3275, 3370, 4200, 5137, 5181, 5318, 5384, 5977]}, "edge": {"target": [], "time": []}}, "mouseout": {"state": {"target": ["20", "19", "12", "1", "1", "2", "3", "9", "8", "2", "7", "6", "5", "5", "5", "4"], "time": [1095, 1128, 1173, 1231, 2546, 2566, 2601, 3234, 3287, 4171, 4221, 5168, 5225, 5360, 5941, 5987]}, "edge": {"target": [], "time": []}}}, "displayed_time": "15.87", "trialTime": 17051, "trial_type": "mouselab-mdp", "trial_index": 33, "time_elapsed": 795383, "internal_node_id": "0.0-4.0-1.0-12.0"}}, {"uniqueid": "w64012089:a75534682", "current_trial": 34, "dateTime": 1691072430753, "trialdata": {"revealed_states": [], "clicked_states": ["32"], "num_clicks_accrued": [0, 0, 0, 0, 0, 0, 0, 0, 0, 0, 0, 0, 0], "stateRewards": ["", 1, 1, -7, -9, -44, 24, -83, -15, 44, -24, 72, -2, -3, 4, -5, 57, 55, 29, -11, 22, 12, -25, -1, 2, 7, 12, 33, -8, 47, -4, 8, 50, -4], "withholdReward": false, "trial_id": "mdp_trial_14", "block": "test", "trialIndex": 19, "score": 52.6, "costs": -1.4, "simulationMode": [null, null, null, null, null], "rewards": [-1, 2, 7, -4, 50], "path": ["0", "0", "23", "24", "25", "30", "32"], "rt": [3348, 163, 375, 550, 342], "actions": ["left", "left", "left", "down", "down"], "actionTimes": [5170, 5847, 6758, 7850, 8726], "queries": {"click": {"state": {"target": ["32"], "time": [2654]}, "edge": {"target": [], "time": []}}, "mouseover": {"state": {"target": ["32", "21", "21"], "time": [2358, 3198, 3751]}, "edge": {"target": [], "time": []}}, "mouseout": {"state": {"target": ["7", "2", "1", "0", "32", "21", "21"], "time": [904, 1050, 1082, 2120, 3050, 3514, 3782]}, "edge": {"target": [], "time": []}}}, "displayed_time": "15.84", "trialTime": 16739, "trial_type": "mouselab-mdp", "trial_index": 34, "time_elapsed": 812408, "internal_node_id": "0.0-4.0-1.0-13.0"}}, {"uniqueid": "w64012089:a75534682", "current_trial": 35, "dateTime": 1691072447873, "trialdata": {"revealed_states": [], "clicked_states": ["21", "32"], "num_clicks_accrued": [0, 0, 0, 0, 0, 0, 0, 0, 0, 0, 0, 0, 0], "stateRewards": ["", -2, -1, -4, -15, -14, -67, 32, -3, -59, 63, 31, 2, -1, -7, -15, 71, -66, -27, -3, -54, -39, 72, 2, 1, 1, -13, 77, -40, 35, -9, 35, 75, 57], "withholdReward": false, "trial_id": "mdp_trial_15", "block": "test", "trialIndex": 20, "score": 67.2, "costs": -2.8, "simulationMode": [null, null, null, null, null], "rewards": [2, 1, 1, -9, 75], "path": ["0", "0", "23", "24", "25", "30", "32"], "rt": [7050, 24, 317, 389, 75], "actions": ["left", "left", "left", "down", "down"], "actionTimes": [8948, 9497, 10341, 11243, 11848], "queries": {"click": {"state": {"target": ["21", "32"], "time": [2713, 6346]}, "edge": {"target": [], "time": []}}, "mouseover": {"state": {"target": ["0", "22", "21", "31", "32", "21"], "time": [1906, 2066, 2462, 5748, 6130, 8333]}, "edge": {"target": [], "time": []}}, "mouseout": {"state": {"target": ["20", "14", "13", "12", "0", "22", "21", "31", "32", "32", "21"], "time": [1032, 1057, 1077, 1282, 1986, 2088, 2933, 5872, 6473, 8271, 8345]}, "edge": {"target": [], "time": []}}}, "displayed_time": "15.91", "trialTime": 16834, "trial_type": "mouselab-mdp", "trial_index": 35, "time_elapsed": 829529, "internal_node_id": "0.0-4.0-1.0-14.0"}}, {"uniqueid": "w64012089:a75534682", "current_trial": 36, "dateTime": 1691072464917, "trialdata": {"revealed_states": [], "clicked_states": ["32", "5"], "num_clicks_accrued": [0, 0, 0, 0, 0, 0, 0, 0, 0, 0, 0, 0, 0], "stateRewards": ["", 2, 4, 4, 9, -88, -10, 44, 16, -54, 64, 78, 1, 2, 5, 16, 80, 36, 7, -4, 9, -47, -70, -1, -3, 6, -16, 11, 80, 28, 8, -1, 34, -17], "withholdReward": false, "trial_id": "mdp_trial_16", "block": "test", "trialIndex": 21, "score": 41.2, "costs": -2.8, "simulationMode": [null, null, null, null, null], "rewards": [-1, -3, 6, 8, 34], "path": ["0", "0", "23", "24", "25", "30", "32"], "rt": [8506, 405, 423, 424, 167], "actions": ["left", "left", "left", "down", "down"], "actionTimes": [10196, 11137, 12104, 13072, 13782], "queries": {"click": {"state": {"target": ["32", "5"], "time": [2953, 6870]}, "edge": {"target": [], "time": []}}, "mouseover": {"state": {"target": ["31", "32", "32", "19", "14", "15", "5"], "time": [2201, 2474, 2730, 5989, 6002, 6014, 6612]}, "edge": {"target": [], "time": []}}, "mouseout": {"state": {"target": ["22", "12", "0", "31", "32", "32", "19", "14", "15", "5"], "time": [786, 1075, 2146, 2236, 2529, 3280, 6002, 6013, 6028, 7372]}, "edge": {"target": [], "time": []}}}, "displayed_time": "15.71", "trialTime": 16750, "trial_type": "mouselab-mdp", "trial_index": 36, "time_elapsed": 846572, "internal_node_id": "0.0-4.0-1.0-15.0"}}, {"uniqueid": "w64012089:a75534682", "current_trial": 37, "dateTime": 1691072484088, "trialdata": {"revealed_states": [], "clicked_states": ["29"], "num_clicks_accrued": [0, 0, 0, 0, 0, 0, 0, 0, 0, 0, 0, 0, 0], "stateRewards": ["", -1, 1, -5, -6, -78, 47, -13, 12, 48, -88, 20, 2, -3, -2, 13, -20, 37, -57, 14, -38, 30, 31, -2, -2, 8, 2, -23, 78, 28, 12, -74, -88, 8], "withholdReward": false, "trial_id": "mdp_trial_17", "block": "test", "trialIndex": 22, "score": 32.6, "costs": -1.4, "simulationMode": [null, null, null, null, null], "rewards": [-2, -2, 8, 2, 28], "path": ["0", "0", "23", "24", "25", "26", "29"], "rt": [4258, 44, 181, 700, 247], "actions": ["left", "left", "left", "up", "left"], "actionTimes": [8318, 8901, 9622, 10858, 11636], "queries": {"click": {"state": {"target": ["29"], "time": [5480]}, "edge": {"target": [], "time": []}}, "mouseover": {"state": {"target": ["23", "29", "29", "24", "21", "21"], "time": [4542, 4890, 5163, 5880, 6491, 6909]}, "edge": {"target": [], "time": []}}, "mouseout": {"state": {"target": ["20", "13", "29", "23", "0", "23", "29", "29", "24", "21", "21"], "time": [2650, 2674, 2946, 3272, 4509, 4554, 4926, 5842, 5891, 6511, 6929]}, "edge": {"target": [], "time": []}}}, "displayed_time": "18.08", "trialTime": 18881, "trial_type": "mouselab-mdp", "trial_index": 37, "time_elapsed": 865743, "internal_node_id": "0.0-4.0-1.0-16.0"}}, {"uniqueid": "w64012089:a75534682", "current_trial": 38, "dateTime": 1691072501240, "trialdata": {"revealed_states": [], "clicked_states": ["9"], "num_clicks_accrued": [0, 0, 0, 0, 0, 0, 0, 0, 0, 0, 0, 0, 0], "stateRewards": ["", -1, -2, -1, -10, -57, 73, -72, -16, 75, -14, -46, -2, -3, -7, -1, -61, -60, 76, -4, 50, 4, 14, 2, 2, -7, 12, -65, -32, 15, -8, -76, -25, -61], "withholdReward": false, "trial_id": "mdp_trial_18", "block": "test", "trialIndex": 23, "score": 53.6, "costs": -1.4, "simulationMode": [null, null, null, null, null], "rewards": [-1, -2, -1, -16, 75], "path": ["0", "0", "1", "2", "3", "8", "9"], "rt": [3969, 150, 295, 57, 531], "actions": ["up", "up", "up", "left", "up"], "actionTimes": [5686, 6360, 7171, 7764, 8825], "queries": {"click": {"state": {"target": ["9"], "time": [2850]}, "edge": {"target": [], "time": []}}, "mouseover": {"state": {"target": ["1", "9", "9", "8", "3", "4"], "time": [2070, 2397, 2507, 3184, 5013, 5048]}, "edge": {"target": [], "time": []}}, "mouseout": {"state": {"target": ["0", "0", "1", "9", "9", "9", "8", "3", "4"], "time": [1058, 2014, 2091, 2452, 2912, 3114, 4974, 5043, 5060]}, "edge": {"target": [], "time": []}}}, "displayed_time": "15.73", "trialTime": 16855, "trial_type": "mouselab-mdp", "trial_index": 38, "time_elapsed": 882896, "internal_node_id": "0.0-4.0-1.0-17.0"}}, {"uniqueid": "w64012089:a75534682", "current_trial": 39, "dateTime": 1691072519147, "trialdata": {"revealed_states": [], "clicked_states": [], "num_clicks_accrued": [0, 0, 0, 0, 0, 0, 0, 0, 0, 0, 0, 0, 0], "stateRewards": ["", 2, -1, 5, 8, 75, -35, -77, 1, -9, -81, -58, 1, 2, -7, 5, 77, -16, 19, 16, -10, -18, 40, -2, 3, 7, -5, 64, 1, -62, 10, 27, 10, 65], "withholdReward": false, "trial_id": "mdp_trial_19", "block": "test", "trialIndex": 24, "score": 89, "costs": 0, "simulationMode": [null, null, null, null, null], "rewards": [2, -1, 5, 8, 75], "path": ["0", "0", "1", "2", "3", "4", "5"], "rt": [8290, 407, 210, 832, 487], "actions": ["up", "up", "up", "right", "up"], "actionTimes": [10368, 11327, 12078, 13451, 14473], "queries": {"click": {"state": {"target": [], "time": []}, "edge": {"target": [], "time": []}}, "mouseover": {"state": {"target": ["12", "13", "14", "14", "17", "15", "16", "22", "25", "12"], "time": [3209, 3231, 3264, 3538, 4726, 5133, 6774, 8217, 9610, 9757]}, "edge": {"target": [], "time": []}}, "mouseout": {"state": {"target": ["13", "0", "12", "13", "14", "14", "17", "15", "16", "22", "25", "12"], "time": [1272, 3186, 3219, 3252, 3436, 4536, 5088, 6483, 8104, 8227, 9633, 9765]}, "edge": {"target": [], "time": []}}}, "displayed_time": "16.09", "trialTime": 17619, "trial_type": "mouselab-mdp", "trial_index": 39, "time_elapsed": 900803, "internal_node_id": "0.0-4.0-1.0-18.0"}}, {"uniqueid": "w64012089:a75534682", "current_trial": 40, "dateTime": 1691072536667, "trialdata": {"revealed_states": [], "clicked_states": ["32"], "num_clicks_accrued": [0, 0, 0, 0, 0, 0, 0, 0, 0, 0, 0, 0, 0], "stateRewards": ["", -1, -3, -7, -4, -85, -70, 79, 8, 84, -66, 42, 2, -2, -3, -16, -54, -66, 68, -3, 21, -14, 7, -2, -1, -3, -8, 75, 80, 86, -7, -84, 73, -16], "withholdReward": false, "trial_id": "mdp_trial_20", "block": "test", "trialIndex": 25, "score": 58.6, "costs": -1.4, "simulationMode": [null, null, null, null, null], "rewards": [-2, -1, -3, -7, 73], "path": ["0", "0", "23", "24", "25", "30", "32"], "rt": [3445, 27, 222, 46, 291], "actions": ["left", "left", "left", "down", "down"], "actionTimes": [5612, 6170, 6913, 7489, 8319], "queries": {"click": {"state": {"target": ["32"], "time": [3751]}, "edge": {"target": [], "time": []}}, "mouseover": {"state": {"target": ["23", "24", "30", "32"], "time": [2772, 2814, 2908, 3400]}, "edge": {"target": [], "time": []}}, "mouseout": {"state": {"target": ["19", "22", "24", "23", "0", "0", "23", "24", "30", "32"], "time": [872, 880, 1016, 1059, 1176, 2738, 2794, 2825, 3343, 3978]}, "edge": {"target": [], "time": []}}}, "displayed_time": "16.18", "trialTime": 17197, "trial_type": "mouselab-mdp", "trial_index": 40, "time_elapsed": 918322, "internal_node_id": "0.0-4.0-1.0-19.0"}}, {"uniqueid": "w64012089:a75534682", "current_trial": 41, "dateTime": 1691072553869, "trialdata": {"revealed_states": [], "clicked_states": ["21"], "num_clicks_accrued": [0, 0, 0, 0, 0, 0, 0, 0, 0, 0, 0, 0, 0], "stateRewards": ["", 1, 2, 2, -15, -84, 28, -26, 13, 31, 86, 30, -2, 1, -1, -8, 66, -40, -1, -10, -32, 57, -17, 1, 2, -2, 9, -23, 77, 85, 12, -32, -62, -35], "withholdReward": false, "trial_id": "mdp_trial_21", "block": "test", "trialIndex": 26, "score": 43.6, "costs": -1.4, "simulationMode": [null, null, null, null, null], "rewards": [-2, 1, -1, -10, 57], "path": ["0", "0", "12", "13", "14", "19", "21"], "rt": [3355, 52, 204, 379, 226], "actions": ["right", "right", "right", "down", "down"], "actionTimes": [5344, 5932, 6648, 7539, 8303], "queries": {"click": {"state": {"target": ["21"], "time": [2781]}, "edge": {"target": [], "time": []}}, "mouseover": {"state": {"target": ["21"], "time": [2540]}, "edge": {"target": [], "time": []}}, "mouseout": {"state": {"target": ["0", "21"], "time": [2052, 4622]}, "edge": {"target": [], "time": []}}}, "displayed_time": "16.00", "trialTime": 16931, "trial_type": "mouselab-mdp", "trial_index": 41, "time_elapsed": 935524, "internal_node_id": "0.0-4.0-1.0-20.0"}}, {"uniqueid": "w64012089:a75534682", "current_trial": 42, "dateTime": 1691072572515, "trialdata": {"revealed_states": [], "clicked_states": ["16", "27", "21"], "num_clicks_accrued": [0, 0, 0, 0, 0, 0, 0, 0, 0, 0, 0, 0, 0], "stateRewards": ["", 2, -3, 5, -14, -63, -9, -24, -11, -54, -43, 68, 2, -2, -4, 7, -64, 30, 47, 12, -74, 11, 86, 1, -3, 3, 10, -71, -42, -52, -1, -29, -16, 69], "withholdReward": false, "trial_id": "mdp_trial_22", "block": "test", "trialIndex": 27, "score": 14.8, "costs": -4.199999999999999, "simulationMode": [null, null, null, null, null], "rewards": [2, -2, -4, 12, 11], "path": ["0", "0", "12", "13", "14", "19", "21"], "rt": [11160, 115, 295, 520, 353], "actions": ["right", "right", "right", "down", "down"], "actionTimes": [13186, 13838, 14670, 15728, 16594], "queries": {"click": {"state": {"target": ["16", "27", "21"], "time": [3481, 7198, 10196]}, "edge": {"target": [], "time": []}}, "mouseover": {"state": {"target": ["12", "18", "16", "17", "27", "21"], "time": [2739, 2773, 3033, 3876, 6206, 9919]}, "edge": {"target": [], "time": []}}, "mouseout": {"state": {"target": ["13", "27", "23", "0", "0", "12", "18", "16", "16", "17", "27", "21"], "time": [884, 954, 1166, 1198, 2718, 2749, 2784, 3594, 3809, 3887, 8018, 10593]}, "edge": {"target": [], "time": []}}}, "displayed_time": "17.12", "trialTime": 18345, "trial_type": "mouselab-mdp", "trial_index": 42, "time_elapsed": 954170, "internal_node_id": "0.0-4.0-1.0-21.0"}}, {"uniqueid": "w64012089:a75534682", "current_trial": 43, "dateTime": 1691072589319, "trialdata": {"revealed_states": [], "clicked_states": ["32", "21"], "num_clicks_accrued": [0, 0, 0, 0, 0, 0, 0, 0, 0, 0, 0, 0, 0], "stateRewards": ["", 2, 3, 3, 10, 19, -21, 6, 9, 54, 68, 16, 2, 2, -6, -8, 40, -2, -75, -2, -42, 55, 59, -1, 2, 4, -14, 11, -34, -30, -6, 61, -53, 13], "withholdReward": false, "trial_id": "mdp_trial_23", "block": "test", "trialIndex": 28, "score": 48.2, "costs": -2.8, "simulationMode": [null, null, null, null, null], "rewards": [2, 2, -6, -2, 55], "path": ["0", "0", "12", "13", "14", "19", "21"], "rt": [6230, 232, 358, 496, 89], "actions": ["right", "right", "right", "down", "down"], "actionTimes": [7765, 8518, 9408, 10431, 11041], "queries": {"click": {"state": {"target": ["32", "21"], "time": [2439, 5241]}, "edge": {"target": [], "time": []}}, "mouseover": {"state": {"target": ["0", "32", "21"], "time": [1868, 2193, 4902]}, "edge": {"target": [], "time": []}}, "mouseout": {"state": {"target": ["14", "1", "23", "0", "0", "32", "21"], "time": [568, 613, 898, 1213, 1901, 2703, 7200]}, "edge": {"target": [], "time": []}}}, "displayed_time": "15.55", "trialTime": 16509, "trial_type": "mouselab-mdp", "trial_index": 43, "time_elapsed": 970975, "internal_node_id": "0.0-4.0-1.0-22.0"}}, {"uniqueid": "w64012089:a75534682", "current_trial": 44, "dateTime": 1691072609635, "trialdata": {"revealed_states": [], "clicked_states": ["27", "16", "5", "9"], "num_clicks_accrued": [0, 0, 0, 0, 0, 0, 0, 0, 0, 0, 0, 0, 0], "stateRewards": ["", -2, -2, -7, -13, -10, 49, -68, -1, 84, 70, 88, 1, 4, 4, 12, -57, 25, 30, 8, -1, -77, 57, 2, 3, 2, 3, -18, -80, 23, -15, -41, 70, 11], "withholdReward": false, "trial_id": "mdp_trial_24", "block": "test", "trialIndex": 29, "score": 66.4, "costs": -5.6, "simulationMode": [null, null, null, null, null], "rewards": [-2, -2, -7, -1, 84], "path": ["0", "0", "1", "2", "3", "8", "9"], "rt": [10963, 45, 69, 269, 212], "actions": ["up", "up", "up", "left", "up"], "actionTimes": [15619, 16192, 16800, 17598, 18341], "queries": {"click": {"state": {"target": ["27", "16", "5", "9"], "time": [5835, 8352, 10935, 13638]}, "edge": {"target": [], "time": []}}, "mouseover": {"state": {"target": ["23", "26", "26", "27", "10", "7", "16", "16", "5", "9"], "time": [5139, 5208, 5409, 5490, 7842, 7874, 7907, 8064, 10529, 13057]}, "edge": {"target": [], "time": []}}, "mouseout": {"state": {"target": ["16", "7", "1", "0", "0", "23", "26", "26", "27", "10", "7", "16", "16", "5", "9"], "time": [1854, 1944, 2011, 2056, 5117, 5148, 5219, 5457, 7808, 7849, 7883, 7954, 10316, 12994, 14362]}, "edge": {"target": [], "time": []}}}, "displayed_time": "18.88", "trialTime": 20051, "trial_type": "mouselab-mdp", "trial_index": 44, "time_elapsed": 991291, "internal_node_id": "0.0-4.0-1.0-23.0"}}, {"uniqueid": "w64012089:a75534682", "current_trial": 45, "dateTime": 1691072628802, "trialdata": {"revealed_states": [], "clicked_states": ["9", "5", "16"], "num_clicks_accrued": [0, 0, 0, 0, 0, 0, 0, 0, 0, 0, 0, 0, 0], "stateRewards": ["", 2, -3, 5, 11, -79, 54, 11, -9, -78, 33, 22, -2, -1, 2, 14, 43, 34, 1, 10, 49, -65, 39, -1, 1, -1, 3, -16, -2, 11, 2, 12, 48, -65], "withholdReward": false, "trial_id": "mdp_trial_25", "block": "test", "trialIndex": 30, "score": 51.8, "costs": -4.199999999999999, "simulationMode": [null, null, null, null, null], "rewards": [-2, -1, 2, 14, 43], "path": ["0", "0", "12", "13", "14", "15", "16"], "rt": [8909, 248, 15, 527, 917], "actions": ["right", "right", "right", "up", "up"], "actionTimes": [12084, 12869, 13421, 14482, 15922], "queries": {"click": {"state": {"target": ["9", "5", "16"], "time": [4611, 6994, 9525]}, "edge": {"target": [], "time": []}}, "mouseover": {"state": {"target": ["23", "28", "9", "5", "6", "16", "15", "16"], "time": [3733, 3912, 4486, 6667, 8996, 9040, 9087, 9333]}, "edge": {"target": [], "time": []}}, "mouseout": {"state": {"target": ["20", "21", "0", "0", "23", "28", "9", "5", "6", "16", "15", "16"], "time": [1057, 1063, 2440, 3699, 3755, 3932, 6591, 8964, 9020, 9063, 9186, 10898]}, "edge": {"target": [], "time": []}}}, "displayed_time": "17.19", "trialTime": 18878, "trial_type": "mouselab-mdp", "trial_index": 45, "time_elapsed": 1010457, "internal_node_id": "0.0-4.0-1.0-24.0"}}, {"uniqueid": "w64012089:a75534682", "current_trial": 46, "dateTime": 1691072645870, "trialdata": {"revealed_states": [], "clicked_states": [], "num_clicks_accrued": [0, 0, 0, 0, 0, 0, 0, 0, 0, 0, 0, 0, 0], "stateRewards": ["", 2, -4, -8, -15, 71, -43, -41, 7, -17, 20, 67, -1, -1, -4, 6, 37, -24, -47, 9, 34, 57, 45, 1, 2, -4, -5, -23, 88, -5, 13, -40, 43, 44], "withholdReward": false, "trial_id": "mdp_trial_26", "block": "test", "trialIndex": 31, "score": -29, "costs": 0, "simulationMode": [null, null, null, null, null], "rewards": [1, 2, -4, -5, -23], "path": ["0", "0", "23", "24", "25", "26", "27"], "rt": [6452, 266, 40, 514, 107], "actions": ["left", "left", "left", "up", "up"], "actionTimes": [8241, 9047, 9622, 10646, 11287], "queries": {"click": {"state": {"target": [], "time": []}, "edge": {"target": [], "time": []}}, "mouseover": {"state": {"target": ["23", "24", "25", "25", "30", "32"], "time": [2789, 2814, 2844, 3134, 5564, 5791]}, "edge": {"target": [], "time": []}}, "mouseout": {"state": {"target": ["14", "13", "12", "0", "23", "24", "25", "25", "30", "32"], "time": [976, 984, 997, 2767, 2814, 2831, 2867, 5539, 5749, 7378]}, "edge": {"target": [], "time": []}}}, "displayed_time": "15.80", "trialTime": 16787, "trial_type": "mouselab-mdp", "trial_index": 46, "time_elapsed": 1027525, "internal_node_id": "0.0-4.0-1.0-25.0"}}], "questiondata": {"params": {"CODE": "C6DMOQA6", "MIN_TIME": 14, "inspectCost": 1, "startTime": "Thu Aug 03 2023 15:06:57 GMT+0100 (Irish Standard Time)", "bonusRate": 0.002, "variance": "1_2_4_8_44", "branching": "31123"}}, "eventdata": [{"eventtype": "initialized", "value": null, "timestamp": 1691071617231, "interval": 0}, {"eventtype": "window_resize", "value": [1024, 740], "timestamp": 1691071617231, "interval": 0}, {"eventtype": "window_resize", "value": [1024, 740], "timestamp": 1691071617541, "interval": 310}, {"eventtype": "window_resize", "value": [2240, 1260], "timestamp": 1691071622102, "interval": 4561}, {"eventtype": "focus", "value": "off", "timestamp": 1691071904380, "interval": 282278}, {"eventtype": "focus", "value": "on", "timestamp": 1691071904380, "interval": 0}, {"eventtype": "window_resize", "value": [1024, 740], "timestamp": 1691071904582, "interval": 202}, {"eventtype": "window_resize", "value": [2240, 1260], "timestamp": 1691071906310, "interval": 1728}, {"eventtype": "focus", "value": "off", "timestamp": 1691072041773, "interval": 135463}, {"eventtype": "focus", "value": "on", "timestamp": 1691072041774, "interval": 1}, {"eventtype": "window_resize", "value": [1024, 740], "timestamp": 1691072041975, "interval": 201}, {"eventtype": "window_resize", "value": [2240, 1260], "timestamp": 1691072043227, "interval": 1252}, {"eventtype": "focus", "value": "off", "timestamp": 1691072679267, "interval": 636040}, {"eventtype": "focus", "value": "on", "timestamp": 1691072682114, "interval": 2847}, {"eventtype": "window_resize", "value": [1024, 740], "timestamp": 1691072682311, "interval": 197}, {"eventtype": "window_resize", "value": [2240, 1260], "timestamp": 1691072686840, "interval": 4529}, {"eventtype": "window_resize", "value": [1024, 740], "timestamp": 1691072701518, "interval": 14678}, {"eventtype": "focus", "value": "off", "timestamp": 1691072709801, "interval": 8283}, {"eventtype": "focus", "value": "on", "timestamp": 1691072716598, "interval": 6797}, {"eventtype": "focus", "value": "off", "timestamp": 1691072720060, "interval": 3462}, {"eventtype": "focus", "value": "on", "timestamp": 1691072734146, "interval": 14086}, {"eventtype": "focus", "value": "off", "timestamp": 1691072741141, "interval": 6995}, {"eventtype": "focus", "value": "on", "timestamp": 1691072804703, "interval": 63562}, {"eventtype": "window_resize", "value": [2240, 1260], "timestamp": 1691072810374, "interval": 5671}, {"eventtype": "window_resize", "value": [1024, 740], "timestamp": 1691072813491, "interval": 3117}, {"eventtype": "focus", "value": "off", "timestamp": 1691072817619, "interval": 4128}, {"eventtype": "focus", "value": "on", "timestamp": 1691072818451, "interval": 832}], "useragent": "Mozilla/5.0 (Macintosh; Intel Mac OS X 10_15_7) AppleWebKit/605.1.15 (KHTML, like Gecko) Version/16.4 Safari/605.1.15", "mode": "live", "id": "w64012089:a75534682", "status": "user data saved", "Beginhit": "2023-08-03 14:06:56.210932", "Beginexp": "2023-08-03 14:07:02.999193", "Endhit": null, "psiturkStatus": 6, "browser": "<redacted>", "platform": "macos", "language": "en-GB", "excludeReason": "dataincomplete"}