{"condition": 0, "counterbalance": 0, "assignmentId": "a43999106", "workerId": "w34218322", "hitId": "h61903142", "currenttrial": 67, "bonus": 0, "data": [{"uniqueid": "w34218322:a43999106", "current_trial": 0, "dateTime": 1693581017932, "trialdata": {"success": true, "trial_type": "fullscreen", "trial_index": 0, "time_elapsed": 7476, "internal_node_id": "0.0-0.0"}}, {"uniqueid": "w34218322:a43999106", "current_trial": 1, "dateTime": 1693581042269, "trialdata": {"view_history": [{"page_index": 0, "viewing_time": 24329}], "rt": 24330, "trial_id": "exp_instructions_control", "trial_type": "instructions", "trial_index": 1, "time_elapsed": 31814, "internal_node_id": "0.0-1.0"}}, {"uniqueid": "w34218322:a43999106", "current_trial": 2, "dateTime": 1693581299468, "trialdata": {"view_history": [{"page_index": 0, "viewing_time": 85434}, {"page_index": 1, "viewing_time": 92696}, {"page_index": 2, "viewing_time": 37392}, {"page_index": 3, "viewing_time": 41673}], "rt": 257196, "trial_id": "mouselab_instructions_1_control", "trial_type": "instructions", "trial_index": 2, "time_elapsed": 289013, "internal_node_id": "0.0-2.0-1.0"}}, {"uniqueid": "w34218322:a43999106", "current_trial": 3, "dateTime": 1693581323367, "trialdata": {"revealed_states": [], "clicked_states": ["23"], "num_clicks_accrued": [0, 0, 0, 0, 0, 0, 0, 0, 0, 0, 0, 0, 0], "stateRewards": ["", 10, -10, -10, -10, 10, -10, -10, 10, 10, -10, -10, -10, 10, -10, -10, -10, -10, 10, 10, 10, -10, 10, -10, 10, -10, 10, 10, 10, 10, 10, 10, -10, 10], "withholdReward": false, "trial_id": "practice_1", "block": "test", "trialIndex": 0, "score": -7, "costs": -0.5, "simulationMode": [null, null, null, null, null], "rewards": [-10, 10, -10, 10, -10], "path": ["0", "0", "12", "13", "14", "19", "21"], "rt": [8848, 1601, 580, 143, 500], "actions": ["right", "right", "right", "down", "down"], "actionTimes": [10603, 12700, 13796, 14458, 15449], "queries": {"click": {"state": {"target": ["23"], "time": [8631]}, "edge": {"target": [], "time": []}}, "mouseover": {"state": {"target": ["23"], "time": [6630]}, "edge": {"target": [], "time": []}}, "mouseout": {"state": {"target": ["0", "23", "23", "10", "8", "10", "10"], "time": [6448, 8964, 20180, 20230, 20530, 21030, 21264]}, "edge": {"target": [], "time": []}}}, "displayed_time": "15.95", "trialTime": 22569, "trial_type": "mouselab-mdp", "trial_index": 3, "time_elapsed": 312911, "internal_node_id": "0.0-2.0-2.0-0.0"}}, {"uniqueid": "w34218322:a43999106", "current_trial": 4, "dateTime": 1693581347955, "trialdata": {"revealed_states": [], "clicked_states": [], "num_clicks_accrued": [0, 0, 0, 0, 0, 0, 0, 0, 0, 0, 0, 0, 0], "stateRewards": ["", -10, 10, 10, -10, 10, 10, -10, 10, -10, -10, 10, -10, 10, 10, 10, 10, 10, -10, -10, -10, 10, -10, 10, 10, 10, -10, 10, -10, 10, -10, 10, 10, 10], "withholdReward": false, "trial_id": "practice_2", "block": "test", "trialIndex": 1, "score": 33.5, "costs": 0, "simulationMode": [null, null, null, null, null], "rewards": [10, 10, 10, -10, 10], "path": ["0", "0", "23", "24", "25", "30", "33"], "rt": [5647, 256, 3167, 41, 403], "actions": ["left", "left", "left", "down", "left"], "actionTimes": [7935, 8706, 12367, 12923, 13819], "queries": {"click": {"state": {"target": [], "time": []}, "edge": {"target": [], "time": []}}, "mouseover": {"state": {"target": [], "time": []}, "edge": {"target": [], "time": []}}, "mouseout": {"state": {"target": ["11", "8", "2", "1", "0", "0"], "time": [995, 1396, 1497, 1530, 1579, 19967]}, "edge": {"target": [], "time": []}}}, "displayed_time": "14.32", "trialTime": 24357, "trial_type": "mouselab-mdp", "trial_index": 4, "time_elapsed": 337499, "internal_node_id": "0.0-2.0-2.0-1.0"}}, {"uniqueid": "w34218322:a43999106", "current_trial": 5, "dateTime": 1693581421402, "trialdata": {"view_history": [{"page_index": 0, "viewing_time": 56443}, {"page_index": 1, "viewing_time": 17000}], "rt": 73444, "trial_id": "mouselab_instructions_2_control", "trial_type": "instructions", "trial_index": 5, "time_elapsed": 410947, "internal_node_id": "0.0-2.0-3.0"}}, {"uniqueid": "w34218322:a43999106", "current_trial": 6, "dateTime": 1693581479499, "trialdata": {"rt": 58088, "response": {"Q0": "The cost for clicking on nodes may vary between nodes.", "Q1": "The better I perform the higher my bonus will be.", "Q2": "No, the amount of cash at each node of the web may be different each time.", "Q3": "To get the highest total score.", "Q4": "Only after moving the spider.", "Q5": "3 seconds"}, "question_order": [0, 1, 2, 3, 4, 5], "correct": {"Q0": "The cost for clicking on nodes may vary between nodes.", "Q1": "The better I perform the higher my bonus will be.", "Q2": "No, the amount of cash at each node of the web may be different each time.", "Q3": "To get the highest total score.", "Q4": "Only before moving the spider.", "Q5": "3 seconds"}, "trial_id": "mouselab_quiz_control", "trial_type": "survey-multi-choice", "trial_index": 6, "time_elapsed": 469044, "internal_node_id": "0.0-2.0-4.0"}}, {"uniqueid": "w34218322:a43999106", "current_trial": 7, "dateTime": 1693581490666, "trialdata": {"success": true, "trial_type": "fullscreen", "trial_index": 7, "time_elapsed": 480211, "internal_node_id": "0.0-2.1-0.1-0.1"}}, {"uniqueid": "w34218322:a43999106", "current_trial": 8, "dateTime": 1693581520130, "trialdata": {"view_history": [{"page_index": 0, "viewing_time": 4781}, {"page_index": 1, "viewing_time": 8376}, {"page_index": 2, "viewing_time": 13264}, {"page_index": 3, "viewing_time": 3041}], "rt": 29462, "trial_id": "mouselab_instructions_1_control", "trial_type": "instructions", "trial_index": 8, "time_elapsed": 509675, "internal_node_id": "0.0-2.1-1.1"}}, {"uniqueid": "w34218322:a43999106", "current_trial": 9, "dateTime": 1693581531244, "trialdata": {"revealed_states": [], "clicked_states": [], "num_clicks_accrued": [0, 0, 0, 0, 0, 0, 0, 0, 0, 0, 0, 0, 0], "stateRewards": ["", 10, -10, -10, -10, 10, -10, -10, 10, 10, -10, -10, -10, 10, -10, -10, -10, -10, 10, 10, 10, -10, 10, -10, 10, -10, 10, 10, 10, 10, 10, 10, -10, 10], "withholdReward": false, "trial_id": "practice_1", "block": "test", "trialIndex": 2, "score": -6.5, "costs": 0, "simulationMode": [null, null, null, null, null], "rewards": [-10, 10, -10, 10, -10], "path": ["0", "0", "23", "24", "25", "30", "32"], "rt": [1602, 256, 244, 338, 209], "actions": ["left", "left", "left", "down", "down"], "actionTimes": [3668, 4452, 5223, 6050, 6755], "queries": {"click": {"state": {"target": [], "time": []}, "edge": {"target": [], "time": []}}, "mouseover": {"state": {"target": [], "time": []}, "edge": {"target": [], "time": []}}, "mouseout": {"state": {"target": ["0", "1", "0", "0"], "time": [226, 744, 843, 3809]}, "edge": {"target": [], "time": []}}}, "displayed_time": "7.25", "trialTime": 10854, "trial_type": "mouselab-mdp", "trial_index": 9, "time_elapsed": 520788, "internal_node_id": "0.0-2.1-2.1-0.1"}}, {"uniqueid": "w34218322:a43999106", "current_trial": 10, "dateTime": 1693581540652, "trialdata": {"revealed_states": [], "clicked_states": [], "num_clicks_accrued": [0, 0, 0, 0, 0, 0, 0, 0, 0, 0, 0, 0, 0], "stateRewards": ["", -10, 10, 10, -10, 10, 10, -10, 10, -10, -10, 10, -10, 10, 10, 10, 10, 10, -10, -10, -10, 10, -10, 10, 10, 10, -10, 10, -10, 10, -10, 10, 10, 10], "withholdReward": false, "trial_id": "practice_2", "block": "test", "trialIndex": 3, "score": 33.5, "costs": 0, "simulationMode": [null, null, null, null, null], "rewards": [10, 10, 10, -10, 10], "path": ["0", "0", "23", "24", "25", "30", "32"], "rt": [1804, 1, 44, 127, 11], "actions": ["left", "left", "left", "down", "down"], "actionTimes": [2999, 3520, 4077, 4711, 5214], "queries": {"click": {"state": {"target": [], "time": []}, "edge": {"target": [], "time": []}}, "mouseover": {"state": {"target": [], "time": []}, "edge": {"target": [], "time": []}}, "mouseout": {"state": {"target": ["0"], "time": [3316]}, "edge": {"target": [], "time": []}}}, "displayed_time": "5.75", "trialTime": 9152, "trial_type": "mouselab-mdp", "trial_index": 10, "time_elapsed": 530196, "internal_node_id": "0.0-2.1-2.1-1.1"}}, {"uniqueid": "w34218322:a43999106", "current_trial": 11, "dateTime": 1693581568162, "trialdata": {"view_history": [{"page_index": 0, "viewing_time": 25914}, {"page_index": 1, "viewing_time": 1592}], "rt": 27506, "trial_id": "mouselab_instructions_2_control", "trial_type": "instructions", "trial_index": 11, "time_elapsed": 557707, "internal_node_id": "0.0-2.1-3.1"}}, {"uniqueid": "w34218322:a43999106", "current_trial": 12, "dateTime": 1693581614756, "trialdata": {"rt": 46589, "response": {"Q0": "The cost for clicking on nodes may vary between nodes.", "Q1": "The better I perform the higher my bonus will be.", "Q2": "No, the amount of cash at each node of the web may be different each time.", "Q3": "To get the highest total score.", "Q4": "Any time during the round.", "Q5": "3 seconds"}, "question_order": [0, 1, 2, 3, 4, 5], "correct": {"Q0": "The cost for clicking on nodes may vary between nodes.", "Q1": "The better I perform the higher my bonus will be.", "Q2": "No, the amount of cash at each node of the web may be different each time.", "Q3": "To get the highest total score.", "Q4": "Only before moving the spider.", "Q5": "3 seconds"}, "trial_id": "mouselab_quiz_control", "trial_type": "survey-multi-choice", "trial_index": 12, "time_elapsed": 604301, "internal_node_id": "0.0-2.1-4.1"}}, {"uniqueid": "w34218322:a43999106", "current_trial": 13, "dateTime": 1693581618770, "trialdata": {"success": true, "trial_type": "fullscreen", "trial_index": 13, "time_elapsed": 608315, "internal_node_id": "0.0-2.2-0.2-0.2"}}, {"uniqueid": "w34218322:a43999106", "current_trial": 14, "dateTime": 1693581705753, "trialdata": {"view_history": [{"page_index": 0, "viewing_time": 63804}, {"page_index": 1, "viewing_time": 18768}, {"page_index": 2, "viewing_time": 2904}, {"page_index": 3, "viewing_time": 1504}], "rt": 86981, "trial_id": "mouselab_instructions_1_control", "trial_type": "instructions", "trial_index": 14, "time_elapsed": 695298, "internal_node_id": "0.0-2.2-1.2"}}, {"uniqueid": "w34218322:a43999106", "current_trial": 15, "dateTime": 1693581715417, "trialdata": {"revealed_states": [], "clicked_states": [], "num_clicks_accrued": [0, 0, 0, 0, 0, 0, 0, 0, 0, 0, 0, 0, 0], "stateRewards": ["", 10, -10, -10, -10, 10, -10, -10, 10, 10, -10, -10, -10, 10, -10, -10, -10, -10, 10, 10, 10, -10, 10, -10, 10, -10, 10, 10, 10, 10, 10, 10, -10, 10], "withholdReward": false, "trial_id": "practice_1", "block": "test", "trialIndex": 4, "score": -6.5, "costs": 0, "simulationMode": [null, null, null, null, null], "rewards": [-10, 10, -10, 10, -10], "path": ["0", "0", "12", "13", "14", "19", "21"], "rt": [1143, 43, 930, 441, 234], "actions": ["right", "right", "right", "down", "down"], "actionTimes": [3145, 3683, 5121, 6065, 6791], "queries": {"click": {"state": {"target": [], "time": []}, "edge": {"target": [], "time": []}}, "mouseover": {"state": {"target": [], "time": []}, "edge": {"target": [], "time": []}}, "mouseout": {"state": {"target": ["7", "1", "0"], "time": [838, 1305, 7807]}, "edge": {"target": [], "time": []}}}, "displayed_time": "7.31", "trialTime": 9368, "trial_type": "mouselab-mdp", "trial_index": 15, "time_elapsed": 704961, "internal_node_id": "0.0-2.2-2.2-0.2"}}, {"uniqueid": "w34218322:a43999106", "current_trial": 16, "dateTime": 1693581723843, "trialdata": {"revealed_states": [], "clicked_states": [], "num_clicks_accrued": [0, 0, 0, 0, 0, 0, 0, 0, 0, 0, 0, 0, 0], "stateRewards": ["", -10, 10, 10, -10, 10, 10, -10, 10, -10, -10, 10, -10, 10, 10, 10, 10, 10, -10, -10, -10, 10, -10, 10, 10, 10, -10, 10, -10, 10, -10, 10, 10, 10], "withholdReward": false, "trial_id": "practice_2", "block": "test", "trialIndex": 5, "score": 13.5, "costs": 0, "simulationMode": [null, null, null, null, null], "rewards": [-10, 10, 10, -10, 10], "path": ["0", "0", "12", "13", "14", "19", "21"], "rt": [1275, 1, 95, 10, 105], "actions": ["right", "right", "right", "down", "down"], "actionTimes": [2599, 3117, 3743, 4257, 4868], "queries": {"click": {"state": {"target": [], "time": []}, "edge": {"target": [], "time": []}}, "mouseover": {"state": {"target": [], "time": []}, "edge": {"target": [], "time": []}}, "mouseout": {"state": {"target": ["1", "0"], "time": [828, 6913]}, "edge": {"target": [], "time": []}}}, "displayed_time": "5.36", "trialTime": 8185, "trial_type": "mouselab-mdp", "trial_index": 16, "time_elapsed": 713388, "internal_node_id": "0.0-2.2-2.2-1.2"}}, {"uniqueid": "w34218322:a43999106", "current_trial": 17, "dateTime": 1693581729249, "trialdata": {"view_history": [{"page_index": 0, "viewing_time": 3219}, {"page_index": 1, "viewing_time": 2184}], "rt": 5403, "trial_id": "mouselab_instructions_2_control", "trial_type": "instructions", "trial_index": 17, "time_elapsed": 718794, "internal_node_id": "0.0-2.2-3.2"}}, {"uniqueid": "w34218322:a43999106", "current_trial": 18, "dateTime": 1693581760371, "trialdata": {"rt": 31118, "response": {"Q0": "The cost for clicking on nodes may vary between nodes.", "Q1": "The better I perform the higher my bonus will be.", "Q2": "No, the amount of cash at each node of the web may be different each time.", "Q3": "To get the highest total score.", "Q4": "Only before moving the spider.", "Q5": "3 seconds"}, "question_order": [0, 1, 2, 3, 4, 5], "correct": {"Q0": "The cost for clicking on nodes may vary between nodes.", "Q1": "The better I perform the higher my bonus will be.", "Q2": "No, the amount of cash at each node of the web may be different each time.", "Q3": "To get the highest total score.", "Q4": "Only before moving the spider.", "Q5": "3 seconds"}, "trial_id": "mouselab_quiz_control", "trial_type": "survey-multi-choice", "trial_index": 18, "time_elapsed": 749916, "internal_node_id": "0.0-2.2-4.2"}}, {"uniqueid": "w34218322:a43999106", "current_trial": 19, "dateTime": 1693581774410, "trialdata": {"rt": 14030, "response": {"Q0": "No"}, "question_order": [0], "trial_id": "repeat_check", "trial_type": "survey-multi-choice", "trial_index": 19, "time_elapsed": 763955, "internal_node_id": "0.0-4.0-0.0"}}, {"uniqueid": "w34218322:a43999106", "current_trial": 20, "dateTime": 1693581800057, "trialdata": {"rt": 25640, "stimulus": "\n<h1> Get ready to start the game! </h1>\n\nThank you for reading the instructions. Get ready start with the 40 rounds of this game.\n<br><br>\nIf you need to take a break, feel free to take one after the end of a round, before continuing to the next one.\n<br><br>\nRemember, the more money the spider gets, the bigger your bonus will be!\n<br><br>\n<div style='text-align: center;'>Press <code>space</code> to begin.</div>\n\n<br><br>\n(If, at any point, the <code>space</code> key does not take you to the next page, click once on the text and try again.)", "response": " ", "trial_id": "mdp_ready", "trial_type": "html-keyboard-response", "trial_index": 20, "time_elapsed": 789602, "internal_node_id": "0.0-6.0-0.0"}}, {"uniqueid": "w34218322:a43999106", "current_trial": 21, "dateTime": 1693581822107, "trialdata": {"revealed_states": [], "clicked_states": [], "num_clicks_accrued": [0, 0, 0, 0, 0, 0, 0, 0, 0, 0, 0, 0, 0], "stateRewards": ["", -2, -3, -6, -7, 9, 16, 65, 5, -41, 20, -25, -1, -4, 1, -11, -49, -4, 71, 1, 39, -62, 52, -2, -3, 7, -9, -28, -70, 84, 8, 24, -58, 82], "withholdReward": false, "trial_id": "mdp_trial_1", "block": "test", "trialIndex": 6, "score": -65, "costs": 0, "simulationMode": [null, null, null, null, null], "rewards": [-1, -4, 1, 1, -62], "path": ["0", "0", "12", "13", "14", "19", "21"], "rt": [1213, 158, 145, 216, 228], "actions": ["right", "right", "right", "down", "down"], "actionTimes": [6472, 7144, 7783, 8502, 9231], "queries": {"click": {"state": {"target": [], "time": []}, "edge": {"target": [], "time": []}}, "mouseover": {"state": {"target": [], "time": []}, "edge": {"target": [], "time": []}}, "mouseout": {"state": {"target": ["0", "24", "23", "0", "0"], "time": [284, 1117, 1217, 1366, 11420]}, "edge": {"target": [], "time": []}}}, "displayed_time": "19.27", "trialTime": 21800, "trial_type": "mouselab-mdp", "trial_index": 21, "time_elapsed": 811652, "internal_node_id": "0.0-6.0-1.0-0.0"}}, {"uniqueid": "w34218322:a43999106", "current_trial": 22, "dateTime": 1693581842226, "trialdata": {"revealed_states": [], "clicked_states": [], "num_clicks_accrued": [0, 0, 0, 0, 0, 0, 0, 0, 0, 0, 0, 0, 0], "stateRewards": ["", -1, 1, -1, 2, 19, 85, -18, 2, -3, -26, 36, 2, 4, 7, -9, -18, 70, 72, -5, 35, -20, -28, 1, -2, -4, -3, -59, -11, -63, -2, -72, 59, -69], "withholdReward": false, "trial_id": "mdp_trial_2", "block": "test", "trialIndex": 7, "score": -76, "costs": 0, "simulationMode": [null, null, null, null, null], "rewards": [1, -2, -4, -2, -69], "path": ["0", "0", "23", "24", "25", "30", "33"], "rt": [1577, 302, 320, 177, 213], "actions": ["left", "left", "left", "down", "left"], "actionTimes": [2842, 3645, 4479, 5153, 5873], "queries": {"click": {"state": {"target": [], "time": []}, "edge": {"target": [], "time": []}}, "mouseover": {"state": {"target": [], "time": []}, "edge": {"target": [], "time": []}}, "mouseout": {"state": {"target": ["0"], "time": [7791]}, "edge": {"target": [], "time": []}}}, "displayed_time": "15.27", "trialTime": 19842, "trial_type": "mouselab-mdp", "trial_index": 22, "time_elapsed": 831770, "internal_node_id": "0.0-6.0-1.0-1.0"}}, {"uniqueid": "w34218322:a43999106", "current_trial": 23, "dateTime": 1693581862300, "trialdata": {"revealed_states": [], "clicked_states": [], "num_clicks_accrued": [0, 0, 0, 0, 0, 0, 0, 0, 0, 0, 0, 0, 0], "stateRewards": ["", -2, 4, 3, 5, -61, 4, 30, 1, -47, 83, 10, 1, 4, 7, -14, 19, -74, -83, 6, -2, -2, -65, -1, -2, 4, -11, 12, -1, -68, 11, -38, -28, 66], "withholdReward": false, "trial_id": "mdp_trial_3", "block": "test", "trialIndex": 8, "score": 78, "costs": 0, "simulationMode": [null, null, null, null, null], "rewards": [-1, -2, 4, 11, 66], "path": ["0", "0", "23", "24", "25", "30", "33"], "rt": [2046, 164, 171, 84, 133], "actions": ["left", "left", "left", "down", "left"], "actionTimes": [2982, 3652, 4328, 4923, 5571], "queries": {"click": {"state": {"target": [], "time": []}, "edge": {"target": [], "time": []}}, "mouseover": {"state": {"target": [], "time": []}, "edge": {"target": [], "time": []}}, "mouseout": {"state": {"target": ["0", "0"], "time": [6, 6921]}, "edge": {"target": [], "time": []}}}, "displayed_time": "14.94", "trialTime": 19728, "trial_type": "mouselab-mdp", "trial_index": 23, "time_elapsed": 851844, "internal_node_id": "0.0-6.0-1.0-2.0"}}, {"uniqueid": "w34218322:a43999106", "current_trial": 24, "dateTime": 1693581881038, "trialdata": {"revealed_states": [], "clicked_states": [], "num_clicks_accrued": [0, 0, 0, 0, 0, 0, 0, 0, 0, 0, 0, 0, 0], "stateRewards": ["", 2, -1, -4, -13, 74, 77, 3, 2, -43, -2, -11, 2, 3, 7, 11, -26, -29, -33, -3, -3, -13, -3, 1, 3, -7, 14, -59, 33, 9, -5, 34, 79, 68], "withholdReward": false, "trial_id": "mdp_trial_4", "block": "test", "trialIndex": 9, "score": 60, "costs": 0, "simulationMode": [null, null, null, null, null], "rewards": [1, 3, -7, -5, 68], "path": ["0", "0", "23", "24", "25", "30", "33"], "rt": [1449, 206, 209, 84, 179], "actions": ["left", "left", "left", "down", "left"], "actionTimes": [2927, 3647, 4370, 4960, 5637], "queries": {"click": {"state": {"target": [], "time": []}, "edge": {"target": [], "time": []}}, "mouseover": {"state": {"target": [], "time": []}, "edge": {"target": [], "time": []}}, "mouseout": {"state": {"target": ["0", "0", "0"], "time": [374, 756, 2807]}, "edge": {"target": [], "time": []}}}, "displayed_time": "15.48", "trialTime": 18436, "trial_type": "mouselab-mdp", "trial_index": 24, "time_elapsed": 870582, "internal_node_id": "0.0-6.0-1.0-3.0"}}, {"uniqueid": "w34218322:a43999106", "current_trial": 25, "dateTime": 1693581898980, "trialdata": {"revealed_states": [], "clicked_states": [], "num_clicks_accrued": [0, 0, 0, 0, 0, 0, 0, 0, 0, 0, 0, 0, 0], "stateRewards": ["", -1, 3, 1, -11, -22, -36, 19, -5, -70, -52, 50, -2, -4, 4, -2, -41, -83, 29, -2, 22, 10, -6, -2, 3, -2, 14, 54, 44, 77, -9, -65, -37, -40], "withholdReward": false, "trial_id": "mdp_trial_5", "block": "test", "trialIndex": 10, "score": -50, "costs": 0, "simulationMode": [null, null, null, null, null], "rewards": [-2, 3, -2, -9, -40], "path": ["0", "0", "23", "24", "25", "30", "33"], "rt": [2539, 161, 161, 104, 150], "actions": ["left", "left", "left", "down", "left"], "actionTimes": [3715, 4390, 5054, 5663, 6328], "queries": {"click": {"state": {"target": [], "time": []}, "edge": {"target": [], "time": []}}, "mouseover": {"state": {"target": [], "time": []}, "edge": {"target": [], "time": []}}, "mouseout": {"state": {"target": ["0"], "time": [7208]}, "edge": {"target": [], "time": []}}}, "displayed_time": "15.18", "trialTime": 17629, "trial_type": "mouselab-mdp", "trial_index": 25, "time_elapsed": 888524, "internal_node_id": "0.0-6.0-1.0-4.0"}}, {"uniqueid": "w34218322:a43999106", "current_trial": 26, "dateTime": 1693581919398, "trialdata": {"revealed_states": [], "clicked_states": [], "num_clicks_accrued": [0, 0, 0, 0, 0, 0, 0, 0, 0, 0, 0, 0, 0], "stateRewards": ["", -2, 2, 3, -7, -31, -33, 29, -8, -57, 50, -83, -1, -1, 5, 13, -23, -62, 25, 5, -66, -85, 14, 1, -2, -1, 16, 71, 33, -19, -14, 5, -43, 79], "withholdReward": false, "trial_id": "mdp_trial_6", "block": "test", "trialIndex": 11, "score": -5, "costs": 0, "simulationMode": [null, null, null, null, null], "rewards": [1, -2, -1, 16, -19], "path": ["0", "0", "23", "24", "25", "26", "29"], "rt": [1505, 295, 341, 421, 919], "actions": ["left", "left", "left", "up", "left"], "actionTimes": [2600, 3391, 4235, 5149, 7080], "queries": {"click": {"state": {"target": [], "time": []}, "edge": {"target": [], "time": []}}, "mouseover": {"state": {"target": [], "time": []}, "edge": {"target": [], "time": []}}, "mouseout": {"state": {"target": ["0", "0"], "time": [675, 8409]}, "edge": {"target": [], "time": []}}}, "displayed_time": "15.10", "trialTime": 20165, "trial_type": "mouselab-mdp", "trial_index": 26, "time_elapsed": 908942, "internal_node_id": "0.0-6.0-1.0-5.0"}}, {"uniqueid": "w34218322:a43999106", "current_trial": 27, "dateTime": 1693581937442, "trialdata": {"revealed_states": [], "clicked_states": [], "num_clicks_accrued": [0, 0, 0, 0, 0, 0, 0, 0, 0, 0, 0, 0, 0], "stateRewards": ["", -2, 1, -5, 2, -68, 80, 33, 10, 67, -59, 20, -1, -3, 3, 14, 74, -2, 24, -16, 63, 80, 46, -1, 4, 6, 12, 83, -38, -43, -4, 43, 14, -79], "withholdReward": false, "trial_id": "mdp_trial_7", "block": "test", "trialIndex": 12, "score": 19, "costs": 0, "simulationMode": [null, null, null, null, null], "rewards": [-1, 4, 6, -4, 14], "path": ["0", "0", "23", "24", "25", "30", "32"], "rt": [2523, 2187, 699, 2671, 961], "actions": ["left", "left", "left", "down", "down"], "actionTimes": [4337, 7021, 8232, 11404, 12880], "queries": {"click": {"state": {"target": [], "time": []}, "edge": {"target": [], "time": []}}, "mouseover": {"state": {"target": [], "time": []}, "edge": {"target": [], "time": []}}, "mouseout": {"state": {"target": ["0", "0", "0", "23", "23", "24", "31"], "time": [301, 797, 4481, 4849, 4914, 11833, 14232]}, "edge": {"target": [], "time": []}}}, "displayed_time": "15.82", "trialTime": 17779, "trial_type": "mouselab-mdp", "trial_index": 27, "time_elapsed": 926986, "internal_node_id": "0.0-6.0-1.0-6.0"}}, {"uniqueid": "w34218322:a43999106", "current_trial": 28, "dateTime": 1693581955107, "trialdata": {"revealed_states": [], "clicked_states": [], "num_clicks_accrued": [0, 0, 0, 0, 0, 0, 0, 0, 0, 0, 0, 0, 0], "stateRewards": ["", 2, -1, 5, 6, 10, 86, 55, 10, -45, 63, -71, 1, -2, 5, -8, -50, -72, 36, 15, 61, 12, 33, -1, -4, 6, 5, 79, -56, -21, -16, -87, 60, -81], "withholdReward": false, "trial_id": "mdp_trial_8", "block": "test", "trialIndex": 13, "score": 45, "costs": 0, "simulationMode": [null, null, null, null, null], "rewards": [-1, -4, 6, -16, 60], "path": ["0", "0", "23", "24", "25", "30", "32"], "rt": [892, 199, 108, 61, 60], "actions": ["left", "left", "left", "down", "down"], "actionTimes": [2073, 2768, 3393, 3963, 4545], "queries": {"click": {"state": {"target": [], "time": []}, "edge": {"target": [], "time": []}}, "mouseover": {"state": {"target": [], "time": []}, "edge": {"target": [], "time": []}}, "mouseout": {"state": {"target": ["0"], "time": [16401]}, "edge": {"target": [], "time": []}}}, "displayed_time": "15.18", "trialTime": 17363, "trial_type": "mouselab-mdp", "trial_index": 28, "time_elapsed": 944651, "internal_node_id": "0.0-6.0-1.0-7.0"}}, {"uniqueid": "w34218322:a43999106", "current_trial": 29, "dateTime": 1693581973352, "trialdata": {"revealed_states": [], "clicked_states": [], "num_clicks_accrued": [0, 0, 0, 0, 0, 0, 0, 0, 0, 0, 0, 0, 0], "stateRewards": ["", -1, -4, 8, 8, -68, 47, 24, -7, -61, 49, -69, -1, -1, 8, -7, 42, 1, -45, -11, 10, -63, -6, 1, 4, 6, -16, 79, -37, -58, -12, 81, 18, -53], "withholdReward": false, "trial_id": "mdp_trial_9", "block": "test", "trialIndex": 14, "score": 17, "costs": 0, "simulationMode": [null, null, null, null, null], "rewards": [1, 4, 6, -12, 18], "path": ["0", "0", "23", "24", "25", "30", "32"], "rt": [1472, 146, 168, 101, 115], "actions": ["left", "left", "left", "down", "down"], "actionTimes": [2588, 3255, 3943, 4559, 5191], "queries": {"click": {"state": {"target": [], "time": []}, "edge": {"target": [], "time": []}}, "mouseover": {"state": {"target": [], "time": []}, "edge": {"target": [], "time": []}}, "mouseout": {"state": {"target": ["0", "0"], "time": [339, 9492]}, "edge": {"target": [], "time": []}}}, "displayed_time": "15.12", "trialTime": 17947, "trial_type": "mouselab-mdp", "trial_index": 29, "time_elapsed": 962896, "internal_node_id": "0.0-6.0-1.0-8.0"}}, {"uniqueid": "w34218322:a43999106", "current_trial": 30, "dateTime": 1693581990914, "trialdata": {"revealed_states": [], "clicked_states": [], "num_clicks_accrued": [0, 0, 0, 0, 0, 0, 0, 0, 0, 0, 0, 0, 0], "stateRewards": ["", 1, 3, 1, -13, 52, -28, 67, -14, 3, 63, -70, -1, -4, 7, -11, -10, 47, -18, 6, 69, -9, -61, 2, 3, -6, 10, 63, -34, 40, -6, -79, -35, -32], "withholdReward": false, "trial_id": "mdp_trial_10", "block": "test", "trialIndex": 15, "score": -42, "costs": 0, "simulationMode": [null, null, null, null, null], "rewards": [2, 3, -6, -6, -35], "path": ["0", "0", "23", "24", "25", "30", "32"], "rt": [1215, 461, 260, 154, 164], "actions": ["left", "left", "left", "down", "down"], "actionTimes": [2230, 3183, 3947, 4593, 5251], "queries": {"click": {"state": {"target": [], "time": []}, "edge": {"target": [], "time": []}}, "mouseover": {"state": {"target": ["0"], "time": [1443]}, "edge": {"target": [], "time": []}}, "mouseout": {"state": {"target": ["0", "0"], "time": [17, 6618]}, "edge": {"target": [], "time": []}}}, "displayed_time": "15.02", "trialTime": 17287, "trial_type": "mouselab-mdp", "trial_index": 30, "time_elapsed": 980459, "internal_node_id": "0.0-6.0-1.0-9.0"}}, {"uniqueid": "w34218322:a43999106", "current_trial": 31, "dateTime": 1693582035305, "trialdata": {"revealed_states": [], "clicked_states": [], "num_clicks_accrued": [0, 0, 0, 0, 0, 0, 0, 0, 0, 0, 0, 0, 0], "stateRewards": ["", 2, -3, -8, 14, -7, -51, 73, 2, 36, 36, -43, -1, 3, -4, 1, 6, 87, -65, 15, 61, -42, -83, -1, 3, -2, -7, 30, -48, 35, 13, 26, 60, 78], "withholdReward": false, "trial_id": "mdp_trial_11", "block": "test", "trialIndex": 16, "score": 73, "costs": 0, "simulationMode": [null, null, null, null, null], "rewards": [-1, 3, -2, 13, 60], "path": ["0", "0", "23", "24", "25", "30", "32"], "rt": [1614, 119, 83, 78, 64], "actions": ["left", "left", "left", "down", "down"], "actionTimes": [2444, 3053, 3651, 4231, 4814], "queries": {"click": {"state": {"target": [], "time": []}, "edge": {"target": [], "time": []}}, "mouseover": {"state": {"target": [], "time": []}, "edge": {"target": [], "time": []}}, "mouseout": {"state": {"target": [], "time": []}, "edge": {"target": [], "time": []}}}, "displayed_time": "14.83", "trialTime": 44092, "trial_type": "mouselab-mdp", "trial_index": 31, "time_elapsed": 1024850, "internal_node_id": "0.0-6.0-1.0-10.0"}}, {"uniqueid": "w34218322:a43999106", "current_trial": 32, "dateTime": 1693582080281, "trialdata": {"revealed_states": [], "clicked_states": [], "num_clicks_accrued": [0, 0, 0, 0, 0, 0, 0, 0, 0, 0, 0, 0, 0], "stateRewards": ["", -2, 1, -8, 12, -65, -79, 16, 7, -80, -17, -45, -2, 2, -5, -2, -85, 23, -4, -7, 48, 27, -76, 2, 3, 5, 2, 43, 71, -13, 7, -49, 59, -31], "withholdReward": false, "trial_id": "mdp_trial_12", "block": "test", "trialIndex": 17, "score": 76, "costs": 0, "simulationMode": [null, null, null, null, null], "rewards": [2, 3, 5, 7, 59], "path": ["0", "0", "23", "24", "25", "30", "32"], "rt": [1517, 127, 150, 184, 111], "actions": ["left", "left", "left", "down", "down"], "actionTimes": [2340, 2977, 3649, 4336, 4943], "queries": {"click": {"state": {"target": [], "time": []}, "edge": {"target": [], "time": []}}, "mouseover": {"state": {"target": [], "time": []}, "edge": {"target": [], "time": []}}, "mouseout": {"state": {"target": [], "time": []}, "edge": {"target": [], "time": []}}}, "displayed_time": "14.82", "trialTime": 44682, "trial_type": "mouselab-mdp", "trial_index": 32, "time_elapsed": 1069825, "internal_node_id": "0.0-6.0-1.0-11.0"}}, {"uniqueid": "w34218322:a43999106", "current_trial": 33, "dateTime": 1693582101518, "trialdata": {"revealed_states": [], "clicked_states": [], "num_clicks_accrued": [0, 0, 0, 0, 0, 0, 0, 0, 0, 0, 0, 0, 0], "stateRewards": ["", 1, 1, 7, -11, 80, -20, -53, -14, 3, 31, 27, 2, -1, -8, -10, 33, 41, 86, 9, 78, -37, -13, -1, -2, -6, -8, -80, 75, 4, -16, -49, -74, 24], "withholdReward": false, "trial_id": "mdp_trial_13", "block": "test", "trialIndex": 18, "score": -99, "costs": 0, "simulationMode": [null, null, null, null, null], "rewards": [-1, -2, -6, -16, -74], "path": ["0", "0", "23", "24", "25", "30", "32"], "rt": [1272, 69, 77, 76, 71], "actions": ["left", "left", "left", "down", "down"], "actionTimes": [1912, 2477, 3052, 3635, 4214], "queries": {"click": {"state": {"target": [], "time": []}, "edge": {"target": [], "time": []}}, "mouseover": {"state": {"target": [], "time": []}, "edge": {"target": [], "time": []}}, "mouseout": {"state": {"target": [], "time": []}, "edge": {"target": [], "time": []}}}, "displayed_time": "14.64", "trialTime": 20909, "trial_type": "mouselab-mdp", "trial_index": 33, "time_elapsed": 1091062, "internal_node_id": "0.0-6.0-1.0-12.0"}}, {"uniqueid": "w34218322:a43999106", "current_trial": 34, "dateTime": 1693582137576, "trialdata": {"revealed_states": [], "clicked_states": [], "num_clicks_accrued": [0, 0, 0, 0, 0, 0, 0, 0, 0, 0, 0, 0, 0], "stateRewards": ["", -1, 1, -5, -6, -78, 47, -13, 12, 48, -88, 20, 2, -3, -2, 13, -20, 37, -57, 14, -38, 30, 31, -2, -2, 8, 2, -23, 78, 28, 12, -74, -88, 8], "withholdReward": false, "trial_id": "mdp_trial_14", "block": "test", "trialIndex": 19, "score": -72, "costs": 0, "simulationMode": [null, null, null, null, null], "rewards": [-2, -2, 8, 12, -88], "path": ["0", "0", "23", "24", "25", "30", "32"], "rt": [1485, 338, 313, 88, 96], "actions": ["left", "left", "left", "down", "down"], "actionTimes": [2258, 3116, 3923, 4516, 5123], "queries": {"click": {"state": {"target": [], "time": []}, "edge": {"target": [], "time": []}}, "mouseover": {"state": {"target": [], "time": []}, "edge": {"target": [], "time": []}}, "mouseout": {"state": {"target": ["0"], "time": [1042]}, "edge": {"target": [], "time": []}}}, "displayed_time": "14.77", "trialTime": 35752, "trial_type": "mouselab-mdp", "trial_index": 34, "time_elapsed": 1127120, "internal_node_id": "0.0-6.0-1.0-13.0"}}, {"uniqueid": "w34218322:a43999106", "current_trial": 35, "dateTime": 1693582161367, "trialdata": {"revealed_states": [], "clicked_states": [], "num_clicks_accrued": [0, 0, 0, 0, 0, 0, 0, 0, 0, 0, 0, 0, 0], "stateRewards": ["", -2, 2, 3, -7, 76, 63, 21, 15, 35, -8, -44, 1, 1, -2, -12, 23, 24, 76, -9, 46, 66, -49, -2, -1, 7, 12, 40, -71, -45, -6, 38, -49, 46], "withholdReward": false, "trial_id": "mdp_trial_15", "block": "test", "trialIndex": 20, "score": -51, "costs": 0, "simulationMode": [null, null, null, null, null], "rewards": [-2, -1, 7, -6, -49], "path": ["0", "0", "23", "24", "25", "30", "32"], "rt": [892, 65, 112, 348, 203], "actions": ["left", "left", "left", "down", "down"], "actionTimes": [1827, 2383, 3014, 3881, 4587], "queries": {"click": {"state": {"target": [], "time": []}, "edge": {"target": [], "time": []}}, "mouseover": {"state": {"target": [], "time": []}, "edge": {"target": [], "time": []}}, "mouseout": {"state": {"target": [], "time": []}, "edge": {"target": [], "time": []}}}, "displayed_time": "14.94", "trialTime": 23467, "trial_type": "mouselab-mdp", "trial_index": 35, "time_elapsed": 1150912, "internal_node_id": "0.0-6.0-1.0-14.0"}}, {"uniqueid": "w34218322:a43999106", "current_trial": 36, "dateTime": 1693582184782, "trialdata": {"revealed_states": [], "clicked_states": [], "num_clicks_accrued": [0, 0, 0, 0, 0, 0, 0, 0, 0, 0, 0, 0, 0], "stateRewards": ["", -2, 1, -3, -16, -39, -52, 30, -7, -41, -59, 11, 2, 1, 8, 2, -11, -26, -42, -13, 87, -59, -48, -1, -1, -1, 16, -79, 31, 50, -1, -84, 34, -82], "withholdReward": false, "trial_id": "mdp_trial_16", "block": "test", "trialIndex": 21, "score": 30, "costs": 0, "simulationMode": [null, null, null, null, null], "rewards": [-1, -1, -1, -1, 34], "path": ["0", "0", "23", "24", "25", "30", "32"], "rt": [8102, 30, 163, 429, 200], "actions": ["left", "left", "left", "down", "down"], "actionTimes": [9308, 9846, 10512, 11445, 12164], "queries": {"click": {"state": {"target": [], "time": []}, "edge": {"target": [], "time": []}}, "mouseover": {"state": {"target": [], "time": []}, "edge": {"target": [], "time": []}}, "mouseout": {"state": {"target": ["0", "0"], "time": [113, 7313]}, "edge": {"target": [], "time": []}}}, "displayed_time": "15.21", "trialTime": 23079, "trial_type": "mouselab-mdp", "trial_index": 36, "time_elapsed": 1174327, "internal_node_id": "0.0-6.0-1.0-15.0"}}, {"uniqueid": "w34218322:a43999106", "current_trial": 37, "dateTime": 1693582204833, "trialdata": {"revealed_states": [], "clicked_states": [], "num_clicks_accrued": [0, 0, 0, 0, 0, 0, 0, 0, 0, 0, 0, 0, 0], "stateRewards": ["", -1, -3, -7, -7, -76, 30, -49, 11, -70, 56, 2, 1, 4, -3, -14, -59, -83, -25, -9, -21, -67, -73, -2, 4, 4, -9, -11, -32, 60, 9, -87, 22, -64], "withholdReward": false, "trial_id": "mdp_trial_17", "block": "test", "trialIndex": 22, "score": 37, "costs": 0, "simulationMode": [null, null, null, null, null], "rewards": [-2, 4, 4, 9, 22], "path": ["0", "0", "23", "24", "25", "30", "32"], "rt": [1430, 171, 128, 108, 173], "actions": ["left", "left", "left", "down", "down"], "actionTimes": [2604, 3275, 3901, 4529, 5193], "queries": {"click": {"state": {"target": [], "time": []}, "edge": {"target": [], "time": []}}, "mouseover": {"state": {"target": [], "time": []}, "edge": {"target": [], "time": []}}, "mouseout": {"state": {"target": ["0"], "time": [14]}, "edge": {"target": [], "time": []}}}, "displayed_time": "15.18", "trialTime": 19633, "trial_type": "mouselab-mdp", "trial_index": 37, "time_elapsed": 1194377, "internal_node_id": "0.0-6.0-1.0-16.0"}}, {"uniqueid": "w34218322:a43999106", "current_trial": 38, "dateTime": 1693582225276, "trialdata": {"revealed_states": [], "clicked_states": [], "num_clicks_accrued": [0, 0, 0, 0, 0, 0, 0, 0, 0, 0, 0, 0, 0], "stateRewards": ["", 1, 4, 7, -16, -84, -6, -46, -12, -7, -49, -26, -1, 2, -4, 2, 22, 37, -64, 1, 88, -13, -10, 1, -4, -2, 5, 2, -10, -34, 9, 66, 55, 38], "withholdReward": false, "trial_id": "mdp_trial_18", "block": "test", "trialIndex": 23, "score": 59, "costs": 0, "simulationMode": [null, null, null, null, null], "rewards": [1, -4, -2, 9, 55], "path": ["0", "0", "23", "24", "25", "30", "32"], "rt": [1566, 447, 255, 174, 104], "actions": ["left", "left", "left", "down", "down"], "actionTimes": [2352, 3301, 4059, 4727, 5342], "queries": {"click": {"state": {"target": [], "time": []}, "edge": {"target": [], "time": []}}, "mouseover": {"state": {"target": [], "time": []}, "edge": {"target": [], "time": []}}, "mouseout": {"state": {"target": [], "time": []}, "edge": {"target": [], "time": []}}}, "displayed_time": "14.79", "trialTime": 19977, "trial_type": "mouselab-mdp", "trial_index": 38, "time_elapsed": 1214820, "internal_node_id": "0.0-6.0-1.0-17.0"}}, {"uniqueid": "w34218322:a43999106", "current_trial": 39, "dateTime": 1693582242183, "trialdata": {"revealed_states": [], "clicked_states": [], "num_clicks_accrued": [0, 0, 0, 0, 0, 0, 0, 0, 0, 0, 0, 0, 0], "stateRewards": ["", 2, -3, 5, -14, -63, -9, -24, -11, -54, -43, 68, 2, -2, -4, 7, -64, 30, 47, 12, -74, 11, 86, 1, -3, 3, 10, -71, -42, -52, -1, -29, -16, 69], "withholdReward": false, "trial_id": "mdp_trial_19", "block": "test", "trialIndex": 24, "score": -16, "costs": 0, "simulationMode": [null, null, null, null, null], "rewards": [1, -3, 3, -1, -16], "path": ["0", "0", "23", "24", "25", "30", "32"], "rt": [837, 422, 304, 28, 92], "actions": ["left", "left", "left", "down", "down"], "actionTimes": [1590, 2511, 3326, 3850, 4448], "queries": {"click": {"state": {"target": [], "time": []}, "edge": {"target": [], "time": []}}, "mouseover": {"state": {"target": [], "time": []}, "edge": {"target": [], "time": []}}, "mouseout": {"state": {"target": [], "time": []}, "edge": {"target": [], "time": []}}}, "displayed_time": "14.76", "trialTime": 16569, "trial_type": "mouselab-mdp", "trial_index": 39, "time_elapsed": 1231728, "internal_node_id": "0.0-6.0-1.0-18.0"}}, {"uniqueid": "w34218322:a43999106", "current_trial": 40, "dateTime": 1693582284499, "trialdata": {"revealed_states": [], "clicked_states": [], "num_clicks_accrued": [0, 0, 0, 0, 0, 0, 0, 0, 0, 0, 0, 0, 0], "stateRewards": ["", -1, 1, 6, -6, 70, 66, 67, -16, -75, -35, 37, -1, 4, 4, -6, 47, -9, 63, 15, 21, -63, 13, 1, 3, -6, 10, 79, -29, 18, -15, 9, -67, -19], "withholdReward": false, "trial_id": "mdp_trial_20", "block": "test", "trialIndex": 25, "score": 26, "costs": 0, "simulationMode": [null, null, null, null, null], "rewards": [1, 3, -6, 10, 18], "path": ["0", "0", "23", "24", "25", "26", "29"], "rt": [1150, 206, 262, 253, 79], "actions": ["left", "left", "left", "up", "left"], "actionTimes": [1776, 2484, 3241, 3996, 4590], "queries": {"click": {"state": {"target": [], "time": []}, "edge": {"target": [], "time": []}}, "mouseover": {"state": {"target": [], "time": []}, "edge": {"target": [], "time": []}}, "mouseout": {"state": {"target": [], "time": []}, "edge": {"target": [], "time": []}}}, "displayed_time": "14.63", "trialTime": 42021, "trial_type": "mouselab-mdp", "trial_index": 40, "time_elapsed": 1274043, "internal_node_id": "0.0-6.0-1.0-19.0"}}, {"uniqueid": "w34218322:a43999106", "current_trial": 41, "dateTime": 1693582304536, "trialdata": {"revealed_states": [], "clicked_states": [], "num_clicks_accrued": [0, 0, 0, 0, 0, 0, 0, 0, 0, 0, 0, 0, 0], "stateRewards": ["", -1, 3, -7, 16, -32, -74, -48, 2, 10, 15, -30, 1, 1, -2, 10, 12, -83, 67, 13, -66, 47, 65, -2, 4, 2, -14, -8, -57, 24, 9, 65, 12, 46], "withholdReward": false, "trial_id": "mdp_trial_21", "block": "test", "trialIndex": 26, "score": 7, "costs": 0, "simulationMode": [null, null, null, null, null], "rewards": [-1, 3, -7, 2, 10], "path": ["0", "0", "1", "2", "3", "8", "9"], "rt": [1203, 100, 106, 470, 66], "actions": ["up", "up", "up", "left", "up"], "actionTimes": [2391, 3013, 3618, 4600, 5181], "queries": {"click": {"state": {"target": [], "time": []}, "edge": {"target": [], "time": []}}, "mouseover": {"state": {"target": [], "time": []}, "edge": {"target": [], "time": []}}, "mouseout": {"state": {"target": ["0"], "time": [294]}, "edge": {"target": [], "time": []}}}, "displayed_time": "15.19", "trialTime": 19710, "trial_type": "mouselab-mdp", "trial_index": 41, "time_elapsed": 1294080, "internal_node_id": "0.0-6.0-1.0-20.0"}}, {"uniqueid": "w34218322:a43999106", "current_trial": 42, "dateTime": 1693582322489, "trialdata": {"revealed_states": [], "clicked_states": [], "num_clicks_accrued": [0, 0, 0, 0, 0, 0, 0, 0, 0, 0, 0, 0, 0], "stateRewards": ["", -2, 1, -7, -8, -37, -76, -87, 11, 30, -63, 80, -1, 4, 2, -1, 42, 17, 52, -3, -75, -80, -68, 2, -3, -5, -15, -48, 82, 24, -7, 5, -22, -71], "withholdReward": false, "trial_id": "mdp_trial_22", "block": "test", "trialIndex": 27, "score": -92, "costs": 0, "simulationMode": [null, null, null, null, null], "rewards": [-2, 1, -7, -8, -76], "path": ["0", "0", "1", "2", "3", "4", "6"], "rt": [1438, 86, 90, 120, 118], "actions": ["up", "up", "up", "right", "right"], "actionTimes": [2207, 2795, 3398, 4013, 4628], "queries": {"click": {"state": {"target": [], "time": []}, "edge": {"target": [], "time": []}}, "mouseover": {"state": {"target": [], "time": []}, "edge": {"target": [], "time": []}}, "mouseout": {"state": {"target": [], "time": []}, "edge": {"target": [], "time": []}}}, "displayed_time": "14.77", "trialTime": 17625, "trial_type": "mouselab-mdp", "trial_index": 42, "time_elapsed": 1312033, "internal_node_id": "0.0-6.0-1.0-21.0"}}, {"uniqueid": "w34218322:a43999106", "current_trial": 43, "dateTime": 1693582341069, "trialdata": {"revealed_states": [], "clicked_states": [], "num_clicks_accrued": [0, 0, 0, 0, 0, 0, 0, 0, 0, 0, 0, 0, 0], "stateRewards": ["", -2, -4, 4, -11, -63, -60, -7, 2, -14, 81, -43, -1, -1, -5, 7, 10, 69, 40, 8, -83, 52, 60, 1, 2, 5, -5, 16, 64, 14, -3, 29, 7, -51], "withholdReward": false, "trial_id": "mdp_trial_23", "block": "test", "trialIndex": 28, "score": 10, "costs": 0, "simulationMode": [null, null, null, null, null], "rewards": [-1, -1, -5, 7, 10], "path": ["0", "0", "12", "13", "14", "15", "16"], "rt": [1650, 119, 54, 373, 124], "actions": ["right", "right", "right", "up", "up"], "actionTimes": [3685, 4317, 4884, 5786, 6423], "queries": {"click": {"state": {"target": [], "time": []}, "edge": {"target": [], "time": []}}, "mouseover": {"state": {"target": [], "time": []}, "edge": {"target": [], "time": []}}, "mouseout": {"state": {"target": [], "time": []}, "edge": {"target": [], "time": []}}}, "displayed_time": "16.04", "trialTime": 18277, "trial_type": "mouselab-mdp", "trial_index": 43, "time_elapsed": 1330613, "internal_node_id": "0.0-6.0-1.0-22.0"}}, {"uniqueid": "w34218322:a43999106", "current_trial": 44, "dateTime": 1693582387261, "trialdata": {"revealed_states": [], "clicked_states": [], "num_clicks_accrued": [0, 0, 0, 0, 0, 0, 0, 0, 0, 0, 0, 0, 0], "stateRewards": ["", 2, -2, 7, -11, -76, -65, -23, 16, -58, 30, 81, 1, 2, 7, 14, 9, 55, -2, 6, 11, -15, 31, -1, -1, -3, 2, 15, 2, 46, 15, 18, 45, -34], "withholdReward": false, "trial_id": "mdp_trial_24", "block": "test", "trialIndex": 29, "score": 33, "costs": 0, "simulationMode": [null, null, null, null, null], "rewards": [1, 2, 7, 14, 9], "path": ["0", "0", "12", "13", "14", "15", "16"], "rt": [1143, 57, 158, 345, 139], "actions": ["right", "right", "right", "up", "up"], "actionTimes": [1750, 2302, 2967, 3824, 4466], "queries": {"click": {"state": {"target": [], "time": []}, "edge": {"target": [], "time": []}}, "mouseover": {"state": {"target": [], "time": []}, "edge": {"target": [], "time": []}}, "mouseout": {"state": {"target": [], "time": []}, "edge": {"target": [], "time": []}}}, "displayed_time": "14.61", "trialTime": 45831, "trial_type": "mouselab-mdp", "trial_index": 44, "time_elapsed": 1376806, "internal_node_id": "0.0-6.0-1.0-23.0"}}, {"uniqueid": "w34218322:a43999106", "current_trial": 45, "dateTime": 1693582406212, "trialdata": {"revealed_states": [], "clicked_states": [], "num_clicks_accrued": [0, 0, 0, 0, 0, 0, 0, 0, 0, 0, 0, 0, 0], "stateRewards": ["", 1, -2, -2, 10, -31, -77, 35, 9, -47, 8, 48, -2, 1, -4, -3, -26, -50, 43, -11, 76, -38, 17, 1, -1, 6, 10, 15, -9, 12, -8, 85, 11, -55], "withholdReward": false, "trial_id": "mdp_trial_25", "block": "test", "trialIndex": 30, "score": 60, "costs": 0, "simulationMode": [null, null, null, null, null], "rewards": [-2, 1, -4, -11, 76], "path": ["0", "0", "12", "13", "14", "19", "20"], "rt": [1848, 141, 260, 29, 15], "actions": ["right", "right", "right", "down", "right"], "actionTimes": [2991, 3630, 4380, 4918, 5452], "queries": {"click": {"state": {"target": [], "time": []}, "edge": {"target": [], "time": []}}, "mouseover": {"state": {"target": [], "time": []}, "edge": {"target": [], "time": []}}, "mouseout": {"state": {"target": [], "time": []}, "edge": {"target": [], "time": []}}}, "displayed_time": "15.15", "trialTime": 18607, "trial_type": "mouselab-mdp", "trial_index": 45, "time_elapsed": 1395756, "internal_node_id": "0.0-6.0-1.0-24.0"}}, {"uniqueid": "w34218322:a43999106", "current_trial": 46, "dateTime": 1693582423865, "trialdata": {"revealed_states": [], "clicked_states": [], "num_clicks_accrued": [0, 0, 0, 0, 0, 0, 0, 0, 0, 0, 0, 0, 0], "stateRewards": ["", 2, -3, -5, 5, 11, -9, -33, 6, 67, 6, -30, -1, -2, -6, 13, 55, 13, 72, -14, 75, 21, -66, -2, -4, 6, 15, -1, -35, 60, 2, 51, -73, 12], "withholdReward": false, "trial_id": "mdp_trial_26", "block": "test", "trialIndex": 31, "score": -89, "costs": 0, "simulationMode": [null, null, null, null, null], "rewards": [-1, -2, -6, -14, -66], "path": ["0", "0", "12", "13", "14", "19", "22"], "rt": [929, 46, 10, 411, 95], "actions": ["right", "right", "right", "down", "left"], "actionTimes": [2034, 2572, 3122, 4035, 4620], "queries": {"click": {"state": {"target": [], "time": []}, "edge": {"target": [], "time": []}}, "mouseover": {"state": {"target": [], "time": []}, "edge": {"target": [], "time": []}}, "mouseout": {"state": {"target": [], "time": []}, "edge": {"target": [], "time": []}}}, "displayed_time": "15.11", "trialTime": 17314, "trial_type": "mouselab-mdp", "trial_index": 46, "time_elapsed": 1413409, "internal_node_id": "0.0-6.0-1.0-25.0"}}, {"uniqueid": "w34218322:a43999106", "current_trial": 47, "dateTime": 1693582460700, "trialdata": {"revealed_states": [], "clicked_states": [], "num_clicks_accrued": [0, 0, 0, 0, 0, 0, 0, 0, 0, 0, 0, 0, 0], "stateRewards": ["", -1, 1, -2, 5, 73, 15, 61, 8, 7, 38, 76, 2, 2, -4, -6, -6, -26, 43, -5, -45, -85, -35, -2, 1, -4, 15, -10, 69, 72, -11, 84, -49, -38], "withholdReward": false, "trial_id": "mdp_trial_27", "block": "test", "trialIndex": 32, "score": -50, "costs": 0, "simulationMode": [null, null, null, null, null], "rewards": [2, 2, -4, -5, -45], "path": ["0", "0", "12", "13", "14", "19", "20"], "rt": [1060, 317, 181, 403, 190], "actions": ["right", "right", "right", "down", "right"], "actionTimes": [3573, 4380, 5061, 5984, 6671], "queries": {"click": {"state": {"target": [], "time": []}, "edge": {"target": [], "time": []}}, "mouseover": {"state": {"target": [], "time": []}, "edge": {"target": [], "time": []}}, "mouseout": {"state": {"target": [], "time": []}, "edge": {"target": [], "time": []}}}, "displayed_time": "16.52", "trialTime": 36504, "trial_type": "mouselab-mdp", "trial_index": 47, "time_elapsed": 1450245, "internal_node_id": "0.0-6.0-1.0-26.0"}}, {"uniqueid": "w34218322:a43999106", "current_trial": 48, "dateTime": 1693582479991, "trialdata": {"revealed_states": [], "clicked_states": [], "num_clicks_accrued": [0, 0, 0, 0, 0, 0, 0, 0, 0, 0, 0, 0, 0], "stateRewards": ["", 2, 4, 7, 7, -79, -2, -21, -5, -53, 47, -21, 1, -3, -1, 7, 83, 7, 84, -7, 80, -37, 69, 2, -4, 5, 2, 4, -20, -30, 7, 71, 44, -81], "withholdReward": false, "trial_id": "mdp_trial_28", "block": "test", "trialIndex": 33, "score": -25, "costs": 0, "simulationMode": [null, null, null, null, null], "rewards": [2, -4, 5, 2, -30], "path": ["0", "0", "23", "24", "25", "26", "29"], "rt": [1673, 512, 161, 98, 428], "actions": ["left", "left", "left", "up", "left"], "actionTimes": [2385, 3398, 4080, 4683, 5638], "queries": {"click": {"state": {"target": [], "time": []}, "edge": {"target": [], "time": []}}, "mouseover": {"state": {"target": [], "time": []}, "edge": {"target": [], "time": []}}, "mouseout": {"state": {"target": [], "time": []}, "edge": {"target": [], "time": []}}}, "displayed_time": "14.71", "trialTime": 18931, "trial_type": "mouselab-mdp", "trial_index": 48, "time_elapsed": 1469535, "internal_node_id": "0.0-6.0-1.0-27.0"}}, {"uniqueid": "w34218322:a43999106", "current_trial": 49, "dateTime": 1693582497044, "trialdata": {"revealed_states": [], "clicked_states": [], "num_clicks_accrued": [0, 0, 0, 0, 0, 0, 0, 0, 0, 0, 0, 0, 0], "stateRewards": ["", -1, 1, 8, -8, -49, 62, -78, 16, 28, -81, 78, -2, -3, -1, -4, 67, 49, -2, -13, -16, -39, 83, 1, -4, 4, -5, -20, 7, 84, 7, -32, -59, 19], "withholdReward": false, "trial_id": "mdp_trial_29", "block": "test", "trialIndex": 34, "score": 3, "costs": 0, "simulationMode": [null, null, null, null, null], "rewards": [1, -4, 4, -5, 7], "path": ["0", "0", "23", "24", "25", "26", "28"], "rt": [1102, 193, 170, 427, 172], "actions": ["left", "left", "left", "up", "right"], "actionTimes": [2090, 2801, 3476, 4418, 5095], "queries": {"click": {"state": {"target": [], "time": []}, "edge": {"target": [], "time": []}}, "mouseover": {"state": {"target": [], "time": []}, "edge": {"target": [], "time": []}}, "mouseout": {"state": {"target": [], "time": []}, "edge": {"target": [], "time": []}}}, "displayed_time": "14.99", "trialTime": 16706, "trial_type": "mouselab-mdp", "trial_index": 49, "time_elapsed": 1486588, "internal_node_id": "0.0-6.0-1.0-28.0"}}, {"uniqueid": "w34218322:a43999106", "current_trial": 50, "dateTime": 1693582513368, "trialdata": {"revealed_states": [], "clicked_states": [], "num_clicks_accrued": [0, 0, 0, 0, 0, 0, 0, 0, 0, 0, 0, 0, 0], "stateRewards": ["", 2, -4, 7, 3, 23, -42, 4, 7, -81, -33, 7, -2, -4, 5, -1, 50, -57, -14, -13, -14, 44, 55, -2, -2, 5, -2, 33, 1, 57, -13, -7, 58, 87], "withholdReward": false, "trial_id": "mdp_trial_30", "block": "test", "trialIndex": 35, "score": -16, "costs": 0, "simulationMode": [null, null, null, null, null], "rewards": [-2, -4, 5, -1, -14], "path": ["0", "0", "12", "13", "14", "15", "18"], "rt": [1268, 1823, 330, 178, 306], "actions": ["right", "right", "right", "up", "left"], "actionTimes": [2234, 4648, 5482, 6181, 7009], "queries": {"click": {"state": {"target": [], "time": []}, "edge": {"target": [], "time": []}}, "mouseover": {"state": {"target": [], "time": []}, "edge": {"target": [], "time": []}}, "mouseout": {"state": {"target": [], "time": []}, "edge": {"target": [], "time": []}}}, "displayed_time": "14.97", "trialTime": 15993, "trial_type": "mouselab-mdp", "trial_index": 50, "time_elapsed": 1502912, "internal_node_id": "0.0-6.0-1.0-29.0"}}, {"uniqueid": "w34218322:a43999106", "current_trial": 51, "dateTime": 1693582531673, "trialdata": {"revealed_states": [], "clicked_states": [], "num_clicks_accrued": [0, 0, 0, 0, 0, 0, 0, 0, 0, 0, 0, 0, 0], "stateRewards": ["", 2, -1, -1, 7, 11, -40, -22, -2, 69, 37, 8, -2, 4, -8, -12, -2, -72, -3, -12, 17, 63, 12, 1, 3, -7, 6, 25, 61, 61, -9, 28, -17, 27], "withholdReward": false, "trial_id": "mdp_trial_31", "block": "test", "trialIndex": 36, "score": -90, "costs": 0, "simulationMode": [null, null, null, null, null], "rewards": [-2, 4, -8, -12, -72], "path": ["0", "0", "12", "13", "14", "15", "17"], "rt": [1122, 120, 101, 110, 24], "actions": ["right", "right", "right", "up", "right"], "actionTimes": [2497, 3124, 3739, 4346, 4878], "queries": {"click": {"state": {"target": [], "time": []}, "edge": {"target": [], "time": []}}, "mouseover": {"state": {"target": [], "time": []}, "edge": {"target": [], "time": []}}, "mouseout": {"state": {"target": [], "time": []}, "edge": {"target": [], "time": []}}}, "displayed_time": "15.38", "trialTime": 17947, "trial_type": "mouselab-mdp", "trial_index": 51, "time_elapsed": 1521217, "internal_node_id": "0.0-6.0-1.0-30.0"}}, {"uniqueid": "w34218322:a43999106", "current_trial": 52, "dateTime": 1693582554726, "trialdata": {"revealed_states": [], "clicked_states": [], "num_clicks_accrued": [0, 0, 0, 0, 0, 0, 0, 0, 0, 0, 0, 0, 0], "stateRewards": ["", -1, -2, 4, 9, 10, -75, 39, 16, -43, 88, -19, -1, 1, 2, 4, -31, 10, 73, 12, 41, -64, -81, -2, 2, -6, 1, -81, -1, -26, 3, -59, -3, -20], "withholdReward": false, "trial_id": "mdp_trial_32", "block": "test", "trialIndex": 37, "score": 55, "costs": 0, "simulationMode": [null, null, null, null, null], "rewards": [-1, 1, 2, 12, 41], "path": ["0", "0", "12", "13", "14", "19", "20"], "rt": [905, 82, 101, 422, 153], "actions": ["right", "right", "right", "down", "right"], "actionTimes": [1667, 2253, 2871, 3813, 4476], "queries": {"click": {"state": {"target": [], "time": []}, "edge": {"target": [], "time": []}}, "mouseover": {"state": {"target": [], "time": []}, "edge": {"target": [], "time": []}}, "mouseout": {"state": {"target": ["0"], "time": [535]}, "edge": {"target": [], "time": []}}}, "displayed_time": "14.76", "trialTime": 22720, "trial_type": "mouselab-mdp", "trial_index": 52, "time_elapsed": 1544270, "internal_node_id": "0.0-6.0-1.0-31.0"}}, {"uniqueid": "w34218322:a43999106", "current_trial": 53, "dateTime": 1693582575230, "trialdata": {"revealed_states": [], "clicked_states": [], "num_clicks_accrued": [0, 0, 0, 0, 0, 0, 0, 0, 0, 0, 0, 0, 0], "stateRewards": ["", -2, -3, 1, -7, 39, -67, 16, 5, -20, 73, 66, -1, 4, 5, -3, 23, -68, -87, -8, 3, -3, 17, 1, -4, -2, -13, -32, 34, 61, -5, -11, -18, 12], "withholdReward": false, "trial_id": "mdp_trial_33", "block": "test", "trialIndex": 38, "score": -82, "costs": 0, "simulationMode": [null, null, null, null, null], "rewards": [-1, 4, 5, -3, -87], "path": ["0", "0", "12", "13", "14", "15", "18"], "rt": [1034, 98, 84, 656, 128], "actions": ["right", "right", "right", "up", "left"], "actionTimes": [2311, 2916, 3502, 4656, 5294], "queries": {"click": {"state": {"target": [], "time": []}, "edge": {"target": [], "time": []}}, "mouseover": {"state": {"target": [], "time": []}, "edge": {"target": [], "time": []}}, "mouseout": {"state": {"target": ["0"], "time": [597]}, "edge": {"target": [], "time": []}}}, "displayed_time": "15.28", "trialTime": 20134, "trial_type": "mouselab-mdp", "trial_index": 53, "time_elapsed": 1564775, "internal_node_id": "0.0-6.0-1.0-32.0"}}, {"uniqueid": "w34218322:a43999106", "current_trial": 54, "dateTime": 1693582593266, "trialdata": {"revealed_states": [], "clicked_states": [], "num_clicks_accrued": [0, 0, 0, 0, 0, 0, 0, 0, 0, 0, 0, 0, 0], "stateRewards": ["", 1, 3, -2, 15, 51, 15, -19, 11, 67, -45, -73, 2, 4, -2, -13, 36, 9, -28, 10, -30, 31, 16, 1, 2, -1, -16, 14, -22, 36, -1, 88, -5, 45], "withholdReward": false, "trial_id": "mdp_trial_34", "block": "test", "trialIndex": 39, "score": 30, "costs": 0, "simulationMode": [null, null, null, null, null], "rewards": [2, 4, -2, 10, 16], "path": ["0", "0", "12", "13", "14", "19", "22"], "rt": [894, 249, 100, 40, 73], "actions": ["right", "right", "right", "down", "left"], "actionTimes": [1900, 2666, 3266, 3805, 4388], "queries": {"click": {"state": {"target": [], "time": []}, "edge": {"target": [], "time": []}}, "mouseover": {"state": {"target": [], "time": []}, "edge": {"target": [], "time": []}}, "mouseout": {"state": {"target": ["0"], "time": [774]}, "edge": {"target": [], "time": []}}}, "displayed_time": "15.01", "trialTime": 17601, "trial_type": "mouselab-mdp", "trial_index": 54, "time_elapsed": 1582810, "internal_node_id": "0.0-6.0-1.0-33.0"}}, {"uniqueid": "w34218322:a43999106", "current_trial": 55, "dateTime": 1693582611425, "trialdata": {"revealed_states": [], "clicked_states": [], "num_clicks_accrued": [0, 0, 0, 0, 0, 0, 0, 0, 0, 0, 0, 0, 0], "stateRewards": ["", -2, 2, 8, -6, -25, 3, 87, 2, -62, -2, 74, -2, -1, 2, -1, 79, 49, -37, -14, 5, 67, -9, -1, 2, -2, 5, 15, 38, 32, -14, -38, -38, 30], "withholdReward": false, "trial_id": "mdp_trial_35", "block": "test", "trialIndex": 40, "score": 5, "costs": 0, "simulationMode": [null, null, null, null, null], "rewards": [-2, 2, 8, -6, 3], "path": ["0", "0", "1", "2", "3", "4", "6"], "rt": [1552, 43, 102, 385, 252], "actions": ["up", "up", "up", "right", "right"], "actionTimes": [2516, 3064, 3672, 4574, 5327], "queries": {"click": {"state": {"target": [], "time": []}, "edge": {"target": [], "time": []}}, "mouseover": {"state": {"target": [], "time": []}, "edge": {"target": [], "time": []}}, "mouseout": {"state": {"target": ["0"], "time": [759]}, "edge": {"target": [], "time": []}}}, "displayed_time": "14.96", "trialTime": 17766, "trial_type": "mouselab-mdp", "trial_index": 55, "time_elapsed": 1600970, "internal_node_id": "0.0-6.0-1.0-34.0"}}, {"uniqueid": "w34218322:a43999106", "current_trial": 56, "dateTime": 1693582631885, "trialdata": {"revealed_states": [], "clicked_states": [], "num_clicks_accrued": [0, 0, 0, 0, 0, 0, 0, 0, 0, 0, 0, 0, 0], "stateRewards": ["", 1, 1, -2, 7, -31, -6, 76, 1, -36, -16, -53, 2, 1, 7, 13, -47, -10, 47, -7, 72, 46, -56, -2, -2, -2, 11, -80, 44, 38, 16, 67, 85, -78], "withholdReward": false, "trial_id": "mdp_trial_36", "block": "test", "trialIndex": 41, "score": 43, "costs": 0, "simulationMode": [null, null, null, null, null], "rewards": [-2, -2, -2, 11, 38], "path": ["0", "0", "23", "24", "25", "26", "29"], "rt": [1007, 247, 126, 5, 67], "actions": ["left", "left", "left", "up", "left"], "actionTimes": [2045, 2797, 3444, 3941, 4519], "queries": {"click": {"state": {"target": [], "time": []}, "edge": {"target": [], "time": []}}, "mouseover": {"state": {"target": [], "time": []}, "edge": {"target": [], "time": []}}, "mouseout": {"state": {"target": ["0"], "time": [787]}, "edge": {"target": [], "time": []}}}, "displayed_time": "15.04", "trialTime": 20105, "trial_type": "mouselab-mdp", "trial_index": 56, "time_elapsed": 1621429, "internal_node_id": "0.0-6.0-1.0-35.0"}}, {"uniqueid": "w34218322:a43999106", "current_trial": 57, "dateTime": 1693582654389, "trialdata": {"revealed_states": [], "clicked_states": [], "num_clicks_accrued": [0, 0, 0, 0, 0, 0, 0, 0, 0, 0, 0, 0, 0], "stateRewards": ["", -1, 2, -2, 5, 80, -61, -27, 12, 44, -26, -75, -2, -4, 1, -16, 42, -49, -50, 4, -44, 2, 80, -2, -2, 5, -2, 59, 10, 24, 7, -48, -86, -44], "withholdReward": false, "trial_id": "mdp_trial_37", "block": "test", "trialIndex": 42, "score": 23, "costs": 0, "simulationMode": [null, null, null, null, null], "rewards": [-2, -2, 5, -2, 24], "path": ["0", "0", "23", "24", "25", "26", "29"], "rt": [1188, 23, 238, 32, 66], "actions": ["left", "left", "left", "up", "left"], "actionTimes": [2204, 2747, 3497, 4025, 4608], "queries": {"click": {"state": {"target": [], "time": []}, "edge": {"target": [], "time": []}}, "mouseover": {"state": {"target": [], "time": []}, "edge": {"target": [], "time": []}}, "mouseout": {"state": {"target": ["0"], "time": [830]}, "edge": {"target": [], "time": []}}}, "displayed_time": "15.02", "trialTime": 22150, "trial_type": "mouselab-mdp", "trial_index": 57, "time_elapsed": 1643933, "internal_node_id": "0.0-6.0-1.0-36.0"}}, {"uniqueid": "w34218322:a43999106", "current_trial": 58, "dateTime": 1693582672492, "trialdata": {"revealed_states": [], "clicked_states": [], "num_clicks_accrued": [0, 0, 0, 0, 0, 0, 0, 0, 0, 0, 0, 0, 0], "stateRewards": ["", 1, -1, 8, 4, 76, -33, -17, -3, -1, -54, -74, -2, 2, -5, 13, -51, 63, 83, 1, 84, 29, -36, 2, -1, 7, -12, -10, -44, -43, -14, 8, -69, 19], "withholdReward": false, "trial_id": "mdp_trial_38", "block": "test", "trialIndex": 43, "score": -47, "costs": 0, "simulationMode": [null, null, null, null, null], "rewards": [2, -1, 7, -12, -43], "path": ["0", "0", "23", "24", "25", "26", "29"], "rt": [938, 6, 18, 332, 66], "actions": ["left", "left", "left", "up", "left"], "actionTimes": [2804, 3310, 3838, 4685, 5270], "queries": {"click": {"state": {"target": [], "time": []}, "edge": {"target": [], "time": []}}, "mouseover": {"state": {"target": [], "time": []}, "edge": {"target": [], "time": []}}, "mouseout": {"state": {"target": ["0"], "time": [1648]}, "edge": {"target": [], "time": []}}}, "displayed_time": "15.87", "trialTime": 17680, "trial_type": "mouselab-mdp", "trial_index": 58, "time_elapsed": 1662036, "internal_node_id": "0.0-6.0-1.0-37.0"}}, {"uniqueid": "w34218322:a43999106", "current_trial": 59, "dateTime": 1693582694327, "trialdata": {"revealed_states": [], "clicked_states": [], "num_clicks_accrued": [0, 0, 0, 0, 0, 0, 0, 0, 0, 0, 0, 0, 0], "stateRewards": ["", -1, 2, -6, 6, 43, 78, 78, -2, 55, -29, -17, -2, -4, 1, -15, 13, 7, -79, 8, -28, -68, 36, -1, -3, 3, -16, 84, -18, 87, 10, 32, 13, -81], "withholdReward": false, "trial_id": "mdp_trial_39", "block": "test", "trialIndex": 44, "score": 22, "costs": 0, "simulationMode": [null, null, null, null, null], "rewards": [-1, -3, 3, 10, 13], "path": ["0", "0", "23", "24", "25", "30", "32"], "rt": [1236, 469, 214, 72, 160], "actions": ["left", "left", "left", "down", "down"], "actionTimes": [2237, 3206, 3935, 4527, 5182], "queries": {"click": {"state": {"target": [], "time": []}, "edge": {"target": [], "time": []}}, "mouseover": {"state": {"target": [], "time": []}, "edge": {"target": [], "time": []}}, "mouseout": {"state": {"target": ["0"], "time": [779]}, "edge": {"target": [], "time": []}}}, "displayed_time": "15.00", "trialTime": 21413, "trial_type": "mouselab-mdp", "trial_index": 59, "time_elapsed": 1683871, "internal_node_id": "0.0-6.0-1.0-38.0"}}, {"uniqueid": "w34218322:a43999106", "current_trial": 60, "dateTime": 1693582712311, "trialdata": {"revealed_states": [], "clicked_states": [], "num_clicks_accrued": [0, 0, 0, 0, 0, 0, 0, 0, 0, 0, 0, 0, 0], "stateRewards": ["", -2, -2, -7, -13, -10, 49, -68, -1, 84, 70, 88, 1, 4, 4, 12, -57, 25, 30, 8, -1, -77, 57, 2, 3, 2, 3, -18, -80, 23, -15, -41, 70, 11], "withholdReward": false, "trial_id": "mdp_trial_40", "block": "test", "trialIndex": 45, "score": 62, "costs": 0, "simulationMode": [null, null, null, null, null], "rewards": [2, 3, 2, -15, 70], "path": ["0", "0", "23", "24", "25", "30", "32"], "rt": [1229, 158, 174, 430, 162], "actions": ["left", "left", "left", "down", "down"], "actionTimes": [2546, 3217, 3902, 4823, 5488], "queries": {"click": {"state": {"target": [], "time": []}, "edge": {"target": [], "time": []}}, "mouseover": {"state": {"target": [], "time": []}, "edge": {"target": [], "time": []}}, "mouseout": {"state": {"target": ["0"], "time": [1123]}, "edge": {"target": [], "time": []}}}, "displayed_time": "15.32", "trialTime": 17604, "trial_type": "mouselab-mdp", "trial_index": 60, "time_elapsed": 1701856, "internal_node_id": "0.0-6.0-1.0-39.0"}}, {"uniqueid": "w34218322:a43999106", "current_trial": 61, "dateTime": 1693582798411, "trialdata": {"rt": 86000, "response": {"Q0": "$-16 to 16", "Q1": "$-16 to $16", "Q2": "$-32 to $32", "Q3": "The cost for clicking on nodes varied between nodes.", "Q4": "Slightly unmotivated"}, "question_order": [0, 1, 2, 3, 4], "trial_id": "final_quiz_control", "trial_type": "survey-multi-choice", "trial_index": 61, "time_elapsed": 1787955, "internal_node_id": "0.0-6.0-2.0"}}, {"uniqueid": "w34218322:a43999106", "current_trial": 62, "dateTime": 1693582933825, "trialdata": {"rt": 135369, "response": {"Q0": "After not seeing a pattern in the first few times I inspected a node, I decided to just pick a path at random", "Q1": "No. I had the same strategy", "Q2": "Very. I could not see a pattern that would maximize the total amounts"}, "trial_id": "self_report_control", "trial_type": "survey-text", "trial_index": 62, "time_elapsed": 1923370, "internal_node_id": "0.0-6.0-3.0"}}, {"uniqueid": "w34218322:a43999106", "current_trial": 63, "dateTime": 1693582992946, "trialdata": {"rt": 59116, "response": {"gender": "male", "age": "35", "colorblind": "0", "effort": "1"}, "trial_type": "survey-html-form", "trial_index": 63, "time_elapsed": 1982491, "internal_node_id": "0.0-6.0-4.0"}}, {"uniqueid": "w34218322:a43999106", "current_trial": 64, "dateTime": 1693583025248, "trialdata": {"rt": 32293, "response": {"Q0": "No", "Q1": "No", "Q2": "None"}, "trial_type": "survey-text", "trial_index": 64, "time_elapsed": 2014793, "internal_node_id": "0.0-6.0-5.0"}}, {"uniqueid": "w34218322:a43999106", "current_trial": 65, "dateTime": 1693583104201, "trialdata": {"rt": 78947, "stimulus": "<h1>Completion Code Instructions (1/2)</h1>\n<br><br><br><br>\nYou have reached the end of the experiment! The completion code consists of two parts: (1) a code with 2 characters (2) a code with 6 characters. On this page, you will receive the second part of the code. The first part of the completion code will be on the next page.\n<br><br>\nThe second part of your completion code is: <b>EWEK22</b>\n<br><br>\nPlease note this down. Then, press 'Next' in order to find the first part of your completion code. Once the data has been saved, you will receive this code either in this window or in the original browser window where you started the experiment.\n <br><br>\n<h2 style='color: red;'>Note: this is <strong>NOT</strong> the full completion code. Copy this down and click 'Next' to get the full completion code on the next page.</h2>", "response": 0, "trial_type": "html-button-response", "trial_index": 65, "time_elapsed": 2093746, "internal_node_id": "0.0-6.0-6.0"}}, {"uniqueid": "w34218322:a43999106", "current_trial": 66, "dateTime": 1693583105207, "trialdata": {"success": true, "trial_type": "fullscreen", "trial_index": 66, "time_elapsed": 2094752, "internal_node_id": "0.0-7.0"}}], "questiondata": {"params": {"CODE": "C6DMOQA6", "MIN_TIME": 14, "inspectCost": 1, "startTime": "Fri Sep 01 2023 17:10:04 GMT+0200 (South Africa Standard Time)", "bonusRate": 0.002, "variance": "1_2_4_8_44", "branching": "31123"}}, "eventdata": [{"eventtype": "initialized", "value": null, "timestamp": 1693581003234, "interval": 0}, {"eventtype": "window_resize", "value": [1024, 658], "timestamp": 1693581003234, "interval": 0}, {"eventtype": "window_resize", "value": [1360, 674], "timestamp": 1693581003883, "interval": 649}, {"eventtype": "window_resize", "value": [1360, 768], "timestamp": 1693581017172, "interval": 13289}, {"eventtype": "focus", "value": "off", "timestamp": 1693581488304, "interval": 471132}, {"eventtype": "focus", "value": "on", "timestamp": 1693581488305, "interval": 1}, {"eventtype": "window_resize", "value": [1360, 674], "timestamp": 1693581488511, "interval": 206}, {"eventtype": "window_resize", "value": [1360, 768], "timestamp": 1693581489890, "interval": 1379}, {"eventtype": "focus", "value": "off", "timestamp": 1693581616276, "interval": 126386}, {"eventtype": "focus", "value": "on", "timestamp": 1693581616276, "interval": 0}, {"eventtype": "window_resize", "value": [1360, 674], "timestamp": 1693581616486, "interval": 210}, {"eventtype": "window_resize", "value": [1360, 768], "timestamp": 1693581617996, "interval": 1510}], "useragent": "Mozilla/5.0 (Windows NT 10.0; Win64; x64) AppleWebKit/537.36 (KHTML, like Gecko) Chrome/116.0.0.0 Safari/537.36 Edg/116.0.1938.62", "mode": "live", "id": "w34218322:a43999106", "status": "user data saved", "Beginhit": "2023-09-01 15:09:57.037754", "Beginexp": "2023-09-01 15:10:17.877334", "Endhit": "2023-09-01 15:45:06.405954", "psiturkStatus": 3, "browser": "<redacted>", "platform": "windows", "language": "en-US"}