{"condition": 0, "counterbalance": 0, "assignmentId": "a17486642", "workerId": "w96578298", "hitId": "h28886142", "currenttrial": 10, "bonus": 0, "data": [{"uniqueid": "w96578298:a17486642", "current_trial": 0, "dateTime": 1693479533089, "trialdata": {"success": true, "trial_type": "fullscreen", "trial_index": 0, "time_elapsed": 1552, "internal_node_id": "0.0-0.0"}}, {"uniqueid": "w96578298:a17486642", "current_trial": 1, "dateTime": 1693479533704, "trialdata": {"view_history": [{"page_index": 0, "viewing_time": 612}], "rt": 612, "trial_id": "exp_instructions_control", "trial_type": "instructions", "trial_index": 1, "time_elapsed": 2167, "internal_node_id": "0.0-1.0"}}, {"uniqueid": "w96578298:a17486642", "current_trial": 2, "dateTime": 1693479537091, "trialdata": {"view_history": [{"page_index": 0, "viewing_time": 981}, {"page_index": 1, "viewing_time": 882}, {"page_index": 2, "viewing_time": 1010}, {"page_index": 3, "viewing_time": 512}], "rt": 3386, "trial_id": "mouselab_instructions_1_control", "trial_type": "instructions", "trial_index": 2, "time_elapsed": 5554, "internal_node_id": "0.0-2.0-1.0"}}, {"uniqueid": "w96578298:a17486642", "current_trial": 3, "dateTime": 1693479547277, "trialdata": {"revealed_states": [], "clicked_states": ["13", "18", "15", "16", "17"], "num_clicks_accrued": [0, 0, 0, 0, 0, 0, 0, 0, 0, 0, 0, 0, 0], "stateRewards": ["", 10, 10, -10, -10, 10, -10, -10, 10, 10, -10, -10, -10, 10, 10, -10, 10, -10, 10, 10, -10, -10, 10, 10, -10, 10, -10, 10, 10, 10, -10, -10, -10, -10], "withholdReward": false, "trial_id": "practice_1", "block": "test", "trialIndex": 0, "score": 11, "costs": -2.5, "simulationMode": [null, null, null, null, null], "rewards": [-10, 10, 10, -10, 10], "path": ["0", "0", "12", "13", "14", "15", "16"], "rt": [6189, 28, 104, 16, 106], "actions": ["right", "right", "right", "up", "up"], "actionTimes": [6924, 7477, 8102, 8630, 9270], "queries": {"click": {"state": {"target": ["13", "18", "15", "16", "17"], "time": [1002, 2188, 3451, 4614, 5894]}, "edge": {"target": [], "time": []}}, "mouseover": {"state": {"target": ["12", "13", "12", "18", "15", "15", "16", "17"], "time": [868, 918, 1469, 2104, 2500, 2634, 3666, 4833]}, "edge": {"target": [], "time": []}}, "mouseout": {"state": {"target": ["0", "12", "13", "12", "18", "15", "15", "16", "17"], "time": [537, 902, 1222, 1985, 2483, 2517, 3599, 4784, 6233]}, "edge": {"target": [], "time": []}}}, "displayed_time": "9.78", "trialTime": 9893, "trial_type": "mouselab-mdp", "trial_index": 3, "time_elapsed": 15739, "internal_node_id": "0.0-2.0-2.0-0.0"}}, {"uniqueid": "w96578298:a17486642", "current_trial": 4, "dateTime": 1693479779520, "trialdata": {"revealed_states": [], "clicked_states": ["12", "13", "18", "14", "15", "16", "17"], "num_clicks_accrued": [0, 0, 0, 0, 0, 0, 0, 0, 0, 0, 0, 0, 0], "stateRewards": ["", -10, -10, -10, -10, -10, 10, -10, -10, -10, -10, -10, -10, -10, 10, 10, 10, 10, -10, 10, -10, -10, -10, -10, -10, -10, 10, 10, 10, 10, 10, 10, -10, -10], "withholdReward": false, "trial_id": "practice_2", "block": "test", "trialIndex": 1, "score": 10, "costs": -3.5, "simulationMode": [null, null, null, null, null], "rewards": [-10, -10, 10, 10, 10], "path": ["0", "0", "12", "13", "14", "15", "16"], "rt": [228314, 88, 96, 123, 132], "actions": ["right", "right", "right", "up", "up"], "actionTimes": [228834, 229441, 230053, 230692, 231339], "queries": {"click": {"state": {"target": ["12", "13", "18", "14", "15", "16", "17"], "time": [785, 1850, 3005, 4022, 5094, 6362, 7780]}, "edge": {"target": [], "time": []}}, "mouseover": {"state": {"target": ["12", "13", "18", "14", "15", "16", "17", "13", "19"], "time": [696, 1347, 2195, 3430, 4295, 5442, 6924, 227922, 228153]}, "edge": {"target": [], "time": []}}, "mouseout": {"state": {"target": ["12", "13", "18", "14", "15", "16", "16", "17", "13", "19"], "time": [862, 2145, 3195, 4228, 5392, 6430, 6792, 8158, 227953, 228169]}, "edge": {"target": [], "time": []}}}, "displayed_time": "231.86", "trialTime": 231903, "trial_type": "mouselab-mdp", "trial_index": 4, "time_elapsed": 247982, "internal_node_id": "0.0-2.0-2.0-1.0"}}, {"uniqueid": "w96578298:a17486642", "current_trial": 5, "dateTime": 1693479782345, "trialdata": {"view_history": [{"page_index": 0, "viewing_time": 1874}, {"page_index": 1, "viewing_time": 946}], "rt": 2821, "trial_id": "mouselab_instructions_2_control", "trial_type": "instructions", "trial_index": 5, "time_elapsed": 250808, "internal_node_id": "0.0-2.0-3.0"}}, {"uniqueid": "w96578298:a17486642", "current_trial": 6, "dateTime": 1693479789841, "trialdata": {"rt": 7492, "response": {"Q0": "The cost for clicking on nodes may vary between nodes.", "Q1": "The better I perform the higher my bonus will be.", "Q2": "No, the amount of cash at each node of the web may be different each time.", "Q3": "To get the highest total score.", "Q4": "Only before moving the spider.", "Q5": "3 seconds"}, "question_order": [0, 1, 2, 3, 4, 5], "correct": {"Q0": "The cost for clicking on nodes may vary between nodes.", "Q1": "The better I perform the higher my bonus will be.", "Q2": "No, the amount of cash at each node of the web may be different each time.", "Q3": "To get the highest total score.", "Q4": "Only before moving the spider.", "Q5": "3 seconds"}, "trial_id": "mouselab_quiz_control", "trial_type": "survey-multi-choice", "trial_index": 6, "time_elapsed": 258304, "internal_node_id": "0.0-2.0-4.0"}}, {"uniqueid": "w96578298:a17486642", "current_trial": 7, "dateTime": 1693479791485, "trialdata": {"rt": 1637, "response": {"Q0": "No"}, "question_order": [0], "trial_id": "repeat_check", "trial_type": "survey-multi-choice", "trial_index": 7, "time_elapsed": 259947, "internal_node_id": "0.0-4.0-0.0"}}, {"uniqueid": "w96578298:a17486642", "current_trial": 8, "dateTime": 1693479794414, "trialdata": {"rt": 2922, "stimulus": "\n<h1> Get ready to start the game! </h1>\n\nThank you for reading the instructions. Get ready start with the 40 rounds of this game.\n<br><br>\nIf you need to take a break, feel free to take one after the end of a round, before continuing to the next one.\n<br><br>\nRemember, the more money the spider gets, the bigger your bonus will be!\n<br><br>\n<div style='text-align: center;'>Press <code>space</code> to begin.</div>\n\n<br><br>\n(If, at any point, the <code>space</code> key does not take you to the next page, click once on the text and try again.)", "response": " ", "trial_id": "mdp_ready", "trial_type": "html-keyboard-response", "trial_index": 8, "time_elapsed": 262877, "internal_node_id": "0.0-6.0-0.0"}}, {"uniqueid": "w96578298:a17486642", "current_trial": 9, "dateTime": 1693479809247, "trialdata": {"revealed_states": [], "clicked_states": ["12", "18"], "num_clicks_accrued": [0, 0, 0, 0, 0, 0, 0, 0, 0, 0, 0, 0, 0], "stateRewards": ["", 1, -2, 7, -14, 88, -56, -44, -14, 64, -51, -57, -2, 3, -4, -9, -11, 19, -77, -1, 68, 75, -67, -1, 1, -2, 5, -37, 70, -34, -10, -72, 63, -41], "withholdReward": false, "trial_id": "mdp_trial_1", "block": "test", "trialIndex": 2, "score": 4.199999999999999, "costs": -2.8, "simulationMode": [null, null, null, null, null], "rewards": [-2, 3, -4, -9, 19], "path": ["0", "0", "12", "13", "14", "15", "17"], "rt": [3662, 1, 94, 2, 122], "actions": ["right", "right", "right", "up", "right"], "actionTimes": [4185, 4702, 5331, 5872, 6522], "queries": {"click": {"state": {"target": ["12", "18"], "time": [814, 2647]}, "edge": {"target": [], "time": []}}, "mouseover": {"state": {"target": ["12", "18", "15", "17"], "time": [738, 1236, 2837, 2869]}, "edge": {"target": [], "time": []}}, "mouseout": {"state": {"target": ["3", "2", "1", "12", "18", "15", "17", "14"], "time": [69, 137, 269, 876, 2818, 2854, 2885, 7850]}, "edge": {"target": [], "time": []}}}, "displayed_time": "14.53", "trialTime": 14576, "trial_type": "mouselab-mdp", "trial_index": 9, "time_elapsed": 277709, "internal_node_id": "0.0-6.0-1.0-0.0"}}], "questiondata": {"params": {"CODE": "C6DMOQA6", "MIN_TIME": 14, "inspectCost": 1, "startTime": "Thu Aug 31 2023 12:58:50 GMT+0200 (Central European Summer Time)", "bonusRate": 0.002, "variance": "1_2_4_8_44", "branching": "31123"}}, "eventdata": [{"eventtype": "initialized", "value": null, "timestamp": 1693479530388, "interval": 0}, {"eventtype": "window_resize", "value": [1024, 741], "timestamp": 1693479530388, "interval": 0}, {"eventtype": "window_resize", "value": [1024, 741], "timestamp": 1693479530721, "interval": 333}, {"eventtype": "window_resize", "value": [1440, 900], "timestamp": 1693479532361, "interval": 1640}, {"eventtype": "focus", "value": "off", "timestamp": 1693479573247, "interval": 40886}, {"eventtype": "focus", "value": "on", "timestamp": 1693479774599, "interval": 201352}], "useragent": "Mozilla/5.0 (Macintosh; Intel Mac OS X 10_15_7) AppleWebKit/537.36 (KHTML, like Gecko) Chrome/115.0.0.0 Safari/537.36", "mode": "debug", "id": "w96578298:a17486642", "status": "user data saved", "Beginhit": "2023-08-31 10:58:49.433524", "Beginexp": "2023-08-31 10:58:53.296615", "Endhit": null, "psiturkStatus": 2, "browser": "<redacted>", "platform": "macos", "language": "en-US", "excludeReason": "dataincomplete"}