{"condition": 1, "counterbalance": 0, "assignmentId": "a42499792", "workerId": "w13532455", "hitId": "h66714953", "currenttrial": 56, "bonus": 0, "data": [{"uniqueid": "w13532455:a42499792", "current_trial": 0, "dateTime": 1691142190459, "trialdata": {"success": true, "trial_type": "fullscreen", "trial_index": 0, "time_elapsed": 3229, "internal_node_id": "0.0-0.0"}}, {"uniqueid": "w13532455:a42499792", "current_trial": 1, "dateTime": 1691142194972, "trialdata": {"view_history": [{"page_index": 0, "viewing_time": 4510}], "rt": 4511, "trial_id": "exp_instructions_misaligned", "trial_type": "instructions", "trial_index": 1, "time_elapsed": 7742, "internal_node_id": "0.0-1.0"}}, {"uniqueid": "w13532455:a42499792", "current_trial": 2, "dateTime": 1691142197453, "trialdata": {"success": true, "trial_type": "fullscreen", "trial_index": 2, "time_elapsed": 10223, "internal_node_id": "0.0-2.0-0.0"}}, {"uniqueid": "w13532455:a42499792", "current_trial": 3, "dateTime": 1691142285391, "trialdata": {"view_history": [{"page_index": 0, "viewing_time": 21882}, {"page_index": 1, "viewing_time": 33580}, {"page_index": 2, "viewing_time": 12321}, {"page_index": 3, "viewing_time": 20154}], "rt": 87937, "trial_id": "mouselab_instructions_1_misaligned", "trial_type": "instructions", "trial_index": 3, "time_elapsed": 98161, "internal_node_id": "0.0-2.0-1.0"}}, {"uniqueid": "w13532455:a42499792", "current_trial": 4, "dateTime": 1691142314895, "trialdata": {"revealed_states": [], "clicked_states": ["24", "26", "13", "2", "8", "3", "4"], "num_clicks_accrued": [0, 0, 0, 0, 0, 0, 0, 0, 0, 0, 0, 0, 0], "stateRewards": ["", 10, 10, -10, -10, -10, -10, -10, 10, -10, 10, -10, 10, -10, 10, 10, -10, -10, 10, 10, 10, 10, -10, -10, -10, 10, 10, -10, -10, 10, -10, -10, 10, -10], "withholdReward": false, "trial_id": "practice_1", "block": "test", "trialIndex": 0, "score": 10, "costs": -3.5, "simulationMode": [null, null, null, null, null], "rewards": [10, 10, -10, 10, -10], "path": ["0", "0", "1", "2", "3", "8", "11"], "rt": [19288, 107, 2906, 135, 364], "actions": ["up", "up", "up", "left", "left"], "actionTimes": [20784, 21416, 24833, 25480, 26360], "queries": {"click": {"state": {"target": ["24", "26", "13", "2", "8", "3", "4"], "time": [2981, 4177, 5385, 7157, 11567, 13148, 14723]}, "edge": {"target": [], "time": []}}, "mouseover": {"state": {"target": ["24", "26", "25", "23", "12", "13", "18", "12", "1", "2", "7", "3", "8", "10", "8", "3", "4", "7", "0", "32", "31", "31"], "time": [2644, 3644, 4729, 5012, 5062, 5112, 5829, 6163, 6379, 6563, 8565, 8932, 10283, 10733, 11401, 12018, 13436, 15104, 17039, 18056, 18390, 18632]}, "edge": {"target": [], "time": []}}, "mouseout": {"state": {"target": ["0", "24", "26", "25", "24", "23", "12", "13", "18", "12", "1", "2", "7", "3", "8", "10", "8", "3", "4", "7", "0", "32", "31", "31"], "time": [1760, 3528, 4562, 4945, 4995, 5029, 5095, 5763, 5846, 6296, 6496, 7581, 8599, 10133, 10650, 11317, 11968, 13352, 15054, 15537, 17071, 18340, 18490, 18806]}, "edge": {"target": [], "time": []}}}, "displayed_time": "26.86", "trialTime": 29265, "trial_type": "mouselab-mdp", "trial_index": 4, "time_elapsed": 127665, "internal_node_id": "0.0-2.0-2.0-0.0"}}, {"uniqueid": "w13532455:a42499792", "current_trial": 5, "dateTime": 1691142332600, "trialdata": {"revealed_states": [], "clicked_states": ["13", "24", "2", "26", "30"], "num_clicks_accrued": [0, 0, 0, 0, 0, 0, 0, 0, 0, 0, 0, 0, 0], "stateRewards": ["", 10, -10, -10, -10, 10, -10, 10, -10, 10, 10, -10, -10, -10, 10, 10, -10, -10, -10, 10, 10, -10, -10, 10, 10, -10, 10, 10, -10, 10, 10, -10, 10, 10], "withholdReward": false, "trial_id": "practice_2", "block": "test", "trialIndex": 1, "score": 31, "costs": -2.5, "simulationMode": [null, null, null, null, null], "rewards": [10, 10, -10, 10, 10], "path": ["0", "0", "23", "24", "25", "26", "27"], "rt": [11571, 243, 140, 162, 207], "actions": ["left", "left", "left", "up", "up"], "actionTimes": [12763, 13524, 14172, 14844, 15555], "queries": {"click": {"state": {"target": ["13", "24", "2", "26", "30"], "time": [2293, 4780, 6716, 9332, 11210]}, "edge": {"target": [], "time": []}}, "mouseover": {"state": {"target": ["0", "12", "13", "12", "0", "23", "24", "31", "23", "1", "2", "1", "28", "25", "26", "25", "30"], "time": [1403, 1686, 2020, 3838, 4338, 4505, 4706, 5223, 6174, 6290, 6557, 8042, 8158, 8425, 9226, 9777, 9893]}, "edge": {"target": [], "time": []}}, "mouseout": {"state": {"target": ["0", "0", "12", "13", "12", "0", "23", "24", "31", "23", "1", "2", "1", "28", "25", "26", "25", "30", "23", "23"], "time": [1019, 1470, 1970, 2587, 4305, 4389, 4555, 5173, 5256, 6190, 6424, 7091, 8092, 8192, 9180, 9743, 9827, 11495, 15514, 15998]}, "edge": {"target": [], "time": []}}}, "displayed_time": "16.08", "trialTime": 17572, "trial_type": "mouselab-mdp", "trial_index": 5, "time_elapsed": 145370, "internal_node_id": "0.0-2.0-2.0-1.0"}}, {"uniqueid": "w13532455:a42499792", "current_trial": 6, "dateTime": 1691142355383, "trialdata": {"view_history": [{"page_index": 0, "viewing_time": 17307}, {"page_index": 1, "viewing_time": 5474}], "rt": 22781, "trial_id": "mouselab_instructions_2_misaligned", "trial_type": "instructions", "trial_index": 6, "time_elapsed": 168153, "internal_node_id": "0.0-2.0-3.0"}}, {"uniqueid": "w13532455:a42499792", "current_trial": 7, "dateTime": 1691142373751, "trialdata": {"rt": 18368, "response": {"Q0": "The cost for clicking on nodes may vary between nodes.", "Q1": "The better I perform the higher my bonus will be.", "Q2": "No, the amount of cash at each node of the web may be different each time.", "Q3": "To get the highest total score.", "Q4": "Only before moving the spider.", "Q5": "3 seconds"}, "question_order": [0, 1, 2, 3, 4, 5], "correct": {"Q0": "The cost for clicking on nodes may vary between nodes.", "Q1": "The better I perform the higher my bonus will be.", "Q2": "No, the amount of cash at each node of the web may be different each time.", "Q3": "To get the highest total score.", "Q4": "Only before moving the spider.", "Q5": "3 seconds"}, "trial_id": "mouselab_quiz_misaligned", "trial_type": "survey-multi-choice", "trial_index": 7, "time_elapsed": 186521, "internal_node_id": "0.0-2.0-4.0"}}, {"uniqueid": "w13532455:a42499792", "current_trial": 8, "dateTime": 1691142381783, "trialdata": {"rt": 8029, "stimulus": "\n<h1> Get ready to start the game! </h1>\n\nThank you for reading the instructions. Get ready start with the 40 rounds of this game.\n<br><br>\nIf you need to take a break, feel free to take one after the end of a round, before continuing to the next one.\n<br><br>\nRemember, the more money the spider gets, the bigger your bonus will be!\n<br><br>\n<div style='text-align: center;'>Press <code>space</code> to begin.</div>\n\n<br><br>\n(If, at any point, the <code>space</code> key does not take you to the next page, click once on the text and try again.)", "response": " ", "trial_id": "mdp_ready", "trial_type": "html-keyboard-response", "trial_index": 8, "time_elapsed": 194553, "internal_node_id": "0.0-4.0-0.0"}}, {"uniqueid": "w13532455:a42499792", "current_trial": 9, "dateTime": 1691142401502, "trialdata": {"revealed_states": [], "clicked_states": ["13", "25", "27"], "num_clicks_accrued": [0, 0, 0, 0, 0, 0, 0, 0, 0, 0, 0, 0, 0], "stateRewards": ["", -1, 2, 5, -6, 13, -64, -47, 8, -79, -80, -33, 1, 2, -2, -16, 56, -71, -10, 3, 29, 44, 85, -1, 4, 5, 4, -36, -56, 19, 8, 52, -13, -2], "withholdReward": false, "trial_id": "mdp_trial_1", "block": "test", "trialIndex": 2, "score": 10.55, "costs": -3.4499999999999997, "simulationMode": [null, null, null, null, null], "rewards": [-1, 4, 5, 8, -2], "path": ["0", "0", "23", "24", "25", "30", "33"], "rt": [11432, 133, 162, 191, 210], "actions": ["left", "left", "left", "down", "left"], "actionTimes": [14506, 15145, 15826, 16522, 17242], "queries": {"click": {"state": {"target": ["13", "25", "27"], "time": [4220, 5502, 6984]}, "edge": {"target": [], "time": []}}, "mouseover": {"state": {"target": ["1", "18", "13", "24", "25", "24", "28", "27", "26", "30", "32", "31", "10", "3", "2"], "time": [3503, 3736, 3937, 4987, 5287, 6054, 6405, 6806, 7306, 7689, 11175, 12243, 12327, 12660, 13211]}, "edge": {"target": [], "time": []}}, "mouseout": {"state": {"target": ["0", "1", "18", "13", "24", "25", "24", "28", "27", "26", "25", "30", "32", "31", "10", "3", "2"], "time": [900, 3570, 3820, 4453, 5104, 5804, 6172, 6439, 7272, 7355, 7473, 7789, 12210, 12260, 12343, 13194, 13227]}, "edge": {"target": [], "time": []}}}, "displayed_time": "17.75", "trialTime": 19585, "trial_type": "mouselab-mdp", "trial_index": 9, "time_elapsed": 214272, "internal_node_id": "0.0-4.0-1.0-0.0"}}, {"uniqueid": "w13532455:a42499792", "current_trial": 10, "dateTime": 1691142418686, "trialdata": {"revealed_states": [], "clicked_states": ["14", "25", "3", "32"], "num_clicks_accrued": [0, 0, 0, 0, 0, 0, 0, 0, 0, 0, 0, 0, 0], "stateRewards": ["", -1, 4, 3, 12, -27, 34, -33, 3, -63, 1, 6, 2, 2, -6, -11, -77, -85, 68, -6, 51, 81, -60, -2, -2, 1, 15, 20, 15, 68, -10, -14, 6, -4], "withholdReward": false, "trial_id": "mdp_trial_2", "block": "test", "trialIndex": 3, "score": -12, "costs": -5, "simulationMode": [null, null, null, null, null], "rewards": [-2, -2, 1, -10, 6], "path": ["0", "0", "23", "24", "25", "30", "32"], "rt": [10767, 185, 78, 61, 134], "actions": ["left", "left", "left", "down", "down"], "actionTimes": [12109, 12812, 13405, 13973, 14612], "queries": {"click": {"state": {"target": ["14", "25", "3", "32"], "time": [2630, 4038, 5370, 7765]}, "edge": {"target": [], "time": []}}, "mouseover": {"state": {"target": ["7", "18", "14", "22", "24", "25", "10", "2", "3", "7", "2", "10", "24", "30", "32", "0", "1", "0"], "time": [1733, 2001, 2401, 2935, 3268, 3501, 4953, 5003, 5287, 6404, 6638, 7005, 7221, 7271, 7371, 8773, 9306, 9791]}, "edge": {"target": [], "time": []}}, "mouseout": {"state": {"target": ["0", "7", "18", "14", "22", "24", "25", "10", "2", "3", "7", "2", "10", "24", "30", "32", "0", "1", "0"], "time": [1517, 1984, 2266, 2885, 2968, 3418, 4336, 4970, 5170, 5887, 6587, 6721, 7171, 7238, 7305, 8005, 8822, 9707, 9824]}, "edge": {"target": [], "time": []}}}, "displayed_time": "15.59", "trialTime": 17052, "trial_type": "mouselab-mdp", "trial_index": 10, "time_elapsed": 231456, "internal_node_id": "0.0-4.0-1.0-1.0"}}, {"uniqueid": "w13532455:a42499792", "current_trial": 11, "dateTime": 1691142437735, "trialdata": {"revealed_states": [], "clicked_states": ["7"], "num_clicks_accrued": [0, 0, 0, 0, 0, 0, 0, 0, 0, 0, 0, 0, 0], "stateRewards": ["", 2, 3, -6, -5, -3, 55, 40, 11, 61, 11, 51, 2, -4, -6, 9, -25, 29, -15, -6, 7, -77, -2, -2, -4, 1, 14, -43, -1, 56, -12, -54, 41, -74], "withholdReward": false, "trial_id": "mdp_trial_3", "block": "test", "trialIndex": 4, "score": 31.85, "costs": -2.15, "simulationMode": [null, null, null, null, null], "rewards": [2, 3, -6, -5, 40], "path": ["0", "0", "1", "2", "3", "4", "7"], "rt": [4683, 235, 125, 91, 58], "actions": ["up", "up", "up", "right", "down"], "actionTimes": [7821, 8590, 9230, 9830, 10397], "queries": {"click": {"state": {"target": ["7"], "time": [3986]}, "edge": {"target": [], "time": []}}, "mouseover": {"state": {"target": ["7", "7", "2", "3", "2"], "time": [3416, 3750, 4501, 6268, 7302]}, "edge": {"target": [], "time": []}}, "mouseout": {"state": {"target": ["12", "4", "7", "0", "7", "7", "7", "2", "3", "2"], "time": [1752, 2515, 2648, 3249, 3450, 4074, 4250, 4550, 7263, 7320]}, "edge": {"target": [], "time": []}}}, "displayed_time": "17.33", "trialTime": 18918, "trial_type": "mouselab-mdp", "trial_index": 11, "time_elapsed": 250505, "internal_node_id": "0.0-4.0-1.0-2.0"}}, {"uniqueid": "w13532455:a42499792", "current_trial": 12, "dateTime": 1691142458120, "trialdata": {"revealed_states": [], "clicked_states": ["29", "31", "22"], "num_clicks_accrued": [0, 0, 0, 0, 0, 0, 0, 0, 0, 0, 0, 0, 0], "stateRewards": ["", 1, -2, -2, 10, -31, -77, 35, 9, -47, 8, 48, -2, 1, -4, -3, -26, -50, 43, -11, 76, -38, 17, 1, -1, 6, 10, 15, -9, 12, -8, 85, 11, -55], "withholdReward": false, "trial_id": "mdp_trial_4", "block": "test", "trialIndex": 5, "score": 76.55, "costs": -6.449999999999999, "simulationMode": [null, null, null, null, null], "rewards": [1, -1, 6, -8, 85], "path": ["0", "0", "23", "24", "25", "30", "31"], "rt": [10195, 103, 37, 47, 137], "actions": ["left", "left", "left", "down", "right"], "actionTimes": [11845, 12461, 13013, 13573, 14228], "queries": {"click": {"state": {"target": ["29", "31", "22"], "time": [2277, 5447, 8521]}, "edge": {"target": [], "time": []}}, "mouseover": {"state": {"target": ["23", "26", "29", "33", "31", "22"], "time": [1781, 1865, 1898, 2565, 4184, 7286]}, "edge": {"target": [], "time": []}}, "mouseout": {"state": {"target": ["0", "23", "26", "29", "33", "31", "22"], "time": [1765, 1815, 1882, 2515, 2599, 5667, 8736]}, "edge": {"target": [], "time": []}}}, "displayed_time": "15.85", "trialTime": 20253, "trial_type": "mouselab-mdp", "trial_index": 12, "time_elapsed": 270890, "internal_node_id": "0.0-4.0-1.0-3.0"}}, {"uniqueid": "w13532455:a42499792", "current_trial": 13, "dateTime": 1691142475135, "trialdata": {"revealed_states": [], "clicked_states": ["9"], "num_clicks_accrued": [0, 0, 0, 0, 0, 0, 0, 0, 0, 0, 0, 0, 0], "stateRewards": ["", 1, 4, 5, -5, 58, -80, 75, 6, 25, -39, 46, 2, -2, 4, 2, 59, 31, -22, -12, -61, 15, 72, 1, -2, -7, 8, 77, 76, -23, -7, 71, -15, -3], "withholdReward": false, "trial_id": "mdp_trial_5", "block": "test", "trialIndex": 6, "score": 38.85, "costs": -2.15, "simulationMode": [null, null, null, null, null], "rewards": [1, 4, 5, 6, 25], "path": ["0", "0", "1", "2", "3", "8", "9"], "rt": [4455, 74, 82, 9, 68], "actions": ["up", "up", "up", "left", "up"], "actionTimes": [5320, 5904, 6495, 7024, 7616], "queries": {"click": {"state": {"target": ["9"], "time": [1969]}, "edge": {"target": [], "time": []}}, "mouseover": {"state": {"target": ["1", "2", "3", "9", "11"], "time": [1291, 1426, 1509, 1575, 2776]}, "edge": {"target": [], "time": []}}, "mouseout": {"state": {"target": ["0", "1", "2", "3", "9", "11", "12", "12"], "time": [1225, 1376, 1475, 1525, 2226, 2810, 13786, 14019]}, "edge": {"target": [], "time": []}}}, "displayed_time": "15.01", "trialTime": 16880, "trial_type": "mouselab-mdp", "trial_index": 13, "time_elapsed": 287905, "internal_node_id": "0.0-4.0-1.0-4.0"}}, {"uniqueid": "w13532455:a42499792", "current_trial": 14, "dateTime": 1691142493727, "trialdata": {"revealed_states": [], "clicked_states": ["32", "29", "20"], "num_clicks_accrued": [0, 0, 0, 0, 0, 0, 0, 0, 0, 0, 0, 0, 0], "stateRewards": ["", -1, -3, 1, -4, -48, -63, -49, -2, -84, -19, 65, 2, -2, -2, -12, -4, 59, 9, 6, 75, 69, -13, -1, -3, -3, -2, -37, -68, -36, 13, 32, 18, -14], "withholdReward": false, "trial_id": "mdp_trial_6", "block": "test", "trialIndex": 7, "score": 72.55, "costs": -6.449999999999999, "simulationMode": [null, null, null, null, null], "rewards": [2, -2, -2, 6, 75], "path": ["0", "0", "12", "13", "14", "19", "20"], "rt": [12303, 78, 61, 39, 89], "actions": ["right", "right", "right", "down", "right"], "actionTimes": [13705, 14297, 14865, 15409, 16009], "queries": {"click": {"state": {"target": ["32", "29", "20"], "time": [2089, 6748, 10482]}, "edge": {"target": [], "time": []}}, "mouseover": {"state": {"target": ["32", "33", "29", "27", "29", "31", "19", "20"], "time": [1958, 5011, 6012, 6245, 6445, 8847, 10165, 10365]}, "edge": {"target": [], "time": []}}, "mouseout": {"state": {"target": ["32", "0", "32", "33", "29", "27", "29", "31", "19", "20"], "time": [673, 1575, 2325, 5044, 6061, 6362, 7096, 8864, 10264, 10577]}, "edge": {"target": [], "time": []}}}, "displayed_time": "16.52", "trialTime": 18457, "trial_type": "mouselab-mdp", "trial_index": 14, "time_elapsed": 306497, "internal_node_id": "0.0-4.0-1.0-5.0"}}, {"uniqueid": "w13532455:a42499792", "current_trial": 15, "dateTime": 1691142512911, "trialdata": {"revealed_states": [], "clicked_states": ["16", "22", "33"], "num_clicks_accrued": [0, 0, 0, 0, 0, 0, 0, 0, 0, 0, 0, 0, 0], "stateRewards": ["", 2, -1, 1, 10, -52, 86, -22, -2, -14, -63, 38, 1, 3, 7, -8, 11, -32, -27, 9, -71, 40, -87, -2, -1, 5, -7, 12, 31, -57, 13, 86, -58, 29], "withholdReward": false, "trial_id": "mdp_trial_7", "block": "test", "trialIndex": 8, "score": 37.55, "costs": -6.449999999999999, "simulationMode": [null, null, null, null, null], "rewards": [-2, -1, 5, 13, 29], "path": ["0", "0", "23", "24", "25", "30", "33"], "rt": [11966, 53, 30, 64, 104], "actions": ["left", "left", "left", "down", "left"], "actionTimes": [13365, 13932, 14477, 15061, 15685], "queries": {"click": {"state": {"target": ["16", "22", "33"], "time": [2164, 6305, 10070]}, "edge": {"target": [], "time": []}}, "mouseover": {"state": {"target": ["16", "17", "22", "31", "30", "33", "30"], "time": [1936, 2502, 5922, 8924, 9791, 9975, 10492]}, "edge": {"target": [], "time": []}}, "mouseout": {"state": {"target": ["21", "22", "12", "0", "16", "17", "22", "31", "30", "33", "30"], "time": [818, 884, 1100, 1285, 2469, 2519, 6572, 9742, 9858, 10460, 10525]}, "edge": {"target": [], "time": []}}}, "displayed_time": "16.20", "trialTime": 19053, "trial_type": "mouselab-mdp", "trial_index": 15, "time_elapsed": 325681, "internal_node_id": "0.0-4.0-1.0-6.0"}}, {"uniqueid": "w13532455:a42499792", "current_trial": 16, "dateTime": 1691142545336, "trialdata": {"revealed_states": [], "clicked_states": ["9", "27", "28", "32", "14", "16", "6"], "num_clicks_accrued": [0, 0, 0, 0, 0, 0, 0, 0, 0, 0, 0, 0, 0], "stateRewards": ["", 2, -4, 4, 9, 69, 9, -75, 12, -86, 66, 25, -1, 3, 2, -13, -88, -3, 1, 4, -69, 49, -84, 2, -1, 4, 2, -18, -81, -52, -15, -69, -54, 25], "withholdReward": false, "trial_id": "mdp_trial_8", "block": "test", "trialIndex": 9, "score": 6.15, "costs": -13.85, "simulationMode": [null, null, null, null, null], "rewards": [2, -4, 4, 9, 9], "path": ["0", "0", "1", "2", "3", "4", "6"], "rt": [25626, 256, 47, 40, 123], "actions": ["up", "up", "up", "right", "right"], "actionTimes": [27293, 28062, 28621, 29180, 29813], "queries": {"click": {"state": {"target": ["9", "27", "28", "32", "14", "16", "6"], "time": [2546, 6467, 9883, 13606, 17343, 18996, 24110]}, "edge": {"target": [], "time": []}}, "mouseover": {"state": {"target": ["23", "9", "8", "10", "23", "23", "27", "24", "23", "28", "23", "32", "22", "14", "22", "13", "18", "16", "15", "18", "1", "26", "29", "25", "28", "10", "4", "4", "6"], "time": [1951, 2318, 3001, 3035, 3117, 5720, 6337, 6888, 8522, 9673, 10324, 13460, 14927, 17196, 17730, 18614, 18698, 18831, 22453, 22501, 22567, 22801, 22935, 23352, 23451, 23501, 23718, 23935, 24018]}, "edge": {"target": [], "time": []}}, "mouseout": {"state": {"target": ["0", "0", "23", "9", "9", "8", "10", "23", "23", "27", "24", "23", "28", "23", "32", "22", "14", "22", "13", "18", "16", "15", "18", "1", "26", "29", "25", "28", "10", "4", "4", "6", "12"], "time": [1300, 1917, 2017, 2625, 2968, 3018, 3052, 3135, 5736, 6804, 6938, 8573, 10307, 10357, 13960, 16996, 17696, 17763, 18647, 18748, 19098, 22467, 22534, 22601, 22884, 23151, 23418, 23485, 23551, 23868, 23952, 24536, 30891]}, "edge": {"target": [], "time": []}}}, "displayed_time": "30.32", "trialTime": 32293, "trial_type": "mouselab-mdp", "trial_index": 16, "time_elapsed": 358105, "internal_node_id": "0.0-4.0-1.0-7.0"}}, {"uniqueid": "w13532455:a42499792", "current_trial": 17, "dateTime": 1691142561496, "trialdata": {"revealed_states": [], "clicked_states": ["7", "27"], "num_clicks_accrued": [0, 0, 0, 0, 0, 0, 0, 0, 0, 0, 0, 0, 0], "stateRewards": ["", 1, 1, -3, 7, 49, 78, 26, -5, 26, 48, -43, -1, -3, 2, -5, 4, -1, -60, 10, -35, 51, 81, -2, 1, -7, -5, -39, -86, -54, 4, -3, 74, 77], "withholdReward": false, "trial_id": "mdp_trial_9", "block": "test", "trialIndex": 10, "score": 27.7, "costs": -4.3, "simulationMode": [null, null, null, null, null], "rewards": [1, 1, -3, 7, 26], "path": ["0", "0", "1", "2", "3", "4", "7"], "rt": [8275, 45, 47, 6, 10], "actions": ["up", "up", "up", "right", "down"], "actionTimes": [9619, 10171, 10723, 11248, 11787], "queries": {"click": {"state": {"target": ["7", "27"], "time": [2448, 6263]}, "edge": {"target": [], "time": []}}, "mouseover": {"state": {"target": ["1", "2", "4", "7", "27"], "time": [1667, 1702, 1784, 2301, 6095]}, "edge": {"target": [], "time": []}}, "mouseout": {"state": {"target": ["0", "1", "2", "4", "7", "27", "23"], "time": [1640, 1700, 1734, 2268, 2752, 6522, 12843]}, "edge": {"target": [], "time": []}}}, "displayed_time": "15.50", "trialTime": 16028, "trial_type": "mouselab-mdp", "trial_index": 17, "time_elapsed": 374266, "internal_node_id": "0.0-4.0-1.0-8.0"}}, {"uniqueid": "w13532455:a42499792", "current_trial": 18, "dateTime": 1691142577727, "trialdata": {"revealed_states": [], "clicked_states": ["22", "33"], "num_clicks_accrued": [0, 0, 0, 0, 0, 0, 0, 0, 0, 0, 0, 0, 0], "stateRewards": ["", 2, 4, 4, -8, -36, -33, 38, 16, -51, 57, 57, 1, 3, 4, -6, 45, 68, 87, 1, 63, 24, -55, -2, 2, -6, -13, -63, -50, 8, 2, 80, 6, 60], "withholdReward": false, "trial_id": "mdp_trial_10", "block": "test", "trialIndex": 11, "score": 51.7, "costs": -4.3, "simulationMode": [null, null, null, null, null], "rewards": [-2, 2, -6, 2, 60], "path": ["0", "0", "23", "24", "25", "30", "33"], "rt": [7833, 56, 82, 42, 131], "actions": ["left", "left", "left", "down", "left"], "actionTimes": [8867, 9435, 10027, 10587, 11226], "queries": {"click": {"state": {"target": ["22", "33"], "time": [1850, 5547]}, "edge": {"target": [], "time": []}}, "mouseover": {"state": {"target": ["0", "22", "22", "30", "33"], "time": [1276, 1421, 1704, 5324, 5407]}, "edge": {"target": [], "time": []}}, "mouseout": {"state": {"target": ["0", "0", "22", "22", "30", "33"], "time": [837, 1304, 1437, 2138, 5340, 5857]}, "edge": {"target": [], "time": []}}}, "displayed_time": "15.16", "trialTime": 16099, "trial_type": "mouselab-mdp", "trial_index": 18, "time_elapsed": 390497, "internal_node_id": "0.0-4.0-1.0-9.0"}}, {"uniqueid": "w13532455:a42499792", "current_trial": 19, "dateTime": 1691142603464, "trialdata": {"revealed_states": [], "clicked_states": ["6", "29", "22", "17", "31"], "num_clicks_accrued": [0, 0, 0, 0, 0, 0, 0, 0, 0, 0, 0, 0, 0], "stateRewards": ["", 2, -1, -3, 16, -3, -16, -62, -1, 13, -26, 43, -1, 4, 3, -9, -54, -37, -3, -12, -71, -68, -57, 1, -3, 2, -9, 2, -2, -9, -11, 84, -52, 55], "withholdReward": false, "trial_id": "mdp_trial_11", "block": "test", "trialIndex": 12, "score": 62.25, "costs": -10.75, "simulationMode": [null, null, null, null, null], "rewards": [1, -3, 2, -11, 84], "path": ["0", "0", "23", "24", "25", "30", "31"], "rt": [20381, 50, 52, 28, 77], "actions": ["left", "left", "left", "down", "right"], "actionTimes": [21605, 22181, 22765, 23309, 23909], "queries": {"click": {"state": {"target": ["6", "29", "22", "17", "31"], "time": [2341, 6463, 10031, 14007, 18204]}, "edge": {"target": [], "time": []}}, "mouseover": {"state": {"target": ["1", "2", "4", "6", "6", "11", "27", "26", "29", "31", "22", "19", "17", "18", "23", "31"], "time": [1429, 1478, 1813, 1980, 2246, 5783, 5966, 6167, 6349, 9119, 9902, 10671, 13807, 17225, 17776, 18026]}, "edge": {"target": [], "time": []}}, "mouseout": {"state": {"target": ["0", "1", "2", "4", "6", "6", "11", "27", "26", "29", "31", "22", "19", "17", "18", "23", "31"], "time": [1379, 1463, 1512, 1880, 2146, 2897, 5933, 5983, 6333, 6901, 9135, 10287, 10704, 14273, 17442, 17876, 18493]}, "edge": {"target": [], "time": []}}}, "displayed_time": "24.42", "trialTime": 25598, "trial_type": "mouselab-mdp", "trial_index": 19, "time_elapsed": 416234, "internal_node_id": "0.0-4.0-1.0-10.0"}}, {"uniqueid": "w13532455:a42499792", "current_trial": 20, "dateTime": 1691142624447, "trialdata": {"revealed_states": [], "clicked_states": ["9", "29", "31", "20"], "num_clicks_accrued": [0, 0, 0, 0, 0, 0, 0, 0, 0, 0, 0, 0, 0], "stateRewards": ["", 1, -1, 8, 4, 76, -33, -17, -3, -1, -54, -74, -2, 2, -5, 13, -51, 63, 83, 1, 84, 29, -36, 2, -1, 7, -12, -10, -44, -43, -14, 8, -69, 19], "withholdReward": false, "trial_id": "mdp_trial_12", "block": "test", "trialIndex": 13, "score": 71.4, "costs": -8.6, "simulationMode": [null, null, null, null, null], "rewards": [-2, 2, -5, 1, 84], "path": ["0", "0", "12", "13", "14", "19", "20"], "rt": [15109, 21, 71, 5, 99], "actions": ["right", "right", "right", "down", "right"], "actionTimes": [16421, 16956, 17540, 18058, 18668], "queries": {"click": {"state": {"target": ["9", "29", "31", "20"], "time": [2163, 5828, 9186, 13175]}, "edge": {"target": [], "time": []}}, "mouseover": {"state": {"target": ["1", "2", "3", "9", "11", "27", "26", "29", "24", "23", "31", "31", "22", "19", "20"], "time": [1655, 1705, 1788, 2039, 2505, 5457, 5641, 5691, 6308, 6358, 7176, 9044, 12647, 12714, 12997]}, "edge": {"target": [], "time": []}}, "mouseout": {"state": {"target": ["0", "1", "2", "3", "9", "11", "27", "26", "29", "24", "23", "31", "31", "22", "19", "20"], "time": [1597, 1688, 1754, 1872, 2455, 2556, 5524, 5658, 6192, 6325, 6592, 7693, 9477, 12680, 12931, 13515]}, "edge": {"target": [], "time": []}}}, "displayed_time": "19.19", "trialTime": 20852, "trial_type": "mouselab-mdp", "trial_index": 20, "time_elapsed": 437217, "internal_node_id": "0.0-4.0-1.0-11.0"}}, {"uniqueid": "w13532455:a42499792", "current_trial": 21, "dateTime": 1691142641576, "trialdata": {"revealed_states": [], "clicked_states": ["31", "29"], "num_clicks_accrued": [0, 0, 0, 0, 0, 0, 0, 0, 0, 0, 0, 0, 0], "stateRewards": ["", 1, 4, -4, 14, 35, 51, 19, -13, 54, 78, -74, -2, -1, -3, 13, -11, -42, -73, -15, -24, -3, -69, 2, -1, 5, 16, -27, 73, 58, 9, -60, 5, -60], "withholdReward": false, "trial_id": "mdp_trial_13", "block": "test", "trialIndex": 14, "score": 75.7, "costs": -4.3, "simulationMode": [null, null, null, null, null], "rewards": [2, -1, 5, 16, 58], "path": ["0", "0", "23", "24", "25", "26", "29"], "rt": [7620, 87, 47, 32, 41], "actions": ["left", "left", "left", "up", "left"], "actionTimes": [9101, 9717, 10277, 10829, 11389], "queries": {"click": {"state": {"target": ["31", "29"], "time": [2385, 5770]}, "edge": {"target": [], "time": []}}, "mouseover": {"state": {"target": ["23", "31", "30", "33", "29"], "time": [2056, 2239, 4925, 4975, 5626]}, "edge": {"target": [], "time": []}}, "mouseout": {"state": {"target": ["13", "12", "0", "23", "31", "31", "30", "33", "29"], "time": [1071, 1205, 2030, 2106, 2690, 4908, 4958, 5009, 5872]}, "edge": {"target": [], "time": []}}}, "displayed_time": "15.61", "trialTime": 16997, "trial_type": "mouselab-mdp", "trial_index": 21, "time_elapsed": 454346, "internal_node_id": "0.0-4.0-1.0-12.0"}}, {"uniqueid": "w13532455:a42499792", "current_trial": 22, "dateTime": 1691142658608, "trialdata": {"revealed_states": [], "clicked_states": ["6", "27", "32"], "num_clicks_accrued": [0, 0, 0, 0, 0, 0, 0, 0, 0, 0, 0, 0, 0], "stateRewards": ["", 2, -1, -1, -9, -81, -30, 55, -6, 78, 25, 62, 2, 4, -1, 9, -85, 1, -19, 1, -60, 12, -34, 1, 4, -1, -13, -24, -16, -83, -8, 16, 43, 9], "withholdReward": false, "trial_id": "mdp_trial_14", "block": "test", "trialIndex": 15, "score": 32.55, "costs": -6.449999999999999, "simulationMode": [null, null, null, null, null], "rewards": [1, 4, -1, -8, 43], "path": ["0", "0", "23", "24", "25", "30", "32"], "rt": [11238, 13, 32, 538, 125], "actions": ["left", "left", "left", "down", "down"], "actionTimes": [12423, 12959, 13511, 14567, 15208], "queries": {"click": {"state": {"target": ["6", "27", "32"], "time": [2033, 5586, 9140]}, "edge": {"target": [], "time": []}}, "mouseover": {"state": {"target": ["7", "4", "6", "27", "28", "24", "32"], "time": [1535, 1685, 1953, 5506, 8724, 8758, 8908]}, "edge": {"target": [], "time": []}}, "mouseout": {"state": {"target": ["0", "7", "4", "6", "27", "27", "28", "24", "32"], "time": [1068, 1602, 1869, 2970, 5608, 5972, 8742, 8775, 9459]}, "edge": {"target": [], "time": []}}}, "displayed_time": "15.71", "trialTime": 16895, "trial_type": "mouselab-mdp", "trial_index": 22, "time_elapsed": 471378, "internal_node_id": "0.0-4.0-1.0-13.0"}}, {"uniqueid": "w13532455:a42499792", "current_trial": 23, "dateTime": 1691142675408, "trialdata": {"revealed_states": [], "clicked_states": ["5", "11"], "num_clicks_accrued": [0, 0, 0, 0, 0, 0, 0, 0, 0, 0, 0, 0, 0], "stateRewards": ["", -1, 1, 8, -3, -24, 11, -65, -6, -77, 48, 44, -2, 1, -2, -7, -55, -35, 33, 8, -28, 19, -53, -1, -1, -5, -5, -70, 10, 44, 8, -58, -70, 51], "withholdReward": false, "trial_id": "mdp_trial_15", "block": "test", "trialIndex": 16, "score": 41.7, "costs": -4.3, "simulationMode": [null, null, null, null, null], "rewards": [-1, 1, 8, -6, 44], "path": ["0", "0", "1", "2", "3", "8", "11"], "rt": [7581, 28, 28, 6, 42], "actions": ["up", "up", "up", "left", "left"], "actionTimes": [8787, 9339, 9891, 10402, 10971], "queries": {"click": {"state": {"target": ["5", "11"], "time": [1900, 5415]}, "edge": {"target": [], "time": []}}, "mouseover": {"state": {"target": ["7", "4", "5", "6", "4", "3", "8", "11", "10", "18"], "time": [1488, 1621, 1822, 4958, 4991, 5041, 5107, 5325, 7226, 7592]}, "edge": {"target": [], "time": []}}, "mouseout": {"state": {"target": ["0", "7", "4", "5", "6", "4", "3", "8", "11", "11", "10", "18", "12"], "time": [1372, 1571, 1705, 2189, 4974, 5025, 5074, 5208, 5501, 6559, 7243, 8711, 11880]}, "edge": {"target": [], "time": []}}}, "displayed_time": "15.40", "trialTime": 16667, "trial_type": "mouselab-mdp", "trial_index": 23, "time_elapsed": 488177, "internal_node_id": "0.0-4.0-1.0-14.0"}}, {"uniqueid": "w13532455:a42499792", "current_trial": 24, "dateTime": 1691142692480, "trialdata": {"revealed_states": [], "clicked_states": ["32", "29", "7"], "num_clicks_accrued": [0, 0, 0, 0, 0, 0, 0, 0, 0, 0, 0, 0, 0], "stateRewards": ["", 2, 3, -3, 4, 72, -28, 34, -12, 57, -64, -15, 2, 1, -4, -15, 2, 49, 31, -1, -42, -58, 31, -2, 1, -2, -13, -75, -19, -22, -6, 61, 10, -56], "withholdReward": false, "trial_id": "mdp_trial_16", "block": "test", "trialIndex": 17, "score": 33.55, "costs": -6.449999999999999, "simulationMode": [null, null, null, null, null], "rewards": [2, 3, -3, 4, 34], "path": ["0", "0", "1", "2", "3", "4", "7"], "rt": [11162, 108, 75, 76, 75], "actions": ["up", "up", "up", "right", "down"], "actionTimes": [12363, 12987, 13571, 14155, 14739], "queries": {"click": {"state": {"target": ["32", "29", "7"], "time": [1905, 5679, 9076]}, "edge": {"target": [], "time": []}}, "mouseover": {"state": {"target": ["0", "31", "32", "32", "31", "29", "25", "1", "7", "7", "13", "14", "20"], "time": [1352, 1501, 1585, 1802, 5088, 5355, 7256, 7390, 7524, 8891, 10643, 10692, 10960]}, "edge": {"target": [], "time": []}}, "mouseout": {"state": {"target": ["0", "0", "31", "32", "32", "31", "29", "25", "1", "7", "7", "7", "13", "14", "20", "21"], "time": [1069, 1368, 1535, 1635, 2086, 5105, 6023, 7291, 7423, 7890, 9171, 9475, 10659, 10810, 12728, 15263]}, "edge": {"target": [], "time": []}}}, "displayed_time": "15.45", "trialTime": 16940, "trial_type": "mouselab-mdp", "trial_index": 24, "time_elapsed": 505250, "internal_node_id": "0.0-4.0-1.0-15.0"}}, {"uniqueid": "w13532455:a42499792", "current_trial": 25, "dateTime": 1691142709425, "trialdata": {"revealed_states": [], "clicked_states": ["22", "17", "10"], "num_clicks_accrued": [0, 0, 0, 0, 0, 0, 0, 0, 0, 0, 0, 0, 0], "stateRewards": ["", 2, -1, -1, 7, 11, -40, -22, -2, 69, 37, 8, -2, 4, -8, -12, -2, -72, -3, -12, 17, 63, 12, 1, 3, -7, 6, 25, 61, 61, -9, 28, -17, 27], "withholdReward": false, "trial_id": "mdp_trial_17", "block": "test", "trialIndex": 18, "score": 28.55, "costs": -6.449999999999999, "simulationMode": [null, null, null, null, null], "rewards": [2, -1, -1, -2, 37], "path": ["0", "0", "1", "2", "3", "8", "10"], "rt": [11741, 96, 55, 47, 40], "actions": ["up", "up", "up", "left", "down"], "actionTimes": [12502, 13101, 13661, 14221, 14781], "queries": {"click": {"state": {"target": ["22", "17", "10"], "time": [1924, 5436, 9142]}, "edge": {"target": [], "time": []}}, "mouseover": {"state": {"target": ["12", "13", "22", "13", "14", "17", "6", "7", "2", "10", "10"], "time": [1496, 1562, 1813, 5149, 5182, 5232, 7567, 8585, 8652, 8835, 9052]}, "edge": {"target": [], "time": []}}, "mouseout": {"state": {"target": ["0", "12", "13", "22", "22", "13", "14", "17", "17", "6", "7", "2", "10", "10", "23"], "time": [1446, 1529, 1579, 2004, 2213, 5165, 5199, 5514, 5916, 7617, 8635, 8685, 8918, 9953, 15808]}, "edge": {"target": [], "time": []}}}, "displayed_time": "15.29", "trialTime": 16814, "trial_type": "mouselab-mdp", "trial_index": 25, "time_elapsed": 522195, "internal_node_id": "0.0-4.0-1.0-16.0"}}, {"uniqueid": "w13532455:a42499792", "current_trial": 26, "dateTime": 1691142726712, "trialdata": {"revealed_states": [], "clicked_states": ["33", "27", "31"], "num_clicks_accrued": [0, 0, 0, 0, 0, 0, 0, 0, 0, 0, 0, 0, 0], "stateRewards": ["", 1, 1, -5, 10, -31, 73, 14, -8, -23, 63, -70, -1, 2, 8, 7, 25, -59, 27, -10, -40, -71, -15, -2, 3, -8, -5, -19, 77, -34, 7, 67, 63, 19], "withholdReward": false, "trial_id": "mdp_trial_18", "block": "test", "trialIndex": 19, "score": 60.55, "costs": -6.449999999999999, "simulationMode": [null, null, null, null, null], "rewards": [-2, 3, -8, 7, 67], "path": ["0", "0", "23", "24", "25", "30", "31"], "rt": [11060, 37, 56, 4, 74], "actions": ["left", "left", "left", "down", "right"], "actionTimes": [12851, 13395, 13963, 14481, 15083], "queries": {"click": {"state": {"target": ["33", "27", "31"], "time": [2416, 5663, 9631]}, "edge": {"target": [], "time": []}}, "mouseover": {"state": {"target": ["23", "30", "33", "32", "24", "26", "27", "29", "25", "31", "31", "22"], "time": [1931, 2198, 2331, 2964, 4433, 4500, 4799, 8953, 9036, 9137, 9487, 11221]}, "edge": {"target": [], "time": []}}, "mouseout": {"state": {"target": ["23", "0", "23", "30", "33", "32", "24", "26", "27", "29", "25", "31", "31", "22"], "time": [1397, 1897, 1964, 2281, 2915, 2981, 4449, 4583, 6068, 9003, 9069, 9153, 9937, 13073]}, "edge": {"target": [], "time": []}}}, "displayed_time": "15.93", "trialTime": 17155, "trial_type": "mouselab-mdp", "trial_index": 26, "time_elapsed": 539481, "internal_node_id": "0.0-4.0-1.0-17.0"}}, {"uniqueid": "w13532455:a42499792", "current_trial": 27, "dateTime": 1691142755848, "trialdata": {"revealed_states": [], "clicked_states": ["31", "18", "17", "7", "27", "33", "11"], "num_clicks_accrued": [0, 0, 0, 0, 0, 0, 0, 0, 0, 0, 0, 0, 0], "stateRewards": ["", 1, -4, 6, -3, 40, 76, -51, 5, -24, -63, 44, -2, -2, 8, 1, 76, -85, -58, 10, 59, 20, 11, -2, 3, -3, 3, -82, -10, 54, -7, -57, -6, -32], "withholdReward": false, "trial_id": "mdp_trial_19", "block": "test", "trialIndex": 20, "score": 36.95, "costs": -15.05, "simulationMode": [null, null, null, null, null], "rewards": [1, -4, 6, 5, 44], "path": ["0", "0", "1", "2", "3", "8", "11"], "rt": [23390, 89, 17, 11, 15], "actions": ["up", "up", "up", "left", "left"], "actionTimes": [25061, 25669, 26198, 26726, 27261], "queries": {"click": {"state": {"target": ["31", "18", "17", "7", "27", "33", "11"], "time": [2182, 5333, 8788, 11994, 15165, 18648, 21825]}, "edge": {"target": [], "time": []}}, "mouseover": {"state": {"target": ["31", "18", "17", "14", "7", "7", "2", "27", "33", "29", "26", "10", "11", "9"], "time": [1992, 4244, 8598, 10782, 11000, 11333, 12468, 13568, 18589, 19206, 19273, 20123, 20424, 24177]}, "edge": {"target": [], "time": []}}, "mouseout": {"state": {"target": ["12", "0", "31", "18", "17", "14", "7", "7", "2", "27", "33", "29", "26", "10", "11", "11", "9", "3", "2", "1", "0"], "time": [1258, 1875, 2542, 6879, 9115, 10816, 11100, 12450, 12500, 15553, 18657, 19224, 19290, 20257, 22225, 23510, 25445, 28097, 28114, 28130, 28164]}, "edge": {"target": [], "time": []}}}, "displayed_time": "27.76", "trialTime": 29006, "trial_type": "mouselab-mdp", "trial_index": 27, "time_elapsed": 568618, "internal_node_id": "0.0-4.0-1.0-18.0"}}, {"uniqueid": "w13532455:a42499792", "current_trial": 28, "dateTime": 1691142791800, "trialdata": {"revealed_states": [], "clicked_states": ["7", "28", "29", "32", "21", "16", "17", "22"], "num_clicks_accrued": [0, 0, 0, 0, 0, 0, 0, 0, 0, 0, 0, 0, 0], "stateRewards": ["", 1, 2, -8, 9, 18, -83, -11, 6, -64, -48, 17, -2, -2, -5, -3, -24, -3, -86, -2, 48, -41, -22, -2, 4, 7, 8, 81, 13, -48, 10, 61, 19, 57], "withholdReward": false, "trial_id": "mdp_trial_20", "block": "test", "trialIndex": 21, "score": 20.8, "costs": -17.2, "simulationMode": [null, null, null, null, null], "rewards": [-2, 4, 7, 10, 19], "path": ["0", "0", "23", "24", "25", "30", "32"], "rt": [28441, 214, 42, 563, 127], "actions": ["left", "left", "left", "down", "down"], "actionTimes": [30145, 30865, 31426, 32498, 33130], "queries": {"click": {"state": {"target": ["7", "28", "29", "32", "21", "16", "17", "22"], "time": [2423, 5610, 9308, 12899, 16168, 19804, 23203, 26937]}, "edge": {"target": [], "time": []}}, "mouseover": {"state": {"target": ["7", "4", "7", "1", "28", "27", "29", "33", "32", "21", "22", "16", "17", "17", "14", "13", "22"], "time": [1976, 2076, 2326, 2793, 3428, 6180, 9149, 10967, 12735, 15586, 19341, 19741, 20274, 23044, 26463, 26513, 26696]}, "edge": {"target": [], "time": []}}, "mouseout": {"state": {"target": ["0", "1", "7", "4", "7", "1", "28", "27", "29", "33", "32", "21", "22", "16", "17", "17", "14", "13", "22"], "time": [676, 1376, 2026, 2293, 2726, 2927, 5979, 6213, 9849, 12635, 15271, 16505, 19357, 20241, 20307, 23510, 26496, 26530, 27213]}, "edge": {"target": [], "time": []}}}, "displayed_time": "33.64", "trialTime": 35818, "trial_type": "mouselab-mdp", "trial_index": 28, "time_elapsed": 604570, "internal_node_id": "0.0-4.0-1.0-19.0"}}, {"uniqueid": "w13532455:a42499792", "current_trial": 29, "dateTime": 1691142807552, "trialdata": {"revealed_states": [], "clicked_states": ["9"], "num_clicks_accrued": [0, 0, 0, 0, 0, 0, 0, 0, 0, 0, 0, 0, 0], "stateRewards": ["", 1, -1, 1, -14, -10, 67, -28, -11, 72, 40, -65, -1, 1, 1, -2, 8, -55, 34, -10, 61, 33, -15, 2, -4, 7, 4, -75, 63, -21, -16, 61, 19, 21], "withholdReward": false, "trial_id": "mdp_trial_21", "block": "test", "trialIndex": 22, "score": 59.85, "costs": -2.15, "simulationMode": [null, null, null, null, null], "rewards": [1, -1, 1, -11, 72], "path": ["0", "0", "1", "2", "3", "8", "9"], "rt": [4209, 55, 65, 5, 35], "actions": ["up", "up", "up", "left", "up"], "actionTimes": [5325, 5900, 6492, 7017, 7580], "queries": {"click": {"state": {"target": ["9"], "time": [1989]}, "edge": {"target": [], "time": []}}, "mouseover": {"state": {"target": ["2", "3", "9"], "time": [1439, 1489, 1973]}, "edge": {"target": [], "time": []}}, "mouseout": {"state": {"target": ["0", "2", "3", "9", "9", "2", "1", "0"], "time": [906, 1473, 1523, 2011, 2974, 11231, 11281, 11315]}, "edge": {"target": [], "time": []}}}, "displayed_time": "15.28", "trialTime": 15621, "trial_type": "mouselab-mdp", "trial_index": 29, "time_elapsed": 620322, "internal_node_id": "0.0-4.0-1.0-20.0"}}, {"uniqueid": "w13532455:a42499792", "current_trial": 30, "dateTime": 1691142823344, "trialdata": {"revealed_states": [], "clicked_states": ["32"], "num_clicks_accrued": [0, 0, 0, 0, 0, 0, 0, 0, 0, 0, 0, 0, 0], "stateRewards": ["", 1, 4, 7, -16, -84, -6, -46, -12, -7, -49, -26, -1, 2, -4, 2, 22, 37, -64, 1, 88, -13, -10, 1, -4, -2, 5, 2, -10, -34, 9, 66, 55, 38], "withholdReward": false, "trial_id": "mdp_trial_22", "block": "test", "trialIndex": 23, "score": 56.85, "costs": -2.15, "simulationMode": [null, null, null, null, null], "rewards": [1, -4, -2, 9, 55], "path": ["0", "0", "23", "24", "25", "30", "32"], "rt": [4011, 26, 76, 59, 124], "actions": ["left", "left", "left", "down", "down"], "actionTimes": [5020, 5564, 6163, 6732, 7364], "queries": {"click": {"state": {"target": ["32"], "time": [1706]}, "edge": {"target": [], "time": []}}, "mouseover": {"state": {"target": ["31", "32", "29"], "time": [1249, 1633, 2567]}, "edge": {"target": [], "time": []}}, "mouseout": {"state": {"target": ["0", "31", "32", "29", "25"], "time": [1133, 1299, 2100, 5320, 5353]}, "edge": {"target": [], "time": []}}}, "displayed_time": "15.27", "trialTime": 15660, "trial_type": "mouselab-mdp", "trial_index": 30, "time_elapsed": 636114, "internal_node_id": "0.0-4.0-1.0-21.0"}}, {"uniqueid": "w13532455:a42499792", "current_trial": 31, "dateTime": 1691142839856, "trialdata": {"revealed_states": [], "clicked_states": ["3", "7"], "num_clicks_accrued": [0, 0, 0, 0, 0, 0, 0, 0, 0, 0, 0, 0, 0], "stateRewards": ["", 2, 4, 4, 9, -88, -10, 44, 16, -54, 64, 78, 1, 2, 5, 16, 80, 36, 7, -4, 9, -47, -70, -1, -3, 6, -16, 11, 80, 28, 8, -1, 34, -17], "withholdReward": false, "trial_id": "mdp_trial_23", "block": "test", "trialIndex": 24, "score": 59.9, "costs": -3.0999999999999996, "simulationMode": [null, null, null, null, null], "rewards": [2, 4, 4, 9, 44], "path": ["0", "0", "1", "2", "3", "4", "7"], "rt": [6905, 405, 126, 84, 51], "actions": ["up", "up", "up", "right", "down"], "actionTimes": [8024, 8945, 9601, 10192, 10760], "queries": {"click": {"state": {"target": ["3", "7"], "time": [1955, 2829]}, "edge": {"target": [], "time": []}}, "mouseover": {"state": {"target": ["2", "3", "7", "1", "27"], "time": [1651, 1768, 2718, 4470, 4803]}, "edge": {"target": [], "time": []}}, "mouseout": {"state": {"target": ["0", "2", "3", "7", "1", "27"], "time": [1351, 1685, 2368, 3286, 4503, 6205]}, "edge": {"target": [], "time": []}}}, "displayed_time": "15.24", "trialTime": 16377, "trial_type": "mouselab-mdp", "trial_index": 31, "time_elapsed": 652626, "internal_node_id": "0.0-4.0-1.0-22.0"}}, {"uniqueid": "w13532455:a42499792", "current_trial": 32, "dateTime": 1691142856057, "trialdata": {"revealed_states": [], "clicked_states": ["32", "29"], "num_clicks_accrued": [0, 0, 0, 0, 0, 0, 0, 0, 0, 0, 0, 0, 0], "stateRewards": ["", 2, -1, 4, -9, -43, 7, 54, -13, 38, -40, -83, -1, 2, -8, -10, 34, -33, 11, -14, -79, 65, 26, 1, 2, 4, 10, 21, 1, 86, 4, -53, 28, -29], "withholdReward": false, "trial_id": "mdp_trial_24", "block": "test", "trialIndex": 25, "score": 98.7, "costs": -4.3, "simulationMode": [null, null, null, null, null], "rewards": [1, 2, 4, 10, 86], "path": ["0", "0", "23", "24", "25", "26", "29"], "rt": [7454, 31, 15, 18, 44], "actions": ["left", "left", "left", "up", "left"], "actionTimes": [9083, 9626, 10163, 10714, 11274], "queries": {"click": {"state": {"target": ["32", "29"], "time": [2229, 5820]}, "edge": {"target": [], "time": []}}, "mouseover": {"state": {"target": ["31", "32", "29", "27", "17"], "time": [1788, 2121, 4356, 6241, 7442]}, "edge": {"target": [], "time": []}}, "mouseout": {"state": {"target": ["0", "31", "32", "29", "27", "17", "14", "22"], "time": [1721, 1838, 2471, 6175, 6292, 9912, 9994, 10478]}, "edge": {"target": [], "time": []}}}, "displayed_time": "15.74", "trialTime": 16067, "trial_type": "mouselab-mdp", "trial_index": 32, "time_elapsed": 668826, "internal_node_id": "0.0-4.0-1.0-23.0"}}, {"uniqueid": "w13532455:a42499792", "current_trial": 33, "dateTime": 1691142872520, "trialdata": {"revealed_states": [], "clicked_states": ["32"], "num_clicks_accrued": [0, 0, 0, 0, 0, 0, 0, 0, 0, 0, 0, 0, 0], "stateRewards": ["", 1, 1, -5, 8, -6, 45, 16, -6, -7, -22, -38, -1, -4, 8, -11, -16, 21, -45, -15, -59, -32, 42, -1, 3, 6, 11, -7, 34, -27, -8, 85, 43, -9], "withholdReward": false, "trial_id": "mdp_trial_25", "block": "test", "trialIndex": 26, "score": 40.85, "costs": -2.15, "simulationMode": [null, null, null, null, null], "rewards": [-1, 3, 6, -8, 43], "path": ["0", "0", "23", "24", "25", "30", "32"], "rt": [4243, 114, 56, 48, 106], "actions": ["left", "left", "left", "down", "down"], "actionTimes": [5378, 6002, 6578, 7138, 7762], "queries": {"click": {"state": {"target": ["32"], "time": [1868]}, "edge": {"target": [], "time": []}}, "mouseover": {"state": {"target": ["32", "28", "27"], "time": [1734, 2852, 2902]}, "edge": {"target": [], "time": []}}, "mouseout": {"state": {"target": ["0", "32", "28", "27", "24"], "time": [1335, 2151, 2869, 8140, 8240]}, "edge": {"target": [], "time": []}}}, "displayed_time": "15.32", "trialTime": 16331, "trial_type": "mouselab-mdp", "trial_index": 33, "time_elapsed": 685290, "internal_node_id": "0.0-4.0-1.0-24.0"}}, {"uniqueid": "w13532455:a42499792", "current_trial": 34, "dateTime": 1691142888264, "trialdata": {"revealed_states": [], "clicked_states": ["16", "11"], "num_clicks_accrued": [0, 0, 0, 0, 0, 0, 0, 0, 0, 0, 0, 0, 0], "stateRewards": ["", -2, -3, -7, 7, -54, -69, -4, -14, -77, 22, 40, -2, -1, 5, 6, -35, 50, -60, 10, -28, 75, 57, 1, -4, -2, 2, 68, 34, -18, 12, 3, -21, -43], "withholdReward": false, "trial_id": "mdp_trial_26", "block": "test", "trialIndex": 27, "score": 9.7, "costs": -4.3, "simulationMode": [null, null, null, null, null], "rewards": [-2, -3, -7, -14, 40], "path": ["0", "0", "1", "2", "3", "8", "11"], "rt": [7313, 98, 57, 58, 82], "actions": ["up", "up", "up", "left", "left"], "actionTimes": [8307, 8924, 9514, 10082, 10675], "queries": {"click": {"state": {"target": ["16", "11"], "time": [1648, 4865]}, "edge": {"target": [], "time": []}}, "mouseover": {"state": {"target": ["12", "15", "16", "2", "10", "11", "28", "32", "31"], "time": [1150, 1300, 1567, 3535, 3553, 3735, 5987, 6154, 6321]}, "edge": {"target": [], "time": []}}, "mouseout": {"state": {"target": ["19", "22", "0", "12", "15", "16", "2", "10", "11", "28", "32", "31"], "time": [415, 549, 766, 1183, 1317, 2001, 3552, 3568, 5186, 6004, 6254, 8689]}, "edge": {"target": [], "time": []}}}, "displayed_time": "15.14", "trialTime": 15611, "trial_type": "mouselab-mdp", "trial_index": 34, "time_elapsed": 701034, "internal_node_id": "0.0-4.0-1.0-25.0"}}, {"uniqueid": "w13532455:a42499792", "current_trial": 35, "dateTime": 1691142904232, "trialdata": {"revealed_states": [], "clicked_states": ["5"], "num_clicks_accrued": [0, 0, 0, 0, 0, 0, 0, 0, 0, 0, 0, 0, 0], "stateRewards": ["", 1, -3, -6, -5, 47, 80, -29, 11, -71, 10, -29, -2, 3, -6, 12, 2, -78, -6, 8, 34, -16, -5, -1, 3, 3, -13, 84, -36, -62, -3, -27, 66, 15], "withholdReward": false, "trial_id": "mdp_trial_27", "block": "test", "trialIndex": 28, "score": 31.85, "costs": -2.15, "simulationMode": [null, null, null, null, null], "rewards": [1, -3, -6, -5, 47], "path": ["0", "0", "1", "2", "3", "4", "5"], "rt": [4023, 67, 68, 36, 70], "actions": ["up", "up", "up", "right", "up"], "actionTimes": [5100, 5677, 6260, 6812, 7397], "queries": {"click": {"state": {"target": ["5"], "time": [1741]}, "edge": {"target": [], "time": []}}, "mouseover": {"state": {"target": ["7", "4", "5", "4", "7", "12", "0"], "time": [1321, 1388, 1604, 2006, 2038, 2122, 4991]}, "edge": {"target": [], "time": []}}, "mouseout": {"state": {"target": ["0", "7", "4", "5", "4", "7", "12", "0", "0"], "time": [903, 1354, 1471, 2005, 2022, 2054, 2155, 5040, 5241]}, "edge": {"target": [], "time": []}}}, "displayed_time": "15.24", "trialTime": 15836, "trial_type": "mouselab-mdp", "trial_index": 35, "time_elapsed": 717002, "internal_node_id": "0.0-4.0-1.0-26.0"}}, {"uniqueid": "w13532455:a42499792", "current_trial": 36, "dateTime": 1691142920160, "trialdata": {"revealed_states": [], "clicked_states": ["31"], "num_clicks_accrued": [0, 0, 0, 0, 0, 0, 0, 0, 0, 0, 0, 0, 0], "stateRewards": ["", -1, 2, 7, 8, 75, 67, -11, 6, 52, -17, 38, -1, 4, -8, 14, 74, -37, -17, -12, 52, 55, 71, -2, -1, -5, 2, 21, 6, -88, -14, 64, -61, -47], "withholdReward": false, "trial_id": "mdp_trial_28", "block": "test", "trialIndex": 29, "score": 39.85, "costs": -2.15, "simulationMode": [null, null, null, null, null], "rewards": [-2, -1, -5, -14, 64], "path": ["0", "0", "23", "24", "25", "30", "31"], "rt": [4074, 55, 65, 26, 99], "actions": ["left", "left", "left", "down", "right"], "actionTimes": [4879, 5455, 6031, 6574, 7182], "queries": {"click": {"state": {"target": ["31"], "time": [1445]}, "edge": {"target": [], "time": []}}, "mouseover": {"state": {"target": ["31"], "time": [1343]}, "edge": {"target": [], "time": []}}, "mouseout": {"state": {"target": ["0", "31"], "time": [943, 1524]}, "edge": {"target": [], "time": []}}}, "displayed_time": "14.90", "trialTime": 15791, "trial_type": "mouselab-mdp", "trial_index": 36, "time_elapsed": 732930, "internal_node_id": "0.0-4.0-1.0-27.0"}}, {"uniqueid": "w13532455:a42499792", "current_trial": 37, "dateTime": 1691142936871, "trialdata": {"revealed_states": [], "clicked_states": ["16", "33", "10"], "num_clicks_accrued": [0, 0, 0, 0, 0, 0, 0, 0, 0, 0, 0, 0, 0], "stateRewards": ["", 2, 1, -3, 7, 46, 11, -36, 16, 71, 5, 1, 2, -2, -8, -3, -4, 6, 55, 7, 68, -54, 2, 1, 1, 6, -6, 42, -4, -84, -11, -65, 63, 25], "withholdReward": false, "trial_id": "mdp_trial_29", "block": "test", "trialIndex": 30, "score": 15.55, "costs": -6.449999999999999, "simulationMode": [null, null, null, null, null], "rewards": [1, 1, 6, -11, 25], "path": ["0", "0", "23", "24", "25", "30", "33"], "rt": [11299, 97, 96, 31, 48], "actions": ["left", "left", "left", "down", "left"], "actionTimes": [12707, 13307, 13908, 14444, 15011], "queries": {"click": {"state": {"target": ["16", "33", "10"], "time": [2080, 5754, 9246]}, "edge": {"target": [], "time": []}}, "mouseover": {"state": {"target": ["12", "15", "16", "15", "13", "33", "32", "23", "10"], "time": [1601, 1800, 2017, 2401, 2484, 5587, 6054, 6621, 7254]}, "edge": {"target": [], "time": []}}, "mouseout": {"state": {"target": ["0", "0", "12", "15", "16", "15", "13", "33", "32", "23", "10", "0"], "time": [950, 1567, 1634, 1918, 2367, 2434, 2535, 6004, 6071, 6654, 9574, 15612]}, "edge": {"target": [], "time": []}}}, "displayed_time": "15.64", "trialTime": 16579, "trial_type": "mouselab-mdp", "trial_index": 37, "time_elapsed": 749641, "internal_node_id": "0.0-4.0-1.0-28.0"}}, {"uniqueid": "w13532455:a42499792", "current_trial": 38, "dateTime": 1691142960023, "trialdata": {"revealed_states": [], "clicked_states": ["9", "32", "22", "7", "29"], "num_clicks_accrued": [0, 0, 0, 0, 0, 0, 0, 0, 0, 0, 0, 0, 0], "stateRewards": ["", 1, -2, 4, 7, -43, -83, -60, -5, -86, -80, 83, -1, -2, 6, 11, -15, 21, 13, 9, 29, -49, 11, -1, 4, -6, -11, 87, 40, 63, -8, -39, -11, 62], "withholdReward": false, "trial_id": "mdp_trial_30", "block": "test", "trialIndex": 31, "score": 38.25, "costs": -10.75, "simulationMode": [null, null, null, null, null], "rewards": [-1, 4, -6, -11, 63], "path": ["0", "0", "23", "24", "25", "26", "29"], "rt": [17751, 75, 52, 525, 115], "actions": ["left", "left", "left", "up", "left"], "actionTimes": [18675, 19259, 19818, 20859, 21482], "queries": {"click": {"state": {"target": ["9", "32", "22", "7", "29"], "time": [1543, 5162, 8474, 11897, 15465]}, "edge": {"target": [], "time": []}}, "mouseover": {"state": {"target": ["1", "2", "3", "9", "10", "24", "31", "32", "22", "7", "29", "24", "22", "22", "22"], "time": [1084, 1118, 1184, 1468, 3836, 3920, 4036, 4370, 6088, 9707, 15178, 15896, 16263, 16563, 16781]}, "edge": {"target": [], "time": []}}, "mouseout": {"state": {"target": ["0", "1", "2", "3", "9", "10", "24", "31", "32", "22", "7", "29", "24", "22", "22", "22"], "time": [1034, 1101, 1150, 1267, 1801, 3853, 3987, 4136, 5504, 8723, 12309, 15829, 15930, 16446, 16663, 16864]}, "edge": {"target": [], "time": []}}}, "displayed_time": "22.00", "trialTime": 23018, "trial_type": "mouselab-mdp", "trial_index": 38, "time_elapsed": 772793, "internal_node_id": "0.0-4.0-1.0-29.0"}}, {"uniqueid": "w13532455:a42499792", "current_trial": 39, "dateTime": 1691142976120, "trialdata": {"revealed_states": [], "clicked_states": ["6", "32", "28"], "num_clicks_accrued": [0, 0, 0, 0, 0, 0, 0, 0, 0, 0, 0, 0, 0], "stateRewards": ["", -2, 2, 3, -7, -31, -33, 29, -8, -57, 50, -83, -1, -1, 5, 13, -23, -62, 25, 5, -66, -85, 14, 1, -2, -1, 16, 71, 33, -19, -14, 5, -43, 79], "withholdReward": false, "trial_id": "mdp_trial_31", "block": "test", "trialIndex": 32, "score": 40.55, "costs": -6.449999999999999, "simulationMode": [null, null, null, null, null], "rewards": [1, -2, -1, 16, 33], "path": ["0", "0", "23", "24", "25", "26", "28"], "rt": [11215, 150, 52, 60, 93], "actions": ["left", "left", "left", "up", "right"], "actionTimes": [11899, 12579, 13146, 13723, 14323], "queries": {"click": {"state": {"target": ["6", "32", "28"], "time": [1346, 5061, 8283]}, "edge": {"target": [], "time": []}}, "mouseover": {"state": {"target": ["7", "6", "12", "32", "23", "28", "10"], "time": [968, 1268, 1768, 5023, 6806, 7089, 10609]}, "edge": {"target": [], "time": []}}, "mouseout": {"state": {"target": ["0", "7", "6", "12", "32", "23", "28", "28", "10"], "time": [818, 1084, 1651, 1818, 5138, 6822, 8354, 8624, 10676]}, "edge": {"target": [], "time": []}}}, "displayed_time": "14.84", "trialTime": 15962, "trial_type": "mouselab-mdp", "trial_index": 39, "time_elapsed": 788890, "internal_node_id": "0.0-4.0-1.0-30.0"}}, {"uniqueid": "w13532455:a42499792", "current_trial": 40, "dateTime": 1691142992264, "trialdata": {"revealed_states": [], "clicked_states": ["11"], "num_clicks_accrued": [0, 0, 0, 0, 0, 0, 0, 0, 0, 0, 0, 0, 0], "stateRewards": ["", -1, 3, -5, -2, -13, -9, -34, -7, -81, 32, 35, -2, -2, 1, -14, -32, 81, 7, 4, 82, 56, -8, -1, 3, -8, 6, -24, -24, -53, 2, 38, 61, 54], "withholdReward": false, "trial_id": "mdp_trial_32", "block": "test", "trialIndex": 33, "score": 22.85, "costs": -2.15, "simulationMode": [null, null, null, null, null], "rewards": [-1, 3, -5, -7, 35], "path": ["0", "0", "1", "2", "3", "8", "11"], "rt": [4178, 65, 26, 20, 39], "actions": ["up", "up", "up", "left", "left"], "actionTimes": [5161, 5736, 6281, 6808, 7361], "queries": {"click": {"state": {"target": ["11"], "time": [1764]}, "edge": {"target": [], "time": []}}, "mouseover": {"state": {"target": ["10", "8", "11"], "time": [1166, 1300, 1624]}, "edge": {"target": [], "time": []}}, "mouseout": {"state": {"target": ["1", "10", "8", "11", "0"], "time": [682, 1200, 1417, 2034, 8473]}, "edge": {"target": [], "time": []}}}, "displayed_time": "15.12", "trialTime": 16009, "trial_type": "mouselab-mdp", "trial_index": 40, "time_elapsed": 805034, "internal_node_id": "0.0-4.0-1.0-31.0"}}, {"uniqueid": "w13532455:a42499792", "current_trial": 41, "dateTime": 1691143008352, "trialdata": {"revealed_states": [], "clicked_states": ["21", "18"], "num_clicks_accrued": [0, 0, 0, 0, 0, 0, 0, 0, 0, 0, 0, 0, 0], "stateRewards": ["", 1, -3, -4, -11, -56, 61, -47, -16, -28, -9, 69, -2, -3, -4, -8, 40, -86, 59, -4, 80, 27, 54, -1, 3, -1, 8, 67, 23, 50, 6, 83, -43, -29], "withholdReward": false, "trial_id": "mdp_trial_33", "block": "test", "trialIndex": 34, "score": 37.7, "costs": -4.3, "simulationMode": [null, null, null, null, null], "rewards": [-2, -3, -4, -8, 59], "path": ["0", "0", "12", "13", "14", "15", "18"], "rt": [7722, 70, 79, 31, 65], "actions": ["right", "right", "right", "up", "left"], "actionTimes": [8691, 9267, 9874, 10411, 10995], "queries": {"click": {"state": {"target": ["21", "18"], "time": [1575, 5259]}, "edge": {"target": [], "time": []}}, "mouseover": {"state": {"target": ["12", "22", "21", "13", "18", "13", "31", "24", "28"], "time": [1187, 1321, 1404, 4974, 5108, 5607, 6358, 6442, 6691]}, "edge": {"target": [], "time": []}}, "mouseout": {"state": {"target": ["0", "12", "22", "21", "13", "18", "13", "31", "24", "28"], "time": [837, 1254, 1354, 1822, 5023, 5591, 5624, 6408, 6492, 9044]}, "edge": {"target": [], "time": []}}}, "displayed_time": "15.12", "trialTime": 15954, "trial_type": "mouselab-mdp", "trial_index": 41, "time_elapsed": 821122, "internal_node_id": "0.0-4.0-1.0-32.0"}}, {"uniqueid": "w13532455:a42499792", "current_trial": 42, "dateTime": 1691143024592, "trialdata": {"revealed_states": [], "clicked_states": ["9", "29"], "num_clicks_accrued": [0, 0, 0, 0, 0, 0, 0, 0, 0, 0, 0, 0, 0], "stateRewards": ["", 2, -2, 7, -11, -76, -65, -23, 16, -58, 30, 81, 1, 2, 7, 14, 9, 55, -2, 6, 11, -15, 31, -1, -1, -3, 2, 15, 2, 46, 15, 18, 45, -34], "withholdReward": false, "trial_id": "mdp_trial_34", "block": "test", "trialIndex": 35, "score": 38.7, "costs": -4.3, "simulationMode": [null, null, null, null, null], "rewards": [-1, -1, -3, 2, 46], "path": ["0", "0", "23", "24", "25", "26", "29"], "rt": [7619, 123, 56, 33, 68], "actions": ["left", "left", "left", "up", "left"], "actionTimes": [9195, 9827, 10395, 10938, 11523], "queries": {"click": {"state": {"target": ["9", "29"], "time": [2108, 5838]}, "edge": {"target": [], "time": []}}, "mouseover": {"state": {"target": ["10", "8", "9", "11", "27", "26", "29", "30"], "time": [1830, 1913, 2047, 2463, 5383, 5450, 5749, 8352]}, "edge": {"target": [], "time": []}}, "mouseout": {"state": {"target": ["10", "8", "9", "11", "27", "26", "29", "30"], "time": [1880, 1963, 2396, 2563, 5416, 5599, 6050, 8385]}, "edge": {"target": [], "time": []}}}, "displayed_time": "15.72", "trialTime": 16107, "trial_type": "mouselab-mdp", "trial_index": 42, "time_elapsed": 837362, "internal_node_id": "0.0-4.0-1.0-33.0"}}, {"uniqueid": "w13532455:a42499792", "current_trial": 43, "dateTime": 1691143051337, "trialdata": {"revealed_states": [], "clicked_states": ["22", "18", "27", "6", "11", "31"], "num_clicks_accrued": [0, 0, 0, 0, 0, 0, 0, 0, 0, 0, 0, 0, 0], "stateRewards": ["", 1, 3, -2, 15, 51, 15, -19, 11, 67, -45, -73, 2, 4, -2, -13, 36, 9, -28, 10, -30, 31, 16, 1, 2, -1, -16, 14, -22, 36, -1, 88, -5, 45], "withholdReward": false, "trial_id": "mdp_trial_35", "block": "test", "trialIndex": 36, "score": 76.1, "costs": -12.9, "simulationMode": [null, null, null, null, null], "rewards": [1, 2, -1, -1, 88], "path": ["0", "0", "23", "24", "25", "30", "31"], "rt": [21634, 70, 70, 22, 72], "actions": ["left", "left", "left", "down", "right"], "actionTimes": [22683, 23258, 23858, 24394, 24977], "queries": {"click": {"state": {"target": ["22", "18", "27", "6", "11", "31"], "time": [1702, 5165, 8363, 12194, 15804, 19415]}, "edge": {"target": [], "time": []}}, "mouseover": {"state": {"target": ["22", "18", "12", "31", "25", "26", "27", "7", "6", "1", "11", "11", "24", "31", "32"], "time": [1618, 4988, 5539, 6506, 6656, 6789, 7290, 11777, 12111, 13561, 14146, 15679, 19082, 19200, 21185]}, "edge": {"target": [], "time": []}}, "mouseout": {"state": {"target": ["0", "22", "18", "12", "31", "25", "26", "27", "27", "7", "6", "1", "11", "11", "24", "31", "32", "32"], "time": [1218, 1724, 5505, 5572, 6572, 6689, 6890, 8434, 9959, 11810, 12561, 13628, 15580, 16147, 19117, 19800, 21201, 22969]}, "edge": {"target": [], "time": []}}}, "displayed_time": "25.49", "trialTime": 26610, "trial_type": "mouselab-mdp", "trial_index": 43, "time_elapsed": 864107, "internal_node_id": "0.0-4.0-1.0-34.0"}}, {"uniqueid": "w13532455:a42499792", "current_trial": 44, "dateTime": 1691143080312, "trialdata": {"revealed_states": [], "clicked_states": ["6", "28", "33", "17", "22", "32", "31"], "num_clicks_accrued": [0, 0, 0, 0, 0, 0, 0, 0, 0, 0, 0, 0, 0], "stateRewards": ["", 2, -3, -5, 5, 11, -9, -33, 6, 67, 6, -30, -1, -2, -6, 13, 55, 13, 72, -14, 75, 21, -66, -2, -4, 6, 15, -1, -35, 60, 2, 51, -73, 12], "withholdReward": false, "trial_id": "mdp_trial_36", "block": "test", "trialIndex": 37, "score": 37.95, "costs": -15.05, "simulationMode": [null, null, null, null, null], "rewards": [-2, -4, 6, 2, 51], "path": ["0", "0", "23", "24", "25", "30", "31"], "rt": [24345, 87, 65, 32, 82], "actions": ["left", "left", "left", "down", "right"], "actionTimes": [25108, 25723, 26300, 26852, 27452], "queries": {"click": {"state": {"target": ["6", "28", "33", "17", "22", "32", "31"], "time": [1693, 4901, 8090, 11328, 14978, 18161, 21552]}, "edge": {"target": [], "time": []}}, "mouseover": {"state": {"target": ["1", "2", "4", "6", "7", "1", "28", "24", "31", "30", "33", "19", "14", "15", "17", "14", "13", "22", "32", "31", "10", "11", "23"], "time": [965, 1032, 1315, 1582, 2099, 2966, 3383, 5352, 5585, 5635, 5985, 8770, 8887, 9004, 9138, 14428, 14693, 14910, 17344, 21448, 23049, 23316, 25084]}, "edge": {"target": [], "time": []}}, "mouseout": {"state": {"target": ["0", "1", "2", "4", "6", "7", "1", "28", "24", "31", "30", "33", "19", "14", "15", "17", "14", "13", "22", "32", "31", "10", "11", "23"], "time": [915, 998, 1081, 1465, 2016, 2265, 3033, 5302, 5402, 5618, 5652, 8404, 8837, 8954, 9071, 11756, 14526, 14792, 15056, 18346, 21631, 23166, 24951, 25118]}, "edge": {"target": [], "time": []}}}, "displayed_time": "27.97", "trialTime": 28844, "trial_type": "mouselab-mdp", "trial_index": 44, "time_elapsed": 893082, "internal_node_id": "0.0-4.0-1.0-35.0"}}, {"uniqueid": "w13532455:a42499792", "current_trial": 45, "dateTime": 1691143096345, "trialdata": {"revealed_states": [], "clicked_states": ["9"], "num_clicks_accrued": [0, 0, 0, 0, 0, 0, 0, 0, 0, 0, 0, 0, 0], "stateRewards": ["", -1, 1, -6, -1, 80, 23, 2, -11, 73, -81, 59, 1, 3, 5, -1, -26, 28, -3, 16, -59, -13, -50, -2, -2, 2, 15, -50, 86, 17, -4, 37, 35, 44], "withholdReward": false, "trial_id": "mdp_trial_37", "block": "test", "trialIndex": 38, "score": 53.85, "costs": -2.15, "simulationMode": [null, null, null, null, null], "rewards": [-1, 1, -6, -11, 73], "path": ["0", "0", "1", "2", "3", "8", "9"], "rt": [3984, 93, 85, 21, 48], "actions": ["up", "up", "up", "left", "up"], "actionTimes": [5186, 5811, 6402, 6939, 7498], "queries": {"click": {"state": {"target": ["9"], "time": [1849]}, "edge": {"target": [], "time": []}}, "mouseover": {"state": {"target": ["1", "8", "9", "11", "29"], "time": [1345, 1512, 1612, 3296, 4264]}, "edge": {"target": [], "time": []}}, "mouseout": {"state": {"target": ["0", "1", "8", "9", "9", "11", "29", "26", "24"], "time": [1278, 1362, 1578, 2296, 3247, 3397, 5165, 8451, 8551]}, "edge": {"target": [], "time": []}}}, "displayed_time": "15.42", "trialTime": 15900, "trial_type": "mouselab-mdp", "trial_index": 45, "time_elapsed": 909115, "internal_node_id": "0.0-4.0-1.0-36.0"}}, {"uniqueid": "w13532455:a42499792", "current_trial": 46, "dateTime": 1691143112256, "trialdata": {"revealed_states": [], "clicked_states": ["33"], "num_clicks_accrued": [0, 0, 0, 0, 0, 0, 0, 0, 0, 0, 0, 0, 0], "stateRewards": ["", -2, -4, -8, 8, 63, -50, -19, -7, -17, -31, 31, 1, 3, -5, 12, -35, -63, -29, -4, -17, -75, -79, -2, -3, -2, 8, -3, -85, 10, -2, -82, -82, 56], "withholdReward": false, "trial_id": "mdp_trial_38", "block": "test", "trialIndex": 39, "score": 44.85, "costs": -2.15, "simulationMode": [null, null, null, null, null], "rewards": [-2, -3, -2, -2, 56], "path": ["0", "0", "23", "24", "25", "30", "33"], "rt": [4145, 116, 97, 48, 73], "actions": ["left", "left", "left", "down", "left"], "actionTimes": [5128, 5761, 6392, 6960, 7552], "queries": {"click": {"state": {"target": ["33"], "time": [1663]}, "edge": {"target": [], "time": []}}, "mouseover": {"state": {"target": ["23", "24", "30", "33"], "time": [1106, 1156, 1306, 1506]}, "edge": {"target": [], "time": []}}, "mouseout": {"state": {"target": ["31", "0", "23", "24", "30", "33", "29", "25", "31"], "time": [573, 822, 1139, 1189, 1323, 2057, 5627, 5693, 5743]}, "edge": {"target": [], "time": []}}}, "displayed_time": "15.09", "trialTime": 15776, "trial_type": "mouselab-mdp", "trial_index": 46, "time_elapsed": 925026, "internal_node_id": "0.0-4.0-1.0-37.0"}}, {"uniqueid": "w13532455:a42499792", "current_trial": 47, "dateTime": 1691143130592, "trialdata": {"revealed_states": [], "clicked_states": ["6", "10", "31"], "num_clicks_accrued": [0, 0, 0, 0, 0, 0, 0, 0, 0, 0, 0, 0, 0], "stateRewards": ["", 1, 1, 6, -14, -40, 37, 16, -13, 33, -68, 49, 2, 4, 3, 6, 55, 27, 32, 10, -65, 20, -87, 2, 1, -6, -5, -42, 12, 29, -8, 16, 76, -33], "withholdReward": false, "trial_id": "mdp_trial_39", "block": "test", "trialIndex": 40, "score": 24.55, "costs": -6.449999999999999, "simulationMode": [null, null, null, null, null], "rewards": [1, 1, 6, -14, 37], "path": ["0", "0", "1", "2", "3", "4", "6"], "rt": [12987, 30, 80, 489, 175], "actions": ["up", "up", "up", "right", "right"], "actionTimes": [13670, 14214, 14798, 15806, 16494], "queries": {"click": {"state": {"target": ["6", "10", "31"], "time": [1225, 6445, 10294]}, "edge": {"target": [], "time": []}}, "mouseover": {"state": {"target": ["7", "6", "18", "18", "10", "11", "10", "23", "24", "31"], "time": [905, 1155, 4725, 4875, 5192, 5526, 6226, 9862, 10063, 10213]}, "edge": {"target": [], "time": []}}, "mouseout": {"state": {"target": ["7", "6", "18", "18", "10", "11", "10", "23", "24", "31", "31"], "time": [972, 1556, 4742, 4925, 5242, 5576, 6810, 9896, 10146, 10356, 10597]}, "edge": {"target": [], "time": []}}}, "displayed_time": "17.00", "trialTime": 18198, "trial_type": "mouselab-mdp", "trial_index": 47, "time_elapsed": 943362, "internal_node_id": "0.0-4.0-1.0-38.0"}}, {"uniqueid": "w13532455:a42499792", "current_trial": 48, "dateTime": 1691143150928, "trialdata": {"revealed_states": [], "clicked_states": ["5", "32", "18", "29"], "num_clicks_accrued": [0, 0, 0, 0, 0, 0, 0, 0, 0, 0, 0, 0, 0], "stateRewards": ["", 2, 2, 3, -15, 23, -14, 73, -7, -32, -20, -6, 1, 1, -5, -12, 73, 6, -84, 11, -81, -57, 13, -2, -1, -4, -8, -52, -58, 49, 13, 5, -41, -41], "withholdReward": false, "trial_id": "mdp_trial_40", "block": "test", "trialIndex": 41, "score": 25.4, "costs": -8.6, "simulationMode": [null, null, null, null, null], "rewards": [-2, -1, -4, -8, 49], "path": ["0", "0", "23", "24", "25", "26", "29"], "rt": [14736, 74, 68, 19, 61], "actions": ["left", "left", "left", "up", "left"], "actionTimes": [15603, 16195, 16787, 17323, 17899], "queries": {"click": {"state": {"target": ["5", "32", "18", "29"], "time": [1425, 4990, 8128, 11842]}, "edge": {"target": [], "time": []}}, "mouseover": {"state": {"target": ["7", "4", "5", "2", "23", "31", "32", "19", "14", "18", "13", "25", "29", "25", "31"], "time": [1089, 1190, 1306, 4342, 4592, 4676, 4825, 6160, 6244, 6443, 8429, 11498, 11731, 12182, 12232]}, "edge": {"target": [], "time": []}}, "mouseout": {"state": {"target": ["0", "7", "4", "5", "2", "23", "31", "32", "19", "14", "18", "13", "25", "29", "25", "31"], "time": [956, 1156, 1256, 4226, 4442, 4608, 4742, 5477, 6177, 6310, 8412, 8446, 11598, 12148, 12198, 12265]}, "edge": {"target": [], "time": []}}}, "displayed_time": "18.41", "trialTime": 20203, "trial_type": "mouselab-mdp", "trial_index": 48, "time_elapsed": 963698, "internal_node_id": "0.0-4.0-1.0-39.0"}}, {"uniqueid": "w13532455:a42499792", "current_trial": 49, "dateTime": 1691143183249, "trialdata": {"rt": 32318, "response": {"Q0": "$-16 to 16", "Q1": "$-16 to $16", "Q2": "$-88 to $88", "Q3": "The cost for clicking on nodes varied between nodes.", "Q4": "Very motivated"}, "question_order": [0, 1, 2, 3, 4], "trial_id": "final_quiz_control", "trial_type": "survey-multi-choice", "trial_index": 49, "time_elapsed": 996018, "internal_node_id": "0.0-4.0-2.0"}}, {"uniqueid": "w13532455:a42499792", "current_trial": 50, "dateTime": 1691143301671, "trialdata": {"rt": 118415, "response": {"Q0": "I only clicked on the end nodes, because that was the place that infuenced the outcome the most. I tried to find the highest number without spending too much on investigating.", "Q1": "No, I kept on clicking on the end-nodes.", "Q2": "Not at all, I started by clicking on the end-nodes and didn't change the strategy because I always got a positive result."}, "trial_id": "self_report_control", "trial_type": "survey-text", "trial_index": 50, "time_elapsed": 1114441, "internal_node_id": "0.0-4.0-3.0"}}, {"uniqueid": "w13532455:a42499792", "current_trial": 51, "dateTime": 1691143344557, "trialdata": {"rt": 42882, "response": {"Q0": "Strongly disagree", "Q1": "Neither disagree nor agree", "Q2": "Neither disagree nor agree", "Q3": "Strongly disagree", "Q4": "Neither disagree nor agree", "Q5": "Neither disagree nor agree", "Q6": "Neither disagree nor agree"}, "question_order": [0, 1, 2, 3, 4, 5, 6], "trial_id": "self_report_2", "trial_type": "survey-multi-choice", "trial_index": 51, "time_elapsed": 1157327, "internal_node_id": "0.0-4.0-4.0"}}, {"uniqueid": "w13532455:a42499792", "current_trial": 52, "dateTime": 1691143369674, "trialdata": {"rt": 25113, "response": {"gender": "male", "age": "29", "colorblind": "0", "effort": "0"}, "trial_type": "survey-html-form", "trial_index": 52, "time_elapsed": 1182444, "internal_node_id": "0.0-4.0-5.0"}}, {"uniqueid": "w13532455:a42499792", "current_trial": 53, "dateTime": 1691143429703, "trialdata": {"rt": 60025, "response": {"Q0": "No", "Q1": "No", "Q2": "I couldn't really answer all the questions because I only accidentaly clicked on the nodes of lower levels. I only went for the end-nodes."}, "trial_type": "survey-text", "trial_index": 53, "time_elapsed": 1242473, "internal_node_id": "0.0-4.0-6.0"}}, {"uniqueid": "w13532455:a42499792", "current_trial": 54, "dateTime": 1691143431974, "trialdata": {"rt": 2269, "stimulus": "Press 'Finish HIT' in order to reach the completion code. Once the data has been saved, you will receive the code either in this window or in the original browser window where you started the experiment.\n", "response": 0, "trial_type": "html-button-response", "trial_index": 54, "time_elapsed": 1244743, "internal_node_id": "0.0-5.0"}}, {"uniqueid": "w13532455:a42499792", "current_trial": 55, "dateTime": 1691143432977, "trialdata": {"success": true, "trial_type": "fullscreen", "trial_index": 55, "time_elapsed": 1245747, "internal_node_id": "0.0-6.0"}}], "questiondata": {"params": {"CODE": "C6DMOQA6", "MIN_TIME": 14, "inspectCost": 1, "startTime": "Fri Aug 04 2023 11:43:06 GMT+0200 (Midden-Europese zomertijd)", "bonusRate": 0.002, "variance": "1_2_4_8_44", "branching": "31123"}, "final_score": 1659.3}, "eventdata": [{"eventtype": "initialized", "value": null, "timestamp": 1691142186088, "interval": 0}, {"eventtype": "window_resize", "value": [1024, 768], "timestamp": 1691142186088, "interval": 0}, {"eventtype": "focus", "value": "on", "timestamp": 1691142186208, "interval": 120}, {"eventtype": "window_resize", "value": [1024, 768], "timestamp": 1691142186408, "interval": 200}, {"eventtype": "window_resize", "value": [2560, 1440], "timestamp": 1691142189876, "interval": 3468}, {"eventtype": "window_resize", "value": [1024, 768], "timestamp": 1691143432413, "interval": 1242537}], "useragent": "Mozilla/5.0 (Windows NT 10.0; Win64; x64; rv:109.0) Gecko/20100101 Firefox/116.0", "mode": "live", "id": "w13532455:a42499792", "status": "user data saved", "Beginhit": "2023-08-04 09:43:04.095183", "Beginexp": "2023-08-04 09:43:10.375779", "Endhit": "2023-08-04 10:03:53.623348", "psiturkStatus": 3, "browser": "<redacted>", "platform": "windows", "language": "nl"}