{"condition": 1, "counterbalance": 0, "assignmentId": "a23007213", "workerId": "w75229573", "hitId": "h67847550", "currenttrial": 54, "bonus": 0, "data": [{"uniqueid": "w75229573:a23007213", "current_trial": 0, "dateTime": 1693834824459, "trialdata": {"success": true, "trial_type": "fullscreen", "trial_index": 0, "time_elapsed": 4210, "internal_node_id": "0.0-0.0"}}, {"uniqueid": "w75229573:a23007213", "current_trial": 1, "dateTime": 1693834826826, "trialdata": {"view_history": [{"page_index": 0, "viewing_time": 2340}], "rt": 2341, "trial_id": "exp_instructions_misaligned", "trial_type": "instructions", "trial_index": 1, "time_elapsed": 6578, "internal_node_id": "0.0-1.0"}}, {"uniqueid": "w75229573:a23007213", "current_trial": 2, "dateTime": 1693834939098, "trialdata": {"view_history": [{"page_index": 0, "viewing_time": 40358}, {"page_index": 1, "viewing_time": 29371}, {"page_index": 2, "viewing_time": 13082}, {"page_index": 3, "viewing_time": 29458}], "rt": 112269, "trial_id": "mouselab_instructions_1_misaligned", "trial_type": "instructions", "trial_index": 2, "time_elapsed": 118850, "internal_node_id": "0.0-2.0-1.0"}}, {"uniqueid": "w75229573:a23007213", "current_trial": 3, "dateTime": 1693835052284, "trialdata": {"revealed_states": [], "clicked_states": ["1", "24", "13", "4", "8", "33", "30", "26", "27", "14", "15", "18", "19", "20", "5", "3", "9", "11", "29", "31", "32", "25", "28", "2", "7", "16", "6", "10", "12", "17", "21", "22", "23"], "num_clicks_accrued": [0, 0, 0, 0, 0, 0, 0, 0, 0, 0, 0, 0, 0], "stateRewards": ["", -10, 10, 10, 10, -10, 10, -10, 10, 10, 10, -10, 10, 10, 10, -10, -10, -10, -10, -10, -10, 10, 10, 10, 10, 10, 10, 10, 10, -10, 10, 10, 10, -10], "withholdReward": false, "trial_id": "practice_1", "block": "test", "trialIndex": 0, "score": -3, "costs": -16.5, "simulationMode": [null, null, null, null, null], "rewards": [10, 10, 10, -10, -10], "path": ["0", "0", "12", "13", "14", "15", "16"], "rt": [97339, 989, 574, 177, 367], "actions": ["right", "right", "right", "up", "up"], "actionTimes": [101062, 102557, 103638, 104325, 105198], "queries": {"click": {"state": {"target": ["1", "24", "13", "4", "8", "33", "30", "26", "27", "14", "15", "18", "19", "20", "5", "3", "9", "11", "29", "31", "32", "25", "28", "2", "7", "16", "6", "10", "12", "17", "21", "22", "23"], "time": [4944, 7905, 9596, 11463, 18743, 25037, 26064, 27242, 28299, 34045, 35405, 36853, 38481, 39845, 40958, 42995, 44833, 45856, 48082, 49832, 51407, 53880, 55101, 56294, 58322, 59633, 61277, 62790, 67141, 69511, 70987, 73485, 74607]}, "edge": {"target": [], "time": []}}, "mouseover": {"state": {"target": ["1", "2", "10", "24", "24", "23", "12", "13", "13", "18", "7", "2", "4", "3", "10", "28", "24", "23", "12", "13", "7", "4", "3", "8", "28", "25", "25", "28", "10", "26", "26", "28", "25", "30", "33", "30", "25", "26", "26", "27", "24", "30", "28", "12", "13", "14", "15", "15", "18", "13", "22", "19", "20", "5", "3", "9", "3", "9", "11", "27", "29", "25", "31", "32", "30", "25", "28", "10", "2", "7", "7", "16", "6", "4", "10", "1", "12", "15", "17", "17", "19", "21", "22", "23", "1", "1", "18", "14", "19", "19", "2", "12", "13", "14", "13", "12", "0", "23", "24", "25", "28", "10", "2", "7"], "time": [4588, 5496, 6522, 7057, 7442, 8726, 8797, 8847, 9220, 10347, 10559, 10723, 11158, 12610, 12672, 13039, 13320, 14481, 14622, 14914, 16922, 17206, 18075, 18359, 19588, 19630, 19840, 20597, 20688, 21136, 21466, 22593, 22723, 22971, 23206, 25661, 26614, 26664, 26810, 27842, 29590, 31088, 33238, 33474, 33573, 33608, 34668, 35106, 36377, 37611, 37691, 38091, 39507, 40378, 41597, 42424, 42705, 43569, 45560, 47240, 47707, 48577, 49457, 50542, 51834, 51994, 54662, 55629, 55708, 56865, 57909, 58928, 60658, 62149, 62392, 66524, 66624, 68099, 68278, 69207, 70366, 70626, 73059, 74113, 77057, 78521, 78591, 79110, 79275, 79409, 81999, 82092, 82426, 82713, 88346, 88479, 91523, 92007, 93755, 94946, 96726, 96809, 97699, 97730]}, "edge": {"target": [], "time": []}}, "mouseout": {"state": {"target": ["0", "1", "2", "10", "24", "24", "23", "12", "13", "13", "18", "7", "2", "4", "3", "10", "28", "24", "23", "12", "13", "7", "4", "3", "8", "28", "25", "25", "28", "10", "26", "26", "8", "28", "25", "30", "33", "30", "25", "26", "26", "27", "27", "26", "24", "30", "28", "12", "13", "14", "15", "15", "15", "18", "13", "22", "19", "20", "5", "3", "9", "3", "9", "11", "11", "27", "29", "25", "31", "32", "30", "25", "28", "10", "2", "7", "7", "16", "6", "4", "10", "1", "12", "15", "17", "17", "19", "21", "22", "23", "1", "1", "18", "14", "19", "19", "2", "12", "13", "14", "13", "12", "0", "23", "24", "25", "28", "10", "2", "7"], "time": [2642, 5452, 6484, 6995, 7289, 8108, 8748, 8823, 9173, 10293, 10462, 10582, 10838, 12582, 12625, 12688, 13066, 14455, 14503, 14692, 16820, 17077, 18031, 18106, 19525, 19611, 19651, 20570, 20611, 20952, 21349, 21494, 22551, 22609, 22906, 22990, 25543, 26575, 26647, 26682, 27776, 28521, 28772, 28810, 30715, 31900, 33260, 33544, 33590, 34640, 34750, 35608, 36293, 37571, 37650, 37712, 39456, 40056, 41410, 42374, 42655, 43206, 45329, 46074, 46412, 47289, 48528, 49361, 50379, 51815, 51859, 54446, 55579, 55651, 56831, 57664, 58533, 60267, 62111, 62194, 66352, 66560, 67783, 68153, 68379, 70196, 70388, 71895, 73979, 74816, 77934, 78554, 79067, 79159, 79291, 79492, 82034, 82393, 82642, 88331, 88425, 91049, 91642, 93151, 94848, 96674, 96743, 97669, 97715, 97766]}, "edge": {"target": [], "time": []}}}, "displayed_time": "105.71", "trialTime": 111551, "trial_type": "mouselab-mdp", "trial_index": 3, "time_elapsed": 232034, "internal_node_id": "0.0-2.0-2.0-0.0"}}, {"uniqueid": "w75229573:a23007213", "current_trial": 4, "dateTime": 1693835133148, "trialdata": {"revealed_states": [], "clicked_states": ["1", "7", "2", "8", "10", "11", "9", "26", "25", "24", "28", "29", "33", "30", "32", "31", "23", "3", "4", "5", "16", "6", "17", "15", "18", "12", "13", "14", "19", "22", "20", "21", "27"], "num_clicks_accrued": [0, 0, 0, 0, 0, 0, 0, 0, 0, 0, 0, 0, 0], "stateRewards": ["", 10, 10, -10, -10, -10, -10, 10, -10, -10, -10, -10, 10, -10, -10, 10, -10, 10, 10, 10, 10, 10, -10, -10, -10, -10, 10, -10, -10, 10, -10, 10, -10, -10], "withholdReward": false, "trial_id": "practice_2", "block": "test", "trialIndex": 1, "score": -23, "costs": -16.5, "simulationMode": [null, null, null, null, null], "rewards": [10, -10, -10, 10, -10], "path": ["0", "0", "12", "13", "14", "15", "16"], "rt": [58421, 2314, 426, 584, 2071], "actions": ["right", "right", "right", "up", "up"], "actionTimes": [67943, 70760, 71706, 72798, 75367], "queries": {"click": {"state": {"target": ["1", "7", "2", "8", "10", "11", "9", "26", "25", "24", "28", "29", "33", "30", "32", "31", "23", "3", "4", "5", "16", "6", "17", "15", "18", "12", "13", "14", "19", "22", "20", "21", "27"], "time": [11207, 12375, 13740, 15650, 17639, 20024, 21074, 22466, 23994, 26124, 28332, 30410, 31715, 33921, 35329, 36800, 38926, 40075, 41810, 43184, 44977, 46284, 47895, 49359, 50994, 52738, 54444, 56350, 57979, 59276, 60626, 62175, 63878]}, "edge": {"target": [], "time": []}}, "mouseover": {"state": {"target": ["1", "1", "2", "7", "2", "10", "2", "3", "8", "3", "10", "11", "27", "11", "9", "8", "26", "25", "25", "24", "24", "28", "28", "27", "29", "33", "32", "30", "32", "31", "23", "0", "23", "3", "3", "4", "5", "6", "16", "6", "7", "17", "15", "18", "18", "12", "13", "14", "19", "22", "22", "20", "21", "24", "29", "27", "10", "2", "15"], "time": [10327, 10928, 11704, 12076, 12907, 12977, 13468, 14173, 15059, 16105, 17252, 18306, 19401, 19656, 20606, 21792, 22120, 22826, 23695, 24589, 25822, 26626, 27943, 28901, 29987, 31389, 32327, 33219, 34375, 36529, 37273, 38276, 38570, 39426, 39722, 40625, 42260, 43659, 44555, 45188, 47174, 47605, 48322, 49897, 50720, 51534, 53276, 55062, 56952, 58498, 58976, 60371, 61172, 62986, 63048, 63456, 64579, 64623, 64745]}, "edge": {"target": [], "time": []}}, "mouseout": {"state": {"target": ["0", "0", "1", "1", "2", "7", "2", "10", "2", "3", "8", "3", "10", "11", "27", "11", "11", "9", "8", "26", "25", "25", "24", "24", "28", "28", "27", "29", "33", "33", "32", "30", "30", "32", "31", "23", "0", "23", "3", "3", "4", "5", "5", "6", "16", "6", "7", "16", "17", "15", "18", "18", "12", "13", "14", "19", "22", "22", "19", "20", "21", "24", "29", "27", "10", "2", "15"], "time": [8259, 9934, 10433, 11409, 12006, 12872, 12942, 13386, 14150, 14997, 16065, 17015, 18055, 19167, 19519, 20242, 20489, 21773, 21819, 22809, 22939, 24490, 25464, 26572, 27768, 28545, 29948, 31006, 31921, 32157, 33163, 34119, 34343, 35544, 37194, 38249, 38463, 39358, 39461, 40590, 42020, 43393, 43607, 44507, 45170, 46893, 47245, 47407, 48293, 49835, 49929, 51512, 53207, 54966, 56864, 58463, 58570, 59809, 59936, 61145, 62902, 63008, 63074, 64074, 64615, 64644, 65055]}, "edge": {"target": [], "time": []}}}, "displayed_time": "75.86", "trialTime": 80193, "trial_type": "mouselab-mdp", "trial_index": 4, "time_elapsed": 312899, "internal_node_id": "0.0-2.0-2.0-1.0"}}, {"uniqueid": "w75229573:a23007213", "current_trial": 5, "dateTime": 1693835143581, "trialdata": {"view_history": [{"page_index": 0, "viewing_time": 7734}, {"page_index": 1, "viewing_time": 2693}], "rt": 10428, "trial_id": "mouselab_instructions_2_misaligned", "trial_type": "instructions", "trial_index": 5, "time_elapsed": 323333, "internal_node_id": "0.0-2.0-3.0"}}, {"uniqueid": "w75229573:a23007213", "current_trial": 6, "dateTime": 1693835194784, "trialdata": {"rt": 51173, "response": {"Q0": "The cost for clicking on nodes may vary between nodes.", "Q1": "The better I perform the higher my bonus will be.", "Q2": "No, the amount of cash at each node of the web may be different each time.", "Q3": "To get the highest total score.", "Q4": "Only before moving the spider.", "Q5": "10 seconds"}, "question_order": [0, 1, 2, 3, 4, 5], "correct": {"Q0": "The cost for clicking on nodes may vary between nodes.", "Q1": "The better I perform the higher my bonus will be.", "Q2": "No, the amount of cash at each node of the web may be different each time.", "Q3": "To get the highest total score.", "Q4": "Only before moving the spider.", "Q5": "3 seconds"}, "trial_id": "mouselab_quiz_misaligned", "trial_type": "survey-multi-choice", "trial_index": 6, "time_elapsed": 374535, "internal_node_id": "0.0-2.0-4.0"}}, {"uniqueid": "w75229573:a23007213", "current_trial": 7, "dateTime": 1693835202571, "trialdata": {"success": true, "trial_type": "fullscreen", "trial_index": 7, "time_elapsed": 382323, "internal_node_id": "0.0-2.1-0.1-0.1"}}, {"uniqueid": "w75229573:a23007213", "current_trial": 8, "dateTime": 1693835297804, "trialdata": {"view_history": [{"page_index": 0, "viewing_time": 15956}, {"page_index": 1, "viewing_time": 16717}, {"page_index": 2, "viewing_time": 13627}, {"page_index": 3, "viewing_time": 48920}], "rt": 95220, "trial_id": "mouselab_instructions_1_misaligned", "trial_type": "instructions", "trial_index": 8, "time_elapsed": 477556, "internal_node_id": "0.0-2.1-1.1"}}, {"uniqueid": "w75229573:a23007213", "current_trial": 9, "dateTime": 1693835380475, "trialdata": {"revealed_states": [], "clicked_states": ["1", "2", "3", "10", "8", "11", "9", "5", "7", "4", "6", "16", "18", "15", "17", "14", "22", "13", "20", "19", "21", "12", "23", "24", "25", "28", "26", "29", "27", "30", "31", "32", "33"], "num_clicks_accrued": [0, 0, 0, 0, 0, 0, 0, 0, 0, 0, 0, 0, 0], "stateRewards": ["", -10, 10, 10, 10, -10, 10, -10, 10, 10, 10, -10, 10, 10, 10, -10, -10, -10, -10, -10, -10, 10, 10, 10, 10, 10, 10, 10, 10, -10, 10, 10, 10, -10], "withholdReward": false, "trial_id": "practice_1", "block": "test", "trialIndex": 2, "score": 37, "costs": -16.5, "simulationMode": [null, null, null, null, null], "rewards": [10, 10, 10, 10, 10], "path": ["0", "0", "23", "24", "25", "30", "32"], "rt": [65755, 1207, 882, 1259, 257], "actions": ["left", "left", "left", "down", "down"], "actionTimes": [69946, 71662, 73069, 74832, 75614], "queries": {"click": {"state": {"target": ["1", "2", "3", "10", "8", "11", "9", "5", "7", "4", "6", "16", "18", "15", "17", "14", "22", "13", "20", "19", "21", "12", "23", "24", "25", "28", "26", "29", "27", "30", "31", "32", "33"], "time": [5573, 7184, 8978, 10087, 12065, 13536, 15017, 17688, 19414, 21012, 23065, 25633, 27376, 29215, 30536, 32112, 33965, 35931, 37645, 39778, 41666, 43715, 44800, 46452, 47922, 49720, 51226, 52998, 54270, 58037, 59072, 60864, 62403]}, "edge": {"target": [], "time": []}}, "mouseover": {"state": {"target": ["1", "1", "1", "2", "3", "10", "8", "11", "9", "2", "10", "8", "5", "4", "7", "6", "4", "6", "6", "16", "16", "18", "15", "15", "17", "14", "13", "22", "13", "13", "19", "20", "19", "21", "19", "21", "22", "12", "12", "23", "24", "25", "28", "26", "29", "27", "28", "23", "24", "26", "26", "25", "30", "31", "32", "33", "25", "7"], "time": [4352, 4807, 5012, 6236, 7857, 9773, 10616, 12960, 14452, 15782, 16302, 16629, 17261, 18199, 19145, 20003, 20780, 21584, 22670, 23752, 25374, 26261, 27863, 28886, 29765, 31846, 32602, 33528, 34498, 35606, 36536, 37367, 38196, 39163, 39470, 40435, 42228, 42877, 43452, 44488, 45881, 47286, 48841, 50420, 52415, 53885, 56248, 56588, 56635, 57032, 57465, 57547, 57715, 58854, 60587, 61601, 64381, 67590]}, "edge": {"target": [], "time": []}}, "mouseout": {"state": {"target": ["16", "1", "1", "1", "2", "3", "10", "8", "11", "9", "2", "10", "8", "9", "5", "4", "7", "6", "4", "6", "6", "6", "16", "16", "18", "15", "15", "17", "14", "13", "22", "13", "13", "19", "20", "19", "21", "19", "21", "22", "12", "12", "23", "12", "24", "25", "28", "26", "29", "27", "28", "23", "24", "26", "27", "26", "25", "30", "30", "31", "32", "33", "25", "7", "20"], "time": [2767, 4387, 4841, 5783, 7819, 9496, 10294, 12892, 13721, 15649, 16259, 16526, 16883, 17165, 18148, 19049, 19866, 20692, 21533, 22307, 23264, 23714, 24673, 26118, 27817, 28699, 29704, 31219, 32320, 33450, 34433, 35298, 36501, 37333, 38145, 39085, 39429, 40386, 42173, 42848, 42897, 43916, 45006, 45655, 47167, 48639, 50368, 52216, 53735, 56114, 56283, 56616, 56651, 57080, 57444, 57500, 57613, 58239, 58731, 59685, 61469, 64311, 64465, 67607, 81125]}, "edge": {"target": [], "time": []}}}, "displayed_time": "76.12", "trialTime": 81864, "trial_type": "mouselab-mdp", "trial_index": 9, "time_elapsed": 560225, "internal_node_id": "0.0-2.1-2.1-0.1"}}, {"uniqueid": "w75229573:a23007213", "current_trial": 10, "dateTime": 1693835456900, "trialdata": {"revealed_states": [], "clicked_states": ["1", "2", "3", "8", "10", "9", "11", "7", "4", "5", "6", "12", "13", "14", "15", "18", "17", "16", "19", "22", "20", "21", "23", "24", "25", "30", "32", "33", "31", "26", "28", "27", "29"], "num_clicks_accrued": [0, 0, 0, 0, 0, 0, 0, 0, 0, 0, 0, 0, 0], "stateRewards": ["", 10, 10, -10, -10, -10, -10, 10, -10, -10, -10, -10, 10, -10, -10, 10, -10, 10, 10, 10, 10, 10, -10, -10, -10, -10, 10, -10, -10, 10, -10, 10, -10, -10], "withholdReward": false, "trial_id": "practice_2", "block": "test", "trialIndex": 3, "score": -3, "costs": -16.5, "simulationMode": [null, null, null, null, null], "rewards": [10, -10, -10, 10, 10], "path": ["0", "0", "12", "13", "14", "15", "18"], "rt": [63580, 810, 520, 579, 422], "actions": ["right", "right", "right", "up", "left"], "actionTimes": [67439, 68763, 69808, 70898, 71825], "queries": {"click": {"state": {"target": ["1", "2", "3", "8", "10", "9", "11", "7", "4", "5", "6", "12", "13", "14", "15", "18", "17", "16", "19", "22", "20", "21", "23", "24", "25", "30", "32", "33", "31", "26", "28", "27", "29"], "time": [7074, 9169, 10225, 11716, 13278, 14754, 15823, 18051, 19589, 21192, 22769, 25165, 26696, 28223, 29724, 31198, 32731, 34990, 39330, 40772, 42532, 44530, 50379, 52156, 53272, 54917, 56085, 57631, 58965, 60757, 62229, 63488, 64875]}, "edge": {"target": [], "time": []}}, "mouseover": {"state": {"target": ["1", "2", "1", "2", "3", "8", "10", "9", "11", "8", "2", "7", "7", "4", "5", "6", "12", "13", "14", "15", "18", "17", "16", "18", "13", "15", "18", "19", "22", "20", "21", "22", "12", "14", "19", "19", "12", "12", "13", "12", "0", "23", "24", "25", "30", "32", "33", "31", "26", "28", "27", "29", "24"], "time": [5649, 6281, 6763, 7636, 9757, 11072, 12655, 14417, 15463, 16815, 17301, 17507, 17704, 18835, 20602, 22256, 24519, 26121, 27809, 29319, 30710, 32221, 34117, 36718, 37052, 37469, 37902, 38869, 40240, 42167, 44071, 46735, 47151, 47730, 47813, 48380, 48597, 48799, 48865, 49631, 49657, 50093, 51049, 52852, 54532, 55749, 57255, 58520, 60356, 61950, 63121, 64363, 65878]}, "edge": {"target": [], "time": []}}, "mouseout": {"state": {"target": ["21", "15", "18", "1", "2", "1", "2", "3", "8", "10", "8", "9", "11", "8", "11", "2", "7", "7", "4", "5", "6", "6", "12", "13", "14", "15", "18", "15", "17", "16", "18", "13", "15", "18", "19", "22", "19", "20", "21", "22", "12", "14", "19", "21", "19", "12", "12", "13", "12", "0", "23", "24", "25", "30", "32", "33", "30", "31", "26", "28", "27", "29", "24", "23", "7", "14", "22"], "time": [1023, 2449, 2974, 5674, 6399, 7270, 9707, 10987, 12538, 14103, 14316, 15385, 16719, 16919, 17136, 17402, 17622, 18689, 20340, 22093, 22965, 23770, 26038, 27640, 29138, 30581, 31872, 32058, 33852, 36651, 36736, 37100, 37854, 38702, 40138, 41739, 42049, 43987, 46661, 46851, 47201, 47765, 47865, 48323, 48464, 48615, 48835, 49614, 49652, 49695, 50990, 52770, 54463, 55692, 56902, 58220, 58421, 59901, 61867, 62988, 64196, 65765, 65906, 72906, 72949, 74599, 75049]}, "edge": {"target": [], "time": []}}}, "displayed_time": "72.32", "trialTime": 75570, "trial_type": "mouselab-mdp", "trial_index": 10, "time_elapsed": 636651, "internal_node_id": "0.0-2.1-2.1-1.1"}}, {"uniqueid": "w75229573:a23007213", "current_trial": 11, "dateTime": 1693835502611, "trialdata": {"view_history": [{"page_index": 0, "viewing_time": 42399}, {"page_index": 1, "viewing_time": 3290}], "rt": 45690, "trial_id": "mouselab_instructions_2_misaligned", "trial_type": "instructions", "trial_index": 11, "time_elapsed": 682362, "internal_node_id": "0.0-2.1-3.1"}}, {"uniqueid": "w75229573:a23007213", "current_trial": 12, "dateTime": 1693835824509, "trialdata": {"rt": 321875, "response": {"Q0": "The cost for clicking on nodes may vary between nodes.", "Q1": "The better I perform the higher my bonus will be.", "Q2": "No, the amount of cash at each node of the web may be different each time.", "Q3": "To get the highest total score.", "Q4": "Only before moving the spider.", "Q5": "3 seconds"}, "question_order": [0, 1, 2, 3, 4, 5], "correct": {"Q0": "The cost for clicking on nodes may vary between nodes.", "Q1": "The better I perform the higher my bonus will be.", "Q2": "No, the amount of cash at each node of the web may be different each time.", "Q3": "To get the highest total score.", "Q4": "Only before moving the spider.", "Q5": "3 seconds"}, "trial_id": "mouselab_quiz_misaligned", "trial_type": "survey-multi-choice", "trial_index": 12, "time_elapsed": 1004260, "internal_node_id": "0.0-2.1-4.1"}}, {"uniqueid": "w75229573:a23007213", "current_trial": 13, "dateTime": 1693835835220, "trialdata": {"rt": 10676, "response": {"Q0": "No"}, "question_order": [0], "trial_id": "repeat_check", "trial_type": "survey-multi-choice", "trial_index": 13, "time_elapsed": 1014971, "internal_node_id": "0.0-4.0-0.0"}}, {"uniqueid": "w75229573:a23007213", "current_trial": 14, "dateTime": 1693835852636, "trialdata": {"rt": 17392, "stimulus": "\n<h1> Get ready to start the game! </h1>\n\nThank you for reading the instructions. Get ready start with the 40 rounds of this game.\n<br><br>\nIf you need to take a break, feel free to take one after the end of a round, before continuing to the next one.\n<br><br>\nRemember, the more money the spider gets, the bigger your bonus will be!\n<br><br>\n<div style='text-align: center;'>Press <code>space</code> to begin.</div>\n\n<br><br>\n(If, at any point, the <code>space</code> key does not take you to the next page, click once on the text and try again.)", "response": " ", "trial_id": "mdp_ready", "trial_type": "html-keyboard-response", "trial_index": 14, "time_elapsed": 1032388, "internal_node_id": "0.0-6.0-0.0"}}, {"uniqueid": "w75229573:a23007213", "current_trial": 15, "dateTime": 1693835906923, "trialdata": {"revealed_states": [], "clicked_states": ["23", "24", "25", "26", "28", "27", "29", "12", "13", "14", "15", "18", "1", "2", "3"], "num_clicks_accrued": [0, 0, 0, 0, 0, 0, 0, 0, 0, 0, 0, 0, 0], "stateRewards": ["", -1, 3, 1, -11, -22, -36, 19, -5, -70, -52, 50, -2, -4, 4, -2, -41, -83, 29, -2, 22, 10, -6, -2, 3, -2, 14, 54, 44, 77, -9, -65, -37, -40], "withholdReward": false, "trial_id": "mdp_trial_1", "block": "test", "trialIndex": 4, "score": -86.85, "costs": -14.85, "simulationMode": [null, null, null, null, null], "rewards": [-1, 3, 1, -5, -70], "path": ["0", "0", "1", "2", "3", "8", "9"], "rt": [25158, 359, 271, 9929, 1175], "actions": ["up", "up", "up", "left", "up"], "actionTimes": [29079, 29960, 30740, 41165, 42844], "queries": {"click": {"state": {"target": ["23", "24", "25", "26", "28", "27", "29", "12", "13", "14", "15", "18", "1", "2", "3"], "time": [4997, 5854, 6736, 7536, 8222, 11619, 14628, 17439, 18986, 20483, 21418, 22163, 25400, 26461, 27353]}, "edge": {"target": [], "time": []}}, "mouseover": {"state": {"target": ["23", "24", "25", "26", "28", "27", "27", "27", "29", "26", "1", "12", "13", "14", "14", "15", "18", "1", "1", "2", "3"], "time": [4737, 5529, 6420, 7238, 8009, 8731, 10240, 11278, 12270, 15226, 15273, 15672, 18748, 19528, 20194, 21073, 21885, 22737, 23167, 26143, 27096]}, "edge": {"target": [], "time": []}}, "mouseout": {"state": {"target": ["3", "6", "12", "0", "23", "24", "25", "26", "28", "27", "27", "27", "29", "26", "1", "12", "13", "14", "14", "15", "18", "1", "1", "2", "3", "4", "4", "14", "7", "8", "5"], "time": [1206, 1240, 3137, 4698, 5439, 6388, 7187, 7753, 8442, 8784, 11099, 12154, 15220, 15252, 15296, 18054, 19505, 19610, 21033, 21638, 22380, 22770, 26100, 27044, 32556, 32613, 35510, 38450, 40162, 43944, 44049]}, "edge": {"target": [], "time": []}}}, "displayed_time": "43.35", "trialTime": 53331, "trial_type": "mouselab-mdp", "trial_index": 15, "time_elapsed": 1086674, "internal_node_id": "0.0-6.0-1.0-0.0"}}, {"uniqueid": "w75229573:a23007213", "current_trial": 16, "dateTime": 1693835926465, "trialdata": {"revealed_states": [], "clicked_states": ["1"], "num_clicks_accrued": [0, 0, 0, 0, 0, 0, 0, 0, 0, 0, 0, 0, 0], "stateRewards": ["", 2, -1, 3, -12, -83, 6, -33, 9, 28, 24, -50, -2, -1, -2, -5, -87, 37, 82, 12, 80, -5, 10, -2, -3, -6, 9, 22, -1, 16, 9, 77, -62, 58], "withholdReward": false, "trial_id": "mdp_trial_2", "block": "test", "trialIndex": 5, "score": -1.75, "costs": 0.25, "simulationMode": [null, null, null, null, null], "rewards": [2, -1, 3, -12, 6], "path": ["0", "0", "1", "2", "3", "4", "6"], "rt": [2474, 226, 2408, 36, 110], "actions": ["up", "up", "up", "right", "right"], "actionTimes": [5612, 6349, 9279, 9839, 10464], "queries": {"click": {"state": {"target": ["1"], "time": [4184]}, "edge": {"target": [], "time": []}}, "mouseover": {"state": {"target": ["1"], "time": [3868]}, "edge": {"target": [], "time": []}}, "mouseout": {"state": {"target": ["0", "1", "14"], "time": [2347, 12091, 14061]}, "edge": {"target": [], "time": []}}}, "displayed_time": "17.14", "trialTime": 18557, "trial_type": "mouselab-mdp", "trial_index": 16, "time_elapsed": 1106214, "internal_node_id": "0.0-6.0-1.0-1.0"}}, {"uniqueid": "w75229573:a23007213", "current_trial": 17, "dateTime": 1693836112576, "trialdata": {"revealed_states": [], "clicked_states": [], "num_clicks_accrued": [0, 0, 0, 0, 0, 0, 0, 0, 0, 0, 0, 0, 0], "stateRewards": ["", -2, 3, -1, -9, 44, 48, -37, -3, 71, -39, 87, -1, 3, -4, 4, -21, 59, -15, -8, -1, 28, -38, 2, 4, 4, 8, -85, -72, -63, 14, 58, 63, -46], "withholdReward": false, "trial_id": "mdp_trial_3", "block": "test", "trialIndex": 6, "score": 18, "costs": 0, "simulationMode": [null, null, null, null, null], "rewards": [-1, 3, -4, -8, 28], "path": ["0", "0", "12", "13", "14", "19", "21"], "rt": [1495, 193, 243, 264, 200], "actions": ["right", "right", "right", "down", "down"], "actionTimes": [169607, 170303, 171054, 171840, 172561], "queries": {"click": {"state": {"target": [], "time": []}, "edge": {"target": [], "time": []}}, "mouseover": {"state": {"target": [], "time": []}, "edge": {"target": [], "time": []}}, "mouseout": {"state": {"target": ["13", "12", "0", "15", "17", "17", "15", "18", "13", "19"], "time": [167205, 167356, 176351, 176394, 176413, 182378, 182412, 182490, 182625, 183393]}, "edge": {"target": [], "time": []}}}, "displayed_time": "182.12", "trialTime": 185130, "trial_type": "mouselab-mdp", "trial_index": 17, "time_elapsed": 1292326, "internal_node_id": "0.0-6.0-1.0-2.0"}}, {"uniqueid": "w75229573:a23007213", "current_trial": 18, "dateTime": 1693836145464, "trialdata": {"revealed_states": [], "clicked_states": [], "num_clicks_accrued": [0, 0, 0, 0, 0, 0, 0, 0, 0, 0, 0, 0, 0], "stateRewards": ["", 1, 4, 5, -5, 58, -80, 75, 6, 25, -39, 46, 2, -2, 4, 2, 59, 31, -22, -12, -61, 15, 72, 1, -2, -7, 8, 77, 76, -23, -7, 71, -15, -3], "withholdReward": false, "trial_id": "mdp_trial_4", "block": "test", "trialIndex": 7, "score": 62, "costs": 0, "simulationMode": [null, null, null, null, null], "rewards": [1, 4, 5, 6, 46], "path": ["0", "0", "1", "2", "3", "8", "11"], "rt": [1063, 360, 148, 170, 108], "actions": ["up", "up", "up", "left", "left"], "actionTimes": [3827, 4690, 5356, 6052, 6673], "queries": {"click": {"state": {"target": [], "time": []}, "edge": {"target": [], "time": []}}, "mouseover": {"state": {"target": [], "time": []}, "edge": {"target": [], "time": []}}, "mouseout": {"state": {"target": ["33", "24", "23", "0"], "time": [1301, 1358, 1392, 9291]}, "edge": {"target": [], "time": []}}}, "displayed_time": "16.77", "trialTime": 31901, "trial_type": "mouselab-mdp", "trial_index": 18, "time_elapsed": 1325214, "internal_node_id": "0.0-6.0-1.0-3.0"}}, {"uniqueid": "w75229573:a23007213", "current_trial": 19, "dateTime": 1693836186110, "trialdata": {"revealed_states": [], "clicked_states": [], "num_clicks_accrued": [0, 0, 0, 0, 0, 0, 0, 0, 0, 0, 0, 0, 0], "stateRewards": ["", 2, -1, -1, 7, 11, -40, -22, -2, 69, 37, 8, -2, 4, -8, -12, -2, -72, -3, -12, 17, 63, 12, 1, 3, -7, 6, 25, 61, 61, -9, 28, -17, 27], "withholdReward": false, "trial_id": "mdp_trial_5", "block": "test", "trialIndex": 8, "score": -29, "costs": 0, "simulationMode": [null, null, null, null, null], "rewards": [1, 3, -7, -9, -17], "path": ["0", "0", "23", "24", "25", "30", "32"], "rt": [1126, 104, 110, 156, 38], "actions": ["left", "left", "left", "down", "down"], "actionTimes": [6113, 6737, 7343, 8008, 8582], "queries": {"click": {"state": {"target": [], "time": []}, "edge": {"target": [], "time": []}}, "mouseover": {"state": {"target": [], "time": []}, "edge": {"target": [], "time": []}}, "mouseout": {"state": {"target": ["0", "12", "21"], "time": [9838, 9861, 39038]}, "edge": {"target": [], "time": []}}}, "displayed_time": "18.99", "trialTime": 39600, "trial_type": "mouselab-mdp", "trial_index": 19, "time_elapsed": 1365859, "internal_node_id": "0.0-6.0-1.0-4.0"}}, {"uniqueid": "w75229573:a23007213", "current_trial": 20, "dateTime": 1693836205354, "trialdata": {"revealed_states": [], "clicked_states": [], "num_clicks_accrued": [0, 0, 0, 0, 0, 0, 0, 0, 0, 0, 0, 0, 0], "stateRewards": ["", 2, 4, -3, 16, -58, 30, -35, 11, -60, 47, 27, -2, -1, -7, -16, 23, -70, 68, -10, -65, -43, -34, -2, 1, 7, 9, -63, 34, -31, -8, -12, -86, 59], "withholdReward": false, "trial_id": "mdp_trial_6", "block": "test", "trialIndex": 9, "score": 49, "costs": 0, "simulationMode": [null, null, null, null, null], "rewards": [2, 4, -3, 16, 30], "path": ["0", "0", "1", "2", "3", "4", "6"], "rt": [1136, 18, 189, 389, 12], "actions": ["up", "up", "up", "right", "right"], "actionTimes": [3568, 4120, 4822, 5706, 6260], "queries": {"click": {"state": {"target": [], "time": []}, "edge": {"target": [], "time": []}}, "mouseover": {"state": {"target": [], "time": []}, "edge": {"target": [], "time": []}}, "mouseout": {"state": {"target": ["0", "18", "15", "17"], "time": [7824, 7896, 7934, 7966]}, "edge": {"target": [], "time": []}}}, "displayed_time": "16.44", "trialTime": 18162, "trial_type": "mouselab-mdp", "trial_index": 20, "time_elapsed": 1385105, "internal_node_id": "0.0-6.0-1.0-5.0"}}, {"uniqueid": "w75229573:a23007213", "current_trial": 21, "dateTime": 1693836225402, "trialdata": {"revealed_states": [], "clicked_states": [], "num_clicks_accrued": [0, 0, 0, 0, 0, 0, 0, 0, 0, 0, 0, 0, 0], "stateRewards": ["", 2, 4, -6, -13, -75, -81, 30, 7, 5, 59, -65, -1, -1, 7, 14, -38, 36, -41, 1, -54, -5, 64, 2, -1, 5, 6, -19, 79, 11, 16, -33, -50, 58], "withholdReward": false, "trial_id": "mdp_trial_7", "block": "test", "trialIndex": 10, "score": -19, "costs": 0, "simulationMode": [null, null, null, null, null], "rewards": [-1, -1, 7, 14, -38], "path": ["0", "0", "12", "13", "14", "15", "16"], "rt": [1807, 18, 76, 668, 19], "actions": ["right", "right", "right", "up", "up"], "actionTimes": [5403, 5946, 6536, 7711, 8229], "queries": {"click": {"state": {"target": [], "time": []}, "edge": {"target": [], "time": []}}, "mouseover": {"state": {"target": [], "time": []}, "edge": {"target": [], "time": []}}, "mouseout": {"state": {"target": ["19", "22", "23", "0", "0", "18", "13"], "time": [69, 84, 2071, 2140, 4466, 10236, 18273]}, "edge": {"target": [], "time": []}}}, "displayed_time": "17.60", "trialTime": 18733, "trial_type": "mouselab-mdp", "trial_index": 21, "time_elapsed": 1405153, "internal_node_id": "0.0-6.0-1.0-6.0"}}, {"uniqueid": "w75229573:a23007213", "current_trial": 22, "dateTime": 1693836244530, "trialdata": {"revealed_states": [], "clicked_states": [], "num_clicks_accrued": [0, 0, 0, 0, 0, 0, 0, 0, 0, 0, 0, 0, 0], "stateRewards": ["", -2, 2, -2, -7, -50, -62, -45, 7, 36, -24, -72, -1, -1, 8, -1, -67, 20, -52, 2, 35, -50, 80, -1, 1, 6, -6, -70, 6, 88, 8, -47, 74, -19], "withholdReward": false, "trial_id": "mdp_trial_8", "block": "test", "trialIndex": 11, "score": 88, "costs": 0, "simulationMode": [null, null, null, null, null], "rewards": [-1, 1, 6, 8, 74], "path": ["0", "0", "23", "24", "25", "30", "32"], "rt": [3383, 64, 228, 198, 85], "actions": ["left", "left", "left", "down", "down"], "actionTimes": [5650, 6235, 6965, 7670, 8257], "queries": {"click": {"state": {"target": [], "time": []}, "edge": {"target": [], "time": []}}, "mouseover": {"state": {"target": ["23"], "time": [4453]}, "edge": {"target": [], "time": []}}, "mouseout": {"state": {"target": ["0", "23", "23", "0", "13"], "time": [1240, 4484, 9604, 9649, 9669]}, "edge": {"target": [], "time": []}}}, "displayed_time": "16.27", "trialTime": 17855, "trial_type": "mouselab-mdp", "trial_index": 22, "time_elapsed": 1424281, "internal_node_id": "0.0-6.0-1.0-7.0"}}, {"uniqueid": "w75229573:a23007213", "current_trial": 23, "dateTime": 1693836267978, "trialdata": {"revealed_states": [], "clicked_states": [], "num_clicks_accrued": [0, 0, 0, 0, 0, 0, 0, 0, 0, 0, 0, 0, 0], "stateRewards": ["", 1, 1, 5, 6, -29, -7, 3, -16, 9, -46, 65, -1, 4, -1, -16, -63, -77, -87, 8, 80, -50, 43, -1, -1, -5, 5, -38, -71, -62, 9, 81, -50, -52], "withholdReward": false, "trial_id": "mdp_trial_9", "block": "test", "trialIndex": 12, "score": -55, "costs": 0, "simulationMode": [null, null, null, null, null], "rewards": [1, 1, 5, -16, -46], "path": ["0", "0", "1", "2", "3", "8", "10"], "rt": [1275, 577, 122, 829, 596], "actions": ["up", "up", "up", "left", "down"], "actionTimes": [4366, 5460, 6086, 7410, 8512], "queries": {"click": {"state": {"target": [], "time": []}, "edge": {"target": [], "time": []}}, "mouseover": {"state": {"target": [], "time": []}, "edge": {"target": [], "time": []}}, "mouseout": {"state": {"target": ["20", "19", "22", "0", "12", "0", "18", "15"], "time": [699, 745, 767, 1375, 1710, 9837, 9896, 9928]}, "edge": {"target": [], "time": []}}}, "displayed_time": "17.10", "trialTime": 21829, "trial_type": "mouselab-mdp", "trial_index": 23, "time_elapsed": 1447728, "internal_node_id": "0.0-6.0-1.0-8.0"}}, {"uniqueid": "w75229573:a23007213", "current_trial": 24, "dateTime": 1693836311303, "trialdata": {"revealed_states": [], "clicked_states": [], "num_clicks_accrued": [0, 0, 0, 0, 0, 0, 0, 0, 0, 0, 0, 0, 0], "stateRewards": ["", -1, 4, 3, 12, -27, 34, -33, 3, -63, 1, 6, 2, 2, -6, -11, -77, -85, 68, -6, 51, 81, -60, -2, -2, 1, 15, 20, 15, 68, -10, -14, 6, -4], "withholdReward": false, "trial_id": "mdp_trial_10", "block": "test", "trialIndex": 13, "score": -17, "costs": 0, "simulationMode": [null, null, null, null, null], "rewards": [-2, -2, 1, -10, -4], "path": ["0", "0", "23", "24", "25", "30", "33"], "rt": [991, 148, 189, 125, 1125], "actions": ["left", "left", "left", "down", "left"], "actionTimes": [3217, 3884, 4596, 5227, 6864], "queries": {"click": {"state": {"target": [], "time": []}, "edge": {"target": [], "time": []}}, "mouseover": {"state": {"target": [], "time": []}, "edge": {"target": [], "time": []}}, "mouseout": {"state": {"target": ["0"], "time": [1045]}, "edge": {"target": [], "time": []}}}, "displayed_time": "16.23", "trialTime": 41921, "trial_type": "mouselab-mdp", "trial_index": 24, "time_elapsed": 1491054, "internal_node_id": "0.0-6.0-1.0-9.0"}}, {"uniqueid": "w75229573:a23007213", "current_trial": 25, "dateTime": 1693836334703, "trialdata": {"revealed_states": [], "clicked_states": [], "num_clicks_accrued": [0, 0, 0, 0, 0, 0, 0, 0, 0, 0, 0, 0, 0], "stateRewards": ["", 1, -4, -6, 11, -20, 8, -30, 1, -38, 88, 42, 2, 3, 5, -12, -8, -74, 30, -8, 67, -19, 42, 2, -1, 4, 13, 50, -68, 2, -8, -15, 87, -46], "withholdReward": false, "trial_id": "mdp_trial_11", "block": "test", "trialIndex": 14, "score": -17, "costs": 0, "simulationMode": [null, null, null, null, null], "rewards": [2, 3, 5, -8, -19], "path": ["0", "0", "12", "13", "14", "19", "21"], "rt": [1653, 1031, 761, 349, 111], "actions": ["right", "right", "right", "down", "down"], "actionTimes": [7490, 9031, 10549, 11415, 12032], "queries": {"click": {"state": {"target": [], "time": []}, "edge": {"target": [], "time": []}}, "mouseover": {"state": {"target": [], "time": []}, "edge": {"target": [], "time": []}}, "mouseout": {"state": {"target": ["0"], "time": [3983]}, "edge": {"target": [], "time": []}}}, "displayed_time": "19.84", "trialTime": 20914, "trial_type": "mouselab-mdp", "trial_index": 25, "time_elapsed": 1514454, "internal_node_id": "0.0-6.0-1.0-10.0"}}, {"uniqueid": "w75229573:a23007213", "current_trial": 26, "dateTime": 1693836369141, "trialdata": {"revealed_states": [], "clicked_states": [], "num_clicks_accrued": [0, 0, 0, 0, 0, 0, 0, 0, 0, 0, 0, 0, 0], "stateRewards": ["", 1, 1, 1, 15, -76, 52, -32, 14, -57, 37, 49, 1, -4, -3, 6, 83, -76, 25, 9, 36, -1, -17, -1, 4, 4, -2, -22, -21, 58, -15, -57, 49, -24], "withholdReward": false, "trial_id": "mdp_trial_12", "block": "test", "trialIndex": 15, "score": 41, "costs": 0, "simulationMode": [null, null, null, null, null], "rewards": [-1, 4, 4, -15, 49], "path": ["0", "0", "23", "24", "25", "30", "32"], "rt": [1619, 168, 255, 260, 16], "actions": ["left", "left", "left", "down", "down"], "actionTimes": [10047, 10740, 11506, 12262, 12831], "queries": {"click": {"state": {"target": [], "time": []}, "edge": {"target": [], "time": []}}, "mouseover": {"state": {"target": [], "time": []}, "edge": {"target": [], "time": []}}, "mouseout": {"state": {"target": [], "time": []}, "edge": {"target": [], "time": []}}}, "displayed_time": "22.43", "trialTime": 30520, "trial_type": "mouselab-mdp", "trial_index": 26, "time_elapsed": 1548892, "internal_node_id": "0.0-6.0-1.0-11.0"}}, {"uniqueid": "w75229573:a23007213", "current_trial": 27, "dateTime": 1693836389406, "trialdata": {"revealed_states": [], "clicked_states": [], "num_clicks_accrued": [0, 0, 0, 0, 0, 0, 0, 0, 0, 0, 0, 0, 0], "stateRewards": ["", 1, -3, -1, 9, -34, -40, 22, -7, 45, 53, -11, 2, 4, 5, 15, 21, 37, -49, -3, 80, -28, -34, 1, -3, 1, 1, -40, -6, -5, -16, -85, -86, 59], "withholdReward": false, "trial_id": "mdp_trial_13", "block": "test", "trialIndex": 16, "score": 28, "costs": 0, "simulationMode": [null, null, null, null, null], "rewards": [1, -3, -1, 9, 22], "path": ["0", "0", "1", "2", "3", "4", "7"], "rt": [1224, 467, 270, 811, 251], "actions": ["up", "up", "up", "right", "down"], "actionTimes": [3373, 4394, 5168, 6476, 7232], "queries": {"click": {"state": {"target": [], "time": []}, "edge": {"target": [], "time": []}}, "mouseover": {"state": {"target": [], "time": []}, "edge": {"target": [], "time": []}}, "mouseout": {"state": {"target": [], "time": []}, "edge": {"target": [], "time": []}}}, "displayed_time": "16.16", "trialTime": 19130, "trial_type": "mouselab-mdp", "trial_index": 27, "time_elapsed": 1569156, "internal_node_id": "0.0-6.0-1.0-12.0"}}, {"uniqueid": "w75229573:a23007213", "current_trial": 28, "dateTime": 1693836462639, "trialdata": {"revealed_states": [], "clicked_states": [], "num_clicks_accrued": [0, 0, 0, 0, 0, 0, 0, 0, 0, 0, 0, 0, 0], "stateRewards": ["", -2, -1, -3, -1, -78, -6, 2, -1, 22, -88, 32, 2, 2, -7, -8, -51, -17, 54, 2, -44, 54, 75, 2, -2, -8, -15, -29, 12, -67, 15, -1, -47, -47], "withholdReward": false, "trial_id": "mdp_trial_14", "block": "test", "trialIndex": 17, "score": -13, "costs": 0, "simulationMode": [null, null, null, null, null], "rewards": [-2, -1, -3, -1, -6], "path": ["0", "0", "1", "2", "3", "4", "6"], "rt": [1299, 39, 791, 302, 245], "actions": ["up", "up", "up", "right", "right"], "actionTimes": [27466, 28005, 29345, 30168, 30911], "queries": {"click": {"state": {"target": [], "time": []}, "edge": {"target": [], "time": []}}, "mouseover": {"state": {"target": [], "time": []}, "edge": {"target": [], "time": []}}, "mouseout": {"state": {"target": [], "time": []}, "edge": {"target": [], "time": []}}}, "displayed_time": "40.17", "trialTime": 72011, "trial_type": "mouselab-mdp", "trial_index": 28, "time_elapsed": 1642389, "internal_node_id": "0.0-6.0-1.0-13.0"}}, {"uniqueid": "w75229573:a23007213", "current_trial": 29, "dateTime": 1693836490407, "trialdata": {"revealed_states": [], "clicked_states": [], "num_clicks_accrued": [0, 0, 0, 0, 0, 0, 0, 0, 0, 0, 0, 0, 0], "stateRewards": ["", 1, 3, 1, -13, 52, -28, 67, -14, 3, 63, -70, -1, -4, 7, -11, -10, 47, -18, 6, 69, -9, -61, 2, 3, -6, 10, 63, -34, 40, -6, -79, -35, -32], "withholdReward": false, "trial_id": "mdp_trial_15", "block": "test", "trialIndex": 18, "score": -42, "costs": 0, "simulationMode": [null, null, null, null, null], "rewards": [2, 3, -6, -6, -35], "path": ["0", "0", "23", "24", "25", "30", "32"], "rt": [1305, 37, 85, 122, 42], "actions": ["left", "left", "left", "down", "down"], "actionTimes": [10766, 11319, 11899, 12520, 13051], "queries": {"click": {"state": {"target": [], "time": []}, "edge": {"target": [], "time": []}}, "mouseover": {"state": {"target": ["0"], "time": [9957]}, "edge": {"target": [], "time": []}}, "mouseout": {"state": {"target": ["0"], "time": [9485]}, "edge": {"target": [], "time": []}}}, "displayed_time": "23.46", "trialTime": 26575, "trial_type": "mouselab-mdp", "trial_index": 29, "time_elapsed": 1670158, "internal_node_id": "0.0-6.0-1.0-14.0"}}, {"uniqueid": "w75229573:a23007213", "current_trial": 30, "dateTime": 1693836512751, "trialdata": {"revealed_states": [], "clicked_states": [], "num_clicks_accrued": [0, 0, 0, 0, 0, 0, 0, 0, 0, 0, 0, 0, 0], "stateRewards": ["", 1, 2, -3, -6, 50, -7, 7, -7, -80, 21, -1, 2, 2, 4, -1, 33, 84, 1, 14, -53, 81, 6, -2, -2, -3, -9, -87, -38, -59, -5, -74, -3, -71], "withholdReward": false, "trial_id": "mdp_trial_16", "block": "test", "trialIndex": 19, "score": 103, "costs": 0, "simulationMode": [null, null, null, null, null], "rewards": [2, 2, 4, 14, 81], "path": ["0", "0", "12", "13", "14", "19", "21"], "rt": [1693, 452, 162, 303, 94], "actions": ["right", "right", "right", "down", "down"], "actionTimes": [5349, 6322, 6981, 7789, 8411], "queries": {"click": {"state": {"target": [], "time": []}, "edge": {"target": [], "time": []}}, "mouseover": {"state": {"target": [], "time": []}, "edge": {"target": [], "time": []}}, "mouseout": {"state": {"target": ["0"], "time": [19499]}, "edge": {"target": [], "time": []}}}, "displayed_time": "17.67", "trialTime": 21008, "trial_type": "mouselab-mdp", "trial_index": 30, "time_elapsed": 1692501, "internal_node_id": "0.0-6.0-1.0-15.0"}}, {"uniqueid": "w75229573:a23007213", "current_trial": 31, "dateTime": 1693836539595, "trialdata": {"revealed_states": [], "clicked_states": [], "num_clicks_accrued": [0, 0, 0, 0, 0, 0, 0, 0, 0, 0, 0, 0, 0], "stateRewards": ["", -2, 1, -7, -8, -37, -76, -87, 11, 30, -63, 80, -1, 4, 2, -1, 42, 17, 52, -3, -75, -80, -68, 2, -3, -5, -15, -48, 82, 24, -7, 5, -22, -71], "withholdReward": false, "trial_id": "mdp_trial_17", "block": "test", "trialIndex": 20, "score": -92, "costs": 0, "simulationMode": [null, null, null, null, null], "rewards": [-2, 1, -7, -8, -76], "path": ["0", "0", "1", "2", "3", "4", "6"], "rt": [2779, 26, 25, 736, 79], "actions": ["up", "up", "up", "right", "right"], "actionTimes": [5345, 5894, 6431, 7669, 8280], "queries": {"click": {"state": {"target": [], "time": []}, "edge": {"target": [], "time": []}}, "mouseover": {"state": {"target": ["1"], "time": [3582]}, "edge": {"target": [], "time": []}}, "mouseout": {"state": {"target": ["0"], "time": [1437]}, "edge": {"target": [], "time": []}}}, "displayed_time": "16.59", "trialTime": 25449, "trial_type": "mouselab-mdp", "trial_index": 31, "time_elapsed": 1719345, "internal_node_id": "0.0-6.0-1.0-16.0"}}, {"uniqueid": "w75229573:a23007213", "current_trial": 32, "dateTime": 1693836558253, "trialdata": {"revealed_states": [], "clicked_states": [], "num_clicks_accrued": [0, 0, 0, 0, 0, 0, 0, 0, 0, 0, 0, 0, 0], "stateRewards": ["", -2, -3, 1, -7, 39, -67, 16, 5, -20, 73, 66, -1, 4, 5, -3, 23, -68, -87, -8, 3, -3, 17, 1, -4, -2, -13, -32, 34, 61, -5, -11, -18, 12], "withholdReward": false, "trial_id": "mdp_trial_18", "block": "test", "trialIndex": 21, "score": 67, "costs": 0, "simulationMode": [null, null, null, null, null], "rewards": [-2, -3, 1, 5, 66], "path": ["0", "0", "1", "2", "3", "8", "11"], "rt": [1373, 197, 248, 255, 264], "actions": ["up", "up", "up", "left", "left"], "actionTimes": [3674, 4386, 5142, 5894, 6652], "queries": {"click": {"state": {"target": [], "time": []}, "edge": {"target": [], "time": []}}, "mouseover": {"state": {"target": [], "time": []}, "edge": {"target": [], "time": []}}, "mouseout": {"state": {"target": ["1"], "time": [802]}, "edge": {"target": [], "time": []}}}, "displayed_time": "16.30", "trialTime": 17344, "trial_type": "mouselab-mdp", "trial_index": 32, "time_elapsed": 1738004, "internal_node_id": "0.0-6.0-1.0-17.0"}}, {"uniqueid": "w75229573:a23007213", "current_trial": 33, "dateTime": 1693836602187, "trialdata": {"revealed_states": [], "clicked_states": [], "num_clicks_accrued": [0, 0, 0, 0, 0, 0, 0, 0, 0, 0, 0, 0, 0], "stateRewards": ["", 1, -2, -2, 10, -31, -77, 35, 9, -47, 8, 48, -2, 1, -4, -3, -26, -50, 43, -11, 76, -38, 17, 1, -1, 6, 10, 15, -9, 12, -8, 85, 11, -55], "withholdReward": false, "trial_id": "mdp_trial_19", "block": "test", "trialIndex": 22, "score": 35, "costs": 0, "simulationMode": [null, null, null, null, null], "rewards": [-2, 1, -4, -3, 43], "path": ["0", "0", "12", "13", "14", "15", "18"], "rt": [2134, 915, 323, 20, 440], "actions": ["right", "right", "right", "up", "left"], "actionTimes": [14565, 15981, 16818, 17336, 18286], "queries": {"click": {"state": {"target": [], "time": []}, "edge": {"target": [], "time": []}}, "mouseover": {"state": {"target": ["12"], "time": [13212]}, "edge": {"target": [], "time": []}}, "mouseout": {"state": {"target": ["0"], "time": [11683]}, "edge": {"target": [], "time": []}}}, "displayed_time": "26.44", "trialTime": 42235, "trial_type": "mouselab-mdp", "trial_index": 33, "time_elapsed": 1781936, "internal_node_id": "0.0-6.0-1.0-18.0"}}, {"uniqueid": "w75229573:a23007213", "current_trial": 34, "dateTime": 1693836633247, "trialdata": {"revealed_states": [], "clicked_states": [], "num_clicks_accrued": [0, 0, 0, 0, 0, 0, 0, 0, 0, 0, 0, 0, 0], "stateRewards": ["", 2, -1, 4, -9, -43, 7, 54, -13, 38, -40, -83, -1, 2, -8, -10, 34, -33, 11, -14, -79, 65, 26, 1, 2, 4, 10, 21, 1, 86, 4, -53, 28, -29], "withholdReward": false, "trial_id": "mdp_trial_20", "block": "test", "trialIndex": 23, "score": -91, "costs": 0, "simulationMode": [null, null, null, null, null], "rewards": [2, -1, 4, -13, -83], "path": ["0", "0", "1", "2", "3", "8", "11"], "rt": [3219, 146, 1111, 175, 192], "actions": ["up", "up", "up", "left", "left"], "actionTimes": [11746, 12395, 14028, 14727, 15424], "queries": {"click": {"state": {"target": [], "time": []}, "edge": {"target": [], "time": []}}, "mouseover": {"state": {"target": [], "time": []}, "edge": {"target": [], "time": []}}, "mouseout": {"state": {"target": ["12"], "time": [7246]}, "edge": {"target": [], "time": []}}}, "displayed_time": "22.54", "trialTime": 29694, "trial_type": "mouselab-mdp", "trial_index": 34, "time_elapsed": 1812998, "internal_node_id": "0.0-6.0-1.0-19.0"}}, {"uniqueid": "w75229573:a23007213", "current_trial": 35, "dateTime": 1693836745555, "trialdata": {"revealed_states": [], "clicked_states": [], "num_clicks_accrued": [0, 0, 0, 0, 0, 0, 0, 0, 0, 0, 0, 0, 0], "stateRewards": ["", -1, 1, 6, -6, 70, 66, 67, -16, -75, -35, 37, -1, 4, 4, -6, 47, -9, 63, 15, 21, -63, 13, 1, 3, -6, 10, 79, -29, 18, -15, 9, -67, -19], "withholdReward": false, "trial_id": "mdp_trial_21", "block": "test", "trialIndex": 24, "score": 66, "costs": 0, "simulationMode": [null, null, null, null, null], "rewards": [-1, 1, 6, -6, 66], "path": ["0", "0", "1", "2", "3", "4", "6"], "rt": [1417, 480, 577, 77, 8], "actions": ["up", "up", "up", "right", "right"], "actionTimes": [4854, 5856, 6934, 7517, 8063], "queries": {"click": {"state": {"target": [], "time": []}, "edge": {"target": [], "time": []}}, "mouseover": {"state": {"target": [], "time": []}, "edge": {"target": [], "time": []}}, "mouseout": {"state": {"target": [], "time": []}, "edge": {"target": [], "time": []}}}, "displayed_time": "17.45", "trialTime": 110875, "trial_type": "mouselab-mdp", "trial_index": 35, "time_elapsed": 1925306, "internal_node_id": "0.0-6.0-1.0-20.0"}}, {"uniqueid": "w75229573:a23007213", "current_trial": 36, "dateTime": 1693836787265, "trialdata": {"revealed_states": [], "clicked_states": [], "num_clicks_accrued": [0, 0, 0, 0, 0, 0, 0, 0, 0, 0, 0, 0, 0], "stateRewards": ["", 2, 4, 4, 9, -88, -10, 44, 16, -54, 64, 78, 1, 2, 5, 16, 80, 36, 7, -4, 9, -47, -70, -1, -3, 6, -16, 11, 80, 28, 8, -1, 34, -17], "withholdReward": false, "trial_id": "mdp_trial_22", "block": "test", "trialIndex": 25, "score": 9, "costs": 0, "simulationMode": [null, null, null, null, null], "rewards": [2, 4, 4, 9, -10], "path": ["0", "0", "1", "2", "3", "4", "6"], "rt": [1761, 199, 94, 883, 118], "actions": ["up", "up", "up", "right", "right"], "actionTimes": [25950, 26673, 27273, 28662, 29281], "queries": {"click": {"state": {"target": [], "time": []}, "edge": {"target": [], "time": []}}, "mouseover": {"state": {"target": [], "time": []}, "edge": {"target": [], "time": []}}, "mouseout": {"state": {"target": ["0", "23", "0"], "time": [22107, 22450, 23032]}, "edge": {"target": [], "time": []}}}, "displayed_time": "38.19", "trialTime": 40384, "trial_type": "mouselab-mdp", "trial_index": 36, "time_elapsed": 1967016, "internal_node_id": "0.0-6.0-1.0-21.0"}}, {"uniqueid": "w75229573:a23007213", "current_trial": 37, "dateTime": 1693836806840, "trialdata": {"revealed_states": [], "clicked_states": [], "num_clicks_accrued": [0, 0, 0, 0, 0, 0, 0, 0, 0, 0, 0, 0, 0], "stateRewards": ["", 2, -2, 7, -11, -76, -65, -23, 16, -58, 30, 81, 1, 2, 7, 14, 9, 55, -2, 6, 11, -15, 31, -1, -1, -3, 2, 15, 2, 46, 15, 18, 45, -34], "withholdReward": false, "trial_id": "mdp_trial_23", "block": "test", "trialIndex": 26, "score": 53, "costs": 0, "simulationMode": [null, null, null, null, null], "rewards": [2, -2, 7, 16, 30], "path": ["0", "0", "1", "2", "3", "8", "10"], "rt": [1944, 102, 520, 375, 421], "actions": ["up", "up", "up", "left", "down"], "actionTimes": [4447, 5054, 6074, 6982, 7910], "queries": {"click": {"state": {"target": [], "time": []}, "edge": {"target": [], "time": []}}, "mouseover": {"state": {"target": [], "time": []}, "edge": {"target": [], "time": []}}, "mouseout": {"state": {"target": [], "time": []}, "edge": {"target": [], "time": []}}}, "displayed_time": "16.54", "trialTime": 18132, "trial_type": "mouselab-mdp", "trial_index": 37, "time_elapsed": 1986590, "internal_node_id": "0.0-6.0-1.0-22.0"}}, {"uniqueid": "w75229573:a23007213", "current_trial": 38, "dateTime": 1693836831293, "trialdata": {"revealed_states": [], "clicked_states": [], "num_clicks_accrued": [0, 0, 0, 0, 0, 0, 0, 0, 0, 0, 0, 0, 0], "stateRewards": ["", 1, 2, 7, 13, 88, -71, 27, 3, 60, 5, -53, -2, 2, -6, -1, -30, 79, 47, -4, -14, 46, 68, 1, 1, 8, 10, -14, 86, 48, -11, -67, -44, 5], "withholdReward": false, "trial_id": "mdp_trial_24", "block": "test", "trialIndex": 27, "score": 58, "costs": 0, "simulationMode": [null, null, null, null, null], "rewards": [-2, 2, -6, -4, 68], "path": ["0", "0", "12", "13", "14", "19", "22"], "rt": [1943, 1233, 243, 256, 395], "actions": ["right", "right", "right", "down", "left"], "actionTimes": [9336, 11090, 11854, 12658, 13552], "queries": {"click": {"state": {"target": [], "time": []}, "edge": {"target": [], "time": []}}, "mouseover": {"state": {"target": [], "time": []}, "edge": {"target": [], "time": []}}, "mouseout": {"state": {"target": [], "time": []}, "edge": {"target": [], "time": []}}}, "displayed_time": "21.40", "trialTime": 23068, "trial_type": "mouselab-mdp", "trial_index": 38, "time_elapsed": 2011043, "internal_node_id": "0.0-6.0-1.0-23.0"}}, {"uniqueid": "w75229573:a23007213", "current_trial": 39, "dateTime": 1693836851906, "trialdata": {"revealed_states": [], "clicked_states": [], "num_clicks_accrued": [0, 0, 0, 0, 0, 0, 0, 0, 0, 0, 0, 0, 0], "stateRewards": ["", -2, 3, 3, -14, 62, 36, 49, 16, 11, 17, -84, 2, -1, 6, 2, -82, -73, 49, -6, -87, 48, 50, -1, -2, -1, -16, -11, 37, -44, 4, 55, 73, -10], "withholdReward": false, "trial_id": "mdp_trial_25", "block": "test", "trialIndex": 28, "score": 17, "costs": 0, "simulationMode": [null, null, null, null, null], "rewards": [-1, -2, -1, -16, 37], "path": ["0", "0", "23", "24", "25", "26", "28"], "rt": [1364, 29, 75, 20, 47], "actions": ["left", "left", "left", "up", "right"], "actionTimes": [4856, 5407, 6004, 6533, 7096], "queries": {"click": {"state": {"target": [], "time": []}, "edge": {"target": [], "time": []}}, "mouseover": {"state": {"target": [], "time": []}, "edge": {"target": [], "time": []}}, "mouseout": {"state": {"target": ["0"], "time": [3518]}, "edge": {"target": [], "time": []}}}, "displayed_time": "17.50", "trialTime": 19119, "trial_type": "mouselab-mdp", "trial_index": 39, "time_elapsed": 2031657, "internal_node_id": "0.0-6.0-1.0-24.0"}}, {"uniqueid": "w75229573:a23007213", "current_trial": 40, "dateTime": 1693836897952, "trialdata": {"revealed_states": [], "clicked_states": [], "num_clicks_accrued": [0, 0, 0, 0, 0, 0, 0, 0, 0, 0, 0, 0, 0], "stateRewards": ["", -1, -3, 1, 13, -64, -29, 12, -4, -33, 50, 56, 2, -3, 4, 11, -64, -58, -55, 12, 47, 38, -25, -2, 2, 5, -15, 85, 7, 84, 10, 8, 57, 26], "withholdReward": false, "trial_id": "mdp_trial_26", "block": "test", "trialIndex": 29, "score": 22, "costs": 0, "simulationMode": [null, null, null, null, null], "rewards": [-1, -3, 1, 13, 12], "path": ["0", "0", "1", "2", "3", "4", "7"], "rt": [1163, 713, 170, 189, 932], "actions": ["up", "up", "up", "right", "down"], "actionTimes": [2266, 3497, 4192, 4891, 6370], "queries": {"click": {"state": {"target": [], "time": []}, "edge": {"target": [], "time": []}}, "mouseover": {"state": {"target": [], "time": []}, "edge": {"target": [], "time": []}}, "mouseout": {"state": {"target": ["0", "0"], "time": [null, 29]}, "edge": {"target": [], "time": []}}}, "displayed_time": "15.11", "trialTime": 44487, "trial_type": "mouselab-mdp", "trial_index": 40, "time_elapsed": 2077702, "internal_node_id": "0.0-6.0-1.0-25.0"}}, {"uniqueid": "w75229573:a23007213", "current_trial": 41, "dateTime": 1693836917733, "trialdata": {"revealed_states": [], "clicked_states": [], "num_clicks_accrued": [0, 0, 0, 0, 0, 0, 0, 0, 0, 0, 0, 0, 0], "stateRewards": ["", -2, -1, -6, -14, -55, 78, -13, 11, 14, -71, 59, 2, 2, 6, -6, 9, 38, 14, 7, 85, 11, 68, 1, -4, -1, -3, -63, -85, 9, -2, 63, -86, -10], "withholdReward": false, "trial_id": "mdp_trial_27", "block": "test", "trialIndex": 30, "score": -69, "costs": 0, "simulationMode": [null, null, null, null, null], "rewards": [-2, -1, -6, 11, -71], "path": ["0", "0", "1", "2", "3", "8", "10"], "rt": [1525, 161, 426, 230, 67], "actions": ["up", "up", "up", "left", "down"], "actionTimes": [4371, 5547, 6524, 7305, 7997], "queries": {"click": {"state": {"target": [], "time": []}, "edge": {"target": [], "time": []}}, "mouseover": {"state": {"target": [], "time": []}, "edge": {"target": [], "time": []}}, "mouseout": {"state": {"target": ["0"], "time": [2127]}, "edge": {"target": [], "time": []}}}, "displayed_time": "16.86", "trialTime": 18434, "trial_type": "mouselab-mdp", "trial_index": 41, "time_elapsed": 2097484, "internal_node_id": "0.0-6.0-1.0-26.0"}}, {"uniqueid": "w75229573:a23007213", "current_trial": 42, "dateTime": 1693836936251, "trialdata": {"revealed_states": [], "clicked_states": [], "num_clicks_accrued": [0, 0, 0, 0, 0, 0, 0, 0, 0, 0, 0, 0, 0], "stateRewards": ["", 2, -1, -3, 16, -3, -16, -62, -1, 13, -26, 43, -1, 4, 3, -9, -54, -37, -3, -12, -71, -68, -57, 1, -3, 2, -9, 2, -2, -9, -11, 84, -52, 55], "withholdReward": false, "trial_id": "mdp_trial_28", "block": "test", "trialIndex": 31, "score": -57, "costs": 0, "simulationMode": [null, null, null, null, null], "rewards": [-1, 4, 3, -9, -54], "path": ["0", "0", "12", "13", "14", "15", "16"], "rt": [1217, 10, 494, 549, 15], "actions": ["right", "right", "right", "up", "up"], "actionTimes": [3381, 3897, 4918, 5970, 6501], "queries": {"click": {"state": {"target": [], "time": []}, "edge": {"target": [], "time": []}}, "mouseover": {"state": {"target": [], "time": []}, "edge": {"target": [], "time": []}}, "mouseout": {"state": {"target": ["0"], "time": [1362]}, "edge": {"target": [], "time": []}}}, "displayed_time": "16.17", "trialTime": 17133, "trial_type": "mouselab-mdp", "trial_index": 42, "time_elapsed": 2116001, "internal_node_id": "0.0-6.0-1.0-27.0"}}, {"uniqueid": "w75229573:a23007213", "current_trial": 43, "dateTime": 1693836960660, "trialdata": {"revealed_states": [], "clicked_states": [], "num_clicks_accrued": [0, 0, 0, 0, 0, 0, 0, 0, 0, 0, 0, 0, 0], "stateRewards": ["", -1, 4, -3, 3, 57, -61, 5, -11, 23, -1, 34, -2, -4, -1, -13, 27, 38, -36, 4, -45, 21, 88, 1, -2, -1, 1, -69, -5, -78, -12, -9, 38, -54], "withholdReward": false, "trial_id": "mdp_trial_29", "block": "test", "trialIndex": 32, "score": -79, "costs": 0, "simulationMode": [null, null, null, null, null], "rewards": [1, -2, -1, 1, -78], "path": ["0", "0", "23", "24", "25", "26", "29"], "rt": [1802, 456, 35, 527, 75], "actions": ["left", "left", "left", "up", "left"], "actionTimes": [9617, 10592, 11136, 12447, 13067], "queries": {"click": {"state": {"target": [], "time": []}, "edge": {"target": [], "time": []}}, "mouseover": {"state": {"target": ["0"], "time": [7836]}, "edge": {"target": [], "time": []}}, "mouseout": {"state": {"target": ["0", "0"], "time": [6678, 8631]}, "edge": {"target": [], "time": []}}}, "displayed_time": "21.83", "trialTime": 22870, "trial_type": "mouselab-mdp", "trial_index": 43, "time_elapsed": 2140411, "internal_node_id": "0.0-6.0-1.0-28.0"}}, {"uniqueid": "w75229573:a23007213", "current_trial": 44, "dateTime": 1693836985741, "trialdata": {"revealed_states": [], "clicked_states": [], "num_clicks_accrued": [0, 0, 0, 0, 0, 0, 0, 0, 0, 0, 0, 0, 0], "stateRewards": ["", 2, -1, 1, 10, -52, 86, -22, -2, -14, -63, 38, 1, 3, 7, -8, 11, -32, -27, 9, -71, 40, -87, -2, -1, 5, -7, 12, 31, -57, 13, 86, -58, 29], "withholdReward": false, "trial_id": "mdp_trial_30", "block": "test", "trialIndex": 33, "score": -67, "costs": 0, "simulationMode": [null, null, null, null, null], "rewards": [1, 3, 7, 9, -87], "path": ["0", "0", "12", "13", "14", "19", "22"], "rt": [4712, 42, 15, 2287, 350], "actions": ["right", "right", "right", "down", "left"], "actionTimes": [12273, 12827, 13470, 16307, 17213], "queries": {"click": {"state": {"target": [], "time": []}, "edge": {"target": [], "time": []}}, "mouseover": {"state": {"target": ["0", "17"], "time": [8062, 9420]}, "edge": {"target": [], "time": []}}, "mouseout": {"state": {"target": ["0", "17"], "time": [9360, 9455]}, "edge": {"target": [], "time": []}}}, "displayed_time": "21.56", "trialTime": 23035, "trial_type": "mouselab-mdp", "trial_index": 44, "time_elapsed": 2165491, "internal_node_id": "0.0-6.0-1.0-29.0"}}, {"uniqueid": "w75229573:a23007213", "current_trial": 45, "dateTime": 1693837008090, "trialdata": {"revealed_states": [], "clicked_states": [], "num_clicks_accrued": [0, 0, 0, 0, 0, 0, 0, 0, 0, 0, 0, 0, 0], "stateRewards": ["", 1, -2, -3, 14, -42, -87, -37, -11, -50, 33, -44, -2, 4, -7, 13, 48, -75, -66, 12, 23, -2, 82, 1, -4, 3, 12, 51, -15, -26, -11, -52, -29, 82], "withholdReward": false, "trial_id": "mdp_trial_31", "block": "test", "trialIndex": 34, "score": -40, "costs": 0, "simulationMode": [null, null, null, null, null], "rewards": [1, -4, 3, -11, -29], "path": ["0", "0", "23", "24", "25", "30", "32"], "rt": [1338, 17, 145, 157, 574], "actions": ["left", "left", "left", "down", "down"], "actionTimes": [6632, 7167, 7886, 8547, 9632], "queries": {"click": {"state": {"target": [], "time": []}, "edge": {"target": [], "time": []}}, "mouseover": {"state": {"target": [], "time": []}, "edge": {"target": [], "time": []}}, "mouseout": {"state": {"target": ["33", "30", "23", "0", "14"], "time": [3249, 3275, 3485, 13139, 13193]}, "edge": {"target": [], "time": []}}}, "displayed_time": "19.31", "trialTime": 20602, "trial_type": "mouselab-mdp", "trial_index": 45, "time_elapsed": 2187841, "internal_node_id": "0.0-6.0-1.0-30.0"}}, {"uniqueid": "w75229573:a23007213", "current_trial": 46, "dateTime": 1693837028973, "trialdata": {"revealed_states": [], "clicked_states": [], "num_clicks_accrued": [0, 0, 0, 0, 0, 0, 0, 0, 0, 0, 0, 0, 0], "stateRewards": ["", 2, 3, -2, -8, -8, -41, 74, 15, -23, -80, 1, 1, 3, 3, -15, -63, -78, 67, 13, 75, -41, 86, 2, -2, 6, -3, -8, -49, 50, -6, 83, 74, 80], "withholdReward": false, "trial_id": "mdp_trial_32", "block": "test", "trialIndex": 35, "score": -46, "costs": 0, "simulationMode": [null, null, null, null, null], "rewards": [2, 3, -2, -8, -41], "path": ["0", "0", "1", "2", "3", "4", "6"], "rt": [1466, 139, 176, 5984, 183], "actions": ["up", "up", "up", "right", "right"], "actionTimes": [3948, 4592, 5323, 11805, 12504], "queries": {"click": {"state": {"target": [], "time": []}, "edge": {"target": [], "time": []}}, "mouseover": {"state": {"target": [], "time": []}, "edge": {"target": [], "time": []}}, "mouseout": {"state": {"target": ["0"], "time": [1270]}, "edge": {"target": [], "time": []}}}, "displayed_time": "16.49", "trialTime": 18148, "trial_type": "mouselab-mdp", "trial_index": 46, "time_elapsed": 2208724, "internal_node_id": "0.0-6.0-1.0-31.0"}}, {"uniqueid": "w75229573:a23007213", "current_trial": 47, "dateTime": 1693837056292, "trialdata": {"revealed_states": [], "clicked_states": [], "num_clicks_accrued": [0, 0, 0, 0, 0, 0, 0, 0, 0, 0, 0, 0, 0], "stateRewards": ["", 2, -3, -8, 14, -7, -51, 73, 2, 36, 36, -43, -1, 3, -4, 1, 6, 87, -65, 15, 61, -42, -83, -1, 3, -2, -7, 30, -48, 35, 13, 26, 60, 78], "withholdReward": false, "trial_id": "mdp_trial_33", "block": "test", "trialIndex": 36, "score": 29, "costs": 0, "simulationMode": [null, null, null, null, null], "rewards": [2, -3, -8, 2, 36], "path": ["0", "0", "1", "2", "3", "8", "9"], "rt": [1261, 760, 669, 1318, 11], "actions": ["up", "up", "up", "left", "up"], "actionTimes": [6021, 7294, 8517, 10350, 10861], "queries": {"click": {"state": {"target": [], "time": []}, "edge": {"target": [], "time": []}}, "mouseover": {"state": {"target": [], "time": []}, "edge": {"target": [], "time": []}}, "mouseout": {"state": {"target": ["0"], "time": [20648]}, "edge": {"target": [], "time": []}}}, "displayed_time": "18.77", "trialTime": 24795, "trial_type": "mouselab-mdp", "trial_index": 47, "time_elapsed": 2236043, "internal_node_id": "0.0-6.0-1.0-32.0"}}, {"uniqueid": "w75229573:a23007213", "current_trial": 48, "dateTime": 1693837077246, "trialdata": {"revealed_states": [], "clicked_states": [], "num_clicks_accrued": [0, 0, 0, 0, 0, 0, 0, 0, 0, 0, 0, 0, 0], "stateRewards": ["", 2, -4, -4, 13, -80, 62, 13, -11, 57, -13, -44, 1, 4, 3, -4, -29, -88, 15, 16, -58, 68, -45, -1, -3, -1, -9, -44, -86, -19, -7, -36, 59, 66], "withholdReward": false, "trial_id": "mdp_trial_34", "block": "test", "trialIndex": 37, "score": -21, "costs": 0, "simulationMode": [null, null, null, null, null], "rewards": [1, 4, 3, 16, -45], "path": ["0", "0", "12", "13", "14", "19", "22"], "rt": [3091, 475, 77, 281, 24], "actions": ["right", "right", "right", "down", "left"], "actionTimes": [5891, 6890, 7476, 8279, 8882], "queries": {"click": {"state": {"target": [], "time": []}, "edge": {"target": [], "time": []}}, "mouseover": {"state": {"target": [], "time": []}, "edge": {"target": [], "time": []}}, "mouseout": {"state": {"target": [], "time": []}, "edge": {"target": [], "time": []}}}, "displayed_time": "16.80", "trialTime": 18696, "trial_type": "mouselab-mdp", "trial_index": 48, "time_elapsed": 2256996, "internal_node_id": "0.0-6.0-1.0-33.0"}}, {"uniqueid": "w75229573:a23007213", "current_trial": 49, "dateTime": 1693837096587, "trialdata": {"revealed_states": [], "clicked_states": [], "num_clicks_accrued": [0, 0, 0, 0, 0, 0, 0, 0, 0, 0, 0, 0, 0], "stateRewards": ["", 1, -4, -4, 8, 1, -79, 68, -10, -79, 8, -74, -1, -3, -6, 14, 43, 23, 9, 5, -51, 63, 61, -2, 4, 6, -10, 69, -32, 57, 15, -80, -80, -77], "withholdReward": false, "trial_id": "mdp_trial_35", "block": "test", "trialIndex": 38, "score": -57, "costs": 0, "simulationMode": [null, null, null, null, null], "rewards": [-2, 4, 6, 15, -80], "path": ["0", "0", "23", "24", "25", "30", "32"], "rt": [2100, 538, 222, 262, 14], "actions": ["left", "left", "left", "down", "down"], "actionTimes": [4843, 5927, 6656, 7460, 8097], "queries": {"click": {"state": {"target": [], "time": []}, "edge": {"target": [], "time": []}}, "mouseover": {"state": {"target": [], "time": []}, "edge": {"target": [], "time": []}}, "mouseout": {"state": {"target": ["23"], "time": [1159]}, "edge": {"target": [], "time": []}}}, "displayed_time": "16.75", "trialTime": 17488, "trial_type": "mouselab-mdp", "trial_index": 49, "time_elapsed": 2276339, "internal_node_id": "0.0-6.0-1.0-34.0"}}, {"uniqueid": "w75229573:a23007213", "current_trial": 50, "dateTime": 1693837126402, "trialdata": {"revealed_states": [], "clicked_states": [], "num_clicks_accrued": [0, 0, 0, 0, 0, 0, 0, 0, 0, 0, 0, 0, 0], "stateRewards": ["", -2, 2, 3, -7, 76, 63, 21, 15, 35, -8, -44, 1, 1, -2, -12, 23, 24, 76, -9, 46, 66, -49, -2, -1, 7, 12, 40, -71, -45, -6, 38, -49, 46], "withholdReward": false, "trial_id": "mdp_trial_36", "block": "test", "trialIndex": 39, "score": 11, "costs": 0, "simulationMode": [null, null, null, null, null], "rewards": [1, 1, -2, -12, 23], "path": ["0", "0", "12", "13", "14", "15", "16"], "rt": [2015, 23, 141, 133, 82], "actions": ["right", "right", "right", "up", "up"], "actionTimes": [4082, 4640, 5307, 5947, 6553], "queries": {"click": {"state": {"target": [], "time": []}, "edge": {"target": [], "time": []}}, "mouseover": {"state": {"target": [], "time": []}, "edge": {"target": [], "time": []}}, "mouseout": {"state": {"target": ["0"], "time": [1240]}, "edge": {"target": [], "time": []}}}, "displayed_time": "16.08", "trialTime": 28107, "trial_type": "mouselab-mdp", "trial_index": 50, "time_elapsed": 2306152, "internal_node_id": "0.0-6.0-1.0-35.0"}}, {"uniqueid": "w75229573:a23007213", "current_trial": 51, "dateTime": 1693837146960, "trialdata": {"revealed_states": [], "clicked_states": [], "num_clicks_accrued": [0, 0, 0, 0, 0, 0, 0, 0, 0, 0, 0, 0, 0], "stateRewards": ["", 1, 2, 2, -15, -84, 28, -26, 13, 31, 86, 30, -2, 1, -1, -8, 66, -40, -1, -10, -32, 57, -17, 1, 2, -2, 9, -23, 77, 85, 12, -32, -62, -35], "withholdReward": false, "trial_id": "mdp_trial_37", "block": "test", "trialIndex": 40, "score": -19, "costs": 0, "simulationMode": [null, null, null, null, null], "rewards": [1, 2, -2, 12, -32], "path": ["0", "0", "23", "24", "25", "30", "31"], "rt": [1523, 440, 98, 105, 99], "actions": ["left", "left", "left", "down", "right"], "actionTimes": [4149, 5103, 5701, 6368, 6968], "queries": {"click": {"state": {"target": [], "time": []}, "edge": {"target": [], "time": []}}, "mouseover": {"state": {"target": [], "time": []}, "edge": {"target": [], "time": []}}, "mouseout": {"state": {"target": ["0"], "time": [1163]}, "edge": {"target": [], "time": []}}}, "displayed_time": "16.64", "trialTime": 18244, "trial_type": "mouselab-mdp", "trial_index": 51, "time_elapsed": 2326710, "internal_node_id": "0.0-6.0-1.0-36.0"}}, {"uniqueid": "w75229573:a23007213", "current_trial": 52, "dateTime": 1693837178555, "trialdata": {"revealed_states": [], "clicked_states": [], "num_clicks_accrued": [0, 0, 0, 0, 0, 0, 0, 0, 0, 0, 0, 0, 0], "stateRewards": ["", 2, -2, -8, 9, -20, 55, -58, 14, 42, 2, 36, 1, -3, -5, 5, -58, 57, 60, 16, 57, 30, -70, -2, 1, 3, 10, 59, 23, 77, -13, -26, 88, -72], "withholdReward": false, "trial_id": "mdp_trial_38", "block": "test", "trialIndex": 41, "score": 56, "costs": 0, "simulationMode": [null, null, null, null, null], "rewards": [2, -2, -8, 9, 55], "path": ["0", "0", "1", "2", "3", "4", "6"], "rt": [1490, 220, 28, 129, 28], "actions": ["up", "up", "up", "right", "right"], "actionTimes": [4706, 5439, 5977, 6626, 7158], "queries": {"click": {"state": {"target": [], "time": []}, "edge": {"target": [], "time": []}}, "mouseover": {"state": {"target": [], "time": []}, "edge": {"target": [], "time": []}}, "mouseout": {"state": {"target": [], "time": []}, "edge": {"target": [], "time": []}}}, "displayed_time": "17.22", "trialTime": 28914, "trial_type": "mouselab-mdp", "trial_index": 52, "time_elapsed": 2358304, "internal_node_id": "0.0-6.0-1.0-37.0"}}, {"uniqueid": "w75229573:a23007213", "current_trial": 53, "dateTime": 1693837198195, "trialdata": {"revealed_states": [], "clicked_states": [], "num_clicks_accrued": [0, 0, 0, 0, 0, 0, 0, 0, 0, 0, 0, 0, 0], "stateRewards": ["", -1, -3, -6, -2, -7, 80, -45, -3, -38, -72, 76, 2, 1, 7, 4, -62, 14, -74, 14, -87, -21, -88, -2, 1, -7, -10, 66, 56, -76, 10, -29, -72, -70], "withholdReward": false, "trial_id": "mdp_trial_39", "block": "test", "trialIndex": 42, "score": 68, "costs": 0, "simulationMode": [null, null, null, null, null], "rewards": [-1, -3, -6, -2, 80], "path": ["0", "0", "1", "2", "3", "4", "6"], "rt": [1302, 319, 498, 159, 65], "actions": ["up", "up", "up", "right", "right"], "actionTimes": [3075, 3936, 4968, 5696, 6303], "queries": {"click": {"state": {"target": [], "time": []}, "edge": {"target": [], "time": []}}, "mouseover": {"state": {"target": [], "time": []}, "edge": {"target": [], "time": []}}, "mouseout": {"state": {"target": [], "time": []}, "edge": {"target": [], "time": []}}}, "displayed_time": "15.79", "trialTime": 18044, "trial_type": "mouselab-mdp", "trial_index": 53, "time_elapsed": 2377945, "internal_node_id": "0.0-6.0-1.0-38.0"}}], "questiondata": {"params": {"CODE": "C6DMOQA6", "MIN_TIME": 14, "inspectCost": 1, "startTime": "Mon Sep 04 2023 14:40:19 GMT+0100 (British Summer Time)", "bonusRate": 0.002, "variance": "1_2_4_8_44", "branching": "31123"}}, "eventdata": [{"eventtype": "initialized", "value": null, "timestamp": 1693834818927, "interval": 0}, {"eventtype": "window_resize", "value": [1366, 708], "timestamp": 1693834818927, "interval": 0}, {"eventtype": "window_resize", "value": [1366, 708], "timestamp": 1693834819277, "interval": 350}, {"eventtype": "window_resize", "value": [1366, 768], "timestamp": 1693834823757, "interval": 4480}, {"eventtype": "focus", "value": "off", "timestamp": 1693835199670, "interval": 375913}, {"eventtype": "focus", "value": "on", "timestamp": 1693835199671, "interval": 1}, {"eventtype": "window_resize", "value": [1366, 708], "timestamp": 1693835199920, "interval": 249}, {"eventtype": "window_resize", "value": [1366, 768], "timestamp": 1693835201820, "interval": 1900}], "useragent": "Mozilla/5.0 (Windows NT 10.0; Win64; x64) AppleWebKit/537.36 (KHTML, like Gecko) Chrome/116.0.0.0 Safari/537.36", "mode": "live", "id": "w75229573:a23007213", "status": "user data saved", "Beginhit": "2023-09-04 13:40:20.116903", "Beginexp": "2023-09-04 13:40:28.335109", "Endhit": null, "psiturkStatus": 2, "browser": "<redacted>", "platform": "windows", "language": "en-US", "excludeReason": "dataincomplete"}