{"condition": 1, "counterbalance": 0, "assignmentId": "a30772075", "workerId": "w77389308", "hitId": "h36795733", "currenttrial": 56, "bonus": 0, "data": [{"uniqueid": "w77389308:a30772075", "current_trial": 0, "dateTime": 1691142717329, "trialdata": {"success": true, "trial_type": "fullscreen", "trial_index": 0, "time_elapsed": 3832, "internal_node_id": "0.0-0.0"}}, {"uniqueid": "w77389308:a30772075", "current_trial": 1, "dateTime": 1691142732071, "trialdata": {"view_history": [{"page_index": 0, "viewing_time": 14730}], "rt": 14730, "trial_id": "exp_instructions_misaligned", "trial_type": "instructions", "trial_index": 1, "time_elapsed": 18575, "internal_node_id": "0.0-1.0"}}, {"uniqueid": "w77389308:a30772075", "current_trial": 2, "dateTime": 1691142736406, "trialdata": {"success": true, "trial_type": "fullscreen", "trial_index": 2, "time_elapsed": 22910, "internal_node_id": "0.0-2.0-0.0"}}, {"uniqueid": "w77389308:a30772075", "current_trial": 3, "dateTime": 1691143051127, "trialdata": {"view_history": [{"page_index": 0, "viewing_time": 167307}, {"page_index": 1, "viewing_time": 90416}, {"page_index": 2, "viewing_time": 26064}, {"page_index": 3, "viewing_time": 30928}], "rt": 314716, "trial_id": "mouselab_instructions_1_misaligned", "trial_type": "instructions", "trial_index": 3, "time_elapsed": 337631, "internal_node_id": "0.0-2.0-1.0"}}, {"uniqueid": "w77389308:a30772075", "current_trial": 4, "dateTime": 1691143095861, "trialdata": {"revealed_states": [], "clicked_states": ["9", "16", "29", "32", "21", "12", "13", "22", "19"], "num_clicks_accrued": [0, 0, 0, 0, 0, 0, 0, 0, 0, 0, 0, 0, 0], "stateRewards": ["", -10, 10, 10, 10, -10, -10, -10, 10, -10, 10, 10, 10, 10, -10, -10, -10, 10, 10, -10, 10, 10, -10, 10, -10, 10, 10, -10, -10, -10, -10, -10, 10, 10], "withholdReward": false, "trial_id": "practice_1", "block": "test", "trialIndex": 0, "score": 9, "costs": -4.5, "simulationMode": [null, null, null, null, null], "rewards": [10, 10, -10, -10, 10], "path": ["0", "0", "12", "13", "14", "19", "21"], "rt": [27714, 392, 2139, 36, 297], "actions": ["right", "right", "right", "down", "down"], "actionTimes": [31689, 32582, 35245, 35780, 36573], "queries": {"click": {"state": {"target": ["9", "16", "29", "32", "21", "12", "13", "22", "19"], "time": [5286, 7985, 9259, 10385, 11749, 14373, 15779, 17226, 18504]}, "edge": {"target": [], "time": []}}, "mouseover": {"state": {"target": ["1", "8", "9", "8", "2", "4", "16", "16", "18", "16", "15", "13", "31", "25", "29", "30", "32", "21", "20", "20", "19", "22", "12", "12", "13", "22", "19", "21", "22", "12", "13", "19", "19", "13", "13", "13", "22", "19", "22", "22"], "time": [4613, 4727, 4858, 5862, 5912, 6443, 6626, 6882, 7391, 7545, 8565, 8630, 8733, 8832, 8965, 9864, 9914, 11502, 12384, 12501, 13573, 13618, 13718, 14019, 14787, 16406, 18073, 18940, 23345, 23466, 24600, 26001, 26134, 26280, 27502, 28141, 28304, 28481, 28918, 30990]}, "edge": {"target": [], "time": []}}, "mouseout": {"state": {"target": ["0", "1", "8", "9", "8", "2", "4", "16", "16", "18", "16", "15", "13", "31", "25", "29", "30", "32", "21", "20", "20", "19", "22", "12", "12", "13", "22", "19", "21", "22", "12", "13", "19", "19", "13", "13", "13", "22", "19", "22", "22"], "time": [2193, 4647, 4793, 5845, 5878, 5928, 6494, 6698, 7300, 7462, 8532, 8598, 8650, 8767, 8880, 9798, 9897, 10966, 12284, 12434, 13523, 13601, 13695, 13837, 14753, 16357, 18040, 18873, 23318, 23360, 24566, 25651, 26068, 26169, 27374, 27538, 28238, 28448, 28873, 28985, 31051]}, "edge": {"target": [], "time": []}}}, "displayed_time": "37.08", "trialTime": 44175, "trial_type": "mouselab-mdp", "trial_index": 4, "time_elapsed": 382364, "internal_node_id": "0.0-2.0-2.0-0.0"}}, {"uniqueid": "w77389308:a30772075", "current_trial": 5, "dateTime": 1691143113922, "trialdata": {"revealed_states": [], "clicked_states": ["21", "32"], "num_clicks_accrued": [0, 0, 0, 0, 0, 0, 0, 0, 0, 0, 0, 0, 0], "stateRewards": ["", -10, 10, -10, 10, -10, 10, 10, 10, -10, 10, -10, 10, 10, -10, -10, 10, -10, -10, -10, -10, -10, -10, 10, -10, -10, 10, -10, 10, -10, 10, 10, 10, 10], "withholdReward": false, "trial_id": "practice_2", "block": "test", "trialIndex": 1, "score": 12.5, "costs": -1, "simulationMode": [null, null, null, null, null], "rewards": [10, -10, -10, 10, 10], "path": ["0", "0", "23", "24", "25", "30", "32"], "rt": [6288, 355, 345, 275, 318], "actions": ["left", "left", "left", "down", "down"], "actionTimes": [8150, 9004, 9844, 10628, 11452], "queries": {"click": {"state": {"target": ["21", "32"], "time": [2853, 4407]}, "edge": {"target": [], "time": []}}, "mouseover": {"state": {"target": ["12", "22", "21", "32", "30", "29", "26", "23", "0"], "time": [2296, 2323, 2628, 3842, 5043, 5329, 6297, 6392, 6543]}, "edge": {"target": [], "time": []}}, "mouseout": {"state": {"target": ["22", "0", "12", "22", "21", "21", "32", "30", "29", "26", "23"], "time": [1141, 1290, 2312, 2373, 2917, 3458, 4992, 5095, 6265, 6314, 6494]}, "edge": {"target": [], "time": []}}}, "displayed_time": "11.95", "trialTime": 17691, "trial_type": "mouselab-mdp", "trial_index": 5, "time_elapsed": 400425, "internal_node_id": "0.0-2.0-2.0-1.0"}}, {"uniqueid": "w77389308:a30772075", "current_trial": 6, "dateTime": 1691143146992, "trialdata": {"view_history": [{"page_index": 0, "viewing_time": 25304}, {"page_index": 1, "viewing_time": 7760}], "rt": 33065, "trial_id": "mouselab_instructions_2_misaligned", "trial_type": "instructions", "trial_index": 6, "time_elapsed": 433496, "internal_node_id": "0.0-2.0-3.0"}}, {"uniqueid": "w77389308:a30772075", "current_trial": 7, "dateTime": 1691143187328, "trialdata": {"rt": 40331, "response": {"Q0": "The cost for clicking on nodes may vary between nodes.", "Q1": "The better I perform the higher my bonus will be.", "Q2": "No, the amount of cash at each node of the web may be different each time.", "Q3": "To get the highest total score.", "Q4": "Only before moving the spider.", "Q5": "3 seconds"}, "question_order": [0, 1, 2, 3, 4, 5], "correct": {"Q0": "The cost for clicking on nodes may vary between nodes.", "Q1": "The better I perform the higher my bonus will be.", "Q2": "No, the amount of cash at each node of the web may be different each time.", "Q3": "To get the highest total score.", "Q4": "Only before moving the spider.", "Q5": "3 seconds"}, "trial_id": "mouselab_quiz_misaligned", "trial_type": "survey-multi-choice", "trial_index": 7, "time_elapsed": 473832, "internal_node_id": "0.0-2.0-4.0"}}, {"uniqueid": "w77389308:a30772075", "current_trial": 8, "dateTime": 1691143197052, "trialdata": {"rt": 9712, "stimulus": "\n<h1> Get ready to start the game! </h1>\n\nThank you for reading the instructions. Get ready start with the 40 rounds of this game.\n<br><br>\nIf you need to take a break, feel free to take one after the end of a round, before continuing to the next one.\n<br><br>\nRemember, the more money the spider gets, the bigger your bonus will be!\n<br><br>\n<div style='text-align: center;'>Press <code>space</code> to begin.</div>\n\n<br><br>\n(If, at any point, the <code>space</code> key does not take you to the next page, click once on the text and try again.)", "response": " ", "trial_id": "mdp_ready", "trial_type": "html-keyboard-response", "trial_index": 8, "time_elapsed": 483555, "internal_node_id": "0.0-4.0-0.0"}}, {"uniqueid": "w77389308:a30772075", "current_trial": 9, "dateTime": 1691143219250, "trialdata": {"revealed_states": [], "clicked_states": ["20", "16"], "num_clicks_accrued": [0, 0, 0, 0, 0, 0, 0, 0, 0, 0, 0, 0, 0], "stateRewards": ["", -2, 3, -1, 2, -72, 63, 20, -1, 62, -66, 39, -2, 3, -6, 14, 22, 47, 1, 8, -49, -1, -41, 2, 2, -6, -16, -64, -60, -34, 16, 54, 22, -7], "withholdReward": false, "trial_id": "mdp_trial_1", "block": "test", "trialIndex": 2, "score": 26.7, "costs": -4.3, "simulationMode": [null, null, null, null, null], "rewards": [-2, 3, -6, 14, 22], "path": ["0", "0", "12", "13", "14", "15", "16"], "rt": [10217, 395, 281, 272, 551], "actions": ["right", "right", "right", "up", "up"], "actionTimes": [11918, 12822, 13606, 14382, 15429], "queries": {"click": {"state": {"target": ["20", "16"], "time": [2630, 6605]}, "edge": {"target": [], "time": []}}, "mouseover": {"state": {"target": ["0", "12", "13", "14", "20", "16", "7", "2", "2", "7", "6", "7", "3", "8", "11", "11", "8", "7", "12", "12"], "time": [2033, 2066, 2093, 2126, 2410, 3280, 7267, 7286, 7600, 7650, 8918, 9302, 9352, 9534, 9667, 9873, 9975, 10069, 10203, 10560]}, "edge": {"target": [], "time": []}}, "mouseout": {"state": {"target": ["13", "0", "0", "0", "12", "13", "14", "20", "16", "7", "2", "2", "7", "16", "16", "6", "16", "7", "3", "8", "11", "11", "8", "7", "12", "12"], "time": [909, 1025, 1109, 2049, 2079, 2111, 2160, 2699, 7233, 7283, 7300, 7633, 8417, 8551, 8785, 8935, 9201, 9319, 9370, 9600, 9800, 9958, 10005, 10087, 10254, 10977]}, "edge": {"target": [], "time": []}}}, "displayed_time": "15.93", "trialTime": 21772, "trial_type": "mouselab-mdp", "trial_index": 9, "time_elapsed": 505752, "internal_node_id": "0.0-4.0-1.0-0.0"}}, {"uniqueid": "w77389308:a30772075", "current_trial": 10, "dateTime": 1691143239205, "trialdata": {"revealed_states": [], "clicked_states": ["29"], "num_clicks_accrued": [0, 0, 0, 0, 0, 0, 0, 0, 0, 0, 0, 0, 0], "stateRewards": ["", -2, 1, -3, -16, -39, -52, 30, -7, -41, -59, 11, 2, 1, 8, 2, -11, -26, -42, -13, 87, -59, -48, -1, -1, -1, 16, -79, 31, 50, -1, -84, 34, -82], "withholdReward": false, "trial_id": "mdp_trial_2", "block": "test", "trialIndex": 3, "score": 60.85, "costs": -2.15, "simulationMode": [null, null, null, null, null], "rewards": [-1, -1, -1, 16, 50], "path": ["0", "0", "23", "24", "25", "26", "29"], "rt": [5789, 334, 405, 377, 542], "actions": ["left", "left", "left", "up", "left"], "actionTimes": [7206, 8044, 9123, 10010, 11060], "queries": {"click": {"state": {"target": ["29"], "time": [2447]}, "edge": {"target": [], "time": []}}, "mouseover": {"state": {"target": ["23", "24", "25", "29", "27", "28", "23", "23"], "time": [1817, 1886, 1951, 2133, 3291, 5943, 5972, 6278]}, "edge": {"target": [], "time": []}}, "mouseout": {"state": {"target": ["0", "23", "24", "25", "29", "27", "28", "23", "23"], "time": [1800, 1867, 1904, 2019, 3204, 5927, 5958, 5988, 17717]}, "edge": {"target": [], "time": []}}}, "displayed_time": "15.42", "trialTime": 19428, "trial_type": "mouselab-mdp", "trial_index": 10, "time_elapsed": 525707, "internal_node_id": "0.0-4.0-1.0-1.0"}}, {"uniqueid": "w77389308:a30772075", "current_trial": 11, "dateTime": 1691143270075, "trialdata": {"revealed_states": [], "clicked_states": ["5", "9", "17", "20", "33"], "num_clicks_accrued": [0, 0, 0, 0, 0, 0, 0, 0, 0, 0, 0, 0, 0], "stateRewards": ["", -2, -1, -4, -15, -14, -67, 32, -3, -59, 63, 31, 2, -1, -7, -15, 71, -66, -27, -3, -54, -39, 72, 2, 1, 1, -13, 77, -40, 35, -9, 35, 75, 57], "withholdReward": false, "trial_id": "mdp_trial_3", "block": "test", "trialIndex": 4, "score": 41.25, "costs": -10.75, "simulationMode": [null, null, null, null, null], "rewards": [2, 1, 1, -9, 57], "path": ["0", "0", "23", "24", "25", "30", "33"], "rt": [18861, 210, 213, 303, 359], "actions": ["left", "left", "left", "down", "left"], "actionTimes": [21598, 22315, 23034, 23842, 24698], "queries": {"click": {"state": {"target": ["5", "9", "17", "20", "33"], "time": [3770, 7049, 10338, 13773, 17486]}, "edge": {"target": [], "time": []}}, "mouseover": {"state": {"target": ["7", "4", "5", "9", "15", "17", "17", "20", "19", "22", "31", "30", "30", "33", "33", "29", "23"], "time": [3306, 3344, 3415, 5271, 9089, 9173, 9423, 13329, 14645, 14665, 14778, 14828, 14995, 15065, 17318, 20601, 20799]}, "edge": {"target": [], "time": []}}, "mouseout": {"state": {"target": ["13", "12", "0", "7", "4", "5", "9", "15", "17", "17", "17", "20", "19", "22", "31", "30", "30", "33", "33", "29", "23"], "time": [1417, 1901, 1950, 3325, 3382, 4918, 8789, 9122, 9222, 10406, 12876, 14612, 14662, 14679, 14811, 14878, 15047, 17020, 19450, 20732, 20816]}, "edge": {"target": [], "time": []}}}, "displayed_time": "25.20", "trialTime": 30426, "trial_type": "mouselab-mdp", "trial_index": 11, "time_elapsed": 556578, "internal_node_id": "0.0-4.0-1.0-2.0"}}, {"uniqueid": "w77389308:a30772075", "current_trial": 12, "dateTime": 1691143294156, "trialdata": {"revealed_states": [], "clicked_states": ["17", "29", "9"], "num_clicks_accrued": [0, 0, 0, 0, 0, 0, 0, 0, 0, 0, 0, 0, 0], "stateRewards": ["", 1, -4, -6, -1, -21, 17, -72, 10, 77, 67, -46, -1, 4, -2, 14, -66, -49, -45, -15, -52, 23, -67, 2, -2, -2, 15, -3, 45, -64, 5, -44, 83, 61], "withholdReward": false, "trial_id": "mdp_trial_4", "block": "test", "trialIndex": 5, "score": 71.55, "costs": -6.449999999999999, "simulationMode": [null, null, null, null, null], "rewards": [1, -4, -6, 10, 77], "path": ["0", "0", "1", "2", "3", "8", "9"], "rt": [13252, 274, 275, 396, 511], "actions": ["up", "up", "up", "left", "up"], "actionTimes": [15348, 16128, 16896, 17784, 18801], "queries": {"click": {"state": {"target": ["17", "29", "9"], "time": [3483, 6780, 10660]}, "edge": {"target": [], "time": []}}, "mouseover": {"state": {"target": ["12", "13", "15", "17", "15", "18", "28", "26", "29", "27", "27", "11", "9", "8", "9", "8", "10", "0", "21", "21", "22", "12"], "time": [2847, 2874, 2954, 3226, 3946, 3995, 4260, 4292, 4390, 9249, 9395, 9730, 9927, 10153, 10395, 11234, 11266, 11330, 11399, 12133, 14321, 14384]}, "edge": {"target": [], "time": []}}, "mouseout": {"state": {"target": ["0", "12", "13", "15", "17", "15", "18", "28", "26", "29", "27", "27", "11", "9", "8", "9", "9", "8", "10", "0", "21", "21", "22", "12"], "time": [2825, 2871, 2888, 3105, 3923, 3978, 4011, 4275, 4323, 9165, 9295, 9461, 9751, 10117, 10361, 10705, 11214, 11264, 11280, 11349, 11416, 14289, 14350, 14517]}, "edge": {"target": [], "time": []}}}, "displayed_time": "19.31", "trialTime": 23665, "trial_type": "mouselab-mdp", "trial_index": 12, "time_elapsed": 580659, "internal_node_id": "0.0-4.0-1.0-3.0"}}, {"uniqueid": "w77389308:a30772075", "current_trial": 13, "dateTime": 1691143311403, "trialdata": {"revealed_states": [], "clicked_states": ["21"], "num_clicks_accrued": [0, 0, 0, 0, 0, 0, 0, 0, 0, 0, 0, 0, 0], "stateRewards": ["", 1, 2, -3, 6, -88, 74, -45, 7, -46, 40, -77, 1, -4, 4, 3, 22, -25, -59, 8, -83, 19, -60, -1, -1, -1, -8, 26, -29, 64, -7, -88, -51, -55], "withholdReward": false, "trial_id": "mdp_trial_5", "block": "test", "trialIndex": 6, "score": 25.85, "costs": -2.15, "simulationMode": [null, null, null, null, null], "rewards": [1, -4, 4, 8, 19], "path": ["0", "0", "12", "13", "14", "19", "21"], "rt": [5532, 332, 275, 283, 579], "actions": ["right", "right", "right", "down", "down"], "actionTimes": [6844, 7682, 8458, 9234, 10314], "queries": {"click": {"state": {"target": ["21"], "time": [2229]}, "edge": {"target": [], "time": []}}, "mouseover": {"state": {"target": ["0", "21", "32", "12"], "time": [1679, 2045, 3259, 5895]}, "edge": {"target": [], "time": []}}, "mouseout": {"state": {"target": ["0", "0", "21", "32", "12"], "time": [741, 1724, 2792, 5483, 16169]}, "edge": {"target": [], "time": []}}}, "displayed_time": "15.31", "trialTime": 16825, "trial_type": "mouselab-mdp", "trial_index": 13, "time_elapsed": 597906, "internal_node_id": "0.0-4.0-1.0-4.0"}}, {"uniqueid": "w77389308:a30772075", "current_trial": 14, "dateTime": 1691143333157, "trialdata": {"revealed_states": [], "clicked_states": ["32"], "num_clicks_accrued": [0, 0, 0, 0, 0, 0, 0, 0, 0, 0, 0, 0, 0], "stateRewards": ["", -1, -2, -8, 8, -27, -82, 19, -14, -62, 4, 1, -2, 2, 6, 10, 73, -51, -2, 2, 73, -48, 54, -1, 2, -4, 11, -25, 47, 86, 15, 33, 43, -42], "withholdReward": false, "trial_id": "mdp_trial_6", "block": "test", "trialIndex": 7, "score": 52.85, "costs": -2.15, "simulationMode": [null, null, null, null, null], "rewards": [-1, 2, -4, 15, 43], "path": ["0", "0", "23", "24", "25", "30", "32"], "rt": [6421, 207, 228, 293, 330], "actions": ["left", "left", "left", "down", "down"], "actionTimes": [9011, 9719, 10487, 11287, 12160], "queries": {"click": {"state": {"target": ["32"], "time": [4090]}, "edge": {"target": [], "time": []}}, "mouseover": {"state": {"target": ["0", "6", "7", "1", "23", "31", "32", "30", "29", "29", "26", "28", "23"], "time": [3007, 3153, 3419, 3502, 3586, 3620, 3850, 5020, 5105, 5338, 7682, 7708, 7821]}, "edge": {"target": [], "time": []}}, "mouseout": {"state": {"target": ["12", "0", "23", "0", "6", "7", "1", "23", "31", "32", "30", "29", "29", "26", "28", "23", "0", "12", "17", "15", "18"], "time": [1771, 1815, 1931, 3038, 3167, 3453, 3552, 3604, 3651, 4787, 5037, 5156, 7660, 7698, 7724, 17657, 18421, 18453, 20506, 20536, 20619]}, "edge": {"target": [], "time": []}}}, "displayed_time": "16.59", "trialTime": 21320, "trial_type": "mouselab-mdp", "trial_index": 14, "time_elapsed": 619659, "internal_node_id": "0.0-4.0-1.0-5.0"}}, {"uniqueid": "w77389308:a30772075", "current_trial": 15, "dateTime": 1691143353772, "trialdata": {"revealed_states": [], "clicked_states": ["16", "29", "32"], "num_clicks_accrued": [0, 0, 0, 0, 0, 0, 0, 0, 0, 0, 0, 0, 0], "stateRewards": ["", 1, -2, 7, -14, 88, -56, -44, -14, 64, -51, -57, -2, 3, -4, -9, -11, 19, -77, -1, 68, 75, -67, -1, 1, -2, 5, -37, 70, -34, -10, -72, 63, -41], "withholdReward": false, "trial_id": "mdp_trial_7", "block": "test", "trialIndex": 8, "score": 44.55, "costs": -6.449999999999999, "simulationMode": [null, null, null, null, null], "rewards": [-1, 1, -2, -10, 63], "path": ["0", "0", "23", "24", "25", "30", "32"], "rt": [12239, 402, 278, 251, 334], "actions": ["left", "left", "left", "down", "down"], "actionTimes": [13372, 14274, 15050, 15810, 16642], "queries": {"click": {"state": {"target": ["16", "29", "32"], "time": [2509, 5777, 9102]}, "edge": {"target": [], "time": []}}, "mouseover": {"state": {"target": ["18", "16", "28", "26", "29", "29", "32", "32", "21", "23"], "time": [2079, 2278, 3027, 3177, 3259, 3377, 6583, 6679, 10937, 12855]}, "edge": {"target": [], "time": []}}, "mouseout": {"state": {"target": ["18", "16", "16", "28", "26", "29", "29", "32", "32", "21"], "time": [2111, 2588, 2944, 3060, 3227, 3276, 6445, 6629, 10583, 12391]}, "edge": {"target": [], "time": []}}}, "displayed_time": "17.14", "trialTime": 20137, "trial_type": "mouselab-mdp", "trial_index": 15, "time_elapsed": 640275, "internal_node_id": "0.0-4.0-1.0-6.0"}}, {"uniqueid": "w77389308:a30772075", "current_trial": 16, "dateTime": 1691143372092, "trialdata": {"revealed_states": [], "clicked_states": ["5"], "num_clicks_accrued": [0, 0, 0, 0, 0, 0, 0, 0, 0, 0, 0, 0, 0], "stateRewards": ["", -1, 3, -4, -14, 78, 67, 2, 13, -32, 28, 39, -2, 1, -4, -4, -4, -42, -86, 11, 64, -29, -32, -1, -4, 2, -7, 5, 68, -61, 2, -21, 85, 50], "withholdReward": false, "trial_id": "mdp_trial_8", "block": "test", "trialIndex": 9, "score": 59.85, "costs": -2.15, "simulationMode": [null, null, null, null, null], "rewards": [-1, 3, -4, -14, 78], "path": ["0", "0", "1", "2", "3", "4", "5"], "rt": [5148, 196, 200, 172, 296], "actions": ["up", "up", "up", "right", "up"], "actionTimes": [6578, 7271, 7975, 8648, 9440], "queries": {"click": {"state": {"target": ["5"], "time": [2369]}, "edge": {"target": [], "time": []}}, "mouseover": {"state": {"target": ["7", "4", "5", "9", "9"], "time": [1933, 1967, 2205, 3186, 3305]}, "edge": {"target": [], "time": []}}, "mouseout": {"state": {"target": ["23", "0", "7", "4", "5", "9", "9", "2", "1", "12"], "time": [869, 1870, 1949, 2033, 3144, 3238, 11851, 15184, 15218, 15284]}, "edge": {"target": [], "time": []}}}, "displayed_time": "15.43", "trialTime": 17864, "trial_type": "mouselab-mdp", "trial_index": 16, "time_elapsed": 658595, "internal_node_id": "0.0-4.0-1.0-7.0"}}, {"uniqueid": "w77389308:a30772075", "current_trial": 17, "dateTime": 1691143396929, "trialdata": {"revealed_states": [], "clicked_states": ["33", "29", "17", "6"], "num_clicks_accrued": [0, 0, 0, 0, 0, 0, 0, 0, 0, 0, 0, 0, 0], "stateRewards": ["", -1, -4, 8, 8, -68, 47, 24, -7, -61, 49, -69, -1, -1, 8, -7, 42, 1, -45, -11, 10, -63, -6, 1, 4, 6, -16, 79, -37, -58, -12, 81, 18, -53], "withholdReward": false, "trial_id": "mdp_trial_9", "block": "test", "trialIndex": 10, "score": 49.4, "costs": -8.6, "simulationMode": [null, null, null, null, null], "rewards": [-1, -4, 8, 8, 47], "path": ["0", "0", "1", "2", "3", "4", "6"], "rt": [16488, 298, 274, 186, 311], "actions": ["up", "up", "up", "right", "right"], "actionTimes": [17393, 18190, 18967, 19646, 20455], "queries": {"click": {"state": {"target": ["33", "29", "17", "6"], "time": [1857, 5050, 8203, 12511]}, "edge": {"target": [], "time": []}}, "mouseover": {"state": {"target": ["0", "33", "29", "26", "28", "1", "15", "17", "17", "16", "6", "16"], "time": [1127, 1627, 2458, 5578, 5601, 5627, 5679, 5701, 5945, 10549, 10749, 14687]}, "edge": {"target": [], "time": []}}, "mouseout": {"state": {"target": ["0", "0", "33", "29", "26", "28", "1", "15", "17", "17", "16", "6"], "time": [136, 1155, 2324, 5561, 5597, 5611, 5643, 5697, 5712, 10500, 10582, 14619]}, "edge": {"target": [], "time": []}}}, "displayed_time": "20.96", "trialTime": 24374, "trial_type": "mouselab-mdp", "trial_index": 17, "time_elapsed": 683432, "internal_node_id": "0.0-4.0-1.0-8.0"}}, {"uniqueid": "w77389308:a30772075", "current_trial": 18, "dateTime": 1691143414651, "trialdata": {"revealed_states": [], "clicked_states": ["11"], "num_clicks_accrued": [0, 0, 0, 0, 0, 0, 0, 0, 0, 0, 0, 0, 0], "stateRewards": ["", -2, -3, 1, -7, 39, -67, 16, 5, -20, 73, 66, -1, 4, 5, -3, 23, -68, -87, -8, 3, -3, 17, 1, -4, -2, -13, -32, 34, 61, -5, -11, -18, 12], "withholdReward": false, "trial_id": "mdp_trial_10", "block": "test", "trialIndex": 11, "score": 64.85, "costs": -2.15, "simulationMode": [null, null, null, null, null], "rewards": [-2, -3, 1, 5, 66], "path": ["0", "0", "1", "2", "3", "8", "11"], "rt": [5302, 327, 245, 213, 306], "actions": ["up", "up", "up", "left", "left"], "actionTimes": [7159, 7990, 8735, 9455, 10263], "queries": {"click": {"state": {"target": ["11"], "time": [2921]}, "edge": {"target": [], "time": []}}, "mouseover": {"state": {"target": ["11", "9"], "time": [2750, 3571]}, "edge": {"target": [], "time": []}}, "mouseout": {"state": {"target": ["16", "18", "12", "0", "0", "11", "9"], "time": [794, 878, 1044, 1144, 2298, 3490, 13855]}, "edge": {"target": [], "time": []}}}, "displayed_time": "15.88", "trialTime": 17126, "trial_type": "mouselab-mdp", "trial_index": 18, "time_elapsed": 701154, "internal_node_id": "0.0-4.0-1.0-9.0"}}, {"uniqueid": "w77389308:a30772075", "current_trial": 19, "dateTime": 1691143435586, "trialdata": {"revealed_states": [], "clicked_states": ["17", "21", "32"], "num_clicks_accrued": [0, 0, 0, 0, 0, 0, 0, 0, 0, 0, 0, 0, 0], "stateRewards": ["", 1, -3, 4, 13, -72, 52, 5, 5, -58, 5, 14, 2, 1, 3, -14, -86, -4, 73, 6, -58, -50, 49, 2, -3, -4, 2, 33, -41, 42, -11, 81, 45, 53], "withholdReward": false, "trial_id": "mdp_trial_11", "block": "test", "trialIndex": 12, "score": 22.55, "costs": -6.449999999999999, "simulationMode": [null, null, null, null, null], "rewards": [2, -3, -4, -11, 45], "path": ["0", "0", "23", "24", "25", "30", "32"], "rt": [12539, 121, 82, 147, 253], "actions": ["left", "left", "left", "down", "down"], "actionTimes": [14472, 15102, 15702, 16358, 17111], "queries": {"click": {"state": {"target": ["17", "21", "32"], "time": [3217, 6434, 10307]}, "edge": {"target": [], "time": []}}, "mouseover": {"state": {"target": ["12", "13", "14", "17", "17", "20", "20", "21", "21", "32", "32", "31"], "time": [2411, 2447, 2474, 2674, 2862, 4048, 4160, 4477, 4610, 7363, 7613, 11984]}, "edge": {"target": [], "time": []}}, "mouseout": {"state": {"target": ["9", "2", "0", "12", "13", "14", "17", "17", "20", "20", "21", "21", "32", "32"], "time": [1042, 1105, 1457, 2428, 2458, 2491, 2724, 3977, 4078, 4413, 4529, 7163, 7497, 11066]}, "edge": {"target": [], "time": []}}}, "displayed_time": "17.61", "trialTime": 20438, "trial_type": "mouselab-mdp", "trial_index": 19, "time_elapsed": 722089, "internal_node_id": "0.0-4.0-1.0-10.0"}}, {"uniqueid": "w77389308:a30772075", "current_trial": 20, "dateTime": 1691143454540, "trialdata": {"revealed_states": [], "clicked_states": ["17", "29"], "num_clicks_accrued": [0, 0, 0, 0, 0, 0, 0, 0, 0, 0, 0, 0, 0], "stateRewards": ["", 2, 3, -2, -8, -8, -41, 74, 15, -23, -80, 1, 1, 3, 3, -15, -63, -78, 67, 13, 75, -41, 86, 2, -2, 6, -3, -8, -49, 50, -6, 83, 74, 80], "withholdReward": false, "trial_id": "mdp_trial_12", "block": "test", "trialIndex": 13, "score": 48.7, "costs": -4.3, "simulationMode": [null, null, null, null, null], "rewards": [2, -2, 6, -3, 50], "path": ["0", "0", "23", "24", "25", "26", "29"], "rt": [9799, 129, 167, 220, 222], "actions": ["left", "left", "left", "up", "left"], "actionTimes": [11652, 12281, 12953, 13673, 14393], "queries": {"click": {"state": {"target": ["17", "29"], "time": [4109, 7306]}, "edge": {"target": [], "time": []}}, "mouseover": {"state": {"target": ["12", "13", "13", "14", "14", "13", "13", "13", "12", "0", "0", "12", "15", "17", "18", "1", "29", "32", "31", "32", "33", "25", "33", "24"], "time": [2414, 2475, 2623, 2708, 2909, 2961, 3124, 3243, 3294, 3321, 3424, 3676, 3742, 3793, 4611, 4640, 4785, 8098, 8430, 8598, 8963, 9565, 9780, 10748]}, "edge": {"target": [], "time": []}}, "mouseout": {"state": {"target": ["31", "0", "12", "13", "13", "14", "14", "13", "13", "13", "12", "0", "0", "12", "15", "17", "17", "18", "1", "29", "32", "31", "32", "33", "25", "33", "24"], "time": [705, 2390, 2442, 2575, 2658, 2774, 2942, 2996, 3174, 3277, 3312, 3344, 3641, 3696, 3761, 4201, 4579, 4625, 4653, 7963, 8347, 8513, 8913, 9498, 9697, 10673, 16991]}, "edge": {"target": [], "time": []}}}, "displayed_time": "15.85", "trialTime": 18185, "trial_type": "mouselab-mdp", "trial_index": 20, "time_elapsed": 741043, "internal_node_id": "0.0-4.0-1.0-11.0"}}, {"uniqueid": "w77389308:a30772075", "current_trial": 21, "dateTime": 1691143471835, "trialdata": {"revealed_states": [], "clicked_states": ["5", "11"], "num_clicks_accrued": [0, 0, 0, 0, 0, 0, 0, 0, 0, 0, 0, 0, 0], "stateRewards": ["", 1, 1, 6, -14, -40, 37, 16, -13, 33, -68, 49, 2, 4, 3, 6, 55, 27, 32, 10, -65, 20, -87, 2, 1, -6, -5, -42, 12, 29, -8, 16, 76, -33], "withholdReward": false, "trial_id": "mdp_trial_13", "block": "test", "trialIndex": 14, "score": 39.7, "costs": -4.3, "simulationMode": [null, null, null, null, null], "rewards": [1, 1, 6, -13, 49], "path": ["0", "0", "1", "2", "3", "8", "11"], "rt": [8413, 151, 124, 124, 275], "actions": ["up", "up", "up", "left", "left"], "actionTimes": [9993, 10645, 11269, 11885, 12653], "queries": {"click": {"state": {"target": ["5", "11"], "time": [2561, 5760]}, "edge": {"target": [], "time": []}}, "mouseover": {"state": {"target": ["18", "16", "5", "4", "11", "9", "26", "26", "29", "27", "29", "27", "10", "2", "18", "15"], "time": [1715, 1756, 2233, 3573, 3985, 6663, 7155, 7307, 7472, 7738, 7991, 9026, 9144, 9191, 9238, 9272]}, "edge": {"target": [], "time": []}}, "mouseout": {"state": {"target": ["0", "18", "16", "5", "4", "11", "9", "11", "26", "26", "29", "27", "29", "27", "10", "2", "18", "15"], "time": [1300, 1742, 1769, 3351, 3621, 6588, 7072, 7121, 7189, 7398, 7672, 7922, 8978, 9045, 9174, 9209, 9255, 9305]}, "edge": {"target": [], "time": []}}}, "displayed_time": "15.58", "trialTime": 16805, "trial_type": "mouselab-mdp", "trial_index": 21, "time_elapsed": 758337, "internal_node_id": "0.0-4.0-1.0-12.0"}}, {"uniqueid": "w77389308:a30772075", "current_trial": 22, "dateTime": 1691143488995, "trialdata": {"revealed_states": [], "clicked_states": ["22"], "num_clicks_accrued": [0, 0, 0, 0, 0, 0, 0, 0, 0, 0, 0, 0, 0], "stateRewards": ["", -1, 2, 6, 11, 21, -21, -21, -6, 48, -71, 88, -1, -3, 3, 7, 64, 2, 9, -4, 37, -67, 72, 2, 2, -8, -8, -10, 71, -40, -3, 73, 80, 47], "withholdReward": false, "trial_id": "mdp_trial_14", "block": "test", "trialIndex": 15, "score": 64.85, "costs": -2.15, "simulationMode": [null, null, null, null, null], "rewards": [-1, -3, 3, -4, 72], "path": ["0", "0", "12", "13", "14", "19", "22"], "rt": [7431, 231, 331, 230, 856], "actions": ["right", "right", "right", "down", "left"], "actionTimes": [8605, 9332, 10171, 10899, 12260], "queries": {"click": {"state": {"target": ["22"], "time": [3054]}, "edge": {"target": [], "time": []}}, "mouseover": {"state": {"target": ["22", "21", "21"], "time": [1929, 3896, 3977]}, "edge": {"target": [], "time": []}}, "mouseout": {"state": {"target": ["13", "0", "22", "21", "21"], "time": [391, 1647, 3812, 3911, 15342]}, "edge": {"target": [], "time": []}}}, "displayed_time": "15.18", "trialTime": 16707, "trial_type": "mouselab-mdp", "trial_index": 22, "time_elapsed": 775498, "internal_node_id": "0.0-4.0-1.0-13.0"}}, {"uniqueid": "w77389308:a30772075", "current_trial": 23, "dateTime": 1691143506249, "trialdata": {"revealed_states": [], "clicked_states": ["7"], "num_clicks_accrued": [0, 0, 0, 0, 0, 0, 0, 0, 0, 0, 0, 0, 0], "stateRewards": ["", -1, 1, 6, -6, 70, 66, 67, -16, -75, -35, 37, -1, 4, 4, -6, 47, -9, 63, 15, 21, -63, 13, 1, 3, -6, 10, 79, -29, 18, -15, 9, -67, -19], "withholdReward": false, "trial_id": "mdp_trial_15", "block": "test", "trialIndex": 16, "score": 64.85, "costs": -2.15, "simulationMode": [null, null, null, null, null], "rewards": [-1, 1, 6, -6, 67], "path": ["0", "0", "1", "2", "3", "4", "7"], "rt": [6874, 613, 289, 159, 311], "actions": ["up", "up", "up", "right", "down"], "actionTimes": [8252, 9369, 10170, 10833, 11650], "queries": {"click": {"state": {"target": ["7"], "time": [3245]}, "edge": {"target": [], "time": []}}, "mouseover": {"state": {"target": ["12", "13", "7", "2", "26", "29"], "time": [2004, 2622, 3070, 3951, 4033, 4083]}, "edge": {"target": [], "time": []}}, "mouseout": {"state": {"target": ["0", "12", "13", "7", "7", "2", "26", "29"], "time": [1983, 2032, 2649, 3304, 3933, 3968, 4067, 6407]}, "edge": {"target": [], "time": []}}}, "displayed_time": "15.39", "trialTime": 16800, "trial_type": "mouselab-mdp", "trial_index": 23, "time_elapsed": 792752, "internal_node_id": "0.0-4.0-1.0-14.0"}}, {"uniqueid": "w77389308:a30772075", "current_trial": 24, "dateTime": 1691143539665, "trialdata": {"revealed_states": [], "clicked_states": ["10", "7", "22", "31", "33", "29"], "num_clicks_accrued": [0, 0, 0, 0, 0, 0, 0, 0, 0, 0, 0, 0, 0], "stateRewards": ["", -1, 3, 1, -11, -22, -36, 19, -5, -70, -52, 50, -2, -4, 4, -2, -41, -83, 29, -2, 22, 10, -6, -2, 3, -2, 14, 54, 44, 77, -9, -65, -37, -40], "withholdReward": false, "trial_id": "mdp_trial_16", "block": "test", "trialIndex": 17, "score": 77.1, "costs": -12.9, "simulationMode": [null, null, null, null, null], "rewards": [-2, 3, -2, 14, 77], "path": ["0", "0", "23", "24", "25", "26", "29"], "rt": [23680, 281, 260, 269, 286], "actions": ["left", "left", "left", "up", "left"], "actionTimes": [25385, 26174, 26934, 27710, 28494], "queries": {"click": {"state": {"target": ["10", "7", "22", "31", "33", "29"], "time": [3154, 6498, 9914, 13241, 17193, 20474]}, "edge": {"target": [], "time": []}}, "mouseover": {"state": {"target": ["7", "2", "10", "2", "7", "7", "13", "22", "31", "30", "33", "33", "29", "26", "23", "0", "12", "19", "20"], "time": [2719, 2780, 2879, 4117, 4167, 4434, 8336, 8803, 10789, 16362, 16414, 16983, 18249, 23003, 23151, 23201, 23235, 23407, 23573]}, "edge": {"target": [], "time": []}}, "mouseout": {"state": {"target": ["25", "24", "23", "0", "0", "7", "2", "10", "2", "7", "7", "13", "22", "31", "30", "33", "33", "29", "26", "23", "0", "12", "19", "20", "21"], "time": [848, 897, 961, 1130, 2346, 2746, 2830, 4101, 4149, 4203, 8186, 8354, 10505, 16316, 16395, 16716, 17979, 22973, 23056, 23184, 23217, 23252, 23557, 23617, 30930]}, "edge": {"target": [], "time": []}}}, "displayed_time": "28.99", "trialTime": 32948, "trial_type": "mouselab-mdp", "trial_index": 24, "time_elapsed": 826168, "internal_node_id": "0.0-4.0-1.0-15.0"}}, {"uniqueid": "w77389308:a30772075", "current_trial": 25, "dateTime": 1691143558957, "trialdata": {"revealed_states": [], "clicked_states": ["21", "31"], "num_clicks_accrued": [0, 0, 0, 0, 0, 0, 0, 0, 0, 0, 0, 0, 0], "stateRewards": ["", 1, 1, -3, 2, 22, -25, -11, -5, 50, 49, 3, 1, -1, 8, 14, -85, -30, 57, -6, -39, -16, 59, -2, -1, 5, 5, 59, -16, 8, 4, 67, 56, -9], "withholdReward": false, "trial_id": "mdp_trial_17", "block": "test", "trialIndex": 18, "score": 68.7, "costs": -4.3, "simulationMode": [null, null, null, null, null], "rewards": [-2, -1, 5, 4, 67], "path": ["0", "0", "23", "24", "25", "30", "31"], "rt": [8729, 195, 269, 302, 437], "actions": ["left", "left", "left", "down", "right"], "actionTimes": [10254, 10954, 11730, 12529, 13466], "queries": {"click": {"state": {"target": ["21", "31"], "time": [2533, 5772]}, "edge": {"target": [], "time": []}}, "mouseover": {"state": {"target": ["21", "21", "32", "30", "31"], "time": [2080, 2387, 3984, 4070, 4353]}, "edge": {"target": [], "time": []}}, "mouseout": {"state": {"target": ["0", "21", "21", "32", "30", "31"], "time": [1989, 2130, 3881, 4002, 4086, 8653]}, "edge": {"target": [], "time": []}}}, "displayed_time": "15.53", "trialTime": 18690, "trial_type": "mouselab-mdp", "trial_index": 25, "time_elapsed": 845459, "internal_node_id": "0.0-4.0-1.0-16.0"}}, {"uniqueid": "w77389308:a30772075", "current_trial": 26, "dateTime": 1691143601659, "trialdata": {"revealed_states": [], "clicked_states": ["16", "18", "28", "10", "9", "5", "27", "29", "33"], "num_clicks_accrued": [0, 0, 0, 0, 0, 0, 0, 0, 0, 0, 0, 0, 0], "stateRewards": ["", -2, -3, -5, 8, 27, 11, 43, -6, -24, -87, 69, -2, 1, 1, 9, 19, 48, -37, 9, -14, 45, 62, 1, 2, 1, 16, -81, -41, 22, 4, -6, -63, 47], "withholdReward": false, "trial_id": "mdp_trial_18", "block": "test", "trialIndex": 19, "score": 35.650000000000006, "costs": -19.349999999999998, "simulationMode": [null, null, null, null, null], "rewards": [1, 2, 1, 4, 47], "path": ["0", "0", "23", "24", "25", "30", "33"], "rt": [33891, 196, 256, 249, 274], "actions": ["left", "left", "left", "down", "left"], "actionTimes": [36144, 36837, 37596, 38341, 39117], "queries": {"click": {"state": {"target": ["16", "18", "28", "10", "9", "5", "27", "29", "33"], "time": [3497, 7087, 10751, 14057, 17241, 20382, 24252, 27959, 31719]}, "edge": {"target": [], "time": []}}, "mouseover": {"state": {"target": ["12", "17", "16", "17", "14", "18", "28", "10", "8", "9", "5", "3", "8", "27", "26", "29", "33", "33", "30", "22", "19", "20", "20"], "time": [2642, 2954, 3292, 4058, 5157, 5257, 10479, 13517, 15717, 15784, 17686, 22641, 22692, 23926, 27529, 27745, 31333, 31481, 32247, 32334, 32354, 32374, 32718]}, "edge": {"target": [], "time": []}}, "mouseout": {"state": {"target": ["12", "17", "16", "17", "14", "18", "28", "10", "8", "9", "5", "3", "8", "27", "27", "26", "29", "33", "33", "30", "22", "19", "20"], "time": [2659, 3125, 4023, 5090, 5174, 10217, 13148, 15684, 15767, 17603, 22574, 22657, 22726, 24325, 27450, 27564, 30999, 31383, 32221, 32267, 32351, 32369, 32389]}, "edge": {"target": [], "time": []}}}, "displayed_time": "39.61", "trialTime": 42212, "trial_type": "mouselab-mdp", "trial_index": 26, "time_elapsed": 888162, "internal_node_id": "0.0-4.0-1.0-17.0"}}, {"uniqueid": "w77389308:a30772075", "current_trial": 27, "dateTime": 1691143622204, "trialdata": {"revealed_states": [], "clicked_states": ["21", "33", "29"], "num_clicks_accrued": [0, 0, 0, 0, 0, 0, 0, 0, 0, 0, 0, 0, 0], "stateRewards": ["", -2, 2, 5, -14, -56, 64, 84, -5, 52, 39, 85, -2, 1, 7, 8, 21, 29, -78, -9, -10, -69, 10, -2, -1, -7, 15, 72, 20, 41, -2, 52, 80, 22], "withholdReward": false, "trial_id": "mdp_trial_19", "block": "test", "trialIndex": 20, "score": 39.55, "costs": -6.449999999999999, "simulationMode": [null, null, null, null, null], "rewards": [-2, -1, -7, 15, 41], "path": ["0", "0", "23", "24", "25", "26", "29"], "rt": [12996, 164, 249, 240, 140], "actions": ["left", "left", "left", "up", "left"], "actionTimes": [14314, 14983, 15736, 16480, 17128], "queries": {"click": {"state": {"target": ["21", "33", "29"], "time": [3425, 6668, 10051]}, "edge": {"target": [], "time": []}}, "mouseover": {"state": {"target": ["0", "12", "21", "21", "30", "31", "30", "33", "25", "29", "29", "3", "3", "3"], "time": [1725, 1762, 3143, 3220, 4456, 4541, 4707, 4956, 7781, 7912, 8110, 10932, 11297, 12547]}, "edge": {"target": [], "time": []}}, "mouseout": {"state": {"target": ["20", "19", "12", "0", "0", "12", "21", "21", "30", "31", "30", "33", "25", "29", "29", "3", "3", "3"], "time": [521, 587, 754, 905, 1745, 1785, 3163, 4041, 4507, 4690, 4740, 7710, 7815, 7962, 10118, 10955, 11413, 13419]}, "edge": {"target": [], "time": []}}}, "displayed_time": "17.63", "trialTime": 20047, "trial_type": "mouselab-mdp", "trial_index": 27, "time_elapsed": 908706, "internal_node_id": "0.0-4.0-1.0-18.0"}}, {"uniqueid": "w77389308:a30772075", "current_trial": 28, "dateTime": 1691143640780, "trialdata": {"revealed_states": [], "clicked_states": ["6"], "num_clicks_accrued": [0, 0, 0, 0, 0, 0, 0, 0, 0, 0, 0, 0, 0], "stateRewards": ["", 2, 4, -5, 7, 81, 35, 6, 11, 14, -72, 42, -1, 2, 3, -7, -77, -44, -40, -15, -85, 51, -32, -2, -1, -5, 7, -74, 47, 52, 16, -49, 48, -46], "withholdReward": false, "trial_id": "mdp_trial_20", "block": "test", "trialIndex": 21, "score": 40.85, "costs": -2.15, "simulationMode": [null, null, null, null, null], "rewards": [2, 4, -5, 7, 35], "path": ["0", "0", "1", "2", "3", "4", "6"], "rt": [5542, 230, 168, 109, 197], "actions": ["up", "up", "up", "right", "right"], "actionTimes": [7779, 8512, 9184, 9792, 10480], "queries": {"click": {"state": {"target": ["6"], "time": [3243]}, "edge": {"target": [], "time": []}}, "mouseover": {"state": {"target": ["12", "6", "7", "7"], "time": [2422, 2722, 3742, 3892]}, "edge": {"target": [], "time": []}}, "mouseout": {"state": {"target": ["0", "0", "12", "6", "7", "7", "18", "1", "4", "13"], "time": [1291, 1590, 2439, 3692, 3810, 14160, 14772, 14840, 16390, 16926]}, "edge": {"target": [], "time": []}}}, "displayed_time": "16.24", "trialTime": 18073, "trial_type": "mouselab-mdp", "trial_index": 28, "time_elapsed": 927283, "internal_node_id": "0.0-4.0-1.0-19.0"}}, {"uniqueid": "w77389308:a30772075", "current_trial": 29, "dateTime": 1691143657188, "trialdata": {"revealed_states": [], "clicked_states": ["20"], "num_clicks_accrued": [0, 0, 0, 0, 0, 0, 0, 0, 0, 0, 0, 0, 0], "stateRewards": ["", -2, 1, -8, 12, -65, -79, 16, 7, -80, -17, -45, -2, 2, -5, -2, -85, 23, -4, -7, 48, 27, -76, 2, 3, 5, 2, 43, 71, -13, 7, -49, 59, -31], "withholdReward": false, "trial_id": "mdp_trial_21", "block": "test", "trialIndex": 22, "score": 33.85, "costs": -2.15, "simulationMode": [null, null, null, null, null], "rewards": [-2, 2, -5, -7, 48], "path": ["0", "0", "12", "13", "14", "19", "20"], "rt": [6026, 1007, 282, 258, 266], "actions": ["right", "right", "right", "down", "right"], "actionTimes": [7140, 8649, 9426, 10186, 10945], "queries": {"click": {"state": {"target": ["20"], "time": [2644]}, "edge": {"target": [], "time": []}}, "mouseover": {"state": {"target": ["12", "20", "19", "22", "31", "33"], "time": [1539, 2436, 3219, 3269, 3322, 3686]}, "edge": {"target": [], "time": []}}, "mouseout": {"state": {"target": ["0", "12", "20", "19", "22", "31", "33", "8", "2", "19"], "time": [1521, 1566, 2686, 3236, 3285, 3354, 6330, 13065, 13087, 13182]}, "edge": {"target": [], "time": []}}}, "displayed_time": "15.12", "trialTime": 15889, "trial_type": "mouselab-mdp", "trial_index": 29, "time_elapsed": 943690, "internal_node_id": "0.0-4.0-1.0-20.0"}}, {"uniqueid": "w77389308:a30772075", "current_trial": 30, "dateTime": 1691143674692, "trialdata": {"revealed_states": [], "clicked_states": ["27", "10"], "num_clicks_accrued": [0, 0, 0, 0, 0, 0, 0, 0, 0, 0, 0, 0, 0], "stateRewards": ["", 1, -3, -1, 9, -34, -40, 22, -7, 45, 53, -11, 2, 4, 5, 15, 21, 37, -49, -3, 80, -28, -34, 1, -3, 1, 1, -40, -6, -5, -16, -85, -86, 59], "withholdReward": false, "trial_id": "mdp_trial_22", "block": "test", "trialIndex": 23, "score": 38.7, "costs": -4.3, "simulationMode": [null, null, null, null, null], "rewards": [1, -3, -1, -7, 53], "path": ["0", "0", "1", "2", "3", "8", "10"], "rt": [8725, 236, 182, 98, 314], "actions": ["up", "up", "up", "left", "down"], "actionTimes": [10138, 10878, 11558, 12158, 12974], "queries": {"click": {"state": {"target": ["27", "10"], "time": [2617, 5897]}, "edge": {"target": [], "time": []}}, "mouseover": {"state": {"target": ["0", "23", "26", "27", "11", "9", "9", "8", "10", "9", "11"], "time": [1741, 1848, 1898, 2168, 3419, 4217, 4410, 5275, 5379, 6304, 7341]}, "edge": {"target": [], "time": []}}, "mouseout": {"state": {"target": ["0", "0", "23", "26", "27", "11", "9", "9", "8", "10", "9", "11"], "time": [1081, 1814, 1866, 1930, 3200, 4152, 4319, 5237, 5326, 6219, 7289, 9210]}, "edge": {"target": [], "time": []}}}, "displayed_time": "15.41", "trialTime": 16974, "trial_type": "mouselab-mdp", "trial_index": 30, "time_elapsed": 961195, "internal_node_id": "0.0-4.0-1.0-21.0"}}, {"uniqueid": "w77389308:a30772075", "current_trial": 31, "dateTime": 1691143710011, "trialdata": {"revealed_states": [], "clicked_states": ["16", "31", "29", "9", "11", "10", "33"], "num_clicks_accrued": [0, 0, 0, 0, 0, 0, 0, 0, 0, 0, 0, 0, 0], "stateRewards": ["", 1, 1, 7, -11, 80, -20, -53, -14, 3, 31, 27, 2, -1, -8, -10, 33, 41, 86, 9, 78, -37, -13, -1, -2, -6, -8, -80, 75, 4, -16, -49, -74, 24], "withholdReward": false, "trial_id": "mdp_trial_23", "block": "test", "trialIndex": 24, "score": 0.9500000000000028, "costs": -15.05, "simulationMode": [null, null, null, null, null], "rewards": [2, -1, -8, -10, 33], "path": ["0", "0", "12", "13", "14", "15", "16"], "rt": [25208, 176, 101, 202, 199], "actions": ["right", "right", "right", "up", "up"], "actionTimes": [29106, 29786, 30379, 31082, 31778], "queries": {"click": {"state": {"target": ["16", "31", "29", "9", "11", "10", "33"], "time": [4766, 8310, 11869, 15161, 18417, 21890, 25240]}, "edge": {"target": [], "time": []}}, "mouseover": {"state": {"target": ["20", "16", "28", "33", "30", "31", "25", "29", "26", "8", "8", "9", "11", "11", "10", "28", "25", "33"], "time": [3964, 4520, 5301, 5751, 5951, 6085, 11490, 11715, 14104, 14293, 14410, 14560, 16229, 16362, 18814, 23202, 23285, 23569]}, "edge": {"target": [], "time": []}}, "mouseout": {"state": {"target": ["8", "14", "13", "12", "12", "0", "20", "16", "28", "33", "30", "31", "25", "29", "26", "8", "8", "9", "11", "11", "10", "28", "25", "33", "33"], "time": [899, 1683, 1714, 1831, 3317, 3911, 4186, 5184, 5320, 5921, 6003, 11445, 11509, 14052, 14122, 14359, 14477, 16162, 16246, 18781, 23169, 23236, 23302, 25297, 34300]}, "edge": {"target": [], "time": []}}}, "displayed_time": "32.28", "trialTime": 34826, "trial_type": "mouselab-mdp", "trial_index": 31, "time_elapsed": 996513, "internal_node_id": "0.0-4.0-1.0-22.0"}}, {"uniqueid": "w77389308:a30772075", "current_trial": 32, "dateTime": 1691143739004, "trialdata": {"revealed_states": [], "clicked_states": ["31", "33", "21", "20", "11"], "num_clicks_accrued": [0, 0, 0, 0, 0, 0, 0, 0, 0, 0, 0, 0, 0], "stateRewards": ["", 1, 1, -7, -9, -44, 24, -83, -15, 44, -24, 72, -2, -3, 4, -5, 57, 55, 29, -11, 22, 12, -25, -1, 2, 7, 12, 33, -8, 47, -4, 8, 50, -4], "withholdReward": false, "trial_id": "mdp_trial_24", "block": "test", "trialIndex": 25, "score": 41.25, "costs": -10.75, "simulationMode": [null, null, null, null, null], "rewards": [1, 1, -7, -15, 72], "path": ["0", "0", "1", "2", "3", "8", "11"], "rt": [21033, 304, 46, 97, 250], "actions": ["up", "up", "up", "left", "left"], "actionTimes": [22657, 23475, 24029, 24645, 25397], "queries": {"click": {"state": {"target": ["31", "33", "21", "20", "11"], "time": [3249, 6657, 9850, 14418, 18394]}, "edge": {"target": [], "time": []}}, "mouseover": {"state": {"target": ["25", "25", "30", "31", "30", "33", "33", "30", "21", "20", "19", "12", "1", "11", "8", "2"], "time": [2299, 2402, 2851, 2934, 4019, 4253, 4704, 7207, 7339, 14112, 17661, 17715, 17806, 18000, 19602, 21921]}, "edge": {"target": [], "time": []}}, "mouseout": {"state": {"target": ["33", "32", "0", "25", "25", "30", "31", "30", "33", "33", "30", "21", "20", "19", "12", "1", "11", "8", "11", "2"], "time": [755, 783, 2005, 2366, 2721, 2901, 3838, 4088, 4438, 7190, 7224, 13862, 17639, 17680, 17749, 17839, 19585, 19885, 21875, 21939]}, "edge": {"target": [], "time": []}}}, "displayed_time": "25.90", "trialTime": 28486, "trial_type": "mouselab-mdp", "trial_index": 32, "time_elapsed": 1025507, "internal_node_id": "0.0-4.0-1.0-23.0"}}, {"uniqueid": "w77389308:a30772075", "current_trial": 33, "dateTime": 1691143761205, "trialdata": {"revealed_states": [], "clicked_states": ["11", "29", "33", "32"], "num_clicks_accrued": [0, 0, 0, 0, 0, 0, 0, 0, 0, 0, 0, 0, 0], "stateRewards": ["", 2, 1, -3, 7, 46, 11, -36, 16, 71, 5, 1, 2, -2, -8, -3, -4, 6, 55, 7, 68, -54, 2, 1, 1, 6, -6, 42, -4, -84, -11, -65, 63, 25], "withholdReward": false, "trial_id": "mdp_trial_25", "block": "test", "trialIndex": 26, "score": 51.4, "costs": -8.6, "simulationMode": [null, null, null, null, null], "rewards": [1, 1, 6, -11, 63], "path": ["0", "0", "23", "24", "25", "30", "32"], "rt": [15327, 95, 98, 143, 253], "actions": ["left", "left", "left", "down", "down"], "actionTimes": [16705, 17294, 17902, 18542, 19318], "queries": {"click": {"state": {"target": ["11", "29", "33", "32"], "time": [2277, 6066, 9240, 12500]}, "edge": {"target": [], "time": []}}, "mouseover": {"state": {"target": ["11", "7", "16", "16", "29", "33", "33", "32", "21", "21"], "time": [1998, 2915, 3064, 3253, 5833, 7420, 7603, 9807, 13459, 13710]}, "edge": {"target": [], "time": []}}, "mouseout": {"state": {"target": ["1", "0", "11", "7", "16", "16", "29", "33", "33", "32", "21"], "time": [816, 1803, 2833, 2933, 3167, 3870, 7303, 7487, 9773, 13343, 13476]}, "edge": {"target": [], "time": []}}}, "displayed_time": "19.82", "trialTime": 21654, "trial_type": "mouselab-mdp", "trial_index": 33, "time_elapsed": 1047707, "internal_node_id": "0.0-4.0-1.0-24.0"}}, {"uniqueid": "w77389308:a30772075", "current_trial": 34, "dateTime": 1691143780268, "trialdata": {"revealed_states": [], "clicked_states": ["21", "22", "20"], "num_clicks_accrued": [0, 0, 0, 0, 0, 0, 0, 0, 0, 0, 0, 0, 0], "stateRewards": ["", -2, -3, 4, 1, 33, -53, 15, 9, -12, 61, -6, -2, 4, 6, -11, 47, -43, -7, -11, 46, 23, -28, -1, -1, 3, -10, 11, 76, -76, 10, 18, -38, 87], "withholdReward": false, "trial_id": "mdp_trial_26", "block": "test", "trialIndex": 27, "score": 36.55, "costs": -6.449999999999999, "simulationMode": [null, null, null, null, null], "rewards": [-2, 4, 6, -11, 46], "path": ["0", "0", "12", "13", "14", "19", "20"], "rt": [11679, 84, 104, 168, 270], "actions": ["right", "right", "right", "down", "right"], "actionTimes": [13255, 13838, 14439, 15103, 15872], "queries": {"click": {"state": {"target": ["21", "22", "20"], "time": [2537, 5705, 8876]}, "edge": {"target": [], "time": []}}, "mouseover": {"state": {"target": ["22", "21", "22", "19", "20", "17"], "time": [1593, 2009, 3148, 6042, 6090, 9562]}, "edge": {"target": [], "time": []}}, "mouseout": {"state": {"target": ["21", "12", "0", "22", "21", "21", "22", "19", "20"], "time": [870, 1037, 1590, 1634, 2589, 2810, 6025, 6058, 9277]}, "edge": {"target": [], "time": []}}}, "displayed_time": "16.37", "trialTime": 18551, "trial_type": "mouselab-mdp", "trial_index": 34, "time_elapsed": 1066771, "internal_node_id": "0.0-4.0-1.0-25.0"}}, {"uniqueid": "w77389308:a30772075", "current_trial": 35, "dateTime": 1691143806661, "trialdata": {"revealed_states": [], "clicked_states": ["5", "6", "7", "10", "11"], "num_clicks_accrued": [0, 0, 0, 0, 0, 0, 0, 0, 0, 0, 0, 0, 0], "stateRewards": ["", 1, 2, 2, -15, -84, 28, -26, 13, 31, 86, 30, -2, 1, -1, -8, 66, -40, -1, -10, -32, 57, -17, 1, 2, -2, 9, -23, 77, 85, 12, -32, -62, -35], "withholdReward": false, "trial_id": "mdp_trial_27", "block": "test", "trialIndex": 28, "score": 93.25, "costs": -10.75, "simulationMode": [null, null, null, null, null, null], "rewards": [1, 2, 2, 13, 86], "path": ["0", "0", "1", "2", "3", "8", "10"], "rt": [16701, 1754, 212, 163, 215, 282], "actions": ["up", "up", "up", "up", "left", "down"], "actionTimes": [18355, 20130, 20889, 21561, 22274, 23058], "queries": {"click": {"state": {"target": ["5", "6", "7", "10", "11"], "time": [2352, 5637, 8941, 13062, 15851]}, "edge": {"target": [], "time": []}}, "mouseover": {"state": {"target": ["4", "5", "9", "9", "9", "9", "4", "6", "4", "3", "11", "11", "10", "2", "7", "2", "10", "10", "11", "1"], "time": [1985, 2090, 2906, 3165, 3438, 3572, 4608, 4656, 6342, 6362, 6390, 6590, 6692, 7008, 7091, 9504, 9531, 9694, 13748, 17222]}, "edge": {"target": [], "time": []}}, "mouseout": {"state": {"target": ["17", "15", "7", "1", "4", "5", "9", "9", "9", "9", "4", "6", "4", "3", "11", "11", "10", "2", "7", "2", "10", "10", "11", "11", "1"], "time": [35, 99, 220, 1070, 2055, 2840, 2925, 3187, 3521, 4523, 4622, 6324, 6358, 6385, 6423, 6624, 6741, 7058, 9481, 9524, 9565, 13698, 15941, 17101, 17371]}, "edge": {"target": [], "time": []}}}, "displayed_time": "23.56", "trialTime": 25875, "trial_type": "mouselab-mdp", "trial_index": 35, "time_elapsed": 1093163, "internal_node_id": "0.0-4.0-1.0-26.0"}}, {"uniqueid": "w77389308:a30772075", "current_trial": 36, "dateTime": 1691143837027, "trialdata": {"revealed_states": [], "clicked_states": ["10", "7", "31", "22", "28", "18"], "num_clicks_accrued": [0, 0, 0, 0, 0, 0, 0, 0, 0, 0, 0, 0, 0], "stateRewards": ["", 1, 2, 8, -2, 23, -69, -18, -16, 54, -21, 71, -1, -4, 7, 11, 43, -6, 88, 6, -55, 72, 43, 1, -3, -2, -1, 68, -31, -54, 4, -8, 25, -2], "withholdReward": false, "trial_id": "mdp_trial_28", "block": "test", "trialIndex": 29, "score": 88.1, "costs": -12.9, "simulationMode": [null, null, null, null, null], "rewards": [-1, -4, 7, 11, 88], "path": ["0", "0", "12", "13", "14", "15", "18"], "rt": [23125, 261, 206, 191, 155], "actions": ["right", "right", "right", "up", "left"], "actionTimes": [24417, 25181, 25910, 26598, 27263], "queries": {"click": {"state": {"target": ["10", "7", "31", "22", "28", "18"], "time": [2023, 5560, 8805, 12039, 16115, 19309]}, "edge": {"target": [], "time": []}}, "mouseover": {"state": {"target": ["10", "2", "7", "1", "23", "31", "22", "22", "24", "28", "1", "18", "18"], "time": [1863, 5216, 5281, 7151, 7201, 7427, 9202, 9486, 14380, 14726, 16560, 16661, 16844]}, "edge": {"target": [], "time": []}}, "mouseout": {"state": {"target": ["0", "10", "2", "7", "1", "23", "31", "22", "22", "24", "28", "1", "18", "18", "12"], "time": [1698, 5181, 5248, 7118, 7167, 7234, 8875, 9236, 14213, 14441, 16510, 16594, 16794, 22785, 29226]}, "edge": {"target": [], "time": []}}}, "displayed_time": "27.76", "trialTime": 29742, "trial_type": "mouselab-mdp", "trial_index": 36, "time_elapsed": 1123530, "internal_node_id": "0.0-4.0-1.0-27.0"}}, {"uniqueid": "w77389308:a30772075", "current_trial": 37, "dateTime": 1691143853453, "trialdata": {"revealed_states": [], "clicked_states": ["21"], "num_clicks_accrued": [0, 0, 0, 0, 0, 0, 0, 0, 0, 0, 0, 0, 0], "stateRewards": ["", 1, -4, -4, 8, 1, -79, 68, -10, -79, 8, -74, -1, -3, -6, 14, 43, 23, 9, 5, -51, 63, 61, -2, 4, 6, -10, 69, -32, 57, 15, -80, -80, -77], "withholdReward": false, "trial_id": "mdp_trial_29", "block": "test", "trialIndex": 30, "score": 55.85, "costs": -2.15, "simulationMode": [null, null, null, null, null], "rewards": [-1, -3, -6, 5, 63], "path": ["0", "0", "12", "13", "14", "19", "21"], "rt": [4847, 93, 49, 141, 225], "actions": ["right", "right", "right", "down", "down"], "actionTimes": [5901, 6497, 7073, 7729, 8458], "queries": {"click": {"state": {"target": ["21"], "time": [1677]}, "edge": {"target": [], "time": []}}, "mouseover": {"state": {"target": ["12", "19", "21", "22"], "time": [1073, 1172, 1306, 2475]}, "edge": {"target": [], "time": []}}, "mouseout": {"state": {"target": ["12", "0", "12", "19", "21"], "time": [527, 1070, 1091, 1246, 2391]}, "edge": {"target": [], "time": []}}}, "displayed_time": "15.05", "trialTime": 15898, "trial_type": "mouselab-mdp", "trial_index": 37, "time_elapsed": 1139955, "internal_node_id": "0.0-4.0-1.0-28.0"}}, {"uniqueid": "w77389308:a30772075", "current_trial": 38, "dateTime": 1691143872501, "trialdata": {"revealed_states": [], "clicked_states": ["29", "28"], "num_clicks_accrued": [0, 0, 0, 0, 0, 0, 0, 0, 0, 0, 0, 0, 0], "stateRewards": ["", -1, 1, -6, -1, 80, 23, 2, -11, 73, -81, 59, 1, 3, 5, -1, -26, 28, -3, 16, -59, -13, -50, -2, -2, 2, 15, -50, 86, 17, -4, 37, 35, 44], "withholdReward": false, "trial_id": "mdp_trial_30", "block": "test", "trialIndex": 31, "score": 94.7, "costs": -4.3, "simulationMode": [null, null, null, null, null], "rewards": [-2, -2, 2, 15, 86], "path": ["0", "0", "23", "24", "25", "26", "28"], "rt": [10405, 422, 202, 204, 118], "actions": ["left", "left", "left", "up", "right"], "actionTimes": [12329, 13254, 13951, 14655, 15270], "queries": {"click": {"state": {"target": ["29", "28"], "time": [2908, 6237]}, "edge": {"target": [], "time": []}}, "mouseover": {"state": {"target": ["29", "26", "27", "28", "28"], "time": [2618, 3687, 3787, 4938, 5172]}, "edge": {"target": [], "time": []}}, "mouseout": {"state": {"target": ["22", "12", "29", "26", "27", "28"], "time": [1117, 1184, 3420, 3704, 4905, 4971]}, "edge": {"target": [], "time": []}}}, "displayed_time": "15.93", "trialTime": 17823, "trial_type": "mouselab-mdp", "trial_index": 38, "time_elapsed": 1159003, "internal_node_id": "0.0-4.0-1.0-29.0"}}, {"uniqueid": "w77389308:a30772075", "current_trial": 39, "dateTime": 1691143893268, "trialdata": {"revealed_states": [], "clicked_states": ["17", "18", "16"], "num_clicks_accrued": [0, 0, 0, 0, 0, 0, 0, 0, 0, 0, 0, 0, 0], "stateRewards": ["", -1, -3, 3, 5, 56, 39, 50, -1, -80, 33, -46, 1, -2, -6, -8, 87, 48, 54, -11, -20, -64, -54, -2, 3, -7, -3, 12, 88, 35, -16, -46, -70, -3], "withholdReward": false, "trial_id": "mdp_trial_31", "block": "test", "trialIndex": 32, "score": 65.55, "costs": -6.449999999999999, "simulationMode": [null, null, null, null, null], "rewards": [1, -2, -6, -8, 87], "path": ["0", "0", "12", "13", "14", "15", "16"], "rt": [12766, 182, 116, 162, 270], "actions": ["right", "right", "right", "up", "up"], "actionTimes": [15227, 15911, 16535, 17192, 17979], "queries": {"click": {"state": {"target": ["17", "18", "16"], "time": [4042, 7324, 10999]}, "edge": {"target": [], "time": []}}, "mouseover": {"state": {"target": ["20", "14", "17", "15", "18", "16"], "time": [2951, 3314, 3664, 4966, 5000, 8970]}, "edge": {"target": [], "time": []}}, "mouseout": {"state": {"target": ["28", "0", "20", "14", "17", "15", "18", "16", "18"], "time": [1298, 1931, 3180, 3580, 4949, 4984, 8905, 19201, 19298]}, "edge": {"target": [], "time": []}}}, "displayed_time": "18.48", "trialTime": 20183, "trial_type": "mouselab-mdp", "trial_index": 39, "time_elapsed": 1179770, "internal_node_id": "0.0-4.0-1.0-30.0"}}, {"uniqueid": "w77389308:a30772075", "current_trial": 40, "dateTime": 1691143910820, "trialdata": {"revealed_states": [], "clicked_states": ["11", "10"], "num_clicks_accrued": [0, 0, 0, 0, 0, 0, 0, 0, 0, 0, 0, 0, 0], "stateRewards": ["", -2, 1, -7, 9, 8, 25, 61, -7, -17, 69, -81, 1, 4, -4, -11, 16, 67, 44, 3, 6, -45, -54, -2, 3, 6, -11, -15, 32, -47, 3, -39, -6, -88], "withholdReward": false, "trial_id": "mdp_trial_32", "block": "test", "trialIndex": 33, "score": 49.7, "costs": -4.3, "simulationMode": [null, null, null, null, null], "rewards": [-2, 1, -7, -7, 69], "path": ["0", "0", "1", "2", "3", "8", "10"], "rt": [8243, 136, 149, 154, 201], "actions": ["up", "up", "up", "left", "down"], "actionTimes": [9906, 10543, 11191, 11847, 12543], "queries": {"click": {"state": {"target": ["11", "10"], "time": [2345, 5595]}, "edge": {"target": [], "time": []}}, "mouseover": {"state": {"target": ["28", "11", "10", "28", "1"], "time": [1728, 2083, 2982, 7304, 9121]}, "edge": {"target": [], "time": []}}, "mouseout": {"state": {"target": ["12", "0", "28", "11", "10", "28", "1", "12"], "time": [1081, 1676, 1763, 2931, 7052, 8925, 15182, 16148]}, "edge": {"target": [], "time": []}}}, "displayed_time": "15.66", "trialTime": 17015, "trial_type": "mouselab-mdp", "trial_index": 40, "time_elapsed": 1197323, "internal_node_id": "0.0-4.0-1.0-31.0"}}, {"uniqueid": "w77389308:a30772075", "current_trial": 41, "dateTime": 1691143927326, "trialdata": {"revealed_states": [], "clicked_states": ["31"], "num_clicks_accrued": [0, 0, 0, 0, 0, 0, 0, 0, 0, 0, 0, 0, 0], "stateRewards": ["", 1, -3, -4, -11, -56, 61, -47, -16, -28, -9, 69, -2, -3, -4, -8, 40, -86, 59, -4, 80, 27, 54, -1, 3, -1, 8, 67, 23, 50, 6, 83, -43, -29], "withholdReward": false, "trial_id": "mdp_trial_33", "block": "test", "trialIndex": 34, "score": 87.85, "costs": -2.15, "simulationMode": [null, null, null, null, null], "rewards": [-1, 3, -1, 6, 83], "path": ["0", "0", "23", "24", "25", "30", "31"], "rt": [5554, 184, 172, 225, 258], "actions": ["left", "left", "left", "down", "right"], "actionTimes": [6793, 7469, 8142, 8863, 9662], "queries": {"click": {"state": {"target": ["31"], "time": [2569]}, "edge": {"target": [], "time": []}}, "mouseover": {"state": {"target": ["0", "32", "32", "31", "22"], "time": [1728, 1843, 2011, 2370, 3965]}, "edge": {"target": [], "time": []}}, "mouseout": {"state": {"target": ["0", "0", "32", "32", "31"], "time": [517, 1761, 1859, 2030, 3599]}, "edge": {"target": [], "time": []}}}, "displayed_time": "15.24", "trialTime": 15966, "trial_type": "mouselab-mdp", "trial_index": 41, "time_elapsed": 1213829, "internal_node_id": "0.0-4.0-1.0-32.0"}}, {"uniqueid": "w77389308:a30772075", "current_trial": 42, "dateTime": 1691143945028, "trialdata": {"revealed_states": [], "clicked_states": ["31"], "num_clicks_accrued": [0, 0, 0, 0, 0, 0, 0, 0, 0, 0, 0, 0, 0], "stateRewards": ["", -2, 4, -5, -12, 85, -24, -18, -15, -78, -22, 26, -1, -1, 2, 14, -45, 52, -23, 7, -33, 24, -6, -2, -4, 5, -7, -16, 36, -39, 5, 71, -87, -23], "withholdReward": false, "trial_id": "mdp_trial_34", "block": "test", "trialIndex": 35, "score": 72.85, "costs": -2.15, "simulationMode": [null, null, null, null, null], "rewards": [-2, -4, 5, 5, 71], "path": ["0", "0", "23", "24", "25", "30", "31"], "rt": [4703, 108, 115, 122, 289], "actions": ["left", "left", "left", "down", "right"], "actionTimes": [7357, 7963, 8571, 9195, 9978], "queries": {"click": {"state": {"target": ["31"], "time": [3185]}, "edge": {"target": [], "time": []}}, "mouseover": {"state": {"target": ["31", "22", "22"], "time": [3017, 3716, 3850]}, "edge": {"target": [], "time": []}}, "mouseout": {"state": {"target": ["22", "0", "31", "22", "22"], "time": [660, 2672, 3618, 3749, 12278]}, "edge": {"target": [], "time": []}}}, "displayed_time": "16.66", "trialTime": 17138, "trial_type": "mouselab-mdp", "trial_index": 42, "time_elapsed": 1231530, "internal_node_id": "0.0-4.0-1.0-33.0"}}, {"uniqueid": "w77389308:a30772075", "current_trial": 43, "dateTime": 1691143990780, "trialdata": {"revealed_states": [], "clicked_states": ["31", "22", "7", "10", "18", "28", "27", "29", "33", "32"], "num_clicks_accrued": [0, 0, 0, 0, 0, 0, 0, 0, 0, 0, 0, 0, 0], "stateRewards": ["", 2, -1, -2, -5, -47, -57, -33, -11, 31, -18, -72, -2, 1, -4, -8, -46, -53, -50, 15, -85, -9, 39, -2, -2, 1, 14, -1, -8, 53, -12, -41, -74, 62], "withholdReward": false, "trial_id": "mdp_trial_35", "block": "test", "trialIndex": 36, "score": 25.5, "costs": -21.499999999999996, "simulationMode": [null, null, null, null, null], "rewards": [-2, -2, 1, -12, 62], "path": ["0", "0", "23", "24", "25", "30", "33"], "rt": [37741, 860, 260, 172, 378], "actions": ["left", "left", "left", "down", "left"], "actionTimes": [38900, 40256, 41009, 41689, 42561], "queries": {"click": {"state": {"target": ["31", "22", "7", "10", "18", "28", "27", "29", "33", "32"], "time": [2227, 5913, 10378, 13614, 17092, 20324, 23754, 26932, 30821, 35612]}, "edge": {"target": [], "time": []}}, "mouseover": {"state": {"target": ["31", "22", "13", "18", "7", "2", "10", "18", "1", "28", "27", "29", "33", "33", "32", "32"], "time": [1907, 5732, 9365, 9416, 9584, 11300, 11401, 14170, 17807, 17907, 23578, 24538, 27583, 27857, 33489, 35345]}, "edge": {"target": [], "time": []}}, "mouseout": {"state": {"target": ["0", "31", "22", "13", "18", "7", "2", "10", "18", "1", "28", "27", "29", "33", "33", "32", "32"], "time": [1827, 2584, 9336, 9398, 9463, 11267, 11350, 14086, 17756, 17840, 23467, 24480, 27469, 27685, 33388, 34105, 44792]}, "edge": {"target": [], "time": []}}}, "displayed_time": "43.07", "trialTime": 45201, "trial_type": "mouselab-mdp", "trial_index": 43, "time_elapsed": 1277283, "internal_node_id": "0.0-4.0-1.0-34.0"}}, {"uniqueid": "w77389308:a30772075", "current_trial": 44, "dateTime": 1691144007836, "trialdata": {"revealed_states": [], "clicked_states": ["9", "10"], "num_clicks_accrued": [0, 0, 0, 0, 0, 0, 0, 0, 0, 0, 0, 0, 0], "stateRewards": ["", 1, 3, 1, -13, 52, -28, 67, -14, 3, 63, -70, -1, -4, 7, -11, -10, 47, -18, 6, 69, -9, -61, 2, 3, -6, 10, 63, -34, 40, -6, -79, -35, -32], "withholdReward": false, "trial_id": "mdp_trial_36", "block": "test", "trialIndex": 37, "score": 49.7, "costs": -4.3, "simulationMode": [null, null, null, null, null], "rewards": [1, 3, 1, -14, 63], "path": ["0", "0", "1", "2", "3", "8", "10"], "rt": [8195, 65, 64, 779, 220], "actions": ["up", "up", "up", "left", "down"], "actionTimes": [9803, 10376, 10952, 12250, 12977], "queries": {"click": {"state": {"target": ["9", "10"], "time": [2459, 5677]}, "edge": {"target": [], "time": []}}, "mouseover": {"state": {"target": ["10", "8", "9", "8", "10", "11"], "time": [1958, 2041, 2228, 3312, 3428, 6765]}, "edge": {"target": [], "time": []}}, "mouseout": {"state": {"target": ["32", "0", "10", "8", "9", "8", "10"], "time": [777, 1808, 1991, 2145, 3294, 3364, 6698]}, "edge": {"target": [], "time": []}}}, "displayed_time": "15.61", "trialTime": 16497, "trial_type": "mouselab-mdp", "trial_index": 44, "time_elapsed": 1294338, "internal_node_id": "0.0-4.0-1.0-35.0"}}, {"uniqueid": "w77389308:a30772075", "current_trial": 45, "dateTime": 1691144035445, "trialdata": {"revealed_states": [], "clicked_states": ["17", "18", "16", "20", "21"], "num_clicks_accrued": [0, 0, 0, 0, 0, 0, 0, 0, 0, 0, 0, 0, 0], "stateRewards": ["", 2, -1, 8, -2, -16, 69, -39, -7, -13, -27, -86, 2, -2, 2, 13, -34, -16, -20, -5, 19, 81, 32, -2, -1, 2, -14, 20, 80, 58, 4, 70, 12, 73], "withholdReward": false, "trial_id": "mdp_trial_37", "block": "test", "trialIndex": 38, "score": 67.25, "costs": -10.75, "simulationMode": [null, null, null, null, null], "rewards": [2, -2, 2, -5, 81], "path": ["0", "0", "12", "13", "14", "19", "21"], "rt": [19429, 115, 138, 92, 352], "actions": ["right", "right", "right", "down", "down"], "actionTimes": [20972, 21601, 22241, 22849, 23698], "queries": {"click": {"state": {"target": ["17", "18", "16", "20", "21"], "time": [2783, 5941, 9334, 12830, 16653]}, "edge": {"target": [], "time": []}}, "mouseover": {"state": {"target": ["12", "13", "17", "15", "18", "16", "20", "21", "21", "22"], "time": [2073, 2121, 2487, 3640, 3924, 6963, 12370, 16319, 16486, 17221]}, "edge": {"target": [], "time": []}}, "mouseout": {"state": {"target": ["11", "10", "12", "13", "17", "15", "18", "16", "20", "21", "21", "22"], "time": [623, 654, 2106, 2138, 3634, 3676, 6895, 12149, 16253, 16341, 17156, 26424]}, "edge": {"target": [], "time": []}}}, "displayed_time": "24.20", "trialTime": 27050, "trial_type": "mouselab-mdp", "trial_index": 45, "time_elapsed": 1321948, "internal_node_id": "0.0-4.0-1.0-36.0"}}, {"uniqueid": "w77389308:a30772075", "current_trial": 46, "dateTime": 1691144054468, "trialdata": {"revealed_states": [], "clicked_states": ["9", "5", "6"], "num_clicks_accrued": [0, 0, 0, 0, 0, 0, 0, 0, 0, 0, 0, 0, 0], "stateRewards": ["", 2, -1, 1, 10, -52, 86, -22, -2, -14, -63, 38, 1, 3, 7, -8, 11, -32, -27, 9, -71, 40, -87, -2, -1, 5, -7, 12, 31, -57, 13, 86, -58, 29], "withholdReward": false, "trial_id": "mdp_trial_38", "block": "test", "trialIndex": 39, "score": 91.55, "costs": -6.449999999999999, "simulationMode": [null, null, null, null, null], "rewards": [2, -1, 1, 10, 86], "path": ["0", "0", "1", "2", "3", "4", "6"], "rt": [11934, 63, 66, 44, 142], "actions": ["up", "up", "up", "right", "right"], "actionTimes": [13512, 14084, 14668, 15228, 15876], "queries": {"click": {"state": {"target": ["9", "5", "6"], "time": [2552, 5790, 9452]}, "edge": {"target": [], "time": []}}, "mouseover": {"state": {"target": ["1", "2", "9", "9", "5", "6", "6", "6", "4", "11"], "time": [1991, 2023, 2124, 2370, 3296, 6558, 6825, 8173, 10398, 10670]}, "edge": {"target": [], "time": []}}, "mouseout": {"state": {"target": ["22", "0", "1", "2", "9", "9", "9", "5", "6", "6", "6", "4", "11"], "time": [954, 1104, 2017, 2038, 2325, 2571, 3222, 6525, 6608, 7175, 10390, 10418, 12765]}, "edge": {"target": [], "time": []}}}, "displayed_time": "16.37", "trialTime": 18461, "trial_type": "mouselab-mdp", "trial_index": 46, "time_elapsed": 1340970, "internal_node_id": "0.0-4.0-1.0-37.0"}}, {"uniqueid": "w77389308:a30772075", "current_trial": 47, "dateTime": 1691144101277, "trialdata": {"revealed_states": [], "clicked_states": ["11", "6", "7", "10", "28", "29", "27", "9", "5", "17", "16"], "num_clicks_accrued": [0, 0, 0, 0, 0, 0, 0, 0, 0, 0, 0, 0, 0], "stateRewards": ["", -2, -4, -6, 12, -58, -70, -80, 2, 16, -88, -62, 1, 2, -5, 11, 77, -35, -44, -5, 18, -83, 87, 1, -3, -5, 13, -44, -21, -86, 10, -52, 8, 29], "withholdReward": false, "trial_id": "mdp_trial_39", "block": "test", "trialIndex": 40, "score": 62.35000000000001, "costs": -23.649999999999995, "simulationMode": [null, null, null, null, null], "rewards": [1, 2, -5, 11, 77], "path": ["0", "0", "12", "13", "14", "15", "16"], "rt": [38532, 121, 55, 82, 41], "actions": ["right", "right", "right", "up", "up"], "actionTimes": [41013, 41630, 42181, 42758, 43301], "queries": {"click": {"state": {"target": ["11", "6", "7", "10", "28", "29", "27", "9", "5", "17", "16"], "time": [3577, 6757, 9989, 13163, 16345, 19499, 22707, 25962, 29442, 33180, 36393]}, "edge": {"target": [], "time": []}}, "mouseover": {"state": {"target": ["28", "27", "11", "4", "6", "6", "7", "10", "28", "28", "28", "26", "29", "27", "9", "9", "5", "6", "16", "17", "16", "15", "20", "20", "19"], "time": [2955, 3018, 3356, 4587, 4620, 4774, 9275, 10727, 14113, 14763, 14955, 17283, 17339, 20786, 23239, 23589, 27994, 32570, 32665, 32730, 34393, 37087, 37202, 37370, 39924]}, "edge": {"target": [], "time": []}}, "mouseout": {"state": {"target": ["23", "28", "27", "11", "4", "6", "6", "7", "10", "28", "28", "28", "28", "26", "29", "27", "9", "9", "5", "6", "16", "17", "16", "15", "20", "20", "19", "22"], "time": [1851, 2986, 3085, 4520, 4611, 4641, 9242, 10593, 14031, 14166, 14885, 16434, 17266, 17316, 20652, 23106, 23423, 27860, 31647, 32606, 32698, 34271, 37070, 37103, 37253, 39893, 40010, 44787]}, "edge": {"target": [], "time": []}}}, "displayed_time": "43.80", "trialTime": 46231, "trial_type": "mouselab-mdp", "trial_index": 47, "time_elapsed": 1387779, "internal_node_id": "0.0-4.0-1.0-38.0"}}, {"uniqueid": "w77389308:a30772075", "current_trial": 48, "dateTime": 1691144118572, "trialdata": {"revealed_states": [], "clicked_states": ["32"], "num_clicks_accrued": [0, 0, 0, 0, 0, 0, 0, 0, 0, 0, 0, 0, 0], "stateRewards": ["", 2, 3, 6, -5, -74, -53, 17, -12, 46, 44, 18, -2, 4, 1, -8, 22, -23, -49, 9, -45, 55, 81, 1, -1, -7, -16, -83, -71, -45, 2, 51, 82, 61], "withholdReward": false, "trial_id": "mdp_trial_40", "block": "test", "trialIndex": 41, "score": 74.85, "costs": -2.15, "simulationMode": [null, null, null, null, null], "rewards": [1, -1, -7, 2, 82], "path": ["0", "0", "23", "24", "25", "30", "32"], "rt": [4997, 80, 493, 189, 182], "actions": ["left", "left", "left", "down", "down"], "actionTimes": [6304, 6892, 8100, 8788, 9483], "queries": {"click": {"state": {"target": ["32"], "time": [2209]}, "edge": {"target": [], "time": []}}, "mouseover": {"state": {"target": ["32", "32", "33"], "time": [1718, 2006, 3587]}, "edge": {"target": [], "time": []}}, "mouseout": {"state": {"target": ["0", "32", "32", "33"], "time": [1641, 1736, 3397, 12047]}, "edge": {"target": [], "time": []}}}, "displayed_time": "15.31", "trialTime": 16365, "trial_type": "mouselab-mdp", "trial_index": 48, "time_elapsed": 1405075, "internal_node_id": "0.0-4.0-1.0-39.0"}}, {"uniqueid": "w77389308:a30772075", "current_trial": 49, "dateTime": 1691144151546, "trialdata": {"rt": 32943, "response": {"Q0": "$-2 to $2", "Q1": "$-16 to $16", "Q2": "$-88 to $88", "Q3": "The cost for clicking on nodes varied between nodes.", "Q4": "Very motivated"}, "question_order": [0, 1, 2, 3, 4], "trial_id": "final_quiz_control", "trial_type": "survey-multi-choice", "trial_index": 49, "time_elapsed": 1438049, "internal_node_id": "0.0-4.0-2.0"}}, {"uniqueid": "w77389308:a30772075", "current_trial": 50, "dateTime": 1691144212024, "trialdata": {"rt": 60456, "response": {"Q0": "Multiple inspections until have value revealed", "Q1": "Yes....wanted at least +60 before setting off", "Q2": "Had to be patient"}, "trial_id": "self_report_control", "trial_type": "survey-text", "trial_index": 50, "time_elapsed": 1498527, "internal_node_id": "0.0-4.0-3.0"}}, {"uniqueid": "w77389308:a30772075", "current_trial": 51, "dateTime": 1691144283817, "trialdata": {"rt": 71786, "response": {"Q0": "Strongly disagree", "Q1": "Strongly disagree", "Q2": "Neither disagree nor agree", "Q3": "Strongly agree", "Q4": "Strongly disagree", "Q5": "Strongly agree", "Q6": "Strongly disagree"}, "question_order": [0, 1, 2, 3, 4, 5, 6], "trial_id": "self_report_2", "trial_type": "survey-multi-choice", "trial_index": 51, "time_elapsed": 1570320, "internal_node_id": "0.0-4.0-4.0"}}, {"uniqueid": "w77389308:a30772075", "current_trial": 52, "dateTime": 1691144314377, "trialdata": {"rt": 30552, "response": {"gender": "female", "age": "62", "colorblind": "0", "effort": "0"}, "trial_type": "survey-html-form", "trial_index": 52, "time_elapsed": 1600881, "internal_node_id": "0.0-4.0-5.0"}}, {"uniqueid": "w77389308:a30772075", "current_trial": 53, "dateTime": 1691144333712, "trialdata": {"rt": 19327, "response": {"Q0": "No", "Q1": "No, first time", "Q2": "All OK"}, "trial_type": "survey-text", "trial_index": 53, "time_elapsed": 1620216, "internal_node_id": "0.0-4.0-6.0"}}, {"uniqueid": "w77389308:a30772075", "current_trial": 54, "dateTime": 1691144335783, "trialdata": {"rt": 2059, "stimulus": "Press 'Finish HIT' in order to reach the completion code. Once the data has been saved, you will receive the code either in this window or in the original browser window where you started the experiment.\n", "response": 0, "trial_type": "html-button-response", "trial_index": 54, "time_elapsed": 1622287, "internal_node_id": "0.0-5.0"}}, {"uniqueid": "w77389308:a30772075", "current_trial": 55, "dateTime": 1691144336788, "trialdata": {"success": true, "trial_type": "fullscreen", "trial_index": 55, "time_elapsed": 1623292, "internal_node_id": "0.0-6.0"}}], "questiondata": {"params": {"CODE": "C6DMOQA6", "MIN_TIME": 14, "inspectCost": 1, "startTime": "Fri Aug 04 2023 10:51:52 GMT+0100 (British Summer Time)", "bonusRate": 0.002, "variance": "1_2_4_8_44", "branching": "31123"}, "final_score": 2181.95}, "eventdata": [{"eventtype": "initialized", "value": null, "timestamp": 1691142712360, "interval": 0}, {"eventtype": "window_resize", "value": [1024, 654], "timestamp": 1691142712360, "interval": 0}, {"eventtype": "window_resize", "value": [1024, 654], "timestamp": 1691142712684, "interval": 324}, {"eventtype": "window_resize", "value": [1366, 768], "timestamp": 1691142716583, "interval": 3899}, {"eventtype": "window_resize", "value": [1024, 654], "timestamp": 1691144291576, "interval": 1574993}, {"eventtype": "window_resize", "value": [1366, 768], "timestamp": 1691144303809, "interval": 12233}], "useragent": "Mozilla/5.0 (Windows NT 10.0; Win64; x64) AppleWebKit/537.36 (KHTML, like Gecko) Chrome/115.0.0.0 Safari/537.36", "mode": "live", "id": "w77389308:a30772075", "status": "user data saved", "Beginhit": "2023-08-04 09:51:50.828244", "Beginexp": "2023-08-04 09:51:57.205465", "Endhit": "2023-08-04 10:18:56.908556", "psiturkStatus": 3, "browser": "<redacted>", "platform": "windows", "language": "en-GB"}