{"condition": 1, "counterbalance": 0, "assignmentId": "a21856162", "workerId": "w76233101", "hitId": "h97973089", "currenttrial": 62, "bonus": 0, "data": [{"uniqueid": "w76233101:a21856162", "current_trial": 0, "dateTime": 1691159448095, "trialdata": {"success": true, "trial_type": "fullscreen", "trial_index": 0, "time_elapsed": 6848, "internal_node_id": "0.0-0.0"}}, {"uniqueid": "w76233101:a21856162", "current_trial": 1, "dateTime": 1691159474149, "trialdata": {"view_history": [{"page_index": 0, "viewing_time": 26045}], "rt": 26046, "trial_id": "exp_instructions_misaligned", "trial_type": "instructions", "trial_index": 1, "time_elapsed": 32903, "internal_node_id": "0.0-1.0"}}, {"uniqueid": "w76233101:a21856162", "current_trial": 2, "dateTime": 1691159478418, "trialdata": {"success": true, "trial_type": "fullscreen", "trial_index": 2, "time_elapsed": 37172, "internal_node_id": "0.0-2.0-0.0"}}, {"uniqueid": "w76233101:a21856162", "current_trial": 3, "dateTime": 1691159699360, "trialdata": {"view_history": [{"page_index": 0, "viewing_time": 67192}, {"page_index": 1, "viewing_time": 1515}, {"page_index": 0, "viewing_time": 5541}, {"page_index": 1, "viewing_time": 74010}, {"page_index": 2, "viewing_time": 25407}, {"page_index": 3, "viewing_time": 47274}], "rt": 220940, "trial_id": "mouselab_instructions_1_misaligned", "trial_type": "instructions", "trial_index": 3, "time_elapsed": 258114, "internal_node_id": "0.0-2.0-1.0"}}, {"uniqueid": "w76233101:a21856162", "current_trial": 4, "dateTime": 1691159761863, "trialdata": {"revealed_states": [], "clicked_states": ["3", "25", "14"], "num_clicks_accrued": [0, 0, 0, 0, 0, 0, 0, 0, 0, 0, 0, 0, 0], "stateRewards": ["", -10, 10, -10, 10, -10, 10, 10, -10, -10, 10, 10, -10, 10, -10, -10, 10, -10, -10, 10, 10, 10, 10, -10, 10, 10, -10, 10, 10, 10, -10, -10, -10, -10], "withholdReward": false, "trial_id": "practice_1", "block": "test", "trialIndex": 0, "score": 12, "costs": -1.5, "simulationMode": [null, null, null, null, null], "rewards": [-10, 10, 10, -10, 10], "path": ["0", "0", "23", "24", "25", "26", "27"], "rt": [17073, 350, 104, 9499, 303], "actions": ["left", "left", "left", "up", "up"], "actionTimes": [23677, 24541, 25144, 35156, 35956], "queries": {"click": {"state": {"target": ["3", "25", "14"], "time": [9992, 13750, 16019]}, "edge": {"target": [], "time": []}}, "mouseover": {"state": {"target": ["1", "2", "3", "3", "10", "28", "26", "25", "23", "12", "13", "14", "14", "13", "0", "23", "24", "25", "25", "24", "23", "0", "0"], "time": [7403, 7470, 7754, 7921, 11387, 12020, 12370, 12920, 14553, 14603, 14621, 14653, 15019, 16838, 17319, 17488, 17553, 17937, 18437, 22640, 22687, 22753, 23103]}, "edge": {"target": [], "time": []}}, "mouseout": {"state": {"target": ["22", "14", "13", "0", "1", "2", "3", "3", "10", "28", "26", "25", "23", "12", "13", "14", "14", "13", "0", "23", "24", "25", "25", "24", "23", "0", "0", "0", "12", "21"], "time": [1189, 4771, 4803, 7371, 7437, 7505, 7787, 11337, 11421, 12137, 12870, 14537, 14569, 14619, 14637, 14686, 16789, 16886, 17404, 17537, 17870, 18237, 22637, 22670, 22720, 22770, 23120, 44703, 44719, 45452]}, "edge": {"target": [], "time": []}}}, "displayed_time": "36.45", "trialTime": 61603, "trial_type": "mouselab-mdp", "trial_index": 4, "time_elapsed": 320617, "internal_node_id": "0.0-2.0-2.0-0.0"}}, {"uniqueid": "w76233101:a21856162", "current_trial": 5, "dateTime": 1691159792482, "trialdata": {"revealed_states": [], "clicked_states": ["26", "15", "19"], "num_clicks_accrued": [0, 0, 0, 0, 0, 0, 0, 0, 0, 0, 0, 0, 0], "stateRewards": ["", -10, -10, -10, 10, 10, 10, 10, 10, -10, -10, -10, -10, 10, 10, -10, 10, 10, -10, 10, -10, -10, -10, -10, -10, 10, 10, 10, 10, -10, 10, 10, 10, 10], "withholdReward": false, "trial_id": "practice_2", "block": "test", "trialIndex": 1, "score": 12, "costs": -1.5, "simulationMode": [null, null, null, null, null], "rewards": [-10, 10, 10, 10, -10], "path": ["0", "0", "12", "13", "14", "19", "21"], "rt": [13164, 297, 178, 728, 133], "actions": ["right", "right", "right", "down", "down"], "actionTimes": [16544, 17347, 18031, 19260, 19882], "queries": {"click": {"state": {"target": ["26", "15", "19"], "time": [6400, 11035, 12548]}, "edge": {"target": [], "time": []}}, "mouseover": {"state": {"target": ["23", "26", "10", "3", "3", "8", "3", "4", "4", "15", "14", "15", "15", "14", "19", "19", "22", "23", "0", "12"], "time": [4902, 5299, 7135, 7198, 8267, 8331, 8864, 8914, 9215, 9647, 9884, 10016, 10287, 11714, 11733, 12099, 14649, 15049, 15399, 15667]}, "edge": {"target": [], "time": []}}, "mouseout": {"state": {"target": ["0", "23", "26", "10", "3", "3", "8", "3", "4", "4", "15", "14", "15", "15", "14", "19", "19", "22", "23", "0", "12"], "time": [4887, 4917, 7082, 7166, 8131, 8297, 8847, 8897, 8966, 9515, 9716, 9983, 10150, 11699, 11732, 11766, 14634, 14666, 15366, 15483, 28847]}, "edge": {"target": [], "time": []}}}, "displayed_time": "20.39", "trialTime": 30452, "trial_type": "mouselab-mdp", "trial_index": 5, "time_elapsed": 351235, "internal_node_id": "0.0-2.0-2.0-1.0"}}, {"uniqueid": "w76233101:a21856162", "current_trial": 6, "dateTime": 1691159867938, "trialdata": {"view_history": [{"page_index": 0, "viewing_time": 61660}, {"page_index": 1, "viewing_time": 13791}], "rt": 75451, "trial_id": "mouselab_instructions_2_misaligned", "trial_type": "instructions", "trial_index": 6, "time_elapsed": 426692, "internal_node_id": "0.0-2.0-3.0"}}, {"uniqueid": "w76233101:a21856162", "current_trial": 7, "dateTime": 1691159922577, "trialdata": {"rt": 54632, "response": {"Q0": "The cost for clicking on nodes may vary between nodes.", "Q1": "The better I perform the higher my bonus will be.", "Q2": "No, the amount of cash at each node of the web may be different each time.", "Q3": "To click on the least number of nodes.", "Q4": "Only before moving the spider.", "Q5": "3 seconds"}, "question_order": [0, 1, 2, 3, 4, 5], "correct": {"Q0": "The cost for clicking on nodes may vary between nodes.", "Q1": "The better I perform the higher my bonus will be.", "Q2": "No, the amount of cash at each node of the web may be different each time.", "Q3": "To get the highest total score.", "Q4": "Only before moving the spider.", "Q5": "3 seconds"}, "trial_id": "mouselab_quiz_misaligned", "trial_type": "survey-multi-choice", "trial_index": 7, "time_elapsed": 481331, "internal_node_id": "0.0-2.0-4.0"}}, {"uniqueid": "w76233101:a21856162", "current_trial": 8, "dateTime": 1691159940551, "trialdata": {"success": true, "trial_type": "fullscreen", "trial_index": 8, "time_elapsed": 499305, "internal_node_id": "0.0-2.1-0.1"}}, {"uniqueid": "w76233101:a21856162", "current_trial": 9, "dateTime": 1691160406333, "trialdata": {"view_history": [{"page_index": 0, "viewing_time": 263168}, {"page_index": 1, "viewing_time": 110385}, {"page_index": 2, "viewing_time": 31470}, {"page_index": 3, "viewing_time": 60756}], "rt": 465780, "trial_id": "mouselab_instructions_1_misaligned", "trial_type": "instructions", "trial_index": 9, "time_elapsed": 965087, "internal_node_id": "0.0-2.1-1.1"}}, {"uniqueid": "w76233101:a21856162", "current_trial": 10, "dateTime": 1691160443591, "trialdata": {"revealed_states": [], "clicked_states": ["30", "26", "8", "6"], "num_clicks_accrued": [0, 0, 0, 0, 0, 0, 0, 0, 0, 0, 0, 0, 0], "stateRewards": ["", -10, 10, -10, 10, -10, 10, 10, -10, -10, 10, 10, -10, 10, -10, -10, 10, -10, -10, 10, 10, 10, 10, -10, 10, 10, -10, 10, 10, 10, -10, -10, -10, -10], "withholdReward": false, "trial_id": "practice_1", "block": "test", "trialIndex": 2, "score": 11.5, "costs": -2, "simulationMode": [null, null, null, null, null], "rewards": [-10, 10, -10, 10, 10], "path": ["0", "0", "1", "2", "3", "4", "6"], "rt": [17501, 921, 222, 906, 622], "actions": ["up", "up", "up", "right", "right"], "actionTimes": [24270, 25687, 26404, 27804, 28921], "queries": {"click": {"state": {"target": ["30", "26", "8", "6"], "time": [9070, 13479, 16641, 19488]}, "edge": {"target": [], "time": []}}, "mouseover": {"state": {"target": ["23", "31", "30", "25", "26", "8", "5", "4", "3", "8", "3", "4", "6"], "time": [7847, 8231, 8295, 10897, 10964, 15263, 15480, 15680, 16064, 16264, 18719, 18736, 18797]}, "edge": {"target": [], "time": []}}, "mouseout": {"state": {"target": ["22", "14", "17", "15", "18", "12", "0", "23", "31", "30", "25", "26", "8", "5", "4", "3", "8", "3", "4", "6", "4", "2", "1", "0", "13", "14", "22"], "time": [1747, 1763, 5163, 5180, 5547, 5614, 7681, 7880, 8247, 10881, 10948, 15214, 15280, 15598, 16047, 16114, 18715, 18732, 18764, 19709, 30530, 30630, 30729, 30847, 32363, 32713, 32796]}, "edge": {"target": [], "time": []}}}, "displayed_time": "29.42", "trialTime": 37056, "trial_type": "mouselab-mdp", "trial_index": 10, "time_elapsed": 1002344, "internal_node_id": "0.0-2.1-2.1-0.1"}}, {"uniqueid": "w76233101:a21856162", "current_trial": 11, "dateTime": 1691160472003, "trialdata": {"revealed_states": [], "clicked_states": ["32", "30"], "num_clicks_accrued": [0, 0, 0, 0, 0, 0, 0, 0, 0, 0, 0, 0, 0], "stateRewards": ["", -10, -10, -10, 10, 10, 10, 10, 10, -10, -10, -10, -10, 10, 10, -10, 10, 10, -10, 10, -10, -10, -10, -10, -10, 10, 10, 10, 10, -10, 10, 10, 10, 10], "withholdReward": false, "trial_id": "practice_2", "block": "test", "trialIndex": 3, "score": 12.5, "costs": -1, "simulationMode": [null, null, null, null, null], "rewards": [-10, -10, 10, 10, 10], "path": ["0", "0", "23", "24", "25", "30", "32"], "rt": [9621, 128, 559, 394, 522], "actions": ["left", "left", "left", "down", "down"], "actionTimes": [17305, 17925, 18975, 19909, 20924], "queries": {"click": {"state": {"target": ["32", "30"], "time": [9649, 13544]}, "edge": {"target": [], "time": []}}, "mouseover": {"state": {"target": ["31", "32", "31", "31", "30", "23", "0", "23"], "time": [8666, 9032, 11831, 12463, 12696, 15812, 16582, 16631]}, "edge": {"target": [], "time": []}}, "mouseout": {"state": {"target": ["33", "0", "31", "32", "31", "31", "30", "23", "0", "23", "23", "18", "15", "17"], "time": [6447, 8466, 8898, 11432, 12098, 12480, 15529, 15846, 16598, 16681, 27499, 27598, 27681, 27797]}, "edge": {"target": [], "time": []}}}, "displayed_time": "21.41", "trialTime": 28203, "trial_type": "mouselab-mdp", "trial_index": 11, "time_elapsed": 1030756, "internal_node_id": "0.0-2.1-2.1-1.1"}}, {"uniqueid": "w76233101:a21856162", "current_trial": 12, "dateTime": 1691160525115, "trialdata": {"view_history": [{"page_index": 0, "viewing_time": 48745}, {"page_index": 1, "viewing_time": 4361}], "rt": 53107, "trial_id": "mouselab_instructions_2_misaligned", "trial_type": "instructions", "trial_index": 12, "time_elapsed": 1083868, "internal_node_id": "0.0-2.1-3.1"}}, {"uniqueid": "w76233101:a21856162", "current_trial": 13, "dateTime": 1691160652780, "trialdata": {"rt": 127663, "response": {"Q0": "The cost for clicking on nodes may vary between nodes.", "Q1": "The better I perform the higher my bonus will be.", "Q2": "No, the amount of cash at each node of the web may be different each time.", "Q3": "To get the highest total score.", "Q4": "Only before moving the spider.", "Q5": "3 seconds"}, "question_order": [0, 1, 2, 3, 4, 5], "correct": {"Q0": "The cost for clicking on nodes may vary between nodes.", "Q1": "The better I perform the higher my bonus will be.", "Q2": "No, the amount of cash at each node of the web may be different each time.", "Q3": "To get the highest total score.", "Q4": "Only before moving the spider.", "Q5": "3 seconds"}, "trial_id": "mouselab_quiz_misaligned", "trial_type": "survey-multi-choice", "trial_index": 13, "time_elapsed": 1211534, "internal_node_id": "0.0-2.1-4.1"}}, {"uniqueid": "w76233101:a21856162", "current_trial": 14, "dateTime": 1691160671837, "trialdata": {"rt": 19044, "stimulus": "\n<h1> Get ready to start the game! </h1>\n\nThank you for reading the instructions. Get ready start with the 40 rounds of this game.\n<br><br>\nIf you need to take a break, feel free to take one after the end of a round, before continuing to the next one.\n<br><br>\nRemember, the more money the spider gets, the bigger your bonus will be!\n<br><br>\n<div style='text-align: center;'>Press <code>space</code> to begin.</div>\n\n<br><br>\n(If, at any point, the <code>space</code> key does not take you to the next page, click once on the text and try again.)", "response": " ", "trial_id": "mdp_ready", "trial_type": "html-keyboard-response", "trial_index": 14, "time_elapsed": 1230591, "internal_node_id": "0.0-4.0-0.0"}}, {"uniqueid": "w76233101:a21856162", "current_trial": 15, "dateTime": 1691160710479, "trialdata": {"revealed_states": [], "clicked_states": ["27", "30"], "num_clicks_accrued": [0, 0, 0, 0, 0, 0, 0, 0, 0, 0, 0, 0, 0], "stateRewards": ["", 1, 1, 1, 15, -76, 52, -32, 14, -57, 37, 49, 1, -4, -3, 6, 83, -76, 25, 9, 36, -1, -17, -1, 4, 4, -2, -22, -21, 58, -15, -57, 49, -24], "withholdReward": false, "trial_id": "mdp_trial_1", "block": "test", "trialIndex": 4, "score": 35.3, "costs": -3.7, "simulationMode": [null, null, null, null, null], "rewards": [1, -4, -3, 9, 36], "path": ["0", "0", "12", "13", "14", "19", "20"], "rt": [17001, 4115, 334, 490, 902], "actions": ["right", "right", "right", "down", "right"], "actionTimes": [20736, 25349, 26184, 27170, 28582], "queries": {"click": {"state": {"target": ["27", "30"], "time": [5270, 9666]}, "edge": {"target": [], "time": []}}, "mouseover": {"state": {"target": ["23", "28", "27", "26", "26", "25", "30", "32", "32", "33", "12", "13", "14", "19", "22", "23"], "time": [4280, 4380, 4730, 6081, 6695, 8879, 9113, 13146, 13812, 14213, 14712, 14745, 14779, 15179, 17763, 18746]}, "edge": {"target": [], "time": []}}, "mouseout": {"state": {"target": ["5", "4", "7", "0", "23", "28", "27", "26", "26", "25", "30", "32", "32", "33", "12", "13", "14", "19", "22", "23", "0", "18", "21"], "time": [1828, 1860, 1910, 2662, 4313, 4496, 6030, 6295, 8847, 8930, 13129, 13195, 13913, 14612, 14729, 14762, 15013, 17730, 17812, 34448, 34478, 34512, 36620]}, "edge": {"target": [], "time": []}}}, "displayed_time": "29.08", "trialTime": 38422, "trial_type": "mouselab-mdp", "trial_index": 15, "time_elapsed": 1269232, "internal_node_id": "0.0-4.0-1.0-0.0"}}, {"uniqueid": "w76233101:a21856162", "current_trial": 16, "dateTime": 1691160732366, "trialdata": {"revealed_states": [], "clicked_states": ["30", "27"], "num_clicks_accrued": [0, 0, 0, 0, 0, 0, 0, 0, 0, 0, 0, 0, 0], "stateRewards": ["", -2, 2, -2, -7, -50, -62, -45, 7, 36, -24, -72, -1, -1, 8, -1, -67, 20, -52, 2, 35, -50, 80, -1, 1, 6, -6, -70, 6, 88, 8, -47, 74, -19], "withholdReward": false, "trial_id": "mdp_trial_2", "block": "test", "trialIndex": 5, "score": 84.3, "costs": -3.7, "simulationMode": [null, null, null, null, null], "rewards": [-1, 1, 6, 8, 74], "path": ["0", "0", "23", "24", "25", "30", "32"], "rt": [8602, 1083, 342, 551, 253], "actions": ["left", "left", "left", "down", "down"], "actionTimes": [11262, 12873, 13720, 14761, 15516], "queries": {"click": {"state": {"target": ["30", "27"], "time": [3881, 5367]}, "edge": {"target": [], "time": []}}, "mouseover": {"state": {"target": ["23", "30", "25", "26", "27", "28", "1", "2", "8", "8", "10"], "time": [3077, 3510, 4511, 4608, 4842, 6175, 6425, 6525, 6625, 6927, 9393]}, "edge": {"target": [], "time": []}}, "mouseout": {"state": {"target": ["21", "22", "12", "23", "30", "25", "26", "27", "28", "1", "2", "8", "8", "10", "23"], "time": [1292, 1342, 1376, 3093, 4459, 4575, 4692, 6075, 6308, 6475, 6575, 6708, 9376, 9409, 18092]}, "edge": {"target": [], "time": []}}}, "displayed_time": "16.66", "trialTime": 21674, "trial_type": "mouselab-mdp", "trial_index": 16, "time_elapsed": 1291119, "internal_node_id": "0.0-4.0-1.0-1.0"}}, {"uniqueid": "w76233101:a21856162", "current_trial": 17, "dateTime": 1691160754002, "trialdata": {"revealed_states": [], "clicked_states": ["30", "26", "8"], "num_clicks_accrued": [0, 0, 0, 0, 0, 0, 0, 0, 0, 0, 0, 0, 0], "stateRewards": ["", 1, -2, -8, -3, 31, -84, -55, -14, 15, -58, 17, -2, -3, 7, 7, -12, 48, 67, 4, -44, -68, 46, 2, 3, -5, -7, 76, 27, 5, 11, 57, 52, 59], "withholdReward": false, "trial_id": "mdp_trial_3", "block": "test", "trialIndex": 6, "score": 58.35, "costs": -4.65, "simulationMode": [null, null, null, null, null], "rewards": [2, 3, -5, 11, 52], "path": ["0", "0", "23", "24", "25", "30", "32"], "rt": [5359, 490, 148, 350, 122], "actions": ["left", "left", "left", "down", "down"], "actionTimes": [9505, 10503, 11140, 11992, 12615], "queries": {"click": {"state": {"target": ["30", "26", "8"], "time": [5144, 6134, 7240]}, "edge": {"target": [], "time": []}}, "mouseover": {"state": {"target": ["31", "30", "25", "26", "8", "8", "10", "23"], "time": [4506, 4573, 5507, 5790, 6507, 6890, 8123, 8458]}, "edge": {"target": [], "time": []}}, "mouseout": {"state": {"target": ["22", "19", "21", "0", "31", "30", "25", "26", "8", "8", "8", "10", "23"], "time": [858, 906, 2374, 4423, 4539, 5491, 5573, 6457, 6540, 7461, 8106, 8206, 8558]}, "edge": {"target": [], "time": []}}}, "displayed_time": "18.15", "trialTime": 21410, "trial_type": "mouselab-mdp", "trial_index": 17, "time_elapsed": 1312755, "internal_node_id": "0.0-4.0-1.0-2.0"}}, {"uniqueid": "w76233101:a21856162", "current_trial": 18, "dateTime": 1691160777254, "trialdata": {"revealed_states": [], "clicked_states": ["19", "15", "4"], "num_clicks_accrued": [0, 0, 0, 0, 0, 0, 0, 0, 0, 0, 0, 0, 0], "stateRewards": ["", -2, 1, -7, -8, -37, -76, -87, 11, 30, -63, 80, -1, 4, 2, -1, 42, 17, 52, -3, -75, -80, -68, 2, -3, -5, -15, -48, 82, 24, -7, 5, -22, -71], "withholdReward": false, "trial_id": "mdp_trial_4", "block": "test", "trialIndex": 7, "score": -73.65, "costs": -4.65, "simulationMode": [null, null, null, null, null], "rewards": [2, -3, -5, -15, -48], "path": ["0", "0", "23", "24", "25", "26", "27"], "rt": [5219, 1284, 114, 553, 45], "actions": ["left", "left", "left", "up", "up"], "actionTimes": [9972, 11771, 12382, 13456, 14000], "queries": {"click": {"state": {"target": ["19", "15", "4"], "time": [5895, 6947, 7848]}, "edge": {"target": [], "time": []}}, "mouseover": {"state": {"target": ["12", "14", "19", "14", "15", "4", "1"], "time": [5037, 5085, 5403, 6368, 6418, 7351, 9001]}, "edge": {"target": [], "time": []}}, "mouseout": {"state": {"target": ["1", "13", "22", "14", "17", "12", "12", "14", "19", "14", "15", "4", "1"], "time": [1219, 1418, 1753, 1818, 2618, 3118, 5052, 5102, 6334, 6384, 7157, 8951, 9016]}, "edge": {"target": [], "time": []}}}, "displayed_time": "18.75", "trialTime": 23040, "trial_type": "mouselab-mdp", "trial_index": 18, "time_elapsed": 1336007, "internal_node_id": "0.0-4.0-1.0-3.0"}}, {"uniqueid": "w76233101:a21856162", "current_trial": 19, "dateTime": 1691160800344, "trialdata": {"revealed_states": [], "clicked_states": ["30", "26", "8"], "num_clicks_accrued": [0, 0, 0, 0, 0, 0, 0, 0, 0, 0, 0, 0, 0], "stateRewards": ["", 2, -2, -3, 10, -4, -1, -11, -8, -9, -36, -78, 2, 1, 7, -7, 44, -1, -31, -1, 26, 47, 83, 2, -4, -4, -6, -52, -76, -81, -1, -59, 45, 67], "withholdReward": false, "trial_id": "mdp_trial_5", "block": "test", "trialIndex": 8, "score": 1.3499999999999996, "costs": -4.65, "simulationMode": [null, null, null, null, null], "rewards": [2, -2, -3, 10, -1], "path": ["0", "0", "1", "2", "3", "4", "6"], "rt": [7102, 481, 99, 208, 319], "actions": ["up", "up", "up", "right", "right"], "actionTimes": [11875, 12859, 13472, 14185, 15045], "queries": {"click": {"state": {"target": ["30", "26", "8"], "time": [6033, 7008, 8078]}, "edge": {"target": [], "time": []}}, "mouseover": {"state": {"target": ["23", "30", "25", "26", "8", "3", "4", "16"], "time": [5157, 5573, 6372, 6539, 7708, 9406, 9426, 9507]}, "edge": {"target": [], "time": []}}, "mouseout": {"state": {"target": ["0", "12", "0", "23", "30", "25", "26", "8", "3", "4", "16"], "time": [3223, 3372, 5140, 5190, 6339, 6405, 7305, 9390, 9423, 9440, 9523]}, "edge": {"target": [], "time": []}}}, "displayed_time": "18.77", "trialTime": 22868, "trial_type": "mouselab-mdp", "trial_index": 19, "time_elapsed": 1359097, "internal_node_id": "0.0-4.0-1.0-4.0"}}, {"uniqueid": "w76233101:a21856162", "current_trial": 20, "dateTime": 1691160827830, "trialdata": {"revealed_states": [], "clicked_states": ["19", "15", "4"], "num_clicks_accrued": [0, 0, 0, 0, 0, 0, 0, 0, 0, 0, 0, 0, 0], "stateRewards": ["", -1, 4, -6, -5, -22, -38, -38, -2, -56, 88, 14, -1, -1, -7, -6, 61, -60, 21, 11, 57, 31, -30, -2, -2, 6, -9, -44, -70, -44, -15, 34, 16, -78], "withholdReward": false, "trial_id": "mdp_trial_6", "block": "test", "trialIndex": 9, "score": 28.35, "costs": -4.65, "simulationMode": [null, null, null, null, null], "rewards": [-1, -1, -7, 11, 31], "path": ["0", "0", "12", "13", "14", "19", "21"], "rt": [5012, 596, 137, 727, 193], "actions": ["right", "right", "right", "down", "down"], "actionTimes": [8946, 10053, 10696, 11935, 12618], "queries": {"click": {"state": {"target": ["19", "15", "4"], "time": [4989, 5900, 6863]}, "edge": {"target": [], "time": []}}, "mouseover": {"state": {"target": ["22", "19", "14", "15", "4", "12"], "time": [4326, 4658, 5310, 5476, 6473, 7723]}, "edge": {"target": [], "time": []}}, "mouseout": {"state": {"target": ["20", "21", "19", "14", "15", "18", "22", "19", "14", "15", "4", "4", "12"], "time": [641, 708, 958, 974, 2858, 2908, 4343, 5274, 5373, 6157, 7083, 7674, 7740]}, "edge": {"target": [], "time": []}}}, "displayed_time": "17.94", "trialTime": 27258, "trial_type": "mouselab-mdp", "trial_index": 20, "time_elapsed": 1386583, "internal_node_id": "0.0-4.0-1.0-5.0"}}, {"uniqueid": "w76233101:a21856162", "current_trial": 21, "dateTime": 1691160848859, "trialdata": {"revealed_states": [], "clicked_states": ["30", "19", "26"], "num_clicks_accrued": [0, 0, 0, 0, 0, 0, 0, 0, 0, 0, 0, 0, 0], "stateRewards": ["", -2, 3, 3, -14, 62, 36, 49, 16, 11, 17, -84, 2, -1, 6, 2, -82, -73, 49, -6, -87, 48, 50, -1, -2, -1, -16, -11, 37, -44, 4, 55, 73, -10], "withholdReward": false, "trial_id": "mdp_trial_7", "block": "test", "trialIndex": 10, "score": 50.35, "costs": -4.65, "simulationMode": [null, null, null, null, null], "rewards": [-1, -2, -1, 4, 55], "path": ["0", "0", "23", "24", "25", "30", "31"], "rt": [5148, 288, 127, 202, 182], "actions": ["left", "left", "left", "down", "right"], "actionTimes": [8500, 9311, 9946, 10637, 11334], "queries": {"click": {"state": {"target": ["30", "19", "26"], "time": [4367, 5545, 6788]}, "edge": {"target": [], "time": []}}, "mouseover": {"state": {"target": ["31", "30", "31", "22", "19", "19", "12", "26", "29", "26"], "time": [3751, 4035, 4653, 4734, 4767, 5100, 5883, 5950, 5969, 6400]}, "edge": {"target": [], "time": []}}, "mouseout": {"state": {"target": ["0", "31", "30", "31", "22", "19", "19", "12", "26", "29", "26", "28", "2", "7"], "time": [3686, 3935, 4650, 4668, 4750, 4783, 5867, 5900, 5967, 6001, 14585, 14619, 14667, 14682]}, "edge": {"target": [], "time": []}}}, "displayed_time": "17.36", "trialTime": 20798, "trial_type": "mouselab-mdp", "trial_index": 21, "time_elapsed": 1407612, "internal_node_id": "0.0-4.0-1.0-6.0"}}, {"uniqueid": "w76233101:a21856162", "current_trial": 22, "dateTime": 1691160868769, "trialdata": {"revealed_states": [], "clicked_states": ["30", "26", "8"], "num_clicks_accrued": [0, 0, 0, 0, 0, 0, 0, 0, 0, 0, 0, 0, 0], "stateRewards": ["", 2, 4, -6, -13, -75, -81, 30, 7, 5, 59, -65, -1, -1, 7, 14, -38, 36, -41, 1, -54, -5, 64, 2, -1, 5, 6, -19, 79, 11, 16, -33, -50, 58], "withholdReward": false, "trial_id": "mdp_trial_8", "block": "test", "trialIndex": 11, "score": -32.65, "costs": -4.65, "simulationMode": [null, null, null, null, null], "rewards": [2, -1, 5, 16, -50], "path": ["0", "0", "23", "24", "25", "30", "32"], "rt": [4773, 28, 93, 590, 113], "actions": ["left", "left", "left", "down", "down"], "actionTimes": [7339, 7871, 8500, 9581, 10187], "queries": {"click": {"state": {"target": ["30", "26", "8"], "time": [3521, 4549, 5669]}, "edge": {"target": [], "time": []}}, "mouseover": {"state": {"target": ["0", "31", "30", "25", "26", "11", "9", "8", "28", "24"], "time": [2757, 2889, 3188, 3821, 4154, 4921, 5137, 5255, 6355, 6373]}, "edge": {"target": [], "time": []}}, "mouseout": {"state": {"target": ["12", "0", "31", "30", "25", "26", "11", "9", "8", "8", "28", "24", "12"], "time": [1638, 2787, 3037, 3805, 4038, 4887, 4954, 5188, 5887, 6322, 6371, 6388, 14039]}, "edge": {"target": [], "time": []}}}, "displayed_time": "16.57", "trialTime": 19679, "trial_type": "mouselab-mdp", "trial_index": 22, "time_elapsed": 1427522, "internal_node_id": "0.0-4.0-1.0-7.0"}}, {"uniqueid": "w76233101:a21856162", "current_trial": 23, "dateTime": 1691160888282, "trialdata": {"revealed_states": [], "clicked_states": ["19", "15", "4"], "num_clicks_accrued": [0, 0, 0, 0, 0, 0, 0, 0, 0, 0, 0, 0, 0], "stateRewards": ["", -2, -3, 7, -13, 60, 9, 37, -6, 37, 20, 1, 2, -2, -8, 6, -80, -31, -10, -7, 70, -65, -44, -1, 1, 7, 6, -11, 73, -85, 16, -21, 47, 34], "withholdReward": false, "trial_id": "mdp_trial_9", "block": "test", "trialIndex": 12, "score": -37.65, "costs": -4.65, "simulationMode": [null, null, null, null, null], "rewards": [2, -2, -8, 6, -31], "path": ["0", "0", "12", "13", "14", "15", "17"], "rt": [4962, 663, 274, 735, 1208], "actions": ["right", "right", "right", "up", "right"], "actionTimes": [7947, 9099, 9880, 11105, 12810], "queries": {"click": {"state": {"target": ["19", "15", "4"], "time": [4140, 5114, 6014]}, "edge": {"target": [], "time": []}}, "mouseover": {"state": {"target": ["12", "22", "19", "14", "15", "4"], "time": [3336, 3402, 3687, 4420, 4785, 5535]}, "edge": {"target": [], "time": []}}, "mouseout": {"state": {"target": ["19", "14", "13", "12", "0", "12", "22", "19", "14", "15", "4"], "time": [1119, 1518, 1585, 1919, 3320, 3353, 3417, 4402, 4468, 5468, 14403]}, "edge": {"target": [], "time": []}}}, "displayed_time": "16.99", "trialTime": 19291, "trial_type": "mouselab-mdp", "trial_index": 23, "time_elapsed": 1447036, "internal_node_id": "0.0-4.0-1.0-8.0"}}, {"uniqueid": "w76233101:a21856162", "current_trial": 24, "dateTime": 1691160906746, "trialdata": {"revealed_states": [], "clicked_states": ["25", "26", "30"], "num_clicks_accrued": [0, 0, 0, 0, 0, 0, 0, 0, 0, 0, 0, 0, 0], "stateRewards": ["", 1, -2, -3, 14, -42, -87, -37, -11, -50, 33, -44, -2, 4, -7, 13, 48, -75, -66, 12, 23, -2, 82, 1, -4, 3, 12, 51, -15, -26, -11, -52, -29, 82], "withholdReward": false, "trial_id": "mdp_trial_10", "block": "test", "trialIndex": 13, "score": 58.95, "costs": -4.05, "simulationMode": [null, null, null, null, null], "rewards": [1, -4, 3, 12, 51], "path": ["0", "0", "23", "24", "25", "26", "27"], "rt": [4998, 276, 108, 382, 342], "actions": ["left", "left", "left", "up", "up"], "actionTimes": [7446, 8241, 8868, 9760, 10606], "queries": {"click": {"state": {"target": ["25", "26", "30"], "time": [4061, 5077, 6128]}, "edge": {"target": [], "time": []}}, "mouseover": {"state": {"target": ["23", "24", "25", "26", "30", "30"], "time": [3128, 3343, 3611, 4577, 5476, 5810]}, "edge": {"target": [], "time": []}}, "mouseout": {"state": {"target": ["0", "23", "24", "25", "26", "25", "30", "30", "23"], "time": [1977, 3278, 3427, 4510, 5427, 5460, 5510, 14361, 14394]}, "edge": {"target": [], "time": []}}}, "displayed_time": "16.45", "trialTime": 18230, "trial_type": "mouselab-mdp", "trial_index": 24, "time_elapsed": 1465499, "internal_node_id": "0.0-4.0-1.0-9.0"}}, {"uniqueid": "w76233101:a21856162", "current_trial": 25, "dateTime": 1691160926851, "trialdata": {"revealed_states": [], "clicked_states": ["8", "3", "4"], "num_clicks_accrued": [0, 0, 0, 0, 0, 0, 0, 0, 0, 0, 0, 0, 0], "stateRewards": ["", 2, -3, 5, -14, -63, -9, -24, -11, -54, -43, 68, 2, -2, -4, 7, -64, 30, 47, 12, -74, 11, 86, 1, -3, 3, 10, -71, -42, -52, -1, -29, -16, 69], "withholdReward": false, "trial_id": "mdp_trial_11", "block": "test", "trialIndex": 14, "score": -65.05, "costs": -4.05, "simulationMode": [null, null, null, null, null], "rewards": [2, -2, -4, 7, -64], "path": ["0", "0", "12", "13", "14", "15", "16"], "rt": [7337, 374, 104, 537, 121], "actions": ["right", "right", "right", "up", "up"], "actionTimes": [11428, 12296, 12893, 13925, 14543], "queries": {"click": {"state": {"target": ["8", "3", "4"], "time": [5186, 5938, 6745]}, "edge": {"target": [], "time": []}}, "mouseover": {"state": {"target": ["1", "10", "8", "3", "4", "12", "22", "19"], "time": [4304, 4471, 4722, 5537, 6437, 7871, 8053, 8140]}, "edge": {"target": [], "time": []}}, "mouseout": {"state": {"target": ["19", "0", "1", "10", "8", "3", "4", "12", "22", "19", "14", "17"], "time": [2071, 4265, 4321, 4620, 5471, 6204, 7670, 7904, 8088, 10388, 15988, 16007]}, "edge": {"target": [], "time": []}}}, "displayed_time": "18.09", "trialTime": 19863, "trial_type": "mouselab-mdp", "trial_index": 25, "time_elapsed": 1485604, "internal_node_id": "0.0-4.0-1.0-10.0"}}, {"uniqueid": "w76233101:a21856162", "current_trial": 26, "dateTime": 1691160947289, "trialdata": {"revealed_states": [], "clicked_states": ["15", "14", "19"], "num_clicks_accrued": [0, 0, 0, 0, 0, 0, 0, 0, 0, 0, 0, 0, 0], "stateRewards": ["", -1, 3, -4, -14, 78, 67, 2, 13, -32, 28, 39, -2, 1, -4, -4, -4, -42, -86, 11, 64, -29, -32, -1, -4, 2, -7, 5, 68, -61, 2, -21, 85, 50], "withholdReward": false, "trial_id": "mdp_trial_12", "block": "test", "trialIndex": 15, "score": -30.05, "costs": -4.05, "simulationMode": [null, null, null, null, null], "rewards": [-2, 1, -4, 11, -32], "path": ["0", "0", "12", "13", "14", "19", "22"], "rt": [4978, 329, 97, 234, 651], "actions": ["right", "right", "right", "down", "left"], "actionTimes": [8551, 9386, 10004, 10756, 11907], "queries": {"click": {"state": {"target": ["15", "14", "19"], "time": [5106, 5870, 6722]}, "edge": {"target": [], "time": []}}, "mouseover": {"state": {"target": ["12", "13", "14", "15", "14", "19", "22"], "time": [4007, 4106, 4490, 4604, 5440, 6206, 7489]}, "edge": {"target": [], "time": []}}, "mouseout": {"state": {"target": ["16", "0", "12", "13", "14", "15", "14", "19", "22"], "time": [1156, 3991, 4038, 4139, 4572, 5407, 6190, 7472, 7523]}, "edge": {"target": [], "time": []}}}, "displayed_time": "17.57", "trialTime": 20206, "trial_type": "mouselab-mdp", "trial_index": 26, "time_elapsed": 1506043, "internal_node_id": "0.0-4.0-1.0-11.0"}}, {"uniqueid": "w76233101:a21856162", "current_trial": 27, "dateTime": 1691160964889, "trialdata": {"revealed_states": [], "clicked_states": ["30", "26", "8"], "num_clicks_accrued": [0, 0, 0, 0, 0, 0, 0, 0, 0, 0, 0, 0, 0], "stateRewards": ["", -2, 1, -8, 12, -65, -79, 16, 7, -80, -17, -45, -2, 2, -5, -2, -85, 23, -4, -7, 48, 27, -76, 2, 3, 5, 2, 43, 71, -13, 7, -49, 59, -31], "withholdReward": false, "trial_id": "mdp_trial_13", "block": "test", "trialIndex": 16, "score": -51.65, "costs": -4.65, "simulationMode": [null, null, null, null, null], "rewards": [-2, 1, -8, 7, -45], "path": ["0", "0", "1", "2", "3", "8", "11"], "rt": [5683, 1044, 416, 670, 332], "actions": ["up", "up", "up", "left", "left"], "actionTimes": [7311, 8856, 9762, 10933, 11765], "queries": {"click": {"state": {"target": ["30", "26", "8"], "time": [2877, 4113, 5113]}, "edge": {"target": [], "time": []}}, "mouseover": {"state": {"target": ["31", "30", "25", "26", "26", "10", "8", "3", "3"], "time": [2113, 2310, 3195, 3378, 3695, 4528, 4779, 6310, 6843]}, "edge": {"target": [], "time": []}}, "mouseout": {"state": {"target": ["0", "31", "30", "25", "26", "26", "10", "8", "3", "3", "4"], "time": [2029, 2130, 3162, 3228, 3462, 4412, 4595, 6294, 6394, 6961, 12812]}, "edge": {"target": [], "time": []}}}, "displayed_time": "15.63", "trialTime": 17361, "trial_type": "mouselab-mdp", "trial_index": 27, "time_elapsed": 1523642, "internal_node_id": "0.0-4.0-1.0-12.0"}}, {"uniqueid": "w76233101:a21856162", "current_trial": 28, "dateTime": 1691160984598, "trialdata": {"revealed_states": [], "clicked_states": ["3", "8", "25", "30"], "num_clicks_accrued": [0, 0, 0, 0, 0, 0, 0, 0, 0, 0, 0, 0, 0], "stateRewards": ["", -2, 2, -5, -6, 10, -66, -58, -10, -11, -63, -70, -1, -4, -5, 7, 66, -64, -43, -3, 45, -37, 4, -2, -2, -6, -4, -30, 33, 43, 15, -32, -65, -59], "withholdReward": false, "trial_id": "mdp_trial_14", "block": "test", "trialIndex": 17, "score": -32, "costs": -5, "simulationMode": [null, null, null, null, null], "rewards": [-2, -2, -6, 15, -32], "path": ["0", "0", "23", "24", "25", "30", "31"], "rt": [6098, 431, 327, 381, 753], "actions": ["left", "left", "left", "down", "right"], "actionTimes": [9640, 10590, 11423, 12324, 13595], "queries": {"click": {"state": {"target": ["3", "8", "25", "30"], "time": [5090, 5893, 7041, 7880]}, "edge": {"target": [], "time": []}}, "mouseover": {"state": {"target": ["1", "8", "3", "8", "28", "25", "30"], "time": [4009, 4126, 4375, 5442, 6408, 6691, 7407]}, "edge": {"target": [], "time": []}}, "mouseout": {"state": {"target": ["20", "19", "22", "0", "1", "8", "3", "8", "28", "25", "30", "24"], "time": [1008, 1075, 2526, 3980, 4042, 4209, 5408, 6341, 6424, 7374, 15208, 15242]}, "edge": {"target": [], "time": []}}}, "displayed_time": "17.54", "trialTime": 19467, "trial_type": "mouselab-mdp", "trial_index": 28, "time_elapsed": 1543351, "internal_node_id": "0.0-4.0-1.0-13.0"}}, {"uniqueid": "w76233101:a21856162", "current_trial": 29, "dateTime": 1691161002369, "trialdata": {"revealed_states": [], "clicked_states": [], "num_clicks_accrued": [0, 0, 0, 0, 0, 0, 0, 0, 0, 0, 0, 0, 0], "stateRewards": ["", 2, 3, -3, 12, -43, 81, -82, -15, 58, -7, -75, -1, -1, 3, -5, 50, -25, -8, 4, 66, 65, -66, 2, -4, 2, -1, -10, 10, 37, 11, 88, -37, 8], "withholdReward": false, "trial_id": "mdp_trial_15", "block": "test", "trialIndex": 18, "score": -26, "costs": 0, "simulationMode": [null, null, null, null, null], "rewards": [2, -4, 2, 11, -37], "path": ["0", "0", "23", "24", "25", "30", "32"], "rt": [8227, 785, 204, 306, 250], "actions": ["left", "left", "left", "down", "down"], "actionTimes": [10347, 11651, 12370, 13186, 13948], "queries": {"click": {"state": {"target": [], "time": []}, "edge": {"target": [], "time": []}}, "mouseover": {"state": {"target": ["23", "24", "26", "29", "26", "25", "30", "0", "17", "17", "15", "12", "23", "24", "25"], "time": [2482, 2532, 2681, 3081, 3915, 5465, 5547, 8065, 8098, 8614, 8648, 8949, 9114, 9198, 9432]}, "edge": {"target": [], "time": []}}, "mouseout": {"state": {"target": ["23", "24", "26", "29", "26", "25", "30", "0", "17", "17", "15", "12", "23", "24", "25"], "time": [2498, 2598, 2881, 3865, 5448, 5498, 8032, 8082, 8114, 8631, 8681, 9015, 9147, 9315, 15099]}, "edge": {"target": [], "time": []}}}, "displayed_time": "16.12", "trialTime": 17545, "trial_type": "mouselab-mdp", "trial_index": 29, "time_elapsed": 1561122, "internal_node_id": "0.0-4.0-1.0-14.0"}}, {"uniqueid": "w76233101:a21856162", "current_trial": 30, "dateTime": 1691161019999, "trialdata": {"revealed_states": [], "clicked_states": ["25", "30", "32"], "num_clicks_accrued": [0, 0, 0, 0, 0, 0, 0, 0, 0, 0, 0, 0, 0], "stateRewards": ["", 2, 4, 7, 7, -79, -2, -21, -5, -53, 47, -21, 1, -3, -1, 7, 83, 7, 84, -7, 80, -37, 69, 2, -4, 5, 2, 4, -20, -30, 7, 71, 44, -81], "withholdReward": false, "trial_id": "mdp_trial_16", "block": "test", "trialIndex": 19, "score": 49.35, "costs": -4.65, "simulationMode": [null, null, null, null, null, null], "rewards": [2, -4, 5, 7, 44], "path": ["0", "0", "23", "24", "25", "30", "32"], "rt": [5554, 1397, 267, 147, 83, 270], "actions": ["left", "left", "left", "left", "down", "down"], "actionTimes": [7075, 8474, 9257, 9919, 10522, 11293], "queries": {"click": {"state": {"target": ["25", "30", "32"], "time": [2463, 3413, 4350]}, "edge": {"target": [], "time": []}}, "mouseover": {"state": {"target": ["23", "24", "25", "30", "32"], "time": [1874, 1923, 1971, 3039, 4056]}, "edge": {"target": [], "time": []}}, "mouseout": {"state": {"target": ["19", "22", "0", "23", "24", "25", "30", "32", "21"], "time": [472, 522, 1857, 1907, 1955, 2839, 3873, 12727, 12973]}, "edge": {"target": [], "time": []}}}, "displayed_time": "15.52", "trialTime": 17403, "trial_type": "mouselab-mdp", "trial_index": 30, "time_elapsed": 1578753, "internal_node_id": "0.0-4.0-1.0-15.0"}}, {"uniqueid": "w76233101:a21856162", "current_trial": 31, "dateTime": 1691161038840, "trialdata": {"revealed_states": [], "clicked_states": ["23", "1", "12"], "num_clicks_accrued": [0, 0, 0, 0, 0, 0, 0, 0, 0, 0, 0, 0, 0], "stateRewards": ["", -1, 1, -6, -1, 80, 23, 2, -11, 73, -81, 59, 1, 3, 5, -1, -26, 28, -3, 16, -59, -13, -50, -2, -2, 2, 15, -50, 86, 17, -4, 37, 35, 44], "withholdReward": false, "trial_id": "mdp_trial_17", "block": "test", "trialIndex": 20, "score": -17.25, "costs": 0.75, "simulationMode": [null, null, null, null, null], "rewards": [1, 3, 5, -1, -26], "path": ["0", "0", "12", "13", "14", "15", "16"], "rt": [3883, 334, 357, 583, 251], "actions": ["right", "right", "right", "up", "up"], "actionTimes": [7709, 8555, 9413, 10504, 11271], "queries": {"click": {"state": {"target": ["23", "1", "12"], "time": [4759, 5659, 6645]}, "edge": {"target": [], "time": []}}, "mouseover": {"state": {"target": ["23", "1", "12"], "time": [4484, 5319, 6286]}, "edge": {"target": [], "time": []}}, "mouseout": {"state": {"target": ["21", "22", "0", "23", "1", "1", "12", "13", "17", "22"], "time": [868, 3017, 4118, 5119, 5880, 6086, 14320, 14338, 14405, 15187]}, "edge": {"target": [], "time": []}}}, "displayed_time": "17.83", "trialTime": 18624, "trial_type": "mouselab-mdp", "trial_index": 31, "time_elapsed": 1597593, "internal_node_id": "0.0-4.0-1.0-16.0"}}, {"uniqueid": "w76233101:a21856162", "current_trial": 32, "dateTime": 1691161056397, "trialdata": {"revealed_states": [], "clicked_states": ["1", "3", "8"], "num_clicks_accrued": [0, 0, 0, 0, 0, 0, 0, 0, 0, 0, 0, 0, 0], "stateRewards": ["", 1, -2, -2, 10, -31, -77, 35, 9, -47, 8, 48, -2, 1, -4, -3, -26, -50, 43, -11, 76, -38, 17, 1, -1, 6, 10, 15, -9, 12, -8, 85, 11, -55], "withholdReward": false, "trial_id": "mdp_trial_18", "block": "test", "trialIndex": 21, "score": 11.75, "costs": -2.25, "simulationMode": [null, null, null, null, null], "rewards": [1, -2, -2, 9, 8], "path": ["0", "0", "1", "2", "3", "8", "10"], "rt": [6030, 967, 339, 174, 241], "actions": ["up", "up", "up", "left", "down"], "actionTimes": [8420, 9905, 10755, 11442, 12190], "queries": {"click": {"state": {"target": ["1", "3", "8"], "time": [3933, 5120, 5986]}, "edge": {"target": [], "time": []}}, "mouseover": {"state": {"target": ["0", "1", "1", "2", "3", "8", "10"], "time": [2899, 3065, 3599, 4382, 4748, 5547, 6797]}, "edge": {"target": [], "time": []}}, "mouseout": {"state": {"target": ["20", "12", "0", "0", "1", "1", "2", "3", "8", "10", "23", "18"], "time": [982, 1665, 1764, 2982, 3132, 4151, 4414, 5514, 6764, 6864, 13982, 14032]}, "edge": {"target": [], "time": []}}}, "displayed_time": "16.39", "trialTime": 17326, "trial_type": "mouselab-mdp", "trial_index": 32, "time_elapsed": 1615150, "internal_node_id": "0.0-4.0-1.0-17.0"}}, {"uniqueid": "w76233101:a21856162", "current_trial": 33, "dateTime": 1691161075766, "trialdata": {"revealed_states": [], "clicked_states": ["25", "30", "26"], "num_clicks_accrued": [0, 0, 0, 0, 0, 0, 0, 0, 0, 0, 0, 0, 0], "stateRewards": ["", -2, 2, -1, -6, 22, 6, 6, -5, 70, -42, 65, 1, 3, 5, -6, -67, -9, 3, 14, 7, -62, -13, -2, 4, 1, 16, 42, -21, -52, -8, 32, 53, 81], "withholdReward": false, "trial_id": "mdp_trial_19", "block": "test", "trialIndex": 22, "score": -6.050000000000001, "costs": -4.05, "simulationMode": [null, null, null, null, null], "rewards": [-2, 4, 1, 16, -21], "path": ["0", "0", "23", "24", "25", "26", "28"], "rt": [5962, 490, 38, 148, 608], "actions": ["left", "left", "left", "up", "right"], "actionTimes": [9667, 10667, 11230, 11903, 13014], "queries": {"click": {"state": {"target": ["25", "30", "26"], "time": [4764, 5544, 6528]}, "edge": {"target": [], "time": []}}, "mouseover": {"state": {"target": ["23", "24", "25", "30", "26", "26", "23", "0", "23"], "time": [4105, 4156, 4288, 5142, 5888, 6254, 6871, 6954, 8260]}, "edge": {"target": [], "time": []}}, "mouseout": {"state": {"target": ["21", "0", "23", "24", "25", "30", "25", "26", "26", "23", "0", "23", "26", "26"], "time": [1205, 4073, 4139, 4173, 5112, 5729, 5872, 5904, 6805, 6904, 7338, 8422, 8672, 9072]}, "edge": {"target": [], "time": []}}}, "displayed_time": "17.71", "trialTime": 19136, "trial_type": "mouselab-mdp", "trial_index": 33, "time_elapsed": 1634519, "internal_node_id": "0.0-4.0-1.0-18.0"}}, {"uniqueid": "w76233101:a21856162", "current_trial": 34, "dateTime": 1691161097927, "trialdata": {"revealed_states": [], "clicked_states": ["23", "24", "26", "25"], "num_clicks_accrued": [0, 0, 0, 0, 0, 0, 0, 0, 0, 0, 0, 0, 0], "stateRewards": ["", -2, 4, -7, -3, -76, 39, -28, 10, 14, 12, 60, 2, -3, 6, -10, 88, -34, -41, -3, 72, -13, -56, 1, 3, 2, 8, -51, 23, -57, 1, 14, -46, -16], "withholdReward": false, "trial_id": "mdp_trial_20", "block": "test", "trialIndex": 23, "score": -39.6, "costs": -2.5999999999999996, "simulationMode": [null, null, null, null, null], "rewards": [1, 3, 2, 8, -51], "path": ["0", "0", "23", "24", "25", "26", "27"], "rt": [4485, 530, 154, 155, 172], "actions": ["left", "left", "left", "up", "up"], "actionTimes": [9972, 11030, 11703, 12371, 13058], "queries": {"click": {"state": {"target": ["23", "24", "26", "25"], "time": [6568, 7388, 8231, 9217]}, "edge": {"target": [], "time": []}}, "mouseover": {"state": {"target": ["23", "0", "23", "24", "26", "25"], "time": [5799, 6017, 6283, 6916, 7782, 8682]}, "edge": {"target": [], "time": []}}, "mouseout": {"state": {"target": ["22", "23", "0", "23", "24", "26", "25", "17"], "time": [4666, 5983, 6201, 6883, 7698, 8649, 14781, 14915]}, "edge": {"target": [], "time": []}}}, "displayed_time": "19.49", "trialTime": 21942, "trial_type": "mouselab-mdp", "trial_index": 34, "time_elapsed": 1656680, "internal_node_id": "0.0-4.0-1.0-19.0"}}, {"uniqueid": "w76233101:a21856162", "current_trial": 35, "dateTime": 1691161118733, "trialdata": {"revealed_states": [], "clicked_states": ["23", "24", "25", "30", "33"], "num_clicks_accrued": [0, 0, 0, 0, 0, 0, 0, 0, 0, 0, 0, 0, 0], "stateRewards": ["", -1, -2, -8, 8, -27, -82, 19, -14, -62, 4, 1, -2, 2, 6, 10, 73, -51, -2, 2, 73, -48, 54, -1, 2, -4, 11, -25, 47, 86, 15, 33, 43, -42], "withholdReward": false, "trial_id": "mdp_trial_21", "block": "test", "trialIndex": 24, "score": 50.25, "costs": -4.75, "simulationMode": [null, null, null, null, null, null], "rewards": [-1, 2, -4, 15, 43], "path": ["0", "0", "23", "24", "25", "30", "32"], "rt": [6916, 1343, 425, 130, 111, 46], "actions": ["left", "left", "left", "left", "down", "down"], "actionTimes": [10168, 11516, 12453, 13090, 13704, 14256], "queries": {"click": {"state": {"target": ["23", "24", "25", "30", "33"], "time": [4630, 5354, 6027, 6778, 7641]}, "edge": {"target": [], "time": []}}, "mouseover": {"state": {"target": ["23", "24", "25", "30", "33"], "time": [3860, 5026, 5725, 6359, 7342]}, "edge": {"target": [], "time": []}}, "mouseout": {"state": {"target": ["0", "23", "24", "25", "30", "33"], "time": [3827, 4975, 5691, 6326, 7292, 9392]}, "edge": {"target": [], "time": []}}}, "displayed_time": "17.25", "trialTime": 20527, "trial_type": "mouselab-mdp", "trial_index": 35, "time_elapsed": 1677486, "internal_node_id": "0.0-4.0-1.0-20.0"}}, {"uniqueid": "w76233101:a21856162", "current_trial": 36, "dateTime": 1691161137712, "trialdata": {"revealed_states": [], "clicked_states": ["12", "13", "14", "19", "22"], "num_clicks_accrued": [0, 0, 0, 0, 0, 0, 0, 0, 0, 0, 0, 0, 0], "stateRewards": ["", 1, 1, -5, 10, -31, 73, 14, -8, -23, 63, -70, -1, 2, 8, 7, 25, -59, 27, -10, -40, -71, -15, -2, 3, -8, -5, -19, 77, -34, 7, 67, 63, 19], "withholdReward": false, "trial_id": "mdp_trial_22", "block": "test", "trialIndex": 25, "score": -47.75, "costs": -4.75, "simulationMode": [null, null, null, null, null], "rewards": [-1, 2, 8, 7, -59], "path": ["0", "0", "12", "13", "14", "15", "17"], "rt": [7453, 405, 178, 437, 454], "actions": ["right", "right", "right", "up", "right"], "actionTimes": [10609, 11522, 12210, 13153, 14104], "queries": {"click": {"state": {"target": ["12", "13", "14", "19", "22"], "time": [4360, 5038, 5755, 6439, 7097]}, "edge": {"target": [], "time": []}}, "mouseover": {"state": {"target": ["12", "12", "13", "14", "19", "22", "20", "15"], "time": [3649, 4016, 4694, 5417, 6032, 6750, 7515, 9282]}, "edge": {"target": [], "time": []}}, "mouseout": {"state": {"target": ["14", "13", "12", "12", "12", "13", "14", "19", "22", "19", "20", "15", "15"], "time": [2165, 2215, 2516, 3766, 4637, 5333, 6016, 6732, 7465, 7499, 9165, 9965, 15283]}, "edge": {"target": [], "time": []}}}, "displayed_time": "17.16", "trialTime": 18712, "trial_type": "mouselab-mdp", "trial_index": 36, "time_elapsed": 1696466, "internal_node_id": "0.0-4.0-1.0-21.0"}}, {"uniqueid": "w76233101:a21856162", "current_trial": 37, "dateTime": 1691161163935, "trialdata": {"revealed_states": [], "clicked_states": ["2", "3", "4", "14", "13", "24", "25", "26", "30", "33"], "num_clicks_accrued": [0, 0, 0, 0, 0, 0, 0, 0, 0, 0, 0, 0, 0], "stateRewards": ["", 1, -2, -8, -13, 4, 34, -84, -4, -49, 88, -70, -1, 3, -4, 10, -77, 13, -34, 15, -21, -16, 27, 1, -2, 8, -8, -6, 38, -26, 6, -15, 66, -3], "withholdReward": false, "trial_id": "mdp_trial_23", "block": "test", "trialIndex": 26, "score": 68.3, "costs": -10.7, "simulationMode": [null, null, null, null, null], "rewards": [1, -2, 8, 6, 66], "path": ["0", "0", "23", "24", "25", "30", "32"], "rt": [13192, 474, 119, 84, 526], "actions": ["left", "left", "left", "down", "down"], "actionTimes": [19950, 20919, 21546, 22144, 23185], "queries": {"click": {"state": {"target": ["2", "3", "4", "14", "13", "24", "25", "26", "30", "33"], "time": [8407, 9099, 9777, 10740, 11517, 12367, 13065, 13932, 15020, 16021]}, "edge": {"target": [], "time": []}}, "mouseover": {"state": {"target": ["1", "2", "3", "4", "18", "14", "13", "12", "23", "24", "25", "26", "30", "33"], "time": [7544, 7627, 8776, 9494, 10195, 10243, 11176, 11793, 11876, 12093, 12742, 13476, 14609, 15741]}, "edge": {"target": [], "time": []}}, "mouseout": {"state": {"target": ["12", "0", "1", "2", "3", "4", "18", "14", "13", "12", "23", "24", "25", "26", "26", "25", "30", "33"], "time": [5993, 7511, 7577, 8709, 9459, 10126, 10211, 11142, 11776, 11809, 11959, 12710, 13442, 14151, 14543, 14592, 15691, 18358]}, "edge": {"target": [], "time": []}}}, "displayed_time": "23.69", "trialTime": 25981, "trial_type": "mouselab-mdp", "trial_index": 37, "time_elapsed": 1722688, "internal_node_id": "0.0-4.0-1.0-22.0"}}, {"uniqueid": "w76233101:a21856162", "current_trial": 38, "dateTime": 1691161183238, "trialdata": {"revealed_states": [], "clicked_states": ["13", "14", "1", "2", "26", "25", "30"], "num_clicks_accrued": [0, 0, 0, 0, 0, 0, 0, 0, 0, 0, 0, 0, 0], "stateRewards": ["", 2, 4, 7, -6, -76, -81, 2, 5, -66, -3, 36, -2, -4, 6, -2, -69, 4, -49, -6, 67, 38, -67, 2, 1, 1, 6, -68, -21, 52, -16, -16, 6, -70], "withholdReward": false, "trial_id": "mdp_trial_24", "block": "test", "trialIndex": 27, "score": -63.45, "costs": -5.45, "simulationMode": [null, null, null, null, null], "rewards": [2, 1, 1, 6, -68], "path": ["0", "0", "23", "24", "25", "26", "27"], "rt": [9034, 374, 221, 192, 530], "actions": ["left", "left", "left", "up", "up"], "actionTimes": [12203, 13098, 13810, 14498, 15520], "queries": {"click": {"state": {"target": ["13", "14", "1", "2", "26", "25", "30"], "time": [4077, 4837, 5751, 6399, 7511, 8294, 9106]}, "edge": {"target": [], "time": []}}, "mouseover": {"state": {"target": ["12", "13", "14", "12", "1", "2", "28", "26", "25", "30"], "time": [3440, 3573, 4488, 5240, 5388, 6089, 6922, 7205, 7871, 8720]}, "edge": {"target": [], "time": []}}, "mouseout": {"state": {"target": ["33", "30", "31", "22", "0", "12", "13", "14", "13", "12", "1", "2", "28", "26", "25", "30", "26"], "time": [907, 939, 972, 2005, 3390, 3506, 4293, 5204, 5238, 5271, 6005, 6822, 7089, 7822, 8704, 10009, 16806]}, "edge": {"target": [], "time": []}}}, "displayed_time": "17.17", "trialTime": 19063, "trial_type": "mouselab-mdp", "trial_index": 38, "time_elapsed": 1741991, "internal_node_id": "0.0-4.0-1.0-23.0"}}, {"uniqueid": "w76233101:a21856162", "current_trial": 39, "dateTime": 1691161208382, "trialdata": {"revealed_states": [], "clicked_states": ["13", "14", "1", "2", "26", "25", "30", "28", "33"], "num_clicks_accrued": [0, 0, 0, 0, 0, 0, 0, 0, 0, 0, 0, 0, 0], "stateRewards": ["", -1, 3, 2, 9, 41, 4, -46, -12, -54, -87, -25, 2, 3, -1, 11, -77, 12, -33, -9, -32, 35, 72, 1, 3, -7, 4, 37, 65, -73, 6, 77, -43, 8], "withholdReward": false, "trial_id": "mdp_trial_25", "block": "test", "trialIndex": 28, "score": 56.25, "costs": -9.75, "simulationMode": [null, null, null, null, null, null], "rewards": [1, 3, -7, 4, 65], "path": ["0", "0", "23", "24", "25", "26", "28"], "rt": [12709, 820, 368, 223, 752, 421], "actions": ["left", "left", "left", "left", "up", "right"], "actionTimes": [14627, 15450, 16351, 17087, 18334, 19270], "queries": {"click": {"state": {"target": ["13", "14", "1", "2", "26", "25", "30", "28", "33"], "time": [3104, 4151, 4986, 5683, 6759, 7613, 8325, 9077, 12767]}, "edge": {"target": [], "time": []}}, "mouseover": {"state": {"target": ["12", "13", "18", "15", "14", "1", "2", "10", "28", "26", "25", "30", "28", "29", "33", "33", "24", "26"], "time": [2416, 2699, 3399, 3666, 3782, 4565, 5249, 6032, 6316, 6449, 7114, 7948, 8681, 9547, 10331, 12516, 13314, 13848]}, "edge": {"target": [], "time": []}}, "mouseout": {"state": {"target": ["0", "12", "13", "18", "15", "14", "1", "2", "10", "28", "26", "25", "30", "28", "26", "29", "33", "33", "24", "26", "16"], "time": [2381, 2466, 3349, 3532, 3684, 4466, 5198, 5965, 6249, 6349, 7081, 7914, 8564, 9413, 9481, 10247, 12316, 13251, 13581, 13930, 21531]}, "edge": {"target": [], "time": []}}}, "displayed_time": "19.78", "trialTime": 24901, "trial_type": "mouselab-mdp", "trial_index": 39, "time_elapsed": 1767135, "internal_node_id": "0.0-4.0-1.0-24.0"}}, {"uniqueid": "w76233101:a21856162", "current_trial": 40, "dateTime": 1691161236098, "trialdata": {"revealed_states": [], "clicked_states": ["28", "33", "30", "31", "8", "11", "9"], "num_clicks_accrued": [0, 0, 0, 0, 0, 0, 0, 0, 0, 0, 0, 0, 0], "stateRewards": ["", 1, -4, 6, -3, 40, 76, -51, 5, -24, -63, 44, -2, -2, 8, 1, 76, -85, -58, 10, 59, 20, 11, -2, 3, -3, 3, -82, -10, 54, -7, -57, -6, -32], "withholdReward": false, "trial_id": "mdp_trial_26", "block": "test", "trialIndex": 29, "score": 38.15, "costs": -13.850000000000001, "simulationMode": [null, null, null, null, null], "rewards": [1, -4, 6, 5, 44], "path": ["0", "0", "1", "2", "3", "8", "11"], "rt": [18474, 156, 172, 889, 373], "actions": ["up", "up", "up", "left", "left"], "actionTimes": [20632, 21309, 21992, 23392, 24259], "queries": {"click": {"state": {"target": ["28", "33", "30", "31", "8", "11", "9"], "time": [2976, 5898, 8877, 9938, 12987, 13992, 17041]}, "edge": {"target": [], "time": []}}, "mouseover": {"state": {"target": ["28", "27", "29", "33", "32", "30", "31", "25", "26", "8", "11", "9", "3"], "time": [2652, 3352, 4336, 5168, 6752, 7586, 9602, 10352, 10385, 11785, 13545, 14684, 17768]}, "edge": {"target": [], "time": []}}, "mouseout": {"state": {"target": ["12", "28", "27", "29", "33", "32", "30", "31", "25", "26", "8", "11", "9", "3"], "time": [1303, 3175, 4070, 5085, 6453, 7370, 9369, 10319, 10368, 11452, 13469, 14212, 17635, 25853]}, "edge": {"target": [], "time": []}}}, "displayed_time": "24.77", "trialTime": 27473, "trial_type": "mouselab-mdp", "trial_index": 40, "time_elapsed": 1794851, "internal_node_id": "0.0-4.0-1.0-25.0"}}, {"uniqueid": "w76233101:a21856162", "current_trial": 41, "dateTime": 1691161257186, "trialdata": {"revealed_states": [], "clicked_states": ["21", "22"], "num_clicks_accrued": [0, 0, 0, 0, 0, 0, 0, 0, 0, 0, 0, 0, 0], "stateRewards": ["", 2, -4, 1, -12, -59, -53, -74, 16, -88, -66, 66, 1, -2, 8, -9, -14, 22, 25, -1, -39, 47, -14, -1, -1, -2, 1, -4, 52, -26, 15, -7, 46, 43], "withholdReward": false, "trial_id": "mdp_trial_27", "block": "test", "trialIndex": 30, "score": 48.7, "costs": -4.3, "simulationMode": [null, null, null, null, null], "rewards": [1, -2, 8, -1, 47], "path": ["0", "0", "12", "13", "14", "19", "21"], "rt": [10176, 242, 378, 453, 141], "actions": ["right", "right", "right", "down", "down"], "actionTimes": [13330, 14093, 14979, 15921, 16574], "queries": {"click": {"state": {"target": ["21", "22"], "time": [4388, 7900]}, "edge": {"target": [], "time": []}}, "mouseover": {"state": {"target": ["22", "21", "22", "19", "20", "19", "22", "14"], "time": [3667, 3934, 5302, 5933, 6482, 7233, 7416, 8933]}, "edge": {"target": [], "time": []}}, "mouseout": {"state": {"target": ["21", "0", "22", "21", "22", "19", "20", "19", "22", "14"], "time": [2234, 3534, 3767, 4605, 5900, 5967, 7200, 7334, 8599, 18184]}, "edge": {"target": [], "time": []}}}, "displayed_time": "17.15", "trialTime": 20843, "trial_type": "mouselab-mdp", "trial_index": 41, "time_elapsed": 1815939, "internal_node_id": "0.0-4.0-1.0-26.0"}}, {"uniqueid": "w76233101:a21856162", "current_trial": 42, "dateTime": 1691161288424, "trialdata": {"revealed_states": [], "clicked_states": ["32", "31", "33", "29", "27", "28"], "num_clicks_accrued": [0, 0, 0, 0, 0, 0, 0, 0, 0, 0, 0, 0, 0], "stateRewards": ["", -2, -4, -6, 12, -58, -70, -80, 2, 16, -88, -62, 1, 2, -5, 11, 77, -35, -44, -5, 18, -83, 87, 1, -3, -5, 13, -44, -21, -86, 10, -52, 8, 29], "withholdReward": false, "trial_id": "mdp_trial_28", "block": "test", "trialIndex": 31, "score": 19.1, "costs": -12.9, "simulationMode": [null, null, null, null, null], "rewards": [1, -3, -5, 10, 29], "path": ["0", "0", "23", "24", "25", "30", "33"], "rt": [21033, 303, 249, 514, 614], "actions": ["left", "left", "left", "down", "left"], "actionTimes": [23169, 23989, 24751, 25782, 26898], "queries": {"click": {"state": {"target": ["32", "31", "33", "29", "27", "28"], "time": [3297, 6412, 9608, 12809, 16082, 19316]}, "edge": {"target": [], "time": []}}, "mouseover": {"state": {"target": ["23", "31", "32", "31", "30", "33", "33", "25", "29", "26", "27", "26", "24", "28", "31"], "time": [2486, 2601, 2886, 3751, 6934, 6984, 7334, 10201, 10951, 13551, 13836, 16669, 16969, 17400, 20100]}, "edge": {"target": [], "time": []}}, "mouseout": {"state": {"target": ["20", "19", "0", "23", "31", "32", "31", "30", "33", "33", "25", "29", "26", "27", "26", "24", "28", "31"], "time": [718, 751, 2452, 2503, 2701, 3506, 6918, 6967, 7084, 10134, 10885, 13518, 13585, 16653, 16687, 17334, 19934, 20195]}, "edge": {"target": [], "time": []}}}, "displayed_time": "27.42", "trialTime": 30983, "trial_type": "mouselab-mdp", "trial_index": 42, "time_elapsed": 1847177, "internal_node_id": "0.0-4.0-1.0-27.0"}}, {"uniqueid": "w76233101:a21856162", "current_trial": 43, "dateTime": 1691161313371, "trialdata": {"revealed_states": [], "clicked_states": ["21", "20", "22"], "num_clicks_accrued": [0, 0, 0, 0, 0, 0, 0, 0, 0, 0, 0, 0, 0], "stateRewards": ["", 1, -1, 8, 4, 76, -33, -17, -3, -1, -54, -74, -2, 2, -5, 13, -51, 63, 83, 1, 84, 29, -36, 2, -1, 7, -12, -10, -44, -43, -14, 8, -69, 19], "withholdReward": false, "trial_id": "mdp_trial_29", "block": "test", "trialIndex": 32, "score": 73.55, "costs": -6.449999999999999, "simulationMode": [null, null, null, null, null], "rewards": [-2, 2, -5, 1, 84], "path": ["0", "0", "12", "13", "14", "19", "20"], "rt": [11469, 84, 142, 703, 954], "actions": ["right", "right", "right", "down", "right"], "actionTimes": [15262, 15864, 16503, 17714, 19182], "queries": {"click": {"state": {"target": ["21", "20", "22"], "time": [4962, 8152, 11415]}, "edge": {"target": [], "time": []}}, "mouseover": {"state": {"target": ["22", "21", "20", "19", "22", "14"], "time": [4126, 4545, 5793, 8693, 8759, 12693]}, "edge": {"target": [], "time": []}}, "mouseout": {"state": {"target": ["0", "22", "21", "20", "19", "22", "14"], "time": [4044, 4344, 5427, 8677, 8727, 12360, 14043]}, "edge": {"target": [], "time": []}}}, "displayed_time": "19.69", "trialTime": 24675, "trial_type": "mouselab-mdp", "trial_index": 43, "time_elapsed": 1872124, "internal_node_id": "0.0-4.0-1.0-28.0"}}, {"uniqueid": "w76233101:a21856162", "current_trial": 44, "dateTime": 1691161345872, "trialdata": {"revealed_states": [], "clicked_states": ["31", "28", "27", "29", "11", "10"], "num_clicks_accrued": [0, 0, 0, 0, 0, 0, 0, 0, 0, 0, 0, 0, 0], "stateRewards": ["", -2, -4, -2, 10, -8, -15, -47, 7, -84, 53, 5, -1, 2, -7, 3, 83, 31, 47, -1, 30, -8, 69, 2, -4, -1, 8, -7, 12, -8, -8, -13, 30, -84], "withholdReward": false, "trial_id": "mdp_trial_30", "block": "test", "trialIndex": 33, "score": 39.1, "costs": -12.9, "simulationMode": [null, null, null, null, null], "rewards": [-2, -4, -2, 7, 53], "path": ["0", "0", "1", "2", "3", "8", "10"], "rt": [22469, 80, 119, 892, 500], "actions": ["up", "up", "up", "left", "down"], "actionTimes": [24144, 24734, 25357, 26748, 27752], "queries": {"click": {"state": {"target": ["31", "28", "27", "29", "11", "10"], "time": [2737, 6000, 9347, 12571, 15846, 19462]}, "edge": {"target": [], "time": []}}, "mouseover": {"state": {"target": ["0", "23", "31", "24", "28", "27", "29", "11", "10"], "time": [1969, 2004, 2119, 3301, 3552, 6468, 10185, 13334, 16501]}, "edge": {"target": [], "time": []}}, "mouseout": {"state": {"target": ["0", "23", "31", "24", "28", "27", "29", "27", "11", "10", "4"], "time": [1987, 2022, 3271, 3335, 6214, 9985, 12918, 12968, 16385, 28989, 29035]}, "edge": {"target": [], "time": []}}}, "displayed_time": "28.25", "trialTime": 32251, "trial_type": "mouselab-mdp", "trial_index": 44, "time_elapsed": 1904625, "internal_node_id": "0.0-4.0-1.0-29.0"}}, {"uniqueid": "w76233101:a21856162", "current_trial": 45, "dateTime": 1691161365901, "trialdata": {"revealed_states": [], "clicked_states": ["31", "32"], "num_clicks_accrued": [0, 0, 0, 0, 0, 0, 0, 0, 0, 0, 0, 0, 0], "stateRewards": ["", 1, -1, 1, -14, -10, 67, -28, -11, 72, 40, -65, -1, 1, 1, -2, 8, -55, 34, -10, 61, 33, -15, 2, -4, 7, 4, -75, 63, -21, -16, 61, 19, 21], "withholdReward": false, "trial_id": "mdp_trial_31", "block": "test", "trialIndex": 34, "score": 45.7, "costs": -4.3, "simulationMode": [null, null, null, null, null], "rewards": [2, -4, 7, -16, 61], "path": ["0", "0", "23", "24", "25", "30", "31"], "rt": [7829, 95, 136, 737, 726], "actions": ["left", "left", "left", "down", "right"], "actionTimes": [11338, 11952, 12608, 13865, 15084], "queries": {"click": {"state": {"target": ["31", "32"], "time": [4397, 7706]}, "edge": {"target": [], "time": []}}, "mouseover": {"state": {"target": ["31", "32"], "time": [3873, 5271]}, "edge": {"target": [], "time": []}}, "mouseout": {"state": {"target": ["12", "0", "31", "32", "31", "0"], "time": [2688, 3757, 5089, 8224, 8321, 16722]}, "edge": {"target": [], "time": []}}}, "displayed_time": "17.51", "trialTime": 19768, "trial_type": "mouselab-mdp", "trial_index": 45, "time_elapsed": 1924654, "internal_node_id": "0.0-4.0-1.0-30.0"}}, {"uniqueid": "w76233101:a21856162", "current_trial": 46, "dateTime": 1691161393079, "trialdata": {"revealed_states": [], "clicked_states": ["21", "22", "20", "14"], "num_clicks_accrued": [0, 0, 0, 0, 0, 0, 0, 0, 0, 0, 0, 0, 0], "stateRewards": ["", 2, -3, -8, 14, -7, -51, 73, 2, 36, 36, -43, -1, 3, -4, 1, 6, 87, -65, 15, 61, -42, -83, -1, 3, -2, -7, 30, -48, 35, 13, 26, 60, 78], "withholdReward": false, "trial_id": "mdp_trial_32", "block": "test", "trialIndex": 35, "score": 66.6, "costs": -7.3999999999999995, "simulationMode": [null, null, null, null, null], "rewards": [-1, 3, -4, 15, 61], "path": ["0", "0", "12", "13", "14", "19", "20"], "rt": [13615, 213, 255, 707, 248], "actions": ["right", "right", "right", "down", "right"], "actionTimes": [17432, 18169, 18927, 20129, 20870], "queries": {"click": {"state": {"target": ["21", "22", "20", "14"], "time": [4812, 8247, 11459, 16692]}, "edge": {"target": [], "time": []}}, "mouseover": {"state": {"target": ["22", "19", "21", "22", "19", "20", "17", "14"], "time": [4106, 4158, 4439, 5471, 8638, 9007, 12238, 16422]}, "edge": {"target": [], "time": []}}, "mouseout": {"state": {"target": ["14", "13", "12", "0", "0", "22", "19", "21", "22", "19", "20", "17", "14", "22"], "time": [1072, 1138, 1221, 1588, 4072, 4139, 4173, 5188, 8621, 8688, 11821, 16123, 23789, 26004]}, "edge": {"target": [], "time": []}}}, "displayed_time": "21.39", "trialTime": 26931, "trial_type": "mouselab-mdp", "trial_index": 46, "time_elapsed": 1951832, "internal_node_id": "0.0-4.0-1.0-31.0"}}, {"uniqueid": "w76233101:a21856162", "current_trial": 47, "dateTime": 1691161415204, "trialdata": {"revealed_states": [], "clicked_states": ["27", "29", "33"], "num_clicks_accrued": [0, 0, 0, 0, 0, 0, 0, 0, 0, 0, 0, 0, 0], "stateRewards": ["", -2, -1, -1, 5, -54, -87, 35, 2, -8, 20, -22, 1, 3, 6, 13, -75, -32, -55, -3, 56, 62, -22, -1, -4, -1, -7, -51, 84, 70, 7, -15, 5, 55], "withholdReward": false, "trial_id": "mdp_trial_33", "block": "test", "trialIndex": 36, "score": 50.55, "costs": -6.449999999999999, "simulationMode": [null, null, null, null, null], "rewards": [-1, -4, -1, -7, 70], "path": ["0", "0", "23", "24", "25", "26", "29"], "rt": [11064, 173, 246, 761, 795], "actions": ["left", "left", "left", "up", "left"], "actionTimes": [12901, 13596, 14336, 15600, 16900], "queries": {"click": {"state": {"target": ["27", "29", "33"], "time": [2938, 6157, 9381]}, "edge": {"target": [], "time": []}}, "mouseover": {"state": {"target": ["23", "28", "26", "27", "29", "25", "30", "33", "30", "31"], "time": [2188, 2336, 2405, 2505, 3889, 6905, 7205, 7588, 9937, 10071]}, "edge": {"target": [], "time": []}}, "mouseout": {"state": {"target": ["0", "23", "28", "26", "27", "29", "25", "30", "33", "30", "31"], "time": [2156, 2237, 2353, 2420, 3538, 6756, 7171, 7238, 9904, 10004, 10455]}, "edge": {"target": [], "time": []}}}, "displayed_time": "17.41", "trialTime": 21873, "trial_type": "mouselab-mdp", "trial_index": 47, "time_elapsed": 1973957, "internal_node_id": "0.0-4.0-1.0-32.0"}}, {"uniqueid": "w76233101:a21856162", "current_trial": 48, "dateTime": 1691161433497, "trialdata": {"revealed_states": [], "clicked_states": ["32", "33"], "num_clicks_accrued": [0, 0, 0, 0, 0, 0, 0, 0, 0, 0, 0, 0, 0], "stateRewards": ["", -1, 4, -8, 12, 14, 69, -8, 5, -72, -14, 56, -1, -1, -1, 9, 67, 19, 11, -9, -88, -58, 3, 2, -4, -8, 4, 62, 77, -74, 5, -31, 65, 88], "withholdReward": false, "trial_id": "mdp_trial_34", "block": "test", "trialIndex": 37, "score": 78.7, "costs": -4.3, "simulationMode": [null, null, null, null, null], "rewards": [2, -4, -8, 5, 88], "path": ["0", "0", "23", "24", "25", "30", "33"], "rt": [8026, 197, 199, 461, 888], "actions": ["left", "left", "left", "down", "left"], "actionTimes": [9904, 10616, 11334, 12312, 13706], "queries": {"click": {"state": {"target": ["32", "33"], "time": [3095, 6510]}, "edge": {"target": [], "time": []}}, "mouseover": {"state": {"target": ["0", "32", "30", "25", "33", "33"], "time": [2160, 2602, 3684, 3801, 4185, 4585]}, "edge": {"target": [], "time": []}}, "mouseout": {"state": {"target": ["19", "22", "0", "0", "32", "30", "25", "33", "33", "29", "26", "10"], "time": [685, 1051, 1467, 2186, 3651, 3717, 4117, 4367, 14819, 15252, 15271, 15285]}, "edge": {"target": [], "time": []}}}, "displayed_time": "15.88", "trialTime": 18030, "trial_type": "mouselab-mdp", "trial_index": 48, "time_elapsed": 1992250, "internal_node_id": "0.0-4.0-1.0-33.0"}}, {"uniqueid": "w76233101:a21856162", "current_trial": 49, "dateTime": 1691161460475, "trialdata": {"revealed_states": [], "clicked_states": ["32", "28", "33", "9"], "num_clicks_accrued": [0, 0, 0, 0, 0, 0, 0, 0, 0, 0, 0, 0, 0], "stateRewards": ["", 2, 3, -3, 4, 72, -28, 34, -12, 57, -64, -15, 2, 1, -4, -15, 2, 49, 31, -1, -42, -58, 31, -2, 1, -2, -13, -75, -19, -22, -6, 61, 10, -56], "withholdReward": false, "trial_id": "mdp_trial_35", "block": "test", "trialIndex": 38, "score": 38.4, "costs": -8.6, "simulationMode": [null, null, null, null, null], "rewards": [2, 3, -3, -12, 57], "path": ["0", "0", "1", "2", "3", "8", "9"], "rt": [16530, 125, 144, 670, 644], "actions": ["up", "up", "up", "left", "up"], "actionTimes": [19107, 19738, 20391, 21567, 22724], "queries": {"click": {"state": {"target": ["32", "28", "33", "9"], "time": [3723, 7129, 10429, 14534]}, "edge": {"target": [], "time": []}}, "mouseover": {"state": {"target": ["0", "31", "32", "31", "24", "28", "25", "33", "25", "11", "9", "8", "11"], "time": [2981, 3046, 3112, 4780, 5030, 5097, 7612, 7762, 10813, 13831, 14197, 15330, 16197]}, "edge": {"target": [], "time": []}}, "mouseout": {"state": {"target": ["15", "12", "0", "31", "32", "31", "24", "28", "25", "33", "25", "11", "9", "9", "8", "11", "8"], "time": [1664, 1796, 2998, 3062, 4715, 4798, 5063, 7545, 7679, 10779, 10831, 13848, 14864, 15264, 15347, 18267, 24880]}, "edge": {"target": [], "time": []}}}, "displayed_time": "23.21", "trialTime": 26704, "trial_type": "mouselab-mdp", "trial_index": 49, "time_elapsed": 2019228, "internal_node_id": "0.0-4.0-1.0-34.0"}}, {"uniqueid": "w76233101:a21856162", "current_trial": 50, "dateTime": 1691161481716, "trialdata": {"revealed_states": [], "clicked_states": ["21", "20", "17"], "num_clicks_accrued": [0, 0, 0, 0, 0, 0, 0, 0, 0, 0, 0, 0, 0], "stateRewards": ["", -2, 4, -5, -12, 85, -24, -18, -15, -78, -22, 26, -1, -1, 2, 14, -45, 52, -23, 7, -33, 24, -6, -2, -4, 5, -7, -16, 36, -39, 5, 71, -87, -23], "withholdReward": false, "trial_id": "mdp_trial_36", "block": "test", "trialIndex": 39, "score": 59.55, "costs": -6.449999999999999, "simulationMode": [null, null, null, null, null], "rewards": [-1, -1, 2, 14, 52], "path": ["0", "0", "12", "13", "14", "15", "17"], "rt": [12617, 70, 121, 531, 202], "actions": ["right", "right", "right", "up", "right"], "actionTimes": [15001, 15581, 16230, 17275, 17983], "queries": {"click": {"state": {"target": ["21", "20", "17"], "time": [3664, 7197, 10634]}, "edge": {"target": [], "time": []}}, "mouseover": {"state": {"target": ["0", "22", "21", "20", "17", "15", "13", "12", "13", "14", "19"], "time": [2732, 2876, 3144, 4877, 7976, 11192, 11326, 11476, 11726, 11810, 11993]}, "edge": {"target": [], "time": []}}, "mouseout": {"state": {"target": ["20", "0", "0", "22", "21", "20", "17", "15", "13", "12", "13", "14", "19"], "time": [1010, 1909, 2761, 2994, 3884, 7725, 11176, 11209, 11425, 11676, 11759, 11959, 12076]}, "edge": {"target": [], "time": []}}}, "displayed_time": "18.49", "trialTime": 20977, "trial_type": "mouselab-mdp", "trial_index": 50, "time_elapsed": 2040469, "internal_node_id": "0.0-4.0-1.0-35.0"}}, {"uniqueid": "w76233101:a21856162", "current_trial": 51, "dateTime": 1691161502458, "trialdata": {"revealed_states": [], "clicked_states": ["27", "10", "32"], "num_clicks_accrued": [0, 0, 0, 0, 0, 0, 0, 0, 0, 0, 0, 0, 0], "stateRewards": ["", -2, 2, 3, -7, 76, 63, 21, 15, 35, -8, -44, 1, 1, -2, -12, 23, 24, 76, -9, 46, 66, -49, -2, -1, 7, 12, 40, -71, -45, -6, 38, -49, 46], "withholdReward": false, "trial_id": "mdp_trial_37", "block": "test", "trialIndex": 40, "score": 49.55, "costs": -6.449999999999999, "simulationMode": [null, null, null, null, null], "rewards": [-2, -1, 7, 12, 40], "path": ["0", "0", "23", "24", "25", "26", "27"], "rt": [12381, 30, 5, 521, 23], "actions": ["left", "left", "left", "up", "up"], "actionTimes": [14335, 14879, 15405, 16435, 16971], "queries": {"click": {"state": {"target": ["27", "10", "32"], "time": [3147, 6809, 11060]}, "edge": {"target": [], "time": []}}, "mouseover": {"state": {"target": ["28", "27", "10", "10", "28", "25", "30", "32"], "time": [2515, 2765, 4514, 4748, 10097, 10166, 10264, 10584]}, "edge": {"target": [], "time": []}}, "mouseout": {"state": {"target": ["21", "0", "0", "28", "27", "10", "10", "28", "25", "30", "32"], "time": [899, 1315, 2282, 2583, 4431, 4531, 10065, 10113, 10183, 10398, 18435]}, "edge": {"target": [], "time": []}}}, "displayed_time": "17.48", "trialTime": 20474, "trial_type": "mouselab-mdp", "trial_index": 51, "time_elapsed": 2061211, "internal_node_id": "0.0-4.0-1.0-36.0"}}, {"uniqueid": "w76233101:a21856162", "current_trial": 52, "dateTime": 1691161525190, "trialdata": {"revealed_states": [], "clicked_states": ["32", "33", "27"], "num_clicks_accrued": [0, 0, 0, 0, 0, 0, 0, 0, 0, 0, 0, 0, 0], "stateRewards": ["", 1, -1, -7, -7, -22, 15, -13, 13, 26, -32, 38, -1, 1, -7, -4, 16, -62, 86, 12, -54, 56, 64, -2, -1, 6, 14, -57, 37, 62, -6, -25, 50, -70], "withholdReward": false, "trial_id": "mdp_trial_38", "block": "test", "trialIndex": 41, "score": 40.55, "costs": -6.449999999999999, "simulationMode": [null, null, null, null, null], "rewards": [-2, -1, 6, -6, 50], "path": ["0", "0", "23", "24", "25", "30", "32"], "rt": [11797, 42, 667, 499, 72], "actions": ["left", "left", "left", "down", "down"], "actionTimes": [15113, 15660, 16856, 17869, 18457], "queries": {"click": {"state": {"target": ["32", "33", "27"], "time": [4421, 7933, 11342]}, "edge": {"target": [], "time": []}}, "mouseover": {"state": {"target": ["31", "32", "33", "25", "26", "27", "26", "24", "31"], "time": [3570, 3752, 5984, 8671, 8703, 9051, 11851, 11934, 11985]}, "edge": {"target": [], "time": []}}, "mouseout": {"state": {"target": ["13", "12", "0", "31", "32", "33", "25", "26", "27", "26", "24", "31"], "time": [2502, 2634, 3502, 3587, 5785, 8618, 8691, 8935, 11834, 11868, 11952, 13285]}, "edge": {"target": [], "time": []}}}, "displayed_time": "18.97", "trialTime": 22462, "trial_type": "mouselab-mdp", "trial_index": 52, "time_elapsed": 2083944, "internal_node_id": "0.0-4.0-1.0-37.0"}}, {"uniqueid": "w76233101:a21856162", "current_trial": 53, "dateTime": 1691161555388, "trialdata": {"revealed_states": [], "clicked_states": ["16", "18", "21", "32", "27"], "num_clicks_accrued": [0, 0, 0, 0, 0, 0, 0, 0, 0, 0, 0, 0, 0], "stateRewards": ["", 1, -2, 4, 7, -43, -83, -60, -5, -86, -80, 83, -1, -2, 6, 11, -15, 21, 13, 9, 29, -49, 11, -1, 4, -6, -11, 87, 40, 63, -8, -39, -11, 62], "withholdReward": false, "trial_id": "mdp_trial_39", "block": "test", "trialIndex": 42, "score": 62.25, "costs": -10.75, "simulationMode": [null, null, null, null, null], "rewards": [-1, 4, -6, -11, 87], "path": ["0", "0", "23", "24", "25", "26", "27"], "rt": [20361, 360, 174, 677, 150], "actions": ["left", "left", "left", "up", "up"], "actionTimes": [22089, 22969, 23647, 24834, 25476], "queries": {"click": {"state": {"target": ["16", "18", "21", "32", "27"], "time": [2997, 6335, 9682, 13827, 17789]}, "edge": {"target": [], "time": []}}, "mouseover": {"state": {"target": ["12", "18", "16", "18", "19", "21", "32", "32", "30", "25", "26", "27", "28", "24"], "time": [2175, 2291, 2592, 3990, 7073, 7156, 13174, 13524, 16074, 17043, 17122, 17424, 20790, 21208]}, "edge": {"target": [], "time": []}}, "mouseout": {"state": {"target": ["21", "0", "12", "18", "16", "18", "19", "21", "32", "32", "30", "25", "26", "27", "28", "24", "23", "12", "13"], "time": [741, 2142, 2225, 2392, 3857, 6741, 7107, 13075, 13207, 16040, 16124, 17092, 17374, 20373, 21124, 21408, 27974, 27992, 28008]}, "edge": {"target": [], "time": []}}}, "displayed_time": "25.99", "trialTime": 29917, "trial_type": "mouselab-mdp", "trial_index": 53, "time_elapsed": 2114141, "internal_node_id": "0.0-4.0-1.0-38.0"}}, {"uniqueid": "w76233101:a21856162", "current_trial": 54, "dateTime": 1691161576972, "trialdata": {"revealed_states": [], "clicked_states": ["27", "32", "9"], "num_clicks_accrued": [0, 0, 0, 0, 0, 0, 0, 0, 0, 0, 0, 0, 0], "stateRewards": ["", 1, 1, 6, -14, -40, 37, 16, -13, 33, -68, 49, 2, 4, 3, 6, 55, 27, 32, 10, -65, 20, -87, 2, 1, -6, -5, -42, 12, 29, -8, 16, 76, -33], "withholdReward": false, "trial_id": "mdp_trial_40", "block": "test", "trialIndex": 43, "score": 58.55, "costs": -6.449999999999999, "simulationMode": [null, null, null, null, null], "rewards": [2, 1, -6, -8, 76], "path": ["0", "0", "23", "24", "25", "30", "32"], "rt": [12274, 44, 77, 518, 110], "actions": ["left", "left", "left", "down", "down"], "actionTimes": [14454, 15009, 15603, 16630, 17254], "queries": {"click": {"state": {"target": ["27", "32", "9"], "time": [3420, 7112, 11028]}, "edge": {"target": [], "time": []}}, "mouseover": {"state": {"target": ["23", "24", "28", "27", "26", "32", "31", "9", "28"], "time": [2644, 2710, 2793, 3044, 5626, 6678, 7743, 8159, 11458]}, "edge": {"target": [], "time": []}}, "mouseout": {"state": {"target": ["19", "13", "1", "23", "23", "24", "28", "27", "26", "32", "31", "9", "28", "24"], "time": [627, 677, 1192, 1542, 2676, 2742, 2843, 5593, 5659, 7726, 7759, 11375, 11475, 18727]}, "edge": {"target": [], "time": []}}}, "displayed_time": "17.77", "trialTime": 21320, "trial_type": "mouselab-mdp", "trial_index": 54, "time_elapsed": 2135725, "internal_node_id": "0.0-4.0-1.0-39.0"}}, {"uniqueid": "w76233101:a21856162", "current_trial": 55, "dateTime": 1691161639710, "trialdata": {"rt": 62731, "response": {"Q0": "$-2 to $2", "Q1": "$-16 to $16", "Q2": "$-88 to $88", "Q3": "The cost for clicking on nodes varied between nodes.", "Q4": "Slightly motivated"}, "question_order": [0, 1, 2, 3, 4], "trial_id": "final_quiz_control", "trial_type": "survey-multi-choice", "trial_index": 55, "time_elapsed": 2198464, "internal_node_id": "0.0-4.0-2.0"}}, {"uniqueid": "w76233101:a21856162", "current_trial": 56, "dateTime": 1691161758259, "trialdata": {"rt": 118534, "response": {"Q0": "After a few clicks and a few fails I started inspecting the nodes farthest from the center for high positive numbers", "Q1": "yes, what i said above", "Q2": "it wasnt difficult, i just adopted the new strategy a little too late"}, "trial_id": "self_report_control", "trial_type": "survey-text", "trial_index": 56, "time_elapsed": 2317013, "internal_node_id": "0.0-4.0-3.0"}}, {"uniqueid": "w76233101:a21856162", "current_trial": 57, "dateTime": 1691161838049, "trialdata": {"rt": 79781, "response": {"Q0": "Strongly disagree", "Q1": "Strongly disagree", "Q2": "Neither disagree nor agree", "Q3": "Strongly agree", "Q4": "Disagree", "Q5": "Strongly agree", "Q6": "Strongly disagree"}, "question_order": [0, 1, 2, 3, 4, 5, 6], "trial_id": "self_report_2", "trial_type": "survey-multi-choice", "trial_index": 57, "time_elapsed": 2396803, "internal_node_id": "0.0-4.0-4.0"}}, {"uniqueid": "w76233101:a21856162", "current_trial": 58, "dateTime": 1691161869898, "trialdata": {"rt": 31838, "response": {"gender": "female", "age": "31", "colorblind": "0", "effort": "0"}, "trial_type": "survey-html-form", "trial_index": 58, "time_elapsed": 2428652, "internal_node_id": "0.0-4.0-5.0"}}, {"uniqueid": "w76233101:a21856162", "current_trial": 59, "dateTime": 1691161912128, "trialdata": {"rt": 42222, "response": {"Q0": "the instructions at first", "Q1": "no I haven't participated before", "Q2": ""}, "trial_type": "survey-text", "trial_index": 59, "time_elapsed": 2470882, "internal_node_id": "0.0-4.0-6.0"}}, {"uniqueid": "w76233101:a21856162", "current_trial": 60, "dateTime": 1691161918445, "trialdata": {"rt": 6310, "stimulus": "Press 'Finish HIT' in order to reach the completion code. Once the data has been saved, you will receive the code either in this window or in the original browser window where you started the experiment.\n", "response": 0, "trial_type": "html-button-response", "trial_index": 60, "time_elapsed": 2477199, "internal_node_id": "0.0-5.0"}}, {"uniqueid": "w76233101:a21856162", "current_trial": 61, "dateTime": 1691161919450, "trialdata": {"success": true, "trial_type": "fullscreen", "trial_index": 61, "time_elapsed": 2478204, "internal_node_id": "0.0-6.0"}}], "questiondata": {"params": {"CODE": "C6DMOQA6", "MIN_TIME": 14, "inspectCost": 1, "startTime": "Fri Aug 04 2023 16:30:39 GMT+0200 (South Africa Standard Time)", "bonusRate": 0.002, "variance": "1_2_4_8_44", "branching": "31123"}, "final_score": 799.05}, "eventdata": [{"eventtype": "initialized", "interval": 0, "timestamp": 1691159419019, "value": null}, {"eventtype": "window_resize", "interval": 0, "timestamp": 1691159419019, "value": [1024, 646]}, {"eventtype": "window_resize", "interval": 549, "timestamp": 1691159419568, "value": [1024, 646]}, {"eventtype": "window_resize", "value": [1024, 646], "timestamp": 1691159439820, "interval": 20252}, {"eventtype": "window_resize", "value": [1366, 768], "timestamp": 1691159447327, "interval": 7507}, {"eventtype": "focus", "value": "off", "timestamp": 1691159935112, "interval": 487785}, {"eventtype": "focus", "value": "on", "timestamp": 1691159935112, "interval": 0}, {"eventtype": "window_resize", "value": [1024, 646], "timestamp": 1691159935325, "interval": 213}, {"eventtype": "window_resize", "value": [1366, 768], "timestamp": 1691159939790, "interval": 4465}, {"eventtype": "window_resize", "value": [1024, 646], "timestamp": 1691161918676, "interval": 1978886}], "useragent": "Mozilla/5.0 (Windows NT 10.0; Win64; x64) AppleWebKit/537.36 (KHTML, like Gecko) Chrome/115.0.0.0 Safari/537.36", "mode": "live", "id": "w76233101:a21856162", "status": "user data saved", "Beginhit": "2023-08-04 14:30:11.846204", "Beginexp": "2023-08-04 14:30:45.34305", "Endhit": "2023-08-04 15:11:57.632826", "psiturkStatus": 3, "browser": "<redacted>", "platform": "windows", "language": "en-GB"}