{"condition": 1, "counterbalance": 0, "assignmentId": "a93969303", "workerId": "w86212523", "hitId": "h27422403", "currenttrial": 56, "bonus": 0, "data": [{"uniqueid": "w86212523:a93969303", "current_trial": 0, "dateTime": 1691159461612, "trialdata": {"success": true, "trial_type": "fullscreen", "trial_index": 0, "time_elapsed": 10135, "internal_node_id": "0.0-0.0"}}, {"uniqueid": "w86212523:a93969303", "current_trial": 1, "dateTime": 1691159479037, "trialdata": {"view_history": [{"page_index": 0, "viewing_time": 17387}], "rt": 17389, "trial_id": "exp_instructions_misaligned", "trial_type": "instructions", "trial_index": 1, "time_elapsed": 27562, "internal_node_id": "0.0-1.0"}}, {"uniqueid": "w86212523:a93969303", "current_trial": 2, "dateTime": 1691159483351, "trialdata": {"success": true, "trial_type": "fullscreen", "trial_index": 2, "time_elapsed": 31876, "internal_node_id": "0.0-2.0-0.0"}}, {"uniqueid": "w86212523:a93969303", "current_trial": 3, "dateTime": 1691159723893, "trialdata": {"view_history": [{"page_index": 0, "viewing_time": 75398}, {"page_index": 1, "viewing_time": 87791}, {"page_index": 2, "viewing_time": 28165}, {"page_index": 3, "viewing_time": 49176}], "rt": 240531, "trial_id": "mouselab_instructions_1_misaligned", "trial_type": "instructions", "trial_index": 3, "time_elapsed": 272419, "internal_node_id": "0.0-2.0-1.0"}}, {"uniqueid": "w86212523:a93969303", "current_trial": 4, "dateTime": 1691159832077, "trialdata": {"revealed_states": [], "clicked_states": ["1", "2", "8", "9", "10", "23", "25", "32"], "num_clicks_accrued": [0, 0, 0, 0, 0, 0, 0, 0, 0, 0, 0, 0, 0], "stateRewards": ["", 10, -10, -10, -10, -10, -10, 10, -10, -10, -10, 10, -10, -10, -10, 10, -10, -10, 10, 10, -10, -10, -10, 10, 10, -10, -10, -10, 10, 10, -10, 10, 10, -10], "withholdReward": false, "trial_id": "practice_1", "block": "test", "trialIndex": 0, "score": -30.5, "costs": -4, "simulationMode": [null, null, null, null, null], "rewards": [-10, -10, -10, 10, -10], "path": ["0", "0", "12", "13", "14", "19", "21"], "rt": [78908, 3726, 720, 1443, 1072], "actions": ["right", "right", "right", "down", "down"], "actionTimes": [90184, 94447, 95695, 97683, 99296], "queries": {"click": {"state": {"target": ["1", "2", "8", "9", "10", "23", "25", "32"], "time": [20732, 30166, 40153, 44953, 50701, 56223, 59502, 61088]}, "edge": {"target": [], "time": []}}, "mouseover": {"state": {"target": ["1", "1", "2", "3", "2", "2", "3", "2", "1", "3", "8", "9", "9", "10", "10", "23", "24", "25", "30", "32", "30", "26", "1", "13", "12", "27", "28", "12", "12", "0", "0", "20"], "time": [20086, 26704, 27854, 28037, 28502, 29622, 33641, 35700, 35859, 37779, 39296, 43946, 44319, 46019, 55025, 55600, 58472, 59054, 60370, 60513, 63771, 64627, 65089, 65214, 65544, 65973, 66410, 66673, 67274, 79827, 81469, 81556]}, "edge": {"target": [], "time": []}}, "mouseout": {"state": {"target": ["0", "1", "1", "1", "2", "3", "2", "2", "3", "2", "1", "3", "8", "9", "9", "10", "10", "23", "23", "23", "24", "25", "30", "32", "30", "26", "1", "13", "12", "27", "28", "12", "12", "0", "0", "20"], "time": [6740, 23924, 24625, 27811, 27911, 28124, 29559, 33207, 35670, 35733, 35947, 39242, 42481, 43977, 45835, 50892, 55057, 56422, 58286, 58355, 58869, 60311, 60430, 61281, 64579, 64676, 65149, 65390, 65913, 66160, 66445, 66743, 77656, 80045, 81514, 81593]}, "edge": {"target": [], "time": []}}}, "displayed_time": "99.83", "trialTime": 105569, "trial_type": "mouselab-mdp", "trial_index": 4, "time_elapsed": 380599, "internal_node_id": "0.0-2.0-2.0-0.0"}}, {"uniqueid": "w86212523:a93969303", "current_trial": 5, "dateTime": 1691159870206, "trialdata": {"revealed_states": [], "clicked_states": ["3", "17", "29", "23", "12", "1"], "num_clicks_accrued": [0, 0, 0, 0, 0, 0, 0, 0, 0, 0, 0, 0, 0], "stateRewards": ["", 10, 10, 10, 10, -10, 10, -10, -10, -10, -10, 10, 10, -10, -10, -10, -10, 10, 10, 10, -10, -10, 10, 10, 10, 10, -10, 10, -10, -10, -10, -10, -10, -10], "withholdReward": false, "trial_id": "practice_2", "block": "test", "trialIndex": 1, "score": 10.5, "costs": -3, "simulationMode": [null, null, null, null, null], "rewards": [10, 10, 10, -10, -10], "path": ["0", "0", "23", "24", "25", "30", "32"], "rt": [18591, 2379, 345, 929, 303], "actions": ["left", "left", "left", "down", "down"], "actionTimes": [25503, 28419, 29310, 30772, 31595], "queries": {"click": {"state": {"target": ["3", "17", "29", "23", "12", "1"], "time": [9823, 11850, 13930, 15651, 17607, 19224]}, "edge": {"target": [], "time": []}}, "mouseover": {"state": {"target": ["1", "2", "3", "17", "17", "17", "18", "29", "29", "29", "24", "23", "0", "12", "12", "1"], "time": [8932, 9194, 9377, 10566, 10874, 11243, 12777, 13026, 13362, 13513, 14844, 14984, 16365, 16439, 16981, 18613]}, "edge": {"target": [], "time": []}}, "mouseout": {"state": {"target": ["12", "1", "2", "3", "17", "17", "17", "18", "29", "29", "29", "24", "23", "0", "12", "12", "1"], "time": [5191, 9096, 9235, 10451, 10608, 10928, 12734, 12823, 13092, 13392, 14796, 14893, 16350, 16423, 16548, 18406, 20219]}, "edge": {"target": [], "time": []}}}, "displayed_time": "32.14", "trialTime": 36594, "trial_type": "mouselab-mdp", "trial_index": 5, "time_elapsed": 418729, "internal_node_id": "0.0-2.0-2.0-1.0"}}, {"uniqueid": "w86212523:a93969303", "current_trial": 6, "dateTime": 1691159915432, "trialdata": {"view_history": [{"page_index": 0, "viewing_time": 35643}, {"page_index": 1, "viewing_time": 9561}], "rt": 45206, "trial_id": "mouselab_instructions_2_misaligned", "trial_type": "instructions", "trial_index": 6, "time_elapsed": 463958, "internal_node_id": "0.0-2.0-3.0"}}, {"uniqueid": "w86212523:a93969303", "current_trial": 7, "dateTime": 1691159963669, "trialdata": {"rt": 48158, "response": {"Q0": "The cost for clicking on nodes may vary between nodes.", "Q1": "The better I perform the higher my bonus will be.", "Q2": "No, the amount of cash at each node of the web may be different each time.", "Q3": "To get the highest total score.", "Q4": "Only before moving the spider.", "Q5": "3 seconds"}, "question_order": [0, 1, 2, 3, 4, 5], "correct": {"Q0": "The cost for clicking on nodes may vary between nodes.", "Q1": "The better I perform the higher my bonus will be.", "Q2": "No, the amount of cash at each node of the web may be different each time.", "Q3": "To get the highest total score.", "Q4": "Only before moving the spider.", "Q5": "3 seconds"}, "trial_id": "mouselab_quiz_misaligned", "trial_type": "survey-multi-choice", "trial_index": 7, "time_elapsed": 512195, "internal_node_id": "0.0-2.0-4.0"}}, {"uniqueid": "w86212523:a93969303", "current_trial": 8, "dateTime": 1691159978249, "trialdata": {"rt": 14522, "stimulus": "\n<h1> Get ready to start the game! </h1>\n\nThank you for reading the instructions. Get ready start with the 40 rounds of this game.\n<br><br>\nIf you need to take a break, feel free to take one after the end of a round, before continuing to the next one.\n<br><br>\nRemember, the more money the spider gets, the bigger your bonus will be!\n<br><br>\n<div style='text-align: center;'>Press <code>space</code> to begin.</div>\n\n<br><br>\n(If, at any point, the <code>space</code> key does not take you to the next page, click once on the text and try again.)", "response": " ", "trial_id": "mdp_ready", "trial_type": "html-keyboard-response", "trial_index": 8, "time_elapsed": 526775, "internal_node_id": "0.0-4.0-0.0"}}, {"uniqueid": "w86212523:a93969303", "current_trial": 9, "dateTime": 1691160018797, "trialdata": {"revealed_states": [], "clicked_states": ["1", "2"], "num_clicks_accrued": [0, 0, 0, 0, 0, 0, 0, 0, 0, 0, 0, 0, 0], "stateRewards": ["", 2, -1, 4, -9, -43, 7, 54, -13, 38, -40, -83, -1, 2, -8, -10, 34, -33, 11, -14, -79, 65, 26, 1, 2, 4, 10, 21, 1, 86, 4, -53, 28, -29], "withholdReward": false, "trial_id": "mdp_trial_1", "block": "test", "trialIndex": 2, "score": 49.9, "costs": -0.09999999999999998, "simulationMode": [null, null, null, null, null], "rewards": [2, -1, 4, -9, 54], "path": ["0", "0", "1", "2", "3", "4", "7"], "rt": [19967, 1747, 1008, 1003, 1885], "actions": ["up", "up", "up", "right", "down"], "actionTimes": [23867, 26154, 27702, 29255, 31691], "queries": {"click": {"state": {"target": ["1", "2"], "time": [6135, 8949]}, "edge": {"target": [], "time": []}}, "mouseover": {"state": {"target": ["1", "18", "7", "2", "3", "3", "7"], "time": [5656, 6705, 7050, 8364, 9850, 10212, 17415]}, "edge": {"target": [], "time": []}}, "mouseout": {"state": {"target": ["4", "12", "0", "1", "18", "7", "2", "3", "3", "7"], "time": [1497, 1698, 2281, 6513, 6764, 7099, 9154, 9939, 17297, 17456]}, "edge": {"target": [], "time": []}}}, "displayed_time": "32.23", "trialTime": 39103, "trial_type": "mouselab-mdp", "trial_index": 9, "time_elapsed": 567319, "internal_node_id": "0.0-4.0-1.0-0.0"}}, {"uniqueid": "w86212523:a93969303", "current_trial": 10, "dateTime": 1691160066525, "trialdata": {"revealed_states": [], "clicked_states": ["13", "25", "1", "2", "3", "8", "4", "6", "10", "7", "9", "5"], "num_clicks_accrued": [0, 0, 0, 0, 0, 0, 0, 0, 0, 0, 0, 0, 0], "stateRewards": ["", 1, 3, 1, -13, 52, -28, 67, -14, 3, 63, -70, -1, -4, 7, -11, -10, 47, -18, 6, 69, -9, -61, 2, 3, -6, 10, 63, -34, 40, -6, -79, -35, -32], "withholdReward": false, "trial_id": "mdp_trial_2", "block": "test", "trialIndex": 3, "score": 42.8, "costs": -16.2, "simulationMode": [null, null, null, null, null, null], "rewards": [1, 3, 1, -13, 67], "path": ["0", "0", "1", "2", "3", "4", "7"], "rt": [23841, 10233, 538, 1029, 1327, 357], "actions": ["up", "up", "up", "up", "right", "down"], "actionTimes": [26715, 36976, 38094, 39651, 41513, 42401], "queries": {"click": {"state": {"target": ["13", "25", "1", "2", "3", "8", "4", "6", "10", "7", "9", "5"], "time": [4387, 5583, 7742, 8822, 10623, 11618, 13154, 14102, 17237, 20039, 23986, 29494]}, "edge": {"target": [], "time": []}}, "mouseover": {"state": {"target": ["12", "13", "13", "25", "23", "1", "1", "2", "10", "3", "8", "4", "6", "11", "10", "2", "7", "9", "6", "16", "5"], "time": [3670, 3734, 4010, 5071, 6021, 6993, 7399, 8236, 9793, 9970, 11162, 12539, 13832, 14789, 15932, 17812, 17922, 21118, 24703, 24940, 28988]}, "edge": {"target": [], "time": []}}, "mouseout": {"state": {"target": ["17", "0", "12", "13", "13", "25", "23", "1", "1", "2", "10", "3", "8", "4", "6", "4", "11", "10", "2", "7", "9", "6", "16", "5"], "time": [850, 1221, 3719, 3769, 4925, 5974, 6081, 7033, 8161, 9672, 9929, 11111, 12458, 13615, 14633, 14728, 15616, 17758, 17870, 20510, 24548, 24752, 24987, 29922]}, "edge": {"target": [], "time": []}}}, "displayed_time": "42.94", "trialTime": 46203, "trial_type": "mouselab-mdp", "trial_index": 10, "time_elapsed": 615048, "internal_node_id": "0.0-4.0-1.0-1.0"}}, {"uniqueid": "w86212523:a93969303", "current_trial": 11, "dateTime": 1691160116649, "trialdata": {"revealed_states": [], "clicked_states": ["32", "31", "33", "21", "20", "22", "16", "17", "1", "12"], "num_clicks_accrued": [0, 0, 0, 0, 0, 0, 0, 0, 0, 0, 0, 0, 0], "stateRewards": ["", -2, 3, -1, -9, 44, 48, -37, -3, 71, -39, 87, -1, 3, -4, 4, -21, 59, -15, -8, -1, 28, -38, 2, 4, 4, 8, -85, -72, -63, 14, 58, 63, -46], "withholdReward": false, "trial_id": "mdp_trial_3", "block": "test", "trialIndex": 4, "score": 44.3, "costs": -16.7, "simulationMode": [null, null, null, null, null], "rewards": [-1, 3, -4, 4, 59], "path": ["0", "0", "12", "13", "14", "15", "17"], "rt": [38373, 307, 231, 515, 296], "actions": ["right", "right", "right", "up", "right"], "actionTimes": [41472, 42320, 43091, 44143, 44967], "queries": {"click": {"state": {"target": ["32", "31", "33", "21", "20", "22", "16", "17", "1", "12"], "time": [4713, 7787, 11905, 15657, 18859, 22816, 26039, 28944, 32733, 34729]}, "edge": {"target": [], "time": []}}, "mouseover": {"state": {"target": ["31", "32", "30", "31", "33", "33", "21", "20", "19", "22", "14", "15", "16", "17", "18", "12", "1", "12", "13"], "time": [3797, 4262, 5383, 6248, 8450, 9716, 12971, 16444, 20160, 20247, 23582, 23879, 24217, 27107, 29777, 29997, 30511, 33586, 36151]}, "edge": {"target": [], "time": []}}, "mouseout": {"state": {"target": ["16", "18", "31", "32", "30", "31", "33", "33", "21", "20", "19", "22", "14", "15", "16", "17", "18", "12", "1", "12", "13", "12"], "time": [657, 1073, 3835, 5229, 6159, 8437, 9616, 12475, 16231, 20115, 20229, 23532, 23636, 23974, 26743, 29715, 29868, 30163, 33333, 36110, 37118, 37184]}, "edge": {"target": [], "time": []}}}, "displayed_time": "45.51", "trialTime": 48601, "trial_type": "mouselab-mdp", "trial_index": 11, "time_elapsed": 665172, "internal_node_id": "0.0-4.0-1.0-2.0"}}, {"uniqueid": "w86212523:a93969303", "current_trial": 12, "dateTime": 1691160144474, "trialdata": {"revealed_states": [], "clicked_states": ["8", "9", "11", "10"], "num_clicks_accrued": [0, 0, 0, 0, 0, 0, 0, 0, 0, 0, 0, 0, 0], "stateRewards": ["", -2, 1, -7, -8, -37, -76, -87, 11, 30, -63, 80, -1, 4, 2, -1, 42, 17, 52, -3, -75, -80, -68, 2, -3, -5, -15, -48, 82, 24, -7, 5, -22, -71], "withholdReward": false, "trial_id": "mdp_trial_4", "block": "test", "trialIndex": 5, "score": 75, "costs": -8, "simulationMode": [null, null, null, null, null], "rewards": [-2, 1, -7, 11, 80], "path": ["0", "0", "1", "2", "3", "8", "11"], "rt": [13687, 188, 34, 580, 77], "actions": ["up", "up", "up", "left", "left"], "actionTimes": [17604, 18319, 18906, 20063, 20671], "queries": {"click": {"state": {"target": ["8", "9", "11", "10"], "time": [6102, 7336, 10242, 14038]}, "edge": {"target": [], "time": []}}, "mouseover": {"state": {"target": ["7", "4", "3", "8", "9", "8", "9", "11", "8", "10", "18", "13"], "time": [4924, 5055, 5152, 5207, 5505, 5707, 6721, 8068, 11085, 11350, 14975, 15061]}, "edge": {"target": [], "time": []}}, "mouseout": {"state": {"target": ["0", "7", "4", "3", "8", "9", "8", "9", "11", "8", "10", "18", "13", "14"], "time": [4878, 4965, 5133, 5189, 5248, 5622, 6306, 7973, 11009, 11147, 14798, 15042, 15123, 25500]}, "edge": {"target": [], "time": []}}}, "displayed_time": "21.23", "trialTime": 25879, "trial_type": "mouselab-mdp", "trial_index": 12, "time_elapsed": 692997, "internal_node_id": "0.0-4.0-1.0-3.0"}}, {"uniqueid": "w86212523:a93969303", "current_trial": 13, "dateTime": 1691160177314, "trialdata": {"revealed_states": [], "clicked_states": ["1", "12", "23"], "num_clicks_accrued": [0, 0, 0, 0, 0, 0, 0, 0, 0, 0, 0, 0, 0], "stateRewards": ["", -1, 1, 6, -6, 70, 66, 67, -16, -75, -35, 37, -1, 4, 4, -6, 47, -9, 63, 15, 21, -63, 13, 1, 3, -6, 10, 79, -29, 18, -15, 9, -67, -19], "withholdReward": false, "trial_id": "mdp_trial_5", "block": "test", "trialIndex": 6, "score": -83.25, "costs": 0.75, "simulationMode": [null, null, null, null, null], "rewards": [1, 3, -6, -15, -67], "path": ["0", "0", "23", "24", "25", "30", "32"], "rt": [14236, 162, 238, 951, 1148], "actions": ["left", "left", "left", "down", "down"], "actionTimes": [18994, 19686, 20602, 22130, 23822], "queries": {"click": {"state": {"target": ["1", "12", "23"], "time": [6160, 7427, 9197]}, "edge": {"target": [], "time": []}}, "mouseover": {"state": {"target": ["1", "12", "23", "24", "25"], "time": [5676, 6960, 8682, 11067, 12434]}, "edge": {"target": [], "time": []}}, "mouseout": {"state": {"target": ["18", "12", "1", "12", "23", "24", "25", "21"], "time": [1544, 2975, 6757, 8316, 10937, 11234, 15587, 27343]}, "edge": {"target": [], "time": []}}}, "displayed_time": "24.35", "trialTime": 30585, "trial_type": "mouselab-mdp", "trial_index": 13, "time_elapsed": 725838, "internal_node_id": "0.0-4.0-1.0-4.0"}}, {"uniqueid": "w86212523:a93969303", "current_trial": 14, "dateTime": 1691160206756, "trialdata": {"revealed_states": [], "clicked_states": ["21", "17", "20"], "num_clicks_accrued": [0, 0, 0, 0, 0, 0, 0, 0, 0, 0, 0, 0, 0], "stateRewards": ["", -2, 4, -7, -3, -76, 39, -28, 10, 14, 12, 60, 2, -3, 6, -10, 88, -34, -41, -3, 72, -13, -56, 1, 3, 2, 8, -51, 23, -57, 1, 14, -46, -16], "withholdReward": false, "trial_id": "mdp_trial_6", "block": "test", "trialIndex": 7, "score": 67.55, "costs": -6.449999999999999, "simulationMode": [null, null, null, null, null], "rewards": [2, -3, 6, -3, 72], "path": ["0", "0", "12", "13", "14", "19", "20"], "rt": [15842, 708, 168, 699, 762], "actions": ["right", "right", "right", "down", "right"], "actionTimes": [19598, 20887, 21579, 22828, 24156], "queries": {"click": {"state": {"target": ["21", "17", "20"], "time": [6004, 9482, 12657]}, "edge": {"target": [], "time": []}}, "mouseover": {"state": {"target": ["12", "21", "16", "17", "20", "19", "22", "12"], "time": [4909, 5529, 7594, 8653, 10325, 13263, 13457, 17541]}, "edge": {"target": [], "time": []}}, "mouseout": {"state": {"target": ["16", "12", "21", "16", "17", "20", "19", "22", "12"], "time": [1440, 5008, 6822, 8518, 9706, 13247, 13367, 17169, 18440]}, "edge": {"target": [], "time": []}}}, "displayed_time": "24.67", "trialTime": 27038, "trial_type": "mouselab-mdp", "trial_index": 14, "time_elapsed": 755280, "internal_node_id": "0.0-4.0-1.0-5.0"}}, {"uniqueid": "w86212523:a93969303", "current_trial": 15, "dateTime": 1691160258147, "trialdata": {"revealed_states": [], "clicked_states": ["9", "11", "27", "29", "28", "32", "33"], "num_clicks_accrued": [0, 0, 0, 0, 0, 0, 0, 0, 0, 0, 0, 0, 0], "stateRewards": ["", -1, 2, 7, 8, 75, 67, -11, 6, 52, -17, 38, -1, 4, -8, 14, 74, -37, -17, -12, 52, 55, 71, -2, -1, -5, 2, 21, 6, -88, -14, 64, -61, -47], "withholdReward": false, "trial_id": "mdp_trial_7", "block": "test", "trialIndex": 8, "score": 67.95, "costs": -15.05, "simulationMode": [null, null, null, null, null], "rewards": [-1, 2, 7, 8, 67], "path": ["0", "0", "1", "2", "3", "4", "6"], "rt": [37676, 28, 866, 584, 643], "actions": ["up", "up", "up", "right", "right"], "actionTimes": [41228, 41855, 43851, 44991, 46162], "queries": {"click": {"state": {"target": ["9", "11", "27", "29", "28", "32", "33"], "time": [5173, 10778, 14698, 17985, 21254, 24689, 28067]}, "edge": {"target": [], "time": []}}, "mouseover": {"state": {"target": ["3", "9", "11", "11", "27", "29", "28", "31", "30", "32", "33", "30", "31", "14", "20", "16", "6", "6", "15", "20"], "time": [4409, 4578, 5983, 9598, 11469, 15772, 19056, 22140, 22578, 23405, 25686, 28759, 28897, 31606, 32040, 34173, 34270, 36876, 39210, 39309]}, "edge": {"target": [], "time": []}}, "mouseout": {"state": {"target": ["0", "3", "9", "11", "11", "27", "29", "28", "31", "30", "32", "33", "30", "31", "14", "20", "16", "6", "6", "15"], "time": [1511, 4465, 5836, 9411, 11336, 15749, 18928, 21940, 22229, 22866, 24873, 28745, 28810, 31467, 31647, 34128, 34222, 36541, 39147, 39250]}, "edge": {"target": [], "time": []}}}, "displayed_time": "46.73", "trialTime": 49077, "trial_type": "mouselab-mdp", "trial_index": 15, "time_elapsed": 806670, "internal_node_id": "0.0-4.0-1.0-6.0"}}, {"uniqueid": "w86212523:a93969303", "current_trial": 16, "dateTime": 1691160290663, "trialdata": {"revealed_states": [], "clicked_states": [], "num_clicks_accrued": [0, 0, 0, 0, 0, 0, 0, 0, 0, 0, 0, 0, 0], "stateRewards": ["", 1, -3, -1, 9, -34, -40, 22, -7, 45, 53, -11, 2, 4, 5, 15, 21, 37, -49, -3, 80, -28, -34, 1, -3, 1, 1, -40, -6, -5, -16, -85, -86, 59], "withholdReward": false, "trial_id": "mdp_trial_8", "block": "test", "trialIndex": 9, "score": -23, "costs": 0, "simulationMode": [null, null, null, null, null], "rewards": [2, 4, 5, 15, -49], "path": ["0", "0", "12", "13", "14", "15", "18"], "rt": [3283, 73, 175, 435, 212], "actions": ["right", "right", "right", "up", "left"], "actionTimes": [15658, 16265, 16984, 17970, 18704], "queries": {"click": {"state": {"target": [], "time": []}, "edge": {"target": [], "time": []}}, "mouseover": {"state": {"target": [], "time": []}, "edge": {"target": [], "time": []}}, "mouseout": {"state": {"target": ["19", "22", "0", "22"], "time": [9754, 9836, 22592, 22705]}, "edge": {"target": [], "time": []}}}, "displayed_time": "26.38", "trialTime": 28642, "trial_type": "mouselab-mdp", "trial_index": 16, "time_elapsed": 839184, "internal_node_id": "0.0-4.0-1.0-7.0"}}, {"uniqueid": "w86212523:a93969303", "current_trial": 17, "dateTime": 1691160315233, "trialdata": {"revealed_states": [], "clicked_states": [], "num_clicks_accrued": [0, 0, 0, 0, 0, 0, 0, 0, 0, 0, 0, 0, 0], "stateRewards": ["", -1, 2, -2, 5, 80, -61, -27, 12, 44, -26, -75, -2, -4, 1, -16, 42, -49, -50, 4, -44, 2, 80, -2, -2, 5, -2, 59, 10, 24, 7, -48, -86, -44], "withholdReward": false, "trial_id": "mdp_trial_9", "block": "test", "trialIndex": 10, "score": -15, "costs": 0, "simulationMode": [null, null, null, null, null], "rewards": [-1, 2, -2, 12, -26], "path": ["0", "0", "1", "2", "3", "8", "10"], "rt": [6480, 254, 148, 958, 117], "actions": ["up", "up", "up", "left", "down"], "actionTimes": [11020, 11817, 12481, 14033, 14678], "queries": {"click": {"state": {"target": [], "time": []}, "edge": {"target": [], "time": []}}, "mouseover": {"state": {"target": ["1"], "time": [7569]}, "edge": {"target": [], "time": []}}, "mouseout": {"state": {"target": ["13", "12", "0", "1", "0", "12"], "time": [1806, 1841, 4728, 20184, 20437, 20488]}, "edge": {"target": [], "time": []}}}, "displayed_time": "18.54", "trialTime": 21721, "trial_type": "mouselab-mdp", "trial_index": 17, "time_elapsed": 863757, "internal_node_id": "0.0-4.0-1.0-8.0"}}, {"uniqueid": "w86212523:a93969303", "current_trial": 18, "dateTime": 1691160350604, "trialdata": {"revealed_states": [], "clicked_states": [], "num_clicks_accrued": [0, 0, 0, 0, 0, 0, 0, 0, 0, 0, 0, 0, 0], "stateRewards": ["", 1, 2, 3, 16, 63, -25, 16, -4, -14, 82, -66, -1, -3, -3, -11, -14, 19, 46, 3, -34, -82, 66, -2, -3, 4, -5, -63, 77, -37, -1, -45, -41, 84], "withholdReward": false, "trial_id": "mdp_trial_10", "block": "test", "trialIndex": 11, "score": 71, "costs": 0, "simulationMode": [null, null, null, null, null], "rewards": [-2, -3, 4, -5, 77], "path": ["0", "0", "23", "24", "25", "26", "28"], "rt": [11379, 1656, 855, 670, 1741], "actions": ["left", "left", "left", "up", "right"], "actionTimes": [18644, 20847, 22230, 23449, 27298], "queries": {"click": {"state": {"target": [], "time": []}, "edge": {"target": [], "time": []}}, "mouseover": {"state": {"target": ["23", "26", "27", "28", "23", "23", "28"], "time": [8782, 9447, 9897, 10017, 12499, 15749, 15900]}, "edge": {"target": [], "time": []}}, "mouseout": {"state": {"target": ["13", "0", "23", "26", "27", "28", "23", "23", "28", "22"], "time": [389, 8693, 8970, 9550, 9964, 12350, 12716, 15796, 16771, 32965]}, "edge": {"target": [], "time": []}}}, "displayed_time": "27.86", "trialTime": 33315, "trial_type": "mouselab-mdp", "trial_index": 18, "time_elapsed": 899128, "internal_node_id": "0.0-4.0-1.0-9.0"}}, {"uniqueid": "w86212523:a93969303", "current_trial": 19, "dateTime": 1691160372908, "trialdata": {"revealed_states": [], "clicked_states": [], "num_clicks_accrued": [0, 0, 0, 0, 0, 0, 0, 0, 0, 0, 0, 0, 0], "stateRewards": ["", 2, -4, -8, -15, 71, -43, -41, 7, -17, 20, 67, -1, -1, -4, 6, 37, -24, -47, 9, 34, 57, 45, 1, 2, -4, -5, -23, 88, -5, 13, -40, 43, 44], "withholdReward": false, "trial_id": "mdp_trial_11", "block": "test", "trialIndex": 12, "score": 60, "costs": 0, "simulationMode": [null, null, null, null, null], "rewards": [-1, -1, -4, 9, 57], "path": ["0", "0", "12", "13", "14", "19", "21"], "rt": [7301, 384, 399, 421, 146], "actions": ["right", "right", "right", "down", "down"], "actionTimes": [10687, 11696, 12626, 13614, 14281], "queries": {"click": {"state": {"target": [], "time": []}, "edge": {"target": [], "time": []}}, "mouseover": {"state": {"target": ["22", "19", "20", "22"], "time": [6233, 7548, 7897, 8985]}, "edge": {"target": [], "time": []}}, "mouseout": {"state": {"target": ["12", "22", "19", "20", "22"], "time": [1227, 7467, 7831, 8921, 9119]}, "edge": {"target": [], "time": []}}}, "displayed_time": "17.39", "trialTime": 19787, "trial_type": "mouselab-mdp", "trial_index": 19, "time_elapsed": 921431, "internal_node_id": "0.0-4.0-1.0-10.0"}}, {"uniqueid": "w86212523:a93969303", "current_trial": 20, "dateTime": 1691160404924, "trialdata": {"revealed_states": [], "clicked_states": [], "num_clicks_accrued": [0, 0, 0, 0, 0, 0, 0, 0, 0, 0, 0, 0, 0], "stateRewards": ["", 2, -1, -1, 7, 11, -40, -22, -2, 69, 37, 8, -2, 4, -8, -12, -2, -72, -3, -12, 17, 63, 12, 1, 3, -7, 6, 25, 61, 61, -9, 28, -17, 27], "withholdReward": false, "trial_id": "mdp_trial_12", "block": "test", "trialIndex": 13, "score": 67, "costs": 0, "simulationMode": [null, null, null, null, null], "rewards": [2, -1, -1, -2, 69], "path": ["0", "0", "1", "2", "3", "8", "9"], "rt": [9711, 419, 245, 2534, 2196], "actions": ["up", "up", "up", "left", "up"], "actionTimes": [14380, 15358, 16135, 19276, 22011], "queries": {"click": {"state": {"target": [], "time": []}, "edge": {"target": [], "time": []}}, "mouseover": {"state": {"target": ["12", "23"], "time": [7723, 12033]}, "edge": {"target": [], "time": []}}, "mouseout": {"state": {"target": ["0", "12", "23"], "time": [6298, 9797, 13211]}, "edge": {"target": [], "time": []}}}, "displayed_time": "22.67", "trialTime": 27605, "trial_type": "mouselab-mdp", "trial_index": 20, "time_elapsed": 953447, "internal_node_id": "0.0-4.0-1.0-11.0"}}, {"uniqueid": "w86212523:a93969303", "current_trial": 21, "dateTime": 1691160449693, "trialdata": {"revealed_states": [], "clicked_states": [], "num_clicks_accrued": [0, 0, 0, 0, 0, 0, 0, 0, 0, 0, 0, 0, 0], "stateRewards": ["", -2, 3, 3, -14, 62, 36, 49, 16, 11, 17, -84, 2, -1, 6, 2, -82, -73, 49, -6, -87, 48, 50, -1, -2, -1, -16, -11, 37, -44, 4, 55, 73, -10], "withholdReward": false, "trial_id": "mdp_trial_13", "block": "test", "trialIndex": 14, "score": -64, "costs": 0, "simulationMode": [null, null, null, null, null], "rewards": [-2, 3, 3, 16, -84], "path": ["0", "0", "1", "2", "3", "8", "11"], "rt": [8823, 1213, 2188, 144, 1222], "actions": ["up", "up", "up", "left", "left"], "actionTimes": [30400, 32401, 35227, 35918, 37695], "queries": {"click": {"state": {"target": [], "time": []}, "edge": {"target": [], "time": []}}, "mouseover": {"state": {"target": ["1"], "time": [26986]}, "edge": {"target": [], "time": []}}, "mouseout": {"state": {"target": ["0", "1"], "time": [26753, 27379]}, "edge": {"target": [], "time": []}}}, "displayed_time": "38.25", "trialTime": 42161, "trial_type": "mouselab-mdp", "trial_index": 21, "time_elapsed": 998218, "internal_node_id": "0.0-4.0-1.0-12.0"}}, {"uniqueid": "w86212523:a93969303", "current_trial": 22, "dateTime": 1691160475216, "trialdata": {"revealed_states": [], "clicked_states": ["23", "20", "21"], "num_clicks_accrued": [0, 0, 0, 0, 0, 0, 0, 0, 0, 0, 0, 0, 0], "stateRewards": ["", -1, -2, -8, 8, -27, -82, 19, -14, -62, 4, 1, -2, 2, 6, 10, 73, -51, -2, 2, 73, -48, 54, -1, 2, -4, 11, -25, 47, 86, 15, 33, 43, -42], "withholdReward": false, "trial_id": "mdp_trial_14", "block": "test", "trialIndex": 15, "score": 76.95, "costs": -4.05, "simulationMode": [null, null, null, null, null, null], "rewards": [-2, 2, 6, 2, 73], "path": ["0", "0", "12", "13", "14", "19", "20"], "rt": [11180, 534, 125, 161, 1537, 732], "actions": ["right", "right", "right", "right", "down", "right"], "actionTimes": [15262, 15815, 16480, 17231, 19314, 20589], "queries": {"click": {"state": {"target": ["23", "20", "21"], "time": [6520, 9715, 13132]}, "edge": {"target": [], "time": []}}, "mouseover": {"state": {"target": ["23", "12", "13", "14", "20", "21", "21"], "time": [5073, 8294, 8400, 8856, 9199, 10729, 11049]}, "edge": {"target": [], "time": []}}, "mouseout": {"state": {"target": ["1", "23", "23", "12", "13", "14", "20", "20", "21", "21"], "time": [1479, 6630, 8278, 8347, 8823, 8990, 9795, 10660, 10883, 13779]}, "edge": {"target": [], "time": []}}}, "displayed_time": "21.14", "trialTime": 23095, "trial_type": "mouselab-mdp", "trial_index": 22, "time_elapsed": 1023739, "internal_node_id": "0.0-4.0-1.0-13.0"}}, {"uniqueid": "w86212523:a93969303", "current_trial": 23, "dateTime": 1691160512825, "trialdata": {"revealed_states": [], "clicked_states": ["23", "32", "33", "29", "28", "27"], "num_clicks_accrued": [0, 0, 0, 0, 0, 0, 0, 0, 0, 0, 0, 0, 0], "stateRewards": ["", 1, -1, 4, -2, -75, -75, 84, -9, -60, -79, 59, 2, -4, 8, 9, -17, -82, 80, 14, -4, 49, 49, -1, 3, 6, -11, -33, 34, 55, 9, -57, 5, 59], "withholdReward": false, "trial_id": "mdp_trial_15", "block": "test", "trialIndex": 16, "score": 65.5, "costs": -10.5, "simulationMode": [null, null, null, null, null, null], "rewards": [-1, 3, 6, 9, 59], "path": ["0", "0", "23", "24", "25", "30", "33"], "rt": [20772, 3110, 254, 363, 551, 661], "actions": ["left", "left", "left", "left", "down", "left"], "actionTimes": [24335, 27463, 28294, 29187, 30279, 31473], "queries": {"click": {"state": {"target": ["23", "32", "33", "29", "28", "27"], "time": [3926, 5508, 8870, 13748, 17367, 22622]}, "edge": {"target": [], "time": []}}, "mouseover": {"state": {"target": ["23", "31", "32", "33", "30", "31", "24", "31", "25", "29", "27", "28", "12", "14", "20", "27", "27", "21"], "time": [3626, 4648, 5200, 6217, 9481, 9703, 10824, 11018, 12532, 12871, 14787, 16177, 18045, 18151, 18526, 18945, 19307, 23356]}, "edge": {"target": [], "time": []}}, "mouseout": {"state": {"target": ["32", "12", "0", "23", "31", "32", "33", "30", "31", "24", "31", "25", "29", "27", "28", "12", "14", "20", "27", "27", "21"], "time": [1015, 1345, 3613, 4592, 4760, 5698, 9427, 9550, 10082, 10901, 12472, 12576, 14505, 15995, 17942, 18108, 18334, 18805, 18996, 23209, 23423]}, "edge": {"target": [], "time": []}}}, "displayed_time": "32.02", "trialTime": 34659, "trial_type": "mouselab-mdp", "trial_index": 23, "time_elapsed": 1061346, "internal_node_id": "0.0-4.0-1.0-14.0"}}, {"uniqueid": "w86212523:a93969303", "current_trial": 24, "dateTime": 1691160538541, "trialdata": {"revealed_states": [], "clicked_states": ["1"], "num_clicks_accrued": [0, 0, 0, 0, 0, 0, 0, 0, 0, 0, 0, 0, 0], "stateRewards": ["", 1, -4, 6, -3, 40, 76, -51, 5, -24, -63, 44, -2, -2, 8, 1, 76, -85, -58, 10, 59, 20, 11, -2, 3, -3, 3, -82, -10, 54, -7, -57, -6, -32], "withholdReward": false, "trial_id": "mdp_trial_16", "block": "test", "trialIndex": 17, "score": -54.75, "costs": 0.25, "simulationMode": [null, null, null, null, null], "rewards": [1, -4, 6, 5, -63], "path": ["0", "0", "1", "2", "3", "8", "10"], "rt": [5890, 913, 661, 765, 567], "actions": ["up", "up", "up", "left", "down"], "actionTimes": [13312, 14755, 16003, 17319, 18446], "queries": {"click": {"state": {"target": ["1"], "time": [7550]}, "edge": {"target": [], "time": []}}, "mouseover": {"state": {"target": ["1", "2", "3", "4", "7", "13"], "time": [7509, 10677, 10870, 12233, 12502, 12629]}, "edge": {"target": [], "time": []}}, "mouseout": {"state": {"target": ["18", "1", "1", "1", "2", "3", "4", "7", "13"], "time": [4754, 7648, 9578, 10493, 10837, 12095, 12395, 12590, 12860]}, "edge": {"target": [], "time": []}}}, "displayed_time": "21.42", "trialTime": 23245, "trial_type": "mouselab-mdp", "trial_index": 24, "time_elapsed": 1087064, "internal_node_id": "0.0-4.0-1.0-15.0"}}, {"uniqueid": "w86212523:a93969303", "current_trial": 25, "dateTime": 1691160585515, "trialdata": {"revealed_states": [], "clicked_states": ["20", "21", "22", "17", "18", "32"], "num_clicks_accrued": [0, 0, 0, 0, 0, 0, 0, 0, 0, 0, 0, 0, 0], "stateRewards": ["", -1, -3, -7, -4, -85, -70, 79, 8, 84, -66, 42, 2, -2, -3, -16, -54, -66, 68, -3, 21, -14, 7, -2, -1, -3, -8, 75, 80, 86, -7, -84, 73, -16], "withholdReward": false, "trial_id": "mdp_trial_17", "block": "test", "trialIndex": 18, "score": 47.1, "costs": -12.9, "simulationMode": [null, null, null, null, null], "rewards": [-2, -1, -3, -7, 73], "path": ["0", "0", "23", "24", "25", "30", "32"], "rt": [28852, 240, 310, 783, 51], "actions": ["left", "left", "left", "down", "down"], "actionTimes": [34024, 34821, 35677, 36991, 37606], "queries": {"click": {"state": {"target": ["20", "21", "22", "17", "18", "32"], "time": [6814, 10553, 15063, 20394, 24057, 29545]}, "edge": {"target": [], "time": []}}, "mouseover": {"state": {"target": ["20", "21", "22", "14", "15", "14", "22", "14", "16", "15", "17", "15", "18", "30", "33", "30", "32"], "time": [6782, 7896, 11474, 13961, 14152, 14359, 14648, 15775, 16133, 18751, 19044, 21115, 21382, 25066, 25472, 28679, 28806]}, "edge": {"target": [], "time": []}}, "mouseout": {"state": {"target": ["12", "7", "6", "6", "2", "0", "20", "20", "21", "22", "14", "15", "14", "22", "14", "16", "15", "17", "15", "18", "30", "33", "30", "32"], "time": [2691, 2758, 2801, 2927, 2979, 6003, 6975, 7642, 10997, 13918, 14004, 14318, 14395, 15294, 15840, 18654, 18827, 21099, 21201, 24789, 25271, 28624, 28718, 42224]}, "edge": {"target": [], "time": []}}}, "displayed_time": "38.13", "trialTime": 43209, "trial_type": "mouselab-mdp", "trial_index": 25, "time_elapsed": 1134038, "internal_node_id": "0.0-4.0-1.0-16.0"}}, {"uniqueid": "w86212523:a93969303", "current_trial": 26, "dateTime": 1691160652988, "trialdata": {"revealed_states": [], "clicked_states": ["10", "11", "9", "6", "7", "5", "16", "17", "18", "21", "22", "20", "27", "28"], "num_clicks_accrued": [0, 0, 0, 0, 0, 0, 0, 0, 0, 0, 0, 0, 0], "stateRewards": ["", -1, 3, 2, 9, 41, 4, -46, -12, -54, -87, -25, 2, 3, -1, 11, -77, 12, -33, -9, -32, 35, 72, 1, 3, -7, 4, 37, 65, -73, 6, 77, -43, 8], "withholdReward": false, "trial_id": "mdp_trial_18", "block": "test", "trialIndex": 19, "score": 36.900000000000006, "costs": -30.09999999999999, "simulationMode": [null, null, null, null, null], "rewards": [2, 3, -1, -9, 72], "path": ["0", "0", "12", "13", "14", "19", "22"], "rt": [54421, 707, 325, 593, 851], "actions": ["right", "right", "right", "down", "left"], "actionTimes": [58126, 59385, 60284, 61412, 62813], "queries": {"click": {"state": {"target": ["10", "11", "9", "6", "7", "5", "16", "17", "18", "21", "22", "20", "27", "28"], "time": [5172, 8282, 11569, 15239, 18938, 23400, 27350, 31041, 34750, 38821, 42786, 46261, 50330, 54282]}, "edge": {"target": [], "time": []}}, "mouseover": {"state": {"target": ["10", "11", "9", "4", "6", "6", "7", "4", "5", "16", "17", "20", "14", "18", "19", "21", "22", "19", "20", "24", "26", "27", "28", "23", "28", "14"], "time": [4720, 6039, 9057, 12260, 12403, 12960, 15971, 19381, 19805, 24430, 28067, 32880, 33450, 33951, 35438, 35799, 40264, 43697, 43842, 47188, 47305, 47632, 51212, 52589, 53180, 56646]}, "edge": {"target": [], "time": []}}, "mouseout": {"state": {"target": ["12", "0", "10", "11", "9", "4", "6", "6", "7", "4", "5", "16", "17", "20", "14", "18", "19", "21", "22", "19", "20", "22", "24", "26", "27", "28", "23", "28", "14"], "time": [1368, 3759, 5869, 8832, 12185, 12335, 12619, 15908, 19312, 19523, 24001, 27928, 31862, 33434, 33884, 35319, 35565, 39097, 43573, 43785, 47072, 47129, 47245, 47495, 51072, 51347, 52859, 56350, 56707]}, "edge": {"target": [], "time": []}}}, "displayed_time": "63.34", "trialTime": 65041, "trial_type": "mouselab-mdp", "trial_index": 26, "time_elapsed": 1201512, "internal_node_id": "0.0-4.0-1.0-17.0"}}, {"uniqueid": "w86212523:a93969303", "current_trial": 27, "dateTime": 1691160676312, "trialdata": {"revealed_states": [], "clicked_states": ["33", "31"], "num_clicks_accrued": [0, 0, 0, 0, 0, 0, 0, 0, 0, 0, 0, 0, 0], "stateRewards": ["", 2, 4, -3, 16, -58, 30, -35, 11, -60, 47, 27, -2, -1, -7, -16, 23, -70, 68, -10, -65, -43, -34, -2, 1, 7, 9, -63, 34, -31, -8, -12, -86, 59], "withholdReward": false, "trial_id": "mdp_trial_19", "block": "test", "trialIndex": 20, "score": 52.7, "costs": -4.3, "simulationMode": [null, null, null, null, null, null], "rewards": [-2, 1, 7, -8, 59], "path": ["0", "0", "23", "24", "25", "30", "33"], "rt": [7124, 378, 82, 20, 727, 711], "actions": ["left", "left", "left", "left", "down", "left"], "actionTimes": [11298, 11696, 12432, 13005, 14271, 15519], "queries": {"click": {"state": {"target": ["33", "31"], "time": [5995, 9554]}, "edge": {"target": [], "time": []}}, "mouseover": {"state": {"target": ["15", "18", "33", "26", "29", "27", "26", "25", "30", "31"], "time": [4378, 5143, 5555, 6851, 6934, 7136, 7399, 7521, 7944, 8352]}, "edge": {"target": [], "time": []}}, "mouseout": {"state": {"target": ["0", "15", "18", "33", "26", "29", "27", "26", "25", "30", "31"], "time": [4364, 5120, 5201, 6184, 6918, 7086, 7383, 7460, 7868, 8228, 9911]}, "edge": {"target": [], "time": []}}}, "displayed_time": "18.17", "trialTime": 19971, "trial_type": "mouselab-mdp", "trial_index": 27, "time_elapsed": 1224830, "internal_node_id": "0.0-4.0-1.0-18.0"}}, {"uniqueid": "w86212523:a93969303", "current_trial": 28, "dateTime": 1691160698544, "trialdata": {"revealed_states": [], "clicked_states": [], "num_clicks_accrued": [0, 0, 0, 0, 0, 0, 0, 0, 0, 0, 0, 0, 0], "stateRewards": ["", 2, -4, 4, 9, 69, 9, -75, 12, -86, 66, 25, -1, 3, 2, -13, -88, -3, 1, 4, -69, 49, -84, 2, -1, 4, 2, -18, -81, -52, -15, -69, -54, 25], "withholdReward": false, "trial_id": "mdp_trial_20", "block": "test", "trialIndex": 21, "score": 39, "costs": 0, "simulationMode": [null, null, null, null, null], "rewards": [2, -4, 4, 12, 25], "path": ["0", "0", "1", "2", "3", "8", "11"], "rt": [1817, 334, 11, 766, 62], "actions": ["up", "up", "up", "left", "left"], "actionTimes": [5531, 6428, 6981, 8290, 8883], "queries": {"click": {"state": {"target": [], "time": []}, "edge": {"target": [], "time": []}}, "mouseover": {"state": {"target": ["12"], "time": [4698]}, "edge": {"target": [], "time": []}}, "mouseout": {"state": {"target": ["0", "12", "21"], "time": [4682, 4752, 19119]}, "edge": {"target": [], "time": []}}}, "displayed_time": "17.72", "trialTime": 19649, "trial_type": "mouselab-mdp", "trial_index": 28, "time_elapsed": 1247067, "internal_node_id": "0.0-4.0-1.0-19.0"}}, {"uniqueid": "w86212523:a93969303", "current_trial": 29, "dateTime": 1691160723942, "trialdata": {"revealed_states": [], "clicked_states": [], "num_clicks_accrued": [0, 0, 0, 0, 0, 0, 0, 0, 0, 0, 0, 0, 0], "stateRewards": ["", -2, -4, -8, 8, 63, -50, -19, -7, -17, -31, 31, 1, 3, -5, 12, -35, -63, -29, -4, -17, -75, -79, -2, -3, -2, 8, -3, -85, 10, -2, -82, -82, 56], "withholdReward": false, "trial_id": "mdp_trial_21", "block": "test", "trialIndex": 22, "score": 57, "costs": 0, "simulationMode": [null, null, null, null, null], "rewards": [-2, -4, -8, 8, 63], "path": ["0", "0", "1", "2", "3", "4", "5"], "rt": [7130, 503, 467, 483, 146], "actions": ["up", "up", "up", "right", "up"], "actionTimes": [11256, 12585, 13614, 14648, 15451], "queries": {"click": {"state": {"target": [], "time": []}, "edge": {"target": [], "time": []}}, "mouseover": {"state": {"target": ["7", "4", "5", "4", "16"], "time": [5979, 6408, 6932, 8344, 8402]}, "edge": {"target": [], "time": []}}, "mouseout": {"state": {"target": ["0", "7", "4", "5", "4", "16"], "time": [5912, 6344, 6597, 8329, 8387, 8435]}, "edge": {"target": [], "time": []}}}, "displayed_time": "18.26", "trialTime": 21687, "trial_type": "mouselab-mdp", "trial_index": 29, "time_elapsed": 1272453, "internal_node_id": "0.0-4.0-1.0-20.0"}}, {"uniqueid": "w86212523:a93969303", "current_trial": 30, "dateTime": 1691160760143, "trialdata": {"revealed_states": [], "clicked_states": ["17", "7", "16", "6"], "num_clicks_accrued": [0, 0, 0, 0, 0, 0, 0, 0, 0, 0, 0, 0, 0], "stateRewards": ["", -2, -4, 2, 10, -17, 18, 73, 11, -32, 23, -13, -2, -4, 7, 12, -25, 66, -23, 15, 40, -76, -9, 1, 2, -7, -5, -20, 24, 3, -5, 16, -73, 70], "withholdReward": false, "trial_id": "mdp_trial_22", "block": "test", "trialIndex": 23, "score": 70.4, "costs": -8.6, "simulationMode": [null, null, null, null, null], "rewards": [-2, -4, 2, 10, 73], "path": ["0", "0", "1", "2", "3", "4", "7"], "rt": [18764, 976, 137, 941, 11], "actions": ["up", "up", "up", "right", "down"], "actionTimes": [22488, 24536, 25445, 27218, 27810], "queries": {"click": {"state": {"target": ["17", "7", "16", "6"], "time": [6383, 11391, 15649, 19489]}, "edge": {"target": [], "time": []}}, "mouseover": {"state": {"target": ["13", "17", "16", "16", "18", "7", "16", "6"], "time": [4601, 4814, 6981, 8632, 10202, 10551, 12673, 16733]}, "edge": {"target": [], "time": []}}, "mouseout": {"state": {"target": ["15", "0", "13", "17", "16", "16", "18", "7", "16", "6"], "time": [1028, 4583, 4678, 6962, 7084, 10183, 10255, 12293, 16606, 20729]}, "edge": {"target": [], "time": []}}}, "displayed_time": "28.48", "trialTime": 31185, "trial_type": "mouselab-mdp", "trial_index": 30, "time_elapsed": 1308666, "internal_node_id": "0.0-4.0-1.0-21.0"}}, {"uniqueid": "w86212523:a93969303", "current_trial": 31, "dateTime": 1691160785331, "trialdata": {"revealed_states": [], "clicked_states": [], "num_clicks_accrued": [0, 0, 0, 0, 0, 0, 0, 0, 0, 0, 0, 0, 0], "stateRewards": ["", -2, 1, -3, -16, -39, -52, 30, -7, -41, -59, 11, 2, 1, 8, 2, -11, -26, -42, -13, 87, -59, -48, -1, -1, -1, 16, -79, 31, 50, -1, -84, 34, -82], "withholdReward": false, "trial_id": "mdp_trial_23", "block": "test", "trialIndex": 24, "score": -66, "costs": 0, "simulationMode": [null, null, null, null, null], "rewards": [-1, -1, -1, 16, -79], "path": ["0", "0", "23", "24", "25", "26", "27"], "rt": [5783, 343, 137, 732, 11], "actions": ["left", "left", "left", "up", "up"], "actionTimes": [9963, 11175, 11894, 13172, 13734], "queries": {"click": {"state": {"target": [], "time": []}, "edge": {"target": [], "time": []}}, "mouseover": {"state": {"target": ["23", "25", "24", "31"], "time": [5264, 5688, 5776, 7223]}, "edge": {"target": [], "time": []}}, "mouseout": {"state": {"target": ["7", "23", "25", "24", "31"], "time": [1810, 5323, 5725, 6791, 19066]}, "edge": {"target": [], "time": []}}}, "displayed_time": "18.18", "trialTime": 21997, "trial_type": "mouselab-mdp", "trial_index": 31, "time_elapsed": 1333852, "internal_node_id": "0.0-4.0-1.0-22.0"}}, {"uniqueid": "w86212523:a93969303", "current_trial": 32, "dateTime": 1691160834799, "trialdata": {"revealed_states": [], "clicked_states": ["12", "20", "21", "22", "17", "16", "18", "7", "6", "5"], "num_clicks_accrued": [0, 0, 0, 0, 0, 0, 0, 0, 0, 0, 0, 0, 0], "stateRewards": ["", -1, 1, -2, 5, 73, 15, 61, 8, 7, 38, 76, 2, 2, -4, -6, -6, -26, 43, -5, -45, -85, -35, -2, 1, -4, 15, -10, 69, 72, -11, 84, -49, -38], "withholdReward": false, "trial_id": "mdp_trial_24", "block": "test", "trialIndex": 25, "score": 56.900000000000006, "costs": -19.099999999999998, "simulationMode": [null, null, null, null, null, null], "rewards": [-1, 1, -2, 5, 73], "path": ["0", "0", "1", "2", "3", "4", "5"], "rt": [34852, 639, 415, 296, 675, 172], "actions": ["up", "up", "up", "up", "right", "up"], "actionTimes": [39701, 40357, 41343, 42178, 43388, 44109], "queries": {"click": {"state": {"target": ["12", "20", "21", "22", "17", "16", "18", "7", "6", "5"], "time": [5175, 7581, 11710, 16448, 19641, 22533, 25475, 29845, 33278, 38657]}, "edge": {"target": [], "time": []}}, "mouseover": {"state": {"target": ["12", "20", "21", "22", "17", "16", "18", "23", "31", "32", "7", "1", "4", "6", "5", "15", "16", "5", "5"], "time": [5097, 7030, 8506, 12531, 17739, 20544, 23865, 26688, 27097, 27354, 29312, 31822, 32370, 32541, 33868, 36292, 36382, 37060, 38115]}, "edge": {"target": [], "time": []}}, "mouseout": {"state": {"target": ["0", "12", "20", "21", "22", "17", "16", "16", "18", "23", "31", "32", "7", "1", "4", "6", "5", "15", "16", "5", "5", "0"], "time": [1639, 6639, 8408, 12373, 17381, 19872, 22827, 23502, 26434, 26755, 27251, 28150, 30914, 32028, 32431, 33728, 35268, 36335, 36507, 37131, 38833, 45947]}, "edge": {"target": [], "time": []}}}, "displayed_time": "44.70", "trialTime": 46769, "trial_type": "mouselab-mdp", "trial_index": 32, "time_elapsed": 1383322, "internal_node_id": "0.0-4.0-1.0-23.0"}}, {"uniqueid": "w86212523:a93969303", "current_trial": 33, "dateTime": 1691160888722, "trialdata": {"revealed_states": [], "clicked_states": ["11", "10", "9", "21", "32", "31", "33", "29", "27", "28", "17"], "num_clicks_accrued": [0, 0, 0, 0, 0, 0, 0, 0, 0, 0, 0, 0, 0], "stateRewards": ["", 2, -3, -2, 14, -4, 85, 46, 15, -28, 41, 31, -1, -1, -1, 5, 62, 79, 57, 12, -73, -64, 86, -1, 1, -3, -5, 68, 11, -32, 8, -80, -21, -56], "withholdReward": false, "trial_id": "mdp_trial_25", "block": "test", "trialIndex": 26, "score": 57.35000000000001, "costs": -23.649999999999995, "simulationMode": [null, null, null, null, null], "rewards": [-1, -1, -1, 5, 79], "path": ["0", "0", "12", "13", "14", "15", "17"], "rt": [39967, 495, 298, 773, 55], "actions": ["right", "right", "right", "up", "right"], "actionTimes": [43961, 45011, 45849, 47179, 47759], "queries": {"click": {"state": {"target": ["11", "10", "9", "21", "32", "31", "33", "29", "27", "28", "17"], "time": [5782, 9299, 12478, 15433, 18497, 21999, 25124, 27944, 31162, 34429, 38850]}, "edge": {"target": [], "time": []}}, "mouseover": {"state": {"target": ["11", "27", "10", "10", "8", "9", "18", "22", "21", "32", "33", "30", "31", "33", "29", "27", "28", "17", "16"], "time": [5382, 6840, 7079, 7417, 9952, 10335, 13394, 14261, 14761, 16322, 19781, 21223, 21439, 22957, 26139, 28805, 31819, 36156, 39841]}, "edge": {"target": [], "time": []}}, "mouseout": {"state": {"target": ["29", "24", "25", "24", "23", "0", "11", "27", "10", "10", "8", "9", "18", "22", "21", "32", "33", "30", "31", "33", "29", "27", "27", "28", "17", "16"], "time": [1310, 1483, 1760, 1795, 1837, 2208, 6605, 7024, 7146, 9935, 10077, 13325, 13459, 14633, 15905, 19608, 21148, 21285, 22674, 25635, 28734, 31366, 31658, 35864, 39627, 42967]}, "edge": {"target": [], "time": []}}}, "displayed_time": "48.48", "trialTime": 50036, "trial_type": "mouselab-mdp", "trial_index": 33, "time_elapsed": 1437245, "internal_node_id": "0.0-4.0-1.0-24.0"}}, {"uniqueid": "w86212523:a93969303", "current_trial": 34, "dateTime": 1691160932739, "trialdata": {"revealed_states": [], "clicked_states": ["6"], "num_clicks_accrued": [0, 0, 0, 0, 0, 0, 0, 0, 0, 0, 0, 0, 0], "stateRewards": ["", -1, -3, 4, -10, -5, 79, -87, -2, 53, 29, -20, -2, -1, -5, 10, 27, 86, 46, -16, -29, 40, 3, 2, 4, -1, -6, 37, 79, -29, 7, 86, -62, 29], "withholdReward": false, "trial_id": "mdp_trial_26", "block": "test", "trialIndex": 27, "score": 66.85, "costs": -2.15, "simulationMode": [null, null, null, null, null], "rewards": [-1, -3, 4, -10, 79], "path": ["0", "0", "1", "2", "3", "4", "6"], "rt": [9210, 719, 158, 363, 1930], "actions": ["up", "up", "up", "right", "right"], "actionTimes": [31719, 33072, 33838, 34852, 37543], "queries": {"click": {"state": {"target": ["6"], "time": [23974]}, "edge": {"target": [], "time": []}}, "mouseover": {"state": {"target": ["6", "7", "9", "3", "7", "18", "13", "3", "9", "3"], "time": [23544, 25093, 26165, 28916, 28980, 29044, 29111, 29280, 29566, 30475]}, "edge": {"target": [], "time": []}}, "mouseout": {"state": {"target": ["22", "13", "18", "12", "0", "6", "7", "9", "3", "7", "18", "13", "3", "9", "3", "19", "21"], "time": [1971, 2654, 2721, 19763, 19929, 24731, 25533, 28871, 28965, 29030, 29097, 29221, 29325, 30461, 30517, 39465, 39530]}, "edge": {"target": [], "time": []}}}, "displayed_time": "38.19", "trialTime": 40770, "trial_type": "mouselab-mdp", "trial_index": 34, "time_elapsed": 1481260, "internal_node_id": "0.0-4.0-1.0-25.0"}}, {"uniqueid": "w86212523:a93969303", "current_trial": 35, "dateTime": 1691160960913, "trialdata": {"revealed_states": [], "clicked_states": ["12", "25", "32", "33"], "num_clicks_accrued": [0, 0, 0, 0, 0, 0, 0, 0, 0, 0, 0, 0, 0], "stateRewards": ["", -2, -2, -7, -13, -10, 49, -68, -1, 84, 70, 88, 1, 4, 4, 12, -57, 25, 30, 8, -1, -77, 57, 2, 3, 2, 3, -18, -80, 23, -15, -41, 70, 11], "withholdReward": false, "trial_id": "mdp_trial_27", "block": "test", "trialIndex": 28, "score": 57, "costs": -5, "simulationMode": [null, null, null, null, null, null], "rewards": [2, 3, 2, -15, 70], "path": ["0", "0", "23", "24", "25", "30", "32"], "rt": [9729, 1396, 242, 552, 745, 256], "actions": ["left", "left", "left", "left", "down", "down"], "actionTimes": [16754, 18166, 18967, 20089, 21374, 22245], "queries": {"click": {"state": {"target": ["12", "25", "32", "33"], "time": [8090, 10385, 11595, 15107]}, "edge": {"target": [], "time": []}}, "mouseover": {"state": {"target": ["12", "23", "24", "25", "30", "32", "33"], "time": [7763, 9266, 9370, 9762, 10959, 11325, 12389]}, "edge": {"target": [], "time": []}}, "mouseout": {"state": {"target": ["0", "1", "12", "23", "24", "25", "30", "32", "33"], "time": [4356, 4707, 9140, 9323, 9427, 10899, 11087, 12333, 15647]}, "edge": {"target": [], "time": []}}}, "displayed_time": "23.47", "trialTime": 25468, "trial_type": "mouselab-mdp", "trial_index": 35, "time_elapsed": 1509436, "internal_node_id": "0.0-4.0-1.0-26.0"}}, {"uniqueid": "w86212523:a93969303", "current_trial": 36, "dateTime": 1691160983717, "trialdata": {"revealed_states": [], "clicked_states": [], "num_clicks_accrued": [0, 0, 0, 0, 0, 0, 0, 0, 0, 0, 0, 0, 0], "stateRewards": ["", -1, -2, 4, 9, 10, -75, 39, 16, -43, 88, -19, -1, 1, 2, 4, -31, 10, 73, 12, 41, -64, -81, -2, 2, -6, 1, -81, -1, -26, 3, -59, -3, -20], "withholdReward": false, "trial_id": "mdp_trial_28", "block": "test", "trialIndex": 29, "score": -2, "costs": 0, "simulationMode": [null, null, null, null, null], "rewards": [-1, -2, 4, 16, -19], "path": ["0", "0", "1", "2", "3", "8", "11"], "rt": [5471, 66, 414, 2255, 47], "actions": ["up", "up", "up", "left", "left"], "actionTimes": [9560, 10219, 11252, 14054, 14634], "queries": {"click": {"state": {"target": [], "time": []}, "edge": {"target": [], "time": []}}, "mouseover": {"state": {"target": ["23", "11", "11", "11", "0"], "time": [5454, 5766, 7009, 7498, 8789]}, "edge": {"target": [], "time": []}}, "mouseout": {"state": {"target": ["23", "11", "11", "11", "0"], "time": [5505, 5817, 7044, 8722, 8837]}, "edge": {"target": [], "time": []}}}, "displayed_time": "18.09", "trialTime": 19727, "trial_type": "mouselab-mdp", "trial_index": 36, "time_elapsed": 1532238, "internal_node_id": "0.0-4.0-1.0-27.0"}}, {"uniqueid": "w86212523:a93969303", "current_trial": 37, "dateTime": 1691161031778, "trialdata": {"revealed_states": [], "clicked_states": [], "num_clicks_accrued": [0, 0, 0, 0, 0, 0, 0, 0, 0, 0, 0, 0, 0], "stateRewards": ["", 1, 1, -5, 10, -31, 73, 14, -8, -23, 63, -70, -1, 2, 8, 7, 25, -59, 27, -10, -40, -71, -15, -2, 3, -8, -5, -19, 77, -34, 7, 67, 63, 19], "withholdReward": false, "trial_id": "mdp_trial_29", "block": "test", "trialIndex": 30, "score": 43, "costs": 0, "simulationMode": [null, null, null, null, null], "rewards": [-1, 2, 8, 7, 27], "path": ["0", "0", "12", "13", "14", "15", "18"], "rt": [17123, 150, 95, 868, 3748], "actions": ["right", "right", "right", "up", "left"], "actionTimes": [24077, 25956, 26771, 31997, 36483], "queries": {"click": {"state": {"target": [], "time": []}, "edge": {"target": [], "time": []}}, "mouseover": {"state": {"target": ["0", "12", "12"], "time": [16220, 16464, 19674]}, "edge": {"target": [], "time": []}}, "mouseout": {"state": {"target": ["0", "0", "12"], "time": [16050, 16288, 18377]}, "edge": {"target": [], "time": []}}}, "displayed_time": "37.18", "trialTime": 40197, "trial_type": "mouselab-mdp", "trial_index": 37, "time_elapsed": 1579531, "internal_node_id": "0.0-4.0-1.0-28.0"}}, {"uniqueid": "w86212523:a93969303", "current_trial": 38, "dateTime": 1691161077731, "trialdata": {"revealed_states": [], "clicked_states": ["12", "20", "21", "22", "32", "33", "31"], "num_clicks_accrued": [0, 0, 0, 0, 0, 0, 0, 0, 0, 0, 0, 0, 0], "stateRewards": ["", 1, 3, -2, 15, 51, 15, -19, 11, 67, -45, -73, 2, 4, -2, -13, 36, 9, -28, 10, -30, 31, 16, 1, 2, -1, -16, 14, -22, 36, -1, 88, -5, 45], "withholdReward": false, "trial_id": "mdp_trial_30", "block": "test", "trialIndex": 31, "score": 76.35, "costs": -12.65, "simulationMode": [null, null, null, null, null], "rewards": [1, 2, -1, -1, 88], "path": ["0", "0", "23", "24", "25", "30", "31"], "rt": [28398, 464, 339, 795, 564], "actions": ["left", "left", "left", "down", "right"], "actionTimes": [33009, 34105, 34990, 36377, 37467], "queries": {"click": {"state": {"target": ["12", "20", "21", "22", "32", "33", "31"], "time": [7924, 9615, 12594, 16705, 21507, 24901, 27822]}, "edge": {"target": [], "time": []}}, "mouseover": {"state": {"target": ["1", "12", "20", "21", "22", "32", "30", "33", "31", "24", "28", "26", "29", "23", "22"], "time": [6625, 7041, 9191, 10833, 13578, 18654, 22290, 22891, 25543, 28737, 28810, 28944, 29826, 31125, 31232]}, "edge": {"target": [], "time": []}}, "mouseout": {"state": {"target": ["12", "0", "1", "12", "20", "21", "21", "22", "32", "30", "33", "31", "24", "28", "26", "29", "23", "22"], "time": [1077, 6463, 6910, 8104, 10569, 12752, 13260, 18102, 22225, 22351, 25095, 28674, 28794, 28876, 29097, 30989, 31177, 31289]}, "edge": {"target": [], "time": []}}}, "displayed_time": "38.08", "trialTime": 40013, "trial_type": "mouselab-mdp", "trial_index": 38, "time_elapsed": 1626252, "internal_node_id": "0.0-4.0-1.0-29.0"}}, {"uniqueid": "w86212523:a93969303", "current_trial": 39, "dateTime": 1691161116341, "trialdata": {"revealed_states": [], "clicked_states": ["17", "5", "6", "7", "10", "16", "11"], "num_clicks_accrued": [0, 0, 0, 0, 0, 0, 0, 0, 0, 0, 0, 0, 0], "stateRewards": ["", -2, -1, -4, -15, -14, -67, 32, -3, -59, 63, 31, 2, -1, -7, -15, 71, -66, -27, -3, -54, -39, 72, 2, 1, 1, -13, 77, -40, 35, -9, 35, 75, 57], "withholdReward": false, "trial_id": "mdp_trial_31", "block": "test", "trialIndex": 32, "score": 34.95, "costs": -15.05, "simulationMode": [null, null, null, null, null, null], "rewards": [2, -1, -7, -15, 71], "path": ["0", "0", "12", "13", "14", "15", "16"], "rt": [23058, 1490, 86, 789, 196, 73], "actions": ["right", "right", "right", "right", "up", "up"], "actionTimes": [27996, 29506, 30232, 31731, 32527, 33161], "queries": {"click": {"state": {"target": ["17", "5", "6", "7", "10", "16", "11"], "time": [6827, 10054, 13366, 16700, 19976, 23221, 26631]}, "edge": {"target": [], "time": []}}, "mouseover": {"state": {"target": ["14", "17", "32", "5", "6", "7", "2", "10", "2", "16", "15", "8", "11"], "time": [6108, 6308, 8209, 9721, 11775, 14051, 17340, 17462, 20536, 21469, 24209, 24758, 24923]}, "edge": {"target": [], "time": []}}, "mouseout": {"state": {"target": ["22", "23", "24", "0", "14", "17", "32", "5", "6", "7", "2", "10", "2", "16", "16", "15", "8", "11"], "time": [1578, 1698, 1832, 6047, 6194, 7758, 9177, 11594, 13943, 17281, 17402, 20523, 20915, 23415, 24148, 24395, 24903, 27426]}, "edge": {"target": [], "time": []}}}, "displayed_time": "33.73", "trialTime": 35517, "trial_type": "mouselab-mdp", "trial_index": 39, "time_elapsed": 1664863, "internal_node_id": "0.0-4.0-1.0-30.0"}}, {"uniqueid": "w86212523:a93969303", "current_trial": 40, "dateTime": 1691161149305, "trialdata": {"revealed_states": [], "clicked_states": ["29", "27", "32", "28", "17"], "num_clicks_accrued": [0, 0, 0, 0, 0, 0, 0, 0, 0, 0, 0, 0, 0], "stateRewards": ["", -2, -3, 4, 1, 33, -53, 15, 9, -12, 61, -6, -2, 4, 6, -11, 47, -43, -7, -11, 46, 23, -28, -1, -1, 3, -10, 11, 76, -76, 10, 18, -38, 87], "withholdReward": false, "trial_id": "mdp_trial_32", "block": "test", "trialIndex": 33, "score": 56.25, "costs": -10.75, "simulationMode": [null, null, null, null, null], "rewards": [-1, -1, 3, -10, 76], "path": ["0", "0", "23", "24", "25", "26", "28"], "rt": [17603, 692, 230, 638, 2165], "actions": ["left", "left", "left", "up", "right"], "actionTimes": [22117, 23370, 24245, 25424, 28272], "queries": {"click": {"state": {"target": ["29", "27", "32", "28", "17"], "time": [5982, 9288, 12738, 15801, 18951]}, "edge": {"target": [], "time": []}}, "mouseover": {"state": {"target": ["24", "29", "27", "26", "25", "30", "32", "28", "15", "17", "21"], "time": [5268, 5369, 6696, 9733, 9817, 9999, 10278, 13599, 16752, 17058, 19744]}, "edge": {"target": [], "time": []}}, "mouseout": {"state": {"target": ["23", "24", "29", "27", "26", "25", "30", "32", "28", "15", "17", "21"], "time": [2111, 5321, 6640, 9718, 9802, 9938, 10204, 13187, 16580, 16815, 19640, 19810]}, "edge": {"target": [], "time": []}}}, "displayed_time": "28.80", "trialTime": 30248, "trial_type": "mouselab-mdp", "trial_index": 40, "time_elapsed": 1697828, "internal_node_id": "0.0-4.0-1.0-31.0"}}, {"uniqueid": "w86212523:a93969303", "current_trial": 41, "dateTime": 1691161186519, "trialdata": {"revealed_states": [], "clicked_states": ["27", "10", "5", "6", "16", "17"], "num_clicks_accrued": [0, 0, 0, 0, 0, 0, 0, 0, 0, 0, 0, 0, 0], "stateRewards": ["", -1, 2, 6, 11, 21, -21, -21, -6, 48, -71, 88, -1, -3, 3, 7, 64, 2, 9, -4, 37, -67, 72, 2, 2, -8, -8, -10, 71, -40, -3, 73, 80, 47], "withholdReward": false, "trial_id": "mdp_trial_33", "block": "test", "trialIndex": 34, "score": 57.1, "costs": -12.9, "simulationMode": [null, null, null, null, null, null], "rewards": [-1, -3, 3, 7, 64], "path": ["0", "0", "12", "13", "14", "15", "16"], "rt": [21528, 1494, 209, 208, 468, 1220], "actions": ["right", "right", "right", "right", "up", "up"], "actionTimes": [26116, 27627, 28386, 29156, 30168, 32028], "queries": {"click": {"state": {"target": ["27", "10", "5", "6", "16", "17"], "time": [7029, 10123, 13445, 17142, 20853, 24337]}, "edge": {"target": [], "time": []}}, "mouseover": {"state": {"target": ["23", "24", "25", "26", "27", "10", "4", "5", "6", "16", "17"], "time": [5332, 5639, 5841, 6123, 6367, 7726, 11467, 11741, 14651, 18216, 21535]}, "edge": {"target": [], "time": []}}, "mouseout": {"state": {"target": ["0", "23", "24", "25", "26", "27", "10", "4", "5", "6", "16", "17", "17", "21"], "time": [1886, 5549, 5787, 6067, 6232, 7570, 11232, 11527, 13954, 18195, 21325, 24551, 24919, 33213]}, "edge": {"target": [], "time": []}}}, "displayed_time": "32.60", "trialTime": 34305, "trial_type": "mouselab-mdp", "trial_index": 41, "time_elapsed": 1735040, "internal_node_id": "0.0-4.0-1.0-32.0"}}, {"uniqueid": "w86212523:a93969303", "current_trial": 42, "dateTime": 1691161225923, "trialdata": {"revealed_states": [], "clicked_states": ["21", "20", "22", "31"], "num_clicks_accrued": [0, 0, 0, 0, 0, 0, 0, 0, 0, 0, 0, 0, 0], "stateRewards": ["", 1, -3, -2, 14, 49, -40, -39, 2, 26, -61, 73, 1, -4, -8, 12, 79, 29, -65, -13, 55, -26, 27, -1, 3, 3, 9, -17, -60, -18, -8, 35, -88, 69], "withholdReward": false, "trial_id": "mdp_trial_34", "block": "test", "trialIndex": 35, "score": 22.4, "costs": -8.6, "simulationMode": [null, null, null, null, null, null], "rewards": [1, -4, -8, -13, 55], "path": ["0", "0", "12", "13", "14", "19", "20"], "rt": [19738, 2032, 602, 106, 688, 638], "actions": ["right", "right", "right", "right", "down", "right"], "actionTimes": [25238, 27505, 28851, 29550, 30795, 32002], "queries": {"click": {"state": {"target": ["21", "20", "22", "31"], "time": [10178, 14357, 18590, 24155]}, "edge": {"target": [], "time": []}}, "mouseover": {"state": {"target": ["0", "21", "20", "31", "30", "32", "22", "31", "31"], "time": [6580, 7942, 13822, 15332, 15434, 15746, 16263, 19882, 23779]}, "edge": {"target": [], "time": []}}, "mouseout": {"state": {"target": ["25", "24", "23", "0", "21", "20", "31", "30", "32", "22", "31", "31", "30"], "time": [1828, 1869, 1912, 7465, 13809, 15153, 15414, 15570, 16073, 19430, 21357, 33914, 34031]}, "edge": {"target": [], "time": []}}}, "displayed_time": "32.58", "trialTime": 35289, "trial_type": "mouselab-mdp", "trial_index": 42, "time_elapsed": 1774444, "internal_node_id": "0.0-4.0-1.0-33.0"}}, {"uniqueid": "w86212523:a93969303", "current_trial": 43, "dateTime": 1691161252926, "trialdata": {"revealed_states": [], "clicked_states": ["9", "5", "7"], "num_clicks_accrued": [0, 0, 0, 0, 0, 0, 0, 0, 0, 0, 0, 0, 0], "stateRewards": ["", 1, -1, 8, 4, 76, -33, -17, -3, -1, -54, -74, -2, 2, -5, 13, -51, 63, 83, 1, 84, 29, -36, 2, -1, 7, -12, -10, -44, -43, -14, 8, -69, 19], "withholdReward": false, "trial_id": "mdp_trial_35", "block": "test", "trialIndex": 36, "score": 81.55, "costs": -6.449999999999999, "simulationMode": [null, null, null, null, null], "rewards": [1, -1, 8, 4, 76], "path": ["0", "0", "1", "2", "3", "4", "5"], "rt": [10944, 174, 137, 500, 44], "actions": ["up", "up", "up", "right", "up"], "actionTimes": [15238, 15972, 16738, 17782, 18436], "queries": {"click": {"state": {"target": ["9", "5", "7"], "time": [6292, 9149, 12379]}, "edge": {"target": [], "time": []}}, "mouseover": {"state": {"target": ["11", "9", "5", "6", "7", "6"], "time": [5471, 5658, 7533, 9915, 11917, 13603]}, "edge": {"target": [], "time": []}}, "mouseout": {"state": {"target": ["33", "0", "11", "9", "5", "6", "7", "7", "6", "16", "15", "13"], "time": [847, 1331, 5587, 6526, 9761, 11756, 12589, 13419, 14108, 19761, 19830, 19995]}, "edge": {"target": [], "time": []}}}, "displayed_time": "19.01", "trialTime": 22524, "trial_type": "mouselab-mdp", "trial_index": 43, "time_elapsed": 1801450, "internal_node_id": "0.0-4.0-1.0-34.0"}}, {"uniqueid": "w86212523:a93969303", "current_trial": 44, "dateTime": 1691161309200, "trialdata": {"revealed_states": [], "clicked_states": ["11", "7", "5", "27", "32"], "num_clicks_accrued": [0, 0, 0, 0, 0, 0, 0, 0, 0, 0, 0, 0, 0], "stateRewards": ["", 1, -2, -3, 14, -42, -87, -37, -11, -50, 33, -44, -2, 4, -7, 13, 48, -75, -66, 12, 23, -2, 82, 1, -4, 3, 12, 51, -15, -26, -11, -52, -29, 82], "withholdReward": false, "trial_id": "mdp_trial_36", "block": "test", "trialIndex": 37, "score": 52.25, "costs": -10.75, "simulationMode": [null, null, null, null, null], "rewards": [1, -4, 3, 12, 51], "path": ["0", "0", "23", "24", "25", "26", "27"], "rt": [29372, 11657, 598, 367, 637], "actions": ["left", "left", "left", "up", "up"], "actionTimes": [33350, 46164, 47318, 48345, 49525], "queries": {"click": {"state": {"target": ["11", "7", "5", "27", "32"], "time": [6104, 10606, 14075, 18201, 21732]}, "edge": {"target": [], "time": []}}, "mouseover": {"state": {"target": ["11", "5", "7", "5", "9", "10", "28", "27", "25", "30", "32", "21"], "time": [5732, 7548, 9916, 11651, 14649, 15284, 15580, 15771, 19148, 19317, 19529, 22607]}, "edge": {"target": [], "time": []}}, "mouseout": {"state": {"target": ["0", "11", "5", "7", "5", "9", "10", "28", "27", "25", "30", "32", "21", "23"], "time": [5294, 6994, 9190, 11264, 14524, 15201, 15360, 15648, 18949, 19255, 19513, 21947, 25481, 51275]}, "edge": {"target": [], "time": []}}}, "displayed_time": "50.12", "trialTime": 52783, "trial_type": "mouselab-mdp", "trial_index": 44, "time_elapsed": 1857634, "internal_node_id": "0.0-4.0-1.0-35.0"}}, {"uniqueid": "w86212523:a93969303", "current_trial": 45, "dateTime": 1691161344204, "trialdata": {"revealed_states": [], "clicked_states": ["21", "20"], "num_clicks_accrued": [0, 0, 0, 0, 0, 0, 0, 0, 0, 0, 0, 0, 0], "stateRewards": ["", -2, -1, -3, -1, -78, -6, 2, -1, 22, -88, 32, 2, 2, -7, -8, -51, -17, 54, 2, -44, 54, 75, 2, -2, -8, -15, -29, 12, -67, 15, -1, -47, -47], "withholdReward": false, "trial_id": "mdp_trial_37", "block": "test", "trialIndex": 38, "score": 48.7, "costs": -4.3, "simulationMode": [null, null, null, null, null], "rewards": [2, 2, -7, 2, 54], "path": ["0", "0", "12", "13", "14", "19", "21"], "rt": [14858, 172, 2513, 891, 36], "actions": ["right", "right", "right", "down", "down"], "actionTimes": [18847, 19571, 22678, 24106, 24670], "queries": {"click": {"state": {"target": ["21", "20"], "time": [5591, 9220]}, "edge": {"target": [], "time": []}}, "mouseover": {"state": {"target": ["19", "21", "20", "20", "16"], "time": [4749, 5167, 6518, 6772, 10300]}, "edge": {"target": [], "time": []}}, "mouseout": {"state": {"target": ["0", "19", "21", "20", "20"], "time": [1236, 4803, 6503, 6644, 9837]}, "edge": {"target": [], "time": []}}}, "displayed_time": "25.64", "trialTime": 29152, "trial_type": "mouselab-mdp", "trial_index": 45, "time_elapsed": 1892727, "internal_node_id": "0.0-4.0-1.0-36.0"}}, {"uniqueid": "w86212523:a93969303", "current_trial": 46, "dateTime": 1691161383535, "trialdata": {"revealed_states": [], "clicked_states": [], "num_clicks_accrued": [0, 0, 0, 0, 0, 0, 0, 0, 0, 0, 0, 0, 0], "stateRewards": ["", -1, -1, 7, -15, -43, -21, -84, -9, -45, -66, 2, 1, -2, 2, 8, -27, 44, -52, -5, -84, 11, 53, 1, 4, -4, 16, 83, -82, -15, -16, 68, -43, 81], "withholdReward": false, "trial_id": "mdp_trial_38", "block": "test", "trialIndex": 39, "score": -94, "costs": 0, "simulationMode": [null, null, null, null, null], "rewards": [-1, -1, 7, -15, -84], "path": ["0", "0", "1", "2", "3", "4", "7"], "rt": [8834, 12, 33, 1022, 748], "actions": ["up", "up", "up", "right", "down"], "actionTimes": [19814, 20604, 21321, 22897, 24299], "queries": {"click": {"state": {"target": [], "time": []}, "edge": {"target": [], "time": []}}, "mouseover": {"state": {"target": ["0", "0", "12", "22", "21", "21", "21"], "time": [12565, 13909, 15624, 15702, 16042, 16349, 16875]}, "edge": {"target": [], "time": []}}, "mouseout": {"state": {"target": ["16", "0", "0", "0", "12", "22", "21", "21", "21"], "time": [6950, 12279, 12669, 15272, 15688, 15779, 16249, 16716, 29192]}, "edge": {"target": [], "time": []}}}, "displayed_time": "25.31", "trialTime": 34232, "trial_type": "mouselab-mdp", "trial_index": 46, "time_elapsed": 1932010, "internal_node_id": "0.0-4.0-1.0-37.0"}}, {"uniqueid": "w86212523:a93969303", "current_trial": 47, "dateTime": 1691161478050, "trialdata": {"revealed_states": [], "clicked_states": ["33", "32", "31", "21", "20", "22", "17", "16", "18", "6", "7", "5", "9", "11", "10", "28", "27", "29"], "num_clicks_accrued": [0, 0, 0, 0, 0, 0, 0, 0, 0, 0, 0, 0, 0], "stateRewards": ["", -2, -1, 3, -3, 71, -58, -21, 7, -10, -75, -37, 2, 4, -1, -12, -79, -29, -48, 3, -41, -10, -30, -1, -2, 1, -15, 13, 66, 22, -1, -42, -86, -55], "withholdReward": false, "trial_id": "mdp_trial_39", "block": "test", "trialIndex": 40, "score": 29.30000000000001, "costs": -38.69999999999999, "simulationMode": [null, null, null, null, null], "rewards": [-2, -1, 3, -3, 71], "path": ["0", "0", "1", "2", "3", "4", "5"], "rt": [68806, 165, 97, 950, 204], "actions": ["up", "up", "up", "right", "up"], "actionTimes": [75207, 79985, 80894, 82391, 83227], "queries": {"click": {"state": {"target": ["33", "32", "31", "21", "20", "22", "17", "16", "18", "6", "7", "5", "9", "11", "10", "28", "27", "29"], "time": [8487, 11576, 15834, 19483, 22342, 26111, 29403, 32236, 35566, 39016, 42685, 46214, 50041, 53264, 56510, 60198, 65676, 68903]}, "edge": {"target": [], "time": []}}, "mouseover": {"state": {"target": ["12", "30", "33", "32", "31", "21", "20", "19", "22", "22", "17", "16", "18", "4", "6", "7", "4", "5", "9", "11", "10", "28", "27", "29"], "time": [5852, 7341, 7625, 9716, 13443, 19424, 20387, 23464, 23691, 24547, 27979, 30550, 33163, 36240, 36737, 40055, 43558, 43841, 47551, 51031, 54028, 57707, 61143, 66687]}, "edge": {"target": [], "time": []}}, "mouseout": {"state": {"target": ["12", "30", "33", "32", "31", "31", "21", "20", "19", "22", "22", "17", "16", "18", "4", "6", "6", "7", "4", "5", "9", "9", "11", "10", "28", "27", "29"], "time": [7147, 7523, 8592, 13167, 17925, 18110, 19688, 23417, 23676, 23813, 27468, 30296, 33071, 36164, 36517, 39266, 39839, 43454, 43667, 47538, 50212, 50883, 53760, 57300, 61016, 66434, 69801]}, "edge": {"target": [], "time": []}}}, "displayed_time": "83.91", "trialTime": 88986, "trial_type": "mouselab-mdp", "trial_index": 47, "time_elapsed": 2026385, "internal_node_id": "0.0-4.0-1.0-38.0"}}, {"uniqueid": "w86212523:a93969303", "current_trial": 48, "dateTime": 1691161687797, "trialdata": {"revealed_states": [], "clicked_states": [], "num_clicks_accrued": [0, 0, 0, 0, 0, 0, 0, 0, 0, 0, 0, 0, 0], "stateRewards": ["", 1, -2, -8, -3, 31, -84, -55, -14, 15, -58, 17, -2, -3, 7, 7, -12, 48, 67, 4, -44, -68, 46, 2, 3, -5, -7, 76, 27, 5, 11, 57, 52, 59], "withholdReward": false, "trial_id": "mdp_trial_40", "block": "test", "trialIndex": 41, "score": -96, "costs": 0, "simulationMode": [null, null, null, null, null], "rewards": [1, -2, -8, -3, -84], "path": ["0", "0", "1", "2", "3", "4", "6"], "rt": [172371, 5558, 3567, 1531, 335], "actions": ["up", "up", "up", "right", "right"], "actionTimes": [183045, 189180, 193380, 195454, 196495], "queries": {"click": {"state": {"target": [], "time": []}, "edge": {"target": [], "time": []}}, "mouseover": {"state": {"target": ["28", "2", "3", "2", "1", "12"], "time": [96187, 130738, 141967, 142123, 142297, 150827]}, "edge": {"target": [], "time": []}}, "mouseout": {"state": {"target": ["24", "0", "28", "2", "3", "2", "1", "12"], "time": [4699, 96162, 130722, 132120, 142061, 142281, 142366, 151064]}, "edge": {"target": [], "time": []}}}, "displayed_time": "197.05", "trialTime": 200524, "trial_type": "mouselab-mdp", "trial_index": 48, "time_elapsed": 2236320, "internal_node_id": "0.0-4.0-1.0-39.0"}}, {"uniqueid": "w86212523:a93969303", "current_trial": 49, "dateTime": 1691161755351, "trialdata": {"rt": 66661, "response": {"Q0": "$-2 to $2", "Q1": "$-4 to $4", "Q2": "$-88 to $88", "Q3": "The cost for clicking on nodes varied between nodes.", "Q4": "Very motivated"}, "question_order": [0, 1, 2, 3, 4], "trial_id": "final_quiz_control", "trial_type": "survey-multi-choice", "trial_index": 49, "time_elapsed": 2303875, "internal_node_id": "0.0-4.0-2.0"}}, {"uniqueid": "w86212523:a93969303", "current_trial": 50, "dateTime": 1691162002311, "trialdata": {"rt": 246069, "response": {"Q0": "the strategy was to click the first step and see the value it has, and if it was positive i would advance through that step. I would sometimes click the last node to see it value, if it is high, i made it my final stop.", "Q1": "i used the same strategy again and again all throughout the game.", "Q2": "it was very difficult. the value of nodes was unpredictable and sometimes time would run out before i could click to see the value."}, "trial_id": "self_report_control", "trial_type": "survey-text", "trial_index": 50, "time_elapsed": 2550821, "internal_node_id": "0.0-4.0-3.0"}}, {"uniqueid": "w86212523:a93969303", "current_trial": 51, "dateTime": 1691162110613, "trialdata": {"rt": 107549, "response": {"Q0": "Agree", "Q1": "Agree", "Q2": "Neither disagree nor agree", "Q3": "Agree", "Q4": "Neither disagree nor agree", "Q5": "Strongly agree", "Q6": "Strongly disagree"}, "question_order": [0, 1, 2, 3, 4, 5, 6], "trial_id": "self_report_2", "trial_type": "survey-multi-choice", "trial_index": 51, "time_elapsed": 2659139, "internal_node_id": "0.0-4.0-4.0"}}, {"uniqueid": "w86212523:a93969303", "current_trial": 52, "dateTime": 1691162156099, "trialdata": {"rt": 43692, "response": {"gender": "female", "age": "25", "colorblind": "0", "effort": "0"}, "trial_type": "survey-html-form", "trial_index": 52, "time_elapsed": 2704624, "internal_node_id": "0.0-4.0-5.0"}}, {"uniqueid": "w86212523:a93969303", "current_trial": 53, "dateTime": 1691162271660, "trialdata": {"rt": 115398, "response": {"Q0": "the instructions were clear making the game easy and fun.", "Q1": "no, I've never participated in this kind before", "Q2": ""}, "trial_type": "survey-text", "trial_index": 53, "time_elapsed": 2820186, "internal_node_id": "0.0-4.0-6.0"}}, {"uniqueid": "w86212523:a93969303", "current_trial": 54, "dateTime": 1691162276871, "trialdata": {"rt": 5059, "stimulus": "Press 'Finish HIT' in order to reach the completion code. Once the data has been saved, you will receive the code either in this window or in the original browser window where you started the experiment.\n", "response": 0, "trial_type": "html-button-response", "trial_index": 54, "time_elapsed": 2825396, "internal_node_id": "0.0-5.0"}}, {"uniqueid": "w86212523:a93969303", "current_trial": 55, "dateTime": 1691162277907, "trialdata": {"success": true, "trial_type": "fullscreen", "trial_index": 55, "time_elapsed": 2826432, "internal_node_id": "0.0-6.0"}}], "questiondata": {"params": {"CODE": "C6DMOQA6", "MIN_TIME": 14, "inspectCost": 1, "startTime": "Fri Aug 04 2023 16:30:42 GMT+0200 (South Africa Standard Time)", "bonusRate": 0.002, "variance": "1_2_4_8_44", "branching": "31123"}, "final_score": 1233}, "eventdata": [{"eventtype": "initialized", "value": null, "timestamp": 1691159439492, "interval": 0}, {"eventtype": "window_resize", "value": [1024, 654], "timestamp": 1691159439493, "interval": 1}, {"eventtype": "window_resize", "value": [1024, 654], "timestamp": 1691159442535, "interval": 3042}, {"eventtype": "window_resize", "value": [1366, 768], "timestamp": 1691159461459, "interval": 18924}, {"eventtype": "focus", "value": "off", "timestamp": 1691161583472, "interval": 2122013}, {"eventtype": "focus", "value": "on", "timestamp": 1691161585201, "interval": 1729}, {"eventtype": "window_resize", "value": [1024, 654], "timestamp": 1691161592197, "interval": 6996}, {"eventtype": "window_resize", "value": [1366, 670], "timestamp": 1691161626120, "interval": 33923}], "useragent": "Mozilla/5.0 (Windows NT 10.0; Win64; x64) AppleWebKit/537.36 (KHTML, like Gecko) Chrome/115.0.0.0 Safari/537.36", "mode": "live", "id": "w86212523:a93969303", "status": "user data saved", "Beginhit": "2023-08-04 14:30:22.402824", "Beginexp": "2023-08-04 14:31:02.462436", "Endhit": "2023-08-04 15:17:59.619171", "psiturkStatus": 3, "browser": "<redacted>", "platform": "windows", "language": "en-US"}