{"condition": 0, "counterbalance": 0, "assignmentId": "a61621044", "workerId": "w31498988", "hitId": "h10667022", "currenttrial": 11, "bonus": 0, "data": [{"uniqueid": "w31498988:a61621044", "current_trial": 0, "dateTime": 1693834175388, "trialdata": {"success": true, "trial_type": "fullscreen", "trial_index": 0, "time_elapsed": 1549, "internal_node_id": "0.0-0.0"}}, {"uniqueid": "w31498988:a61621044", "current_trial": 1, "dateTime": 1693834176238, "trialdata": {"view_history": [{"page_index": 0, "viewing_time": 846}], "rt": 846, "trial_id": "exp_instructions_misaligned", "trial_type": "instructions", "trial_index": 1, "time_elapsed": 2399, "internal_node_id": "0.0-1.0"}}, {"uniqueid": "w31498988:a61621044", "current_trial": 2, "dateTime": 1693834181317, "trialdata": {"view_history": [{"page_index": 0, "viewing_time": 2097}, {"page_index": 1, "viewing_time": 971}, {"page_index": 2, "viewing_time": 951}, {"page_index": 3, "viewing_time": 1059}], "rt": 5078, "trial_id": "mouselab_instructions_1_misaligned", "trial_type": "instructions", "trial_index": 2, "time_elapsed": 7478, "internal_node_id": "0.0-2.0-1.0"}}, {"uniqueid": "w31498988:a61621044", "current_trial": 3, "dateTime": 1693834188845, "trialdata": {"revealed_states": [], "clicked_states": ["12", "13"], "num_clicks_accrued": [0, 0, 0, 0, 0, 0, 0, 0, 0, 0, 0, 0, 0], "stateRewards": ["", -10, -10, -10, 10, -10, -10, 10, 10, -10, 10, -10, -10, 10, 10, 10, -10, 10, 10, 10, 10, 10, -10, 10, 10, 10, -10, 10, 10, -10, 10, 10, -10, 10], "withholdReward": false, "trial_id": "practice_1", "block": "test", "trialIndex": 0, "score": 12.5, "costs": -1, "simulationMode": [null, null, null, null, null, null], "rewards": [-10, 10, 10, 10, -10], "path": ["0", "0", "12", "13", "14", "15", "16"], "rt": [1918, 187, 132, 124, 107, 392], "actions": ["right", "right", "right", "right", "up", "up"], "actionTimes": [2990, 3179, 3836, 4475, 5092, 6011], "queries": {"click": {"state": {"target": ["12", "13"], "time": [1601, 2658]}, "edge": {"target": [], "time": []}}, "mouseover": {"state": {"target": ["12", "13"], "time": [1503, 1940]}, "edge": {"target": [], "time": []}}, "mouseout": {"state": {"target": ["12", "13", "13", "14"], "time": [1767, 3035, 3468, 4668]}, "edge": {"target": [], "time": []}}}, "displayed_time": "6.53", "trialTime": 7195, "trial_type": "mouselab-mdp", "trial_index": 3, "time_elapsed": 15006, "internal_node_id": "0.0-2.0-2.0-0.0"}}, {"uniqueid": "w31498988:a61621044", "current_trial": 4, "dateTime": 1693834193701, "trialdata": {"revealed_states": [], "clicked_states": [], "num_clicks_accrued": [0, 0, 0, 0, 0, 0, 0, 0, 0, 0, 0, 0, 0], "stateRewards": ["", -10, 10, -10, -10, 10, -10, 10, 10, 10, 10, -10, 10, -10, -10, 10, 10, -10, 10, 10, -10, -10, -10, 10, -10, -10, -10, -10, 10, 10, 10, 10, -10, -10], "withholdReward": false, "trial_id": "practice_2", "block": "test", "trialIndex": 1, "score": 13.5, "costs": 0, "simulationMode": [null, null, null, null, null], "rewards": [10, -10, -10, 10, 10], "path": ["0", "0", "12", "13", "14", "15", "16"], "rt": [713, 129, 141, 101, 131], "actions": ["right", "right", "right", "up", "up"], "actionTimes": [1427, 2067, 2715, 3339, 3986], "queries": {"click": {"state": {"target": [], "time": []}, "edge": {"target": [], "time": []}}, "mouseover": {"state": {"target": ["12", "13", "14"], "time": [807, 841, 889]}, "edge": {"target": [], "time": []}}, "mouseout": {"state": {"target": ["13", "12", "0", "23", "0", "12", "13"], "time": [39, 158, 206, 490, 773, 840, 873]}, "edge": {"target": [], "time": []}}}, "displayed_time": "4.50", "trialTime": 4610, "trial_type": "mouselab-mdp", "trial_index": 4, "time_elapsed": 19862, "internal_node_id": "0.0-2.0-2.0-1.0"}}, {"uniqueid": "w31498988:a61621044", "current_trial": 5, "dateTime": 1693834196567, "trialdata": {"view_history": [{"page_index": 0, "viewing_time": 1958}, {"page_index": 1, "viewing_time": 906}], "rt": 2864, "trial_id": "mouselab_instructions_2_misaligned", "trial_type": "instructions", "trial_index": 5, "time_elapsed": 22728, "internal_node_id": "0.0-2.0-3.0"}}, {"uniqueid": "w31498988:a61621044", "current_trial": 6, "dateTime": 1693834202458, "trialdata": {"rt": 5888, "response": {"Q0": "The cost for clicking on nodes may vary between nodes.", "Q1": "The better I perform the higher my bonus will be.", "Q2": "No, the amount of cash at each node of the web may be different each time.", "Q3": "To get the highest total score.", "Q4": "Only before moving the spider.", "Q5": "3 seconds"}, "question_order": [0, 1, 2, 3, 4, 5], "correct": {"Q0": "The cost for clicking on nodes may vary between nodes.", "Q1": "The better I perform the higher my bonus will be.", "Q2": "No, the amount of cash at each node of the web may be different each time.", "Q3": "To get the highest total score.", "Q4": "Only before moving the spider.", "Q5": "3 seconds"}, "trial_id": "mouselab_quiz_misaligned", "trial_type": "survey-multi-choice", "trial_index": 6, "time_elapsed": 28619, "internal_node_id": "0.0-2.0-4.0"}}, {"uniqueid": "w31498988:a61621044", "current_trial": 7, "dateTime": 1693834204188, "trialdata": {"rt": 1722, "response": {"Q0": "Not sure"}, "question_order": [0], "trial_id": "repeat_check", "trial_type": "survey-multi-choice", "trial_index": 7, "time_elapsed": 30349, "internal_node_id": "0.0-4.0-0.0"}}, {"uniqueid": "w31498988:a61621044", "current_trial": 8, "dateTime": 1693834205321, "trialdata": {"rt": 1125, "stimulus": "\n<h1> Get ready to start the game! </h1>\n\nThank you for reading the instructions. Get ready start with the 40 rounds of this game.\n<br><br>\nIf you need to take a break, feel free to take one after the end of a round, before continuing to the next one.\n<br><br>\nRemember, the more money the spider gets, the bigger your bonus will be!\n<br><br>\n<div style='text-align: center;'>Press <code>space</code> to begin.</div>\n\n<br><br>\n(If, at any point, the <code>space</code> key does not take you to the next page, click once on the text and try again.)", "response": " ", "trial_id": "mdp_ready", "trial_type": "html-keyboard-response", "trial_index": 8, "time_elapsed": 31482, "internal_node_id": "0.0-6.0-0.0"}}, {"uniqueid": "w31498988:a61621044", "current_trial": 9, "dateTime": 1693834220472, "trialdata": {"revealed_states": [], "clicked_states": ["12", "1", "28", "27"], "num_clicks_accrued": [0, 0, 0, 0, 0, 0, 0, 0, 0, 0, 0, 0, 0], "stateRewards": ["", 1, -4, -6, 11, -20, 8, -30, 1, -38, 88, 42, 2, 3, 5, -12, -8, -74, 30, -8, 67, -19, 42, 2, -1, 4, 13, 50, -68, 2, -8, -15, 87, -46], "withholdReward": false, "trial_id": "mdp_trial_1", "block": "test", "trialIndex": 2, "score": 64.2, "costs": -3.8, "simulationMode": [null, null, null, null, null], "rewards": [2, -1, 4, 13, 50], "path": ["0", "0", "23", "24", "25", "26", "27"], "rt": [9031, 45, 131, 130, 135], "actions": ["left", "left", "left", "up", "up"], "actionTimes": [9493, 10052, 10715, 11363, 12019], "queries": {"click": {"state": {"target": ["12", "1", "28", "27"], "time": [987, 1445, 2596, 5577]}, "edge": {"target": [], "time": []}}, "mouseover": {"state": {"target": ["12", "12", "1", "23", "28", "26", "27", "25"], "time": [556, 926, 1256, 1790, 2472, 2855, 3037, 8553]}, "edge": {"target": [], "time": []}}, "mouseout": {"state": {"target": ["7", "12", "0", "12", "12", "1", "1", "23", "28", "26", "27", "28", "25", "31"], "time": [5, 156, 507, 608, 1206, 1505, 1705, 1838, 2770, 2887, 5822, 8237, 13084, 13281]}, "edge": {"target": [], "time": []}}}, "displayed_time": "14.47", "trialTime": 14843, "trial_type": "mouselab-mdp", "trial_index": 9, "time_elapsed": 46632, "internal_node_id": "0.0-6.0-1.0-0.0"}}, {"uniqueid": "w31498988:a61621044", "current_trial": 10, "dateTime": 1693834235624, "trialdata": {"revealed_states": [], "clicked_states": ["18", "15", "14", "13", "12"], "num_clicks_accrued": [0, 0, 0, 0, 0, 0, 0, 0, 0, 0, 0, 0, 0], "stateRewards": ["", -1, 2, -7, -12, -62, 12, -13, 5, 77, -71, 83, 1, -4, 7, 15, -42, -87, -4, 5, -25, 44, 88, -1, 4, -5, -8, 14, 51, 8, -5, 83, -24, -19], "withholdReward": false, "trial_id": "mdp_trial_2", "block": "test", "trialIndex": 3, "score": -72.75, "costs": -4.75, "simulationMode": [null, null, null, null, null], "rewards": [1, -4, 7, 15, -87], "path": ["0", "0", "12", "13", "14", "15", "17"], "rt": [5691, 100, 138, 21, 21], "actions": ["right", "right", "right", "up", "right"], "actionTimes": [6250, 6878, 7533, 8050, 8593], "queries": {"click": {"state": {"target": ["18", "15", "14", "13", "12"], "time": [1453, 4228, 4684, 5084, 5540]}, "edge": {"target": [], "time": []}}, "mouseover": {"state": {"target": ["0", "12", "13", "18", "15", "15", "14", "13", "12"], "time": [595, 660, 997, 1364, 1663, 1997, 4575, 4974, 5457]}, "edge": {"target": [], "time": []}}, "mouseout": {"state": {"target": ["1", "0", "12", "13", "18", "15", "15", "14", "13", "12", "12", "22"], "time": [344, 629, 713, 1030, 1595, 1725, 4541, 4957, 5391, 5690, 11338, 14771]}, "edge": {"target": [], "time": []}}}, "displayed_time": "14.56", "trialTime": 14874, "trial_type": "mouselab-mdp", "trial_index": 10, "time_elapsed": 61784, "internal_node_id": "0.0-6.0-1.0-1.0"}}], "questiondata": {"params": {"CODE": "C6DMOQA6", "MIN_TIME": 14, "inspectCost": 1, "startTime": "Mon Sep 04 2023 15:29:32 GMT+0200 (Central European Summer Time)", "bonusRate": 0.002, "variance": "1_2_4_8_44", "branching": "31123"}}, "eventdata": [{"eventtype": "initialized", "value": null, "timestamp": 1693834171797, "interval": 0}, {"eventtype": "window_resize", "value": [1024, 738], "timestamp": 1693834171798, "interval": 1}, {"eventtype": "window_resize", "value": [1024, 738], "timestamp": 1693834172165, "interval": 367}, {"eventtype": "window_resize", "value": [1440, 900], "timestamp": 1693834174677, "interval": 2512}], "useragent": "Mozilla/5.0 (Macintosh; Intel Mac OS X 10_15_7) AppleWebKit/537.36 (KHTML, like Gecko) Chrome/115.0.0.0 Safari/537.36", "mode": "debug", "id": "w31498988:a61621044", "status": "user data saved", "Beginhit": "2023-09-04 13:29:29.596852", "Beginexp": "2023-09-04 13:29:35.550629", "Endhit": null, "psiturkStatus": 2, "browser": "<redacted>", "platform": "macos", "language": "en-US", "excludeReason": "dataincomplete"}