{"condition": 0, "counterbalance": 0, "assignmentId": "a73089788", "workerId": "w44956376", "hitId": "h31784240", "currenttrial": 55, "bonus": 0, "data": [{"uniqueid": "w44956376:a73089788", "current_trial": 0, "dateTime": 1693481028231, "trialdata": {"success": true, "trial_type": "fullscreen", "trial_index": 0, "time_elapsed": 17062, "internal_node_id": "0.0-0.0"}}, {"uniqueid": "w44956376:a73089788", "current_trial": 1, "dateTime": 1693481054237, "trialdata": {"view_history": [{"page_index": 0, "viewing_time": 25975}], "rt": 25979, "trial_id": "exp_instructions_control", "trial_type": "instructions", "trial_index": 1, "time_elapsed": 43071, "internal_node_id": "0.0-1.0"}}, {"uniqueid": "w44956376:a73089788", "current_trial": 2, "dateTime": 1693481345582, "trialdata": {"view_history": [{"page_index": 0, "viewing_time": 134529}, {"page_index": 1, "viewing_time": 98309}, {"page_index": 2, "viewing_time": 19618}, {"page_index": 3, "viewing_time": 38867}], "rt": 291324, "trial_id": "mouselab_instructions_1_control", "trial_type": "instructions", "trial_index": 2, "time_elapsed": 334416, "internal_node_id": "0.0-2.0-1.0"}}, {"uniqueid": "w44956376:a73089788", "current_trial": 3, "dateTime": 1693481427072, "trialdata": {"revealed_states": [], "clicked_states": ["12", "13", "14", "19", "21", "20", "23", "24", "25", "30", "26", "1", "2", "7"], "num_clicks_accrued": [0, 0, 0, 0, 0, 0, 0, 0, 0, 0, 0, 0, 0], "stateRewards": ["", 10, -10, -10, 10, -10, -10, -10, -10, 10, 10, 10, 10, 10, 10, -10, 10, 10, -10, 10, 10, 10, -10, -10, 10, -10, 10, -10, 10, 10, -10, 10, -10, -10], "withholdReward": false, "trial_id": "practice_1", "block": "test", "trialIndex": 0, "score": -13.5, "costs": -7, "simulationMode": [null, null, null, null, null], "rewards": [10, -10, -10, 10, -10], "path": ["0", "0", "1", "2", "3", "4", "7"], "rt": [35768, 622, 1325, 5507, 1448], "actions": ["up", "up", "up", "right", "down"], "actionTimes": [50903, 52056, 53932, 59999, 62006], "queries": {"click": {"state": {"target": ["12", "13", "14", "19", "21", "20", "23", "24", "25", "30", "26", "1", "2", "7"], "time": [17828, 19808, 21855, 22979, 24390, 27081, 33774, 35593, 37098, 38941, 41852, 43598, 45644, 48898]}, "edge": {"target": [], "time": []}}, "mouseover": {"state": {"target": ["12", "13", "14", "19", "21", "20", "12", "0", "0", "12", "13", "14", "14", "13", "0", "23", "24", "25", "30", "26", "26", "12", "1", "2", "7"], "time": [16477, 18983, 20811, 22468, 23653, 26518, 28679, 28729, 29703, 29817, 30199, 30358, 31023, 32433, 32545, 33356, 34977, 36514, 38248, 41079, 41413, 42579, 42936, 44609, 46727]}, "edge": {"target": [], "time": []}}, "mouseout": {"state": {"target": ["14", "13", "12", "0", "12", "13", "14", "19", "21", "20", "12", "0", "0", "12", "13", "14", "14", "13", "0", "23", "24", "25", "25", "30", "26", "26", "12", "1", "2", "7", "3", "4", "4", "6"], "time": [1089, 12973, 13010, 16350, 18776, 20626, 22358, 23562, 26367, 28157, 28715, 28763, 29790, 30171, 30239, 30690, 32386, 32495, 32765, 34945, 35789, 37313, 38120, 41015, 41118, 42487, 42867, 44477, 46522, 54825, 55025, 66480, 75224, 75275]}, "edge": {"target": [], "time": []}}}, "displayed_time": "62.54", "trialTime": 79707, "trial_type": "mouselab-mdp", "trial_index": 3, "time_elapsed": 415904, "internal_node_id": "0.0-2.0-2.0-0.0"}}, {"uniqueid": "w44956376:a73089788", "current_trial": 4, "dateTime": 1693481512582, "trialdata": {"revealed_states": [], "clicked_states": [], "num_clicks_accrued": [0, 0, 0, 0, 0, 0, 0, 0, 0, 0, 0, 0, 0], "stateRewards": ["", 10, -10, 10, -10, 10, -10, 10, -10, 10, -10, 10, 10, 10, 10, 10, 10, 10, -10, 10, 10, 10, -10, -10, -10, 10, 10, -10, -10, -10, -10, 10, 10, 10], "withholdReward": false, "trial_id": "practice_2", "block": "test", "trialIndex": 1, "score": 53.5, "costs": 0, "simulationMode": [null, null, null, null, null], "rewards": [10, 10, 10, 10, 10], "path": ["0", "0", "12", "13", "14", "19", "21"], "rt": [1718, 902, 495, 136, 8], "actions": ["right", "right", "right", "down", "down"], "actionTimes": [33815, 35267, 36324, 37005, 37564], "queries": {"click": {"state": {"target": [], "time": []}, "edge": {"target": [], "time": []}}, "mouseover": {"state": {"target": [], "time": []}, "edge": {"target": [], "time": []}}, "mouseout": {"state": {"target": ["12", "0", "12", "17"], "time": [30503, 43704, 43739, 43804]}, "edge": {"target": [], "time": []}}}, "displayed_time": "38.13", "trialTime": 83988, "trial_type": "mouselab-mdp", "trial_index": 4, "time_elapsed": 501415, "internal_node_id": "0.0-2.0-2.0-1.0"}}, {"uniqueid": "w44956376:a73089788", "current_trial": 5, "dateTime": 1693481577801, "trialdata": {"view_history": [{"page_index": 0, "viewing_time": 46237}, {"page_index": 1, "viewing_time": 18969}], "rt": 65208, "trial_id": "mouselab_instructions_2_control", "trial_type": "instructions", "trial_index": 5, "time_elapsed": 566635, "internal_node_id": "0.0-2.0-3.0"}}, {"uniqueid": "w44956376:a73089788", "current_trial": 6, "dateTime": 1693481756780, "trialdata": {"rt": 178842, "response": {"Q0": "The cost for clicking on nodes may vary between nodes.", "Q1": "The better I perform the higher my bonus will be.", "Q2": "No, the amount of cash at each node of the web may be different each time.", "Q3": "To get the highest total score.", "Q4": "Only before moving the spider.", "Q5": "3 seconds"}, "question_order": [0, 1, 2, 3, 4, 5], "correct": {"Q0": "The cost for clicking on nodes may vary between nodes.", "Q1": "The better I perform the higher my bonus will be.", "Q2": "No, the amount of cash at each node of the web may be different each time.", "Q3": "To get the highest total score.", "Q4": "Only before moving the spider.", "Q5": "3 seconds"}, "trial_id": "mouselab_quiz_control", "trial_type": "survey-multi-choice", "trial_index": 6, "time_elapsed": 745614, "internal_node_id": "0.0-2.0-4.0"}}, {"uniqueid": "w44956376:a73089788", "current_trial": 7, "dateTime": 1693481772318, "trialdata": {"rt": 15514, "response": {"Q0": "No"}, "question_order": [0], "trial_id": "repeat_check", "trial_type": "survey-multi-choice", "trial_index": 7, "time_elapsed": 761151, "internal_node_id": "0.0-4.0-0.0"}}, {"uniqueid": "w44956376:a73089788", "current_trial": 8, "dateTime": 1693481785031, "trialdata": {"rt": 12690, "stimulus": "\n<h1> Get ready to start the game! </h1>\n\nThank you for reading the instructions. Get ready start with the 40 rounds of this game.\n<br><br>\nIf you need to take a break, feel free to take one after the end of a round, before continuing to the next one.\n<br><br>\nRemember, the more money the spider gets, the bigger your bonus will be!\n<br><br>\n<div style='text-align: center;'>Press <code>space</code> to begin.</div>\n\n<br><br>\n(If, at any point, the <code>space</code> key does not take you to the next page, click once on the text and try again.)", "response": " ", "trial_id": "mdp_ready", "trial_type": "html-keyboard-response", "trial_index": 8, "time_elapsed": 773865, "internal_node_id": "0.0-6.0-0.0"}}, {"uniqueid": "w44956376:a73089788", "current_trial": 9, "dateTime": 1693481812549, "trialdata": {"revealed_states": [], "clicked_states": [], "num_clicks_accrued": [0, 0, 0, 0, 0, 0, 0, 0, 0, 0, 0, 0, 0], "stateRewards": ["", 1, -1, 4, 5, -32, 18, 20, 6, -88, -74, 9, -2, 1, -2, -14, 34, -77, -38, -1, 80, -36, 73, 2, 3, -8, 10, -48, -73, -71, -11, -22, 20, 54], "withholdReward": false, "trial_id": "mdp_trial_1", "block": "test", "trialIndex": 2, "score": -40, "costs": 0, "simulationMode": [null, null, null, null, null], "rewards": [-2, 1, -2, -1, -36], "path": ["0", "0", "12", "13", "14", "19", "21"], "rt": [1163, 532, 505, 518, 30], "actions": ["right", "right", "right", "down", "down"], "actionTimes": [8226, 9308, 10390, 11462, 12033], "queries": {"click": {"state": {"target": [], "time": []}, "edge": {"target": [], "time": []}}, "mouseover": {"state": {"target": [], "time": []}, "edge": {"target": [], "time": []}}, "mouseout": {"state": {"target": ["23"], "time": [4958]}, "edge": {"target": [], "time": []}}}, "displayed_time": "21.07", "trialTime": 26008, "trial_type": "mouselab-mdp", "trial_index": 9, "time_elapsed": 801382, "internal_node_id": "0.0-6.0-1.0-0.0"}}, {"uniqueid": "w44956376:a73089788", "current_trial": 10, "dateTime": 1693481837300, "trialdata": {"revealed_states": [], "clicked_states": [], "num_clicks_accrued": [0, 0, 0, 0, 0, 0, 0, 0, 0, 0, 0, 0, 0], "stateRewards": ["", -1, -4, -1, -5, -28, -23, -15, -15, -38, 59, -87, 2, 2, -5, 9, -55, -39, -71, -6, 85, -85, -11, -1, -2, 5, -10, 1, 25, 41, -4, 69, -35, 86], "withholdReward": false, "trial_id": "mdp_trial_2", "block": "test", "trialIndex": 3, "score": -34, "costs": 0, "simulationMode": [null, null, null, null, null], "rewards": [-1, -4, -1, -5, -23], "path": ["0", "0", "1", "2", "3", "4", "6"], "rt": [2099, 457, 609, 796, 3150], "actions": ["up", "up", "up", "right", "right"], "actionTimes": [5214, 6220, 7395, 8740, 12424], "queries": {"click": {"state": {"target": [], "time": []}, "edge": {"target": [], "time": []}}, "mouseover": {"state": {"target": ["1"], "time": [4076]}, "edge": {"target": [], "time": []}}, "mouseout": {"state": {"target": ["0", "1", "17"], "time": [1557, 18783, 19411]}, "edge": {"target": [], "time": []}}}, "displayed_time": "17.12", "trialTime": 23177, "trial_type": "mouselab-mdp", "trial_index": 10, "time_elapsed": 826132, "internal_node_id": "0.0-6.0-1.0-1.0"}}, {"uniqueid": "w44956376:a73089788", "current_trial": 11, "dateTime": 1693481873186, "trialdata": {"revealed_states": [], "clicked_states": [], "num_clicks_accrued": [0, 0, 0, 0, 0, 0, 0, 0, 0, 0, 0, 0, 0], "stateRewards": ["", 1, 2, 3, 16, 63, -25, 16, -4, -14, 82, -66, -1, -3, -3, -11, -14, 19, 46, 3, -34, -82, 66, -2, -3, 4, -5, -63, 77, -37, -1, -45, -41, 84], "withholdReward": false, "trial_id": "mdp_trial_3", "block": "test", "trialIndex": 4, "score": 71, "costs": 0, "simulationMode": [null, null, null, null, null], "rewards": [-2, -3, 4, -5, 77], "path": ["0", "0", "23", "24", "25", "26", "28"], "rt": [2463, 493, 477, 822, 1586], "actions": ["left", "left", "left", "up", "right"], "actionTimes": [6254, 7306, 8438, 9828, 11956], "queries": {"click": {"state": {"target": [], "time": []}, "edge": {"target": [], "time": []}}, "mouseover": {"state": {"target": ["0"], "time": [5263]}, "edge": {"target": [], "time": []}}, "mouseout": {"state": {"target": ["17", "15", "0", "0", "0", "13"], "time": [1195, 1229, 1663, 4791, 17258, 17317]}, "edge": {"target": [], "time": []}}}, "displayed_time": "17.80", "trialTime": 34167, "trial_type": "mouselab-mdp", "trial_index": 11, "time_elapsed": 862019, "internal_node_id": "0.0-6.0-1.0-2.0"}}, {"uniqueid": "w44956376:a73089788", "current_trial": 12, "dateTime": 1693481897825, "trialdata": {"revealed_states": [], "clicked_states": [], "num_clicks_accrued": [0, 0, 0, 0, 0, 0, 0, 0, 0, 0, 0, 0, 0], "stateRewards": ["", -2, -1, -3, -1, -78, -6, 2, -1, 22, -88, 32, 2, 2, -7, -8, -51, -17, 54, 2, -44, 54, 75, 2, -2, -8, -15, -29, 12, -67, 15, -1, -47, -47], "withholdReward": false, "trial_id": "mdp_trial_4", "block": "test", "trialIndex": 5, "score": -62, "costs": 0, "simulationMode": [null, null, null, null, null], "rewards": [2, 2, -7, -8, -51], "path": ["0", "0", "12", "13", "14", "15", "16"], "rt": [6453, 256, 580, 534, 198], "actions": ["right", "right", "right", "up", "up"], "actionTimes": [13917, 14730, 15873, 16969, 17729], "queries": {"click": {"state": {"target": [], "time": []}, "edge": {"target": [], "time": []}}, "mouseover": {"state": {"target": ["12", "13", "14", "14", "13", "12", "0"], "time": [10345, 10432, 10530, 11039, 11172, 11274, 12934]}, "edge": {"target": [], "time": []}}, "mouseout": {"state": {"target": ["14", "13", "12", "0", "12", "13", "14", "14", "13", "12"], "time": [5534, 5799, 5836, 10307, 10394, 10484, 10840, 11106, 11222, 11737]}, "edge": {"target": [], "time": []}}}, "displayed_time": "21.47", "trialTime": 23098, "trial_type": "mouselab-mdp", "trial_index": 12, "time_elapsed": 886658, "internal_node_id": "0.0-6.0-1.0-3.0"}}, {"uniqueid": "w44956376:a73089788", "current_trial": 13, "dateTime": 1693481929756, "trialdata": {"revealed_states": [], "clicked_states": ["15", "18", "17", "14", "13"], "num_clicks_accrued": [0, 0, 0, 0, 0, 0, 0, 0, 0, 0, 0, 0, 0], "stateRewards": ["", 2, 4, 4, 9, -88, -10, 44, 16, -54, 64, 78, 1, 2, 5, 16, 80, 36, 7, -4, 9, -47, -70, -1, -3, 6, -16, 11, 80, 28, 8, -1, 34, -17], "withholdReward": false, "trial_id": "mdp_trial_5", "block": "test", "trialIndex": 6, "score": -10, "costs": -7, "simulationMode": [null, null, null, null, null], "rewards": [-1, -3, 6, -16, 11], "path": ["0", "0", "23", "24", "25", "26", "27"], "rt": [20202, 18, 22, 550, 846], "actions": ["left", "left", "left", "up", "up"], "actionTimes": [23468, 24070, 24620, 25707, 27107], "queries": {"click": {"state": {"target": ["15", "18", "17", "14", "13"], "time": [4977, 7270, 10820, 12780, 15457]}, "edge": {"target": [], "time": []}}, "mouseover": {"state": {"target": ["18", "15", "15", "18", "16", "17", "14", "14", "13", "13", "13", "12", "0", "23", "0", "12", "0"], "time": [4023, 4111, 4404, 6577, 8099, 10238, 11944, 12222, 13663, 13996, 14942, 16229, 17851, 19734, 21962, 22058, 22406]}, "edge": {"target": [], "time": []}}, "mouseout": {"state": {"target": ["0", "18", "15", "15", "18", "16", "17", "14", "14", "13", "13", "13", "12", "0", "23", "0", "12"], "time": [3940, 4060, 4151, 6466, 8048, 10142, 11034, 11977, 13607, 13921, 14250, 16177, 17769, 19681, 21924, 22000, 22323]}, "edge": {"target": [], "time": []}}}, "displayed_time": "27.66", "trialTime": 30325, "trial_type": "mouselab-mdp", "trial_index": 13, "time_elapsed": 918588, "internal_node_id": "0.0-6.0-1.0-4.0"}}, {"uniqueid": "w44956376:a73089788", "current_trial": 14, "dateTime": 1693481999714, "trialdata": {"revealed_states": [], "clicked_states": ["1", "2", "7", "4", "6", "8", "3"], "num_clicks_accrued": [0, 0, 0, 0, 0, 0, 0, 0, 0, 0, 0, 0, 0], "stateRewards": ["", 1, -2, -2, 10, -31, -77, 35, 9, -47, 8, 48, -2, 1, -4, -3, -26, -50, 43, -11, 76, -38, 17, 1, -1, 6, 10, 15, -9, 12, -8, 85, 11, -55], "withholdReward": false, "trial_id": "mdp_trial_6", "block": "test", "trialIndex": 7, "score": -79.8, "costs": -9.8, "simulationMode": [null, null, null, null, null], "rewards": [1, -2, -2, 10, -77], "path": ["0", "0", "1", "2", "3", "4", "6"], "rt": [23750, 699, 431, 627, 420], "actions": ["up", "up", "up", "right", "right"], "actionTimes": [57259, 58495, 59470, 60653, 61617], "queries": {"click": {"state": {"target": ["1", "2", "7", "4", "6", "8", "3"], "time": [34996, 37509, 40989, 44765, 47455, 49287, 53838]}, "edge": {"target": [], "time": []}}, "mouseover": {"state": {"target": ["1", "1", "2", "7", "4", "6", "3", "8", "3", "2", "1", "2", "3"], "time": [34125, 34563, 35650, 38279, 41691, 45712, 48331, 48544, 50583, 51772, 52167, 52782, 53168]}, "edge": {"target": [], "time": []}}, "mouseout": {"state": {"target": ["0", "1", "1", "2", "7", "4", "6", "3", "8", "3", "2", "1", "2"], "time": [34090, 34182, 35210, 37722, 41653, 45578, 48288, 48372, 50333, 51717, 51809, 52664, 53129]}, "edge": {"target": [], "time": []}}}, "displayed_time": "62.16", "trialTime": 68425, "trial_type": "mouselab-mdp", "trial_index": 14, "time_elapsed": 988546, "internal_node_id": "0.0-6.0-1.0-5.0"}}, {"uniqueid": "w44956376:a73089788", "current_trial": 15, "dateTime": 1693482088480, "trialdata": {"revealed_states": [], "clicked_states": [], "num_clicks_accrued": [0, 0, 0, 0, 0, 0, 0, 0, 0, 0, 0, 0, 0], "stateRewards": ["", 2, -1, 3, -12, -83, 6, -33, 9, 28, 24, -50, -2, -1, -2, -5, -87, 37, 82, 12, 80, -5, 10, -2, -3, -6, 9, 22, -1, 16, 9, 77, -62, 58], "withholdReward": false, "trial_id": "mdp_trial_7", "block": "test", "trialIndex": 8, "score": -37, "costs": 0, "simulationMode": [null, null, null, null, null], "rewards": [2, -1, 3, 9, -50], "path": ["0", "0", "1", "2", "3", "8", "11"], "rt": [1801, 437, 436, 504, 293], "actions": ["up", "up", "up", "left", "left"], "actionTimes": [67549, 68526, 69564, 70638, 71534], "queries": {"click": {"state": {"target": [], "time": []}, "edge": {"target": [], "time": []}}, "mouseover": {"state": {"target": ["1"], "time": [66952]}, "edge": {"target": [], "time": []}}, "mouseout": {"state": {"target": ["3", "1", "0"], "time": [63654, 63690, 64395]}, "edge": {"target": [], "time": []}}}, "displayed_time": "79.76", "trialTime": 87253, "trial_type": "mouselab-mdp", "trial_index": 15, "time_elapsed": 1077313, "internal_node_id": "0.0-6.0-1.0-6.0"}}, {"uniqueid": "w44956376:a73089788", "current_trial": 16, "dateTime": 1693482112400, "trialdata": {"revealed_states": [], "clicked_states": [], "num_clicks_accrued": [0, 0, 0, 0, 0, 0, 0, 0, 0, 0, 0, 0, 0], "stateRewards": ["", 1, -1, 1, 13, 31, -56, 72, 2, 41, 5, 63, -2, -3, -2, 3, -71, -26, 52, 13, -31, 24, -67, 2, -2, 5, 4, 66, 43, 72, 9, 86, -26, 44], "withholdReward": false, "trial_id": "mdp_trial_8", "block": "test", "trialIndex": 9, "score": -12, "costs": 0, "simulationMode": [null, null, null, null, null], "rewards": [2, -2, 5, 9, -26], "path": ["0", "0", "23", "24", "25", "30", "32"], "rt": [6423, 717, 1854, 888, 600], "actions": ["left", "left", "left", "down", "down"], "actionTimes": [10357, 11623, 14016, 15441, 16559], "queries": {"click": {"state": {"target": [], "time": []}, "edge": {"target": [], "time": []}}, "mouseover": {"state": {"target": ["23", "24", "23"], "time": [7053, 9105, 9701]}, "edge": {"target": [], "time": []}}, "mouseout": {"state": {"target": ["1", "23", "24", "23"], "time": [2179, 9063, 9662, 9741]}, "edge": {"target": [], "time": []}}}, "displayed_time": "17.94", "trialTime": 22417, "trial_type": "mouselab-mdp", "trial_index": 16, "time_elapsed": 1101232, "internal_node_id": "0.0-6.0-1.0-7.0"}}, {"uniqueid": "w44956376:a73089788", "current_trial": 17, "dateTime": 1693482145091, "trialdata": {"revealed_states": [], "clicked_states": ["23", "24", "25", "30", "32"], "num_clicks_accrued": [0, 0, 0, 0, 0, 0, 0, 0, 0, 0, 0, 0, 0], "stateRewards": ["", 1, 2, -8, 9, 18, -83, -11, 6, -64, -48, 17, -2, -2, -5, -3, -24, -3, -86, -2, 48, -41, -22, -2, 4, 7, 8, 81, 13, -48, 10, 61, 19, 57], "withholdReward": false, "trial_id": "mdp_trial_9", "block": "test", "trialIndex": 10, "score": 31, "costs": -7, "simulationMode": [null, null, null, null, null], "rewards": [-2, 4, 7, 10, 19], "path": ["0", "0", "23", "24", "25", "30", "32"], "rt": [15335, 622, 391, 601, 569], "actions": ["left", "left", "left", "down", "down"], "actionTimes": [18612, 19801, 20720, 21887, 22999], "queries": {"click": {"state": {"target": ["23", "24", "25", "30", "32"], "time": [4473, 6828, 9571, 12414, 15155]}, "edge": {"target": [], "time": []}}, "mouseover": {"state": {"target": ["23", "24", "25", "30", "30", "32"], "time": [3964, 5771, 8981, 11628, 11890, 14451]}, "edge": {"target": [], "time": []}}, "mouseout": {"state": {"target": ["0", "18", "23", "0", "23", "24", "25", "30", "30", "32", "18"], "time": [45, 916, 1297, 3926, 5618, 7039, 11590, 11707, 14413, 17409, 29821]}, "edge": {"target": [], "time": []}}}, "displayed_time": "23.57", "trialTime": 31155, "trial_type": "mouselab-mdp", "trial_index": 17, "time_elapsed": 1133923, "internal_node_id": "0.0-6.0-1.0-8.0"}}, {"uniqueid": "w44956376:a73089788", "current_trial": 18, "dateTime": 1693482178629, "trialdata": {"revealed_states": [], "clicked_states": ["1"], "num_clicks_accrued": [0, 0, 0, 0, 0, 0, 0, 0, 0, 0, 0, 0, 0], "stateRewards": ["", 1, -1, 4, -2, -75, -75, 84, -9, -60, -79, 59, 2, -4, 8, 9, -17, -82, 80, 14, -4, 49, 49, -1, 3, 6, -11, -33, 34, 55, 9, -57, 5, 59], "withholdReward": false, "trial_id": "mdp_trial_10", "block": "test", "trialIndex": 11, "score": 84.6, "costs": -1.4, "simulationMode": [null, null, null, null, null, null], "rewards": [1, -1, 4, -2, 84], "path": ["0", "0", "1", "2", "3", "4", "7"], "rt": [2523, 972, 4628, 603, 631, 530], "actions": ["up", "up", "up", "up", "right", "down"], "actionTimes": [9511, 10495, 15680, 16843, 18071, 19144], "queries": {"click": {"state": {"target": ["1"], "time": [8288]}, "edge": {"target": [], "time": []}}, "mouseover": {"state": {"target": ["1"], "time": [7903]}, "edge": {"target": [], "time": []}}, "mouseout": {"state": {"target": ["15", "0", "1"], "time": [4638, 7568, 12093]}, "edge": {"target": [], "time": []}}}, "displayed_time": "20.99", "trialTime": 31932, "trial_type": "mouselab-mdp", "trial_index": 18, "time_elapsed": 1167462, "internal_node_id": "0.0-6.0-1.0-9.0"}}, {"uniqueid": "w44956376:a73089788", "current_trial": 19, "dateTime": 1693482205650, "trialdata": {"revealed_states": [], "clicked_states": [], "num_clicks_accrued": [0, 0, 0, 0, 0, 0, 0, 0, 0, 0, 0, 0, 0], "stateRewards": ["", -1, 2, 6, 11, 21, -21, -21, -6, 48, -71, 88, -1, -3, 3, 7, 64, 2, 9, -4, 37, -67, 72, 2, 2, -8, -8, -10, 71, -40, -3, 73, 80, 47], "withholdReward": false, "trial_id": "mdp_trial_11", "block": "test", "trialIndex": 12, "score": -72, "costs": 0, "simulationMode": [null, null, null, null, null], "rewards": [-1, -3, 3, -4, -67], "path": ["0", "0", "12", "13", "14", "19", "21"], "rt": [967, 2259, 449, 558, 180], "actions": ["right", "right", "right", "down", "down"], "actionTimes": [9156, 11986, 13034, 14157, 14899], "queries": {"click": {"state": {"target": [], "time": []}, "edge": {"target": [], "time": []}}, "mouseover": {"state": {"target": [], "time": []}, "edge": {"target": [], "time": []}}, "mouseout": {"state": {"target": ["2", "1", "0"], "time": [6284, 6335, 11325]}, "edge": {"target": [], "time": []}}}, "displayed_time": "22.20", "trialTime": 25475, "trial_type": "mouselab-mdp", "trial_index": 19, "time_elapsed": 1194482, "internal_node_id": "0.0-6.0-1.0-10.0"}}, {"uniqueid": "w44956376:a73089788", "current_trial": 20, "dateTime": 1693482249626, "trialdata": {"revealed_states": [], "clicked_states": ["23", "24", "25", "26", "28", "27", "29"], "num_clicks_accrued": [0, 0, 0, 0, 0, 0, 0, 0, 0, 0, 0, 0, 0], "stateRewards": ["", -2, 4, -5, -12, 85, -24, -18, -15, -78, -22, 26, -1, -1, 2, 14, -45, 52, -23, 7, -33, 24, -6, -2, -4, 5, -7, -16, 36, -39, 5, 71, -87, -23], "withholdReward": false, "trial_id": "mdp_trial_12", "block": "test", "trialIndex": 13, "score": 18.2, "costs": -9.8, "simulationMode": [null, null, null, null, null], "rewards": [-2, -4, 5, -7, 36], "path": ["0", "0", "23", "24", "25", "26", "28"], "rt": [26482, 476, 402, 747, 425], "actions": ["left", "left", "left", "up", "right"], "actionTimes": [33117, 34184, 35137, 36433, 37408], "queries": {"click": {"state": {"target": ["23", "24", "25", "26", "28", "27", "29"], "time": [7765, 10039, 12718, 15288, 17881, 20289, 23110]}, "edge": {"target": [], "time": []}}, "mouseover": {"state": {"target": ["23", "24", "25", "26", "28", "27", "29", "24", "23", "0", "31"], "time": [7247, 9100, 11980, 14721, 17381, 19605, 22303, 27321, 27389, 27477, 28336]}, "edge": {"target": [], "time": []}}, "mouseout": {"state": {"target": ["12", "0", "0", "23", "23", "24", "25", "26", "28", "27", "29", "29", "24", "23", "0", "31", "12"], "time": [4745, 4910, 7208, 7952, 8952, 11914, 14505, 17233, 19118, 21953, 23337, 24995, 27375, 27434, 28236, 29532, 41551]}, "edge": {"target": [], "time": []}}}, "displayed_time": "37.95", "trialTime": 42363, "trial_type": "mouselab-mdp", "trial_index": 20, "time_elapsed": 1238459, "internal_node_id": "0.0-6.0-1.0-11.0"}}, {"uniqueid": "w44956376:a73089788", "current_trial": 21, "dateTime": 1693482290292, "trialdata": {"revealed_states": [], "clicked_states": ["12", "13", "14", "19", "20", "21", "22"], "num_clicks_accrued": [0, 0, 0, 0, 0, 0, 0, 0, 0, 0, 0, 0, 0], "stateRewards": ["", 1, -2, -3, 14, -42, -87, -37, -11, -50, 33, -44, -2, 4, -7, 13, 48, -75, -66, 12, 23, -2, 82, 1, -4, 3, 12, 51, -15, -26, -11, -52, -29, 82], "withholdReward": false, "trial_id": "mdp_trial_13", "block": "test", "trialIndex": 14, "score": 79.2, "costs": -9.8, "simulationMode": [null, null, null, null, null], "rewards": [-2, 4, -7, 12, 82], "path": ["0", "0", "12", "13", "14", "19", "22"], "rt": [19451, 220, 404, 376, 1256], "actions": ["right", "right", "right", "down", "left"], "actionTimes": [29924, 30815, 31768, 32703, 34506], "queries": {"click": {"state": {"target": ["12", "13", "14", "19", "20", "21", "22"], "time": [11751, 13843, 15987, 18334, 20637, 23189, 25920]}, "edge": {"target": [], "time": []}}, "mouseover": {"state": {"target": ["12", "12", "12", "13", "14", "19", "20", "21", "22"], "time": [10556, 11070, 11304, 12292, 14577, 17666, 19750, 22659, 25300]}, "edge": {"target": [], "time": []}}, "mouseout": {"state": {"target": ["12", "0", "12", "12", "12", "13", "13", "14", "19", "20", "21", "22"], "time": [8258, 10546, 10838, 11153, 12252, 14032, 14439, 17226, 19534, 21369, 23408, 36831]}, "edge": {"target": [], "time": []}}}, "displayed_time": "35.06", "trialTime": 39102, "trial_type": "mouselab-mdp", "trial_index": 21, "time_elapsed": 1279124, "internal_node_id": "0.0-6.0-1.0-12.0"}}, {"uniqueid": "w44956376:a73089788", "current_trial": 22, "dateTime": 1693482356035, "trialdata": {"revealed_states": [], "clicked_states": ["1", "2", "3", "4", "6", "7", "5", "8", "9", "11", "10"], "num_clicks_accrued": [0, 0, 0, 0, 0, 0, 0, 0, 0, 0, 0, 0, 0], "stateRewards": ["", -1, 4, -3, 3, 57, -61, 5, -11, 23, -1, 34, -2, -4, -1, -13, 27, 38, -36, 4, -45, 21, 88, 1, -2, -1, 1, -69, -5, -78, -12, -9, 38, -54], "withholdReward": false, "trial_id": "mdp_trial_14", "block": "test", "trialIndex": 15, "score": 7.599999999999998, "costs": -15.400000000000002, "simulationMode": [null, null, null, null, null], "rewards": [-1, 4, -3, -11, 34], "path": ["0", "0", "1", "2", "3", "8", "11"], "rt": [30756, 303, 309, 600, 442], "actions": ["up", "up", "up", "left", "left"], "actionTimes": [53684, 54547, 55428, 56587, 57581], "queries": {"click": {"state": {"target": ["1", "2", "3", "4", "6", "7", "5", "8", "9", "11", "10"], "time": [24031, 26447, 29039, 31194, 33453, 35706, 38475, 40959, 43265, 45331, 47657]}, "edge": {"target": [], "time": []}}, "mouseover": {"state": {"target": ["1", "2", "3", "4", "6", "7", "4", "5", "3", "8", "9", "11", "10", "8", "8"], "time": [23527, 25899, 28380, 30423, 32332, 34957, 37470, 37931, 39593, 40060, 42791, 43853, 46943, 50239, 51784]}, "edge": {"target": [], "time": []}}, "mouseout": {"state": {"target": ["13", "12", "1", "2", "3", "4", "6", "4", "7", "4", "5", "3", "8", "9", "11", "10", "10", "8", "8"], "time": [20895, 20931, 25854, 26668, 30302, 32250, 34256, 34555, 37420, 37492, 39555, 39983, 41154, 43799, 46550, 49593, 49823, 51518, 62075]}, "edge": {"target": [], "time": []}}}, "displayed_time": "58.21", "trialTime": 64175, "trial_type": "mouselab-mdp", "trial_index": 22, "time_elapsed": 1344867, "internal_node_id": "0.0-6.0-1.0-13.0"}}, {"uniqueid": "w44956376:a73089788", "current_trial": 23, "dateTime": 1693482424042, "trialdata": {"revealed_states": [], "clicked_states": ["1", "2", "3", "4", "6", "7", "5", "8", "11", "10", "9"], "num_clicks_accrued": [0, 0, 0, 0, 0, 0, 0, 0, 0, 0, 0, 0, 0], "stateRewards": ["", 1, 4, 7, -16, -84, -6, -46, -12, -7, -49, -26, -1, 2, -4, 2, 22, 37, -64, 1, 88, -13, -10, 1, -4, -2, 5, 2, -10, -34, 9, 66, 55, 38], "withholdReward": false, "trial_id": "mdp_trial_15", "block": "test", "trialIndex": 16, "score": -41.400000000000006, "costs": -15.400000000000002, "simulationMode": [null, null, null, null, null], "rewards": [1, 4, 7, -12, -26], "path": ["0", "0", "1", "2", "3", "8", "11"], "rt": [28186, 288, 125, 3521, 1796], "actions": ["up", "up", "up", "left", "left"], "actionTimes": [51656, 52520, 53208, 57301, 59615], "queries": {"click": {"state": {"target": ["1", "2", "3", "4", "6", "7", "5", "8", "11", "10", "9"], "time": [24814, 26602, 29133, 31224, 33527, 35463, 37544, 39591, 41749, 43699, 45271]}, "edge": {"target": [], "time": []}}, "mouseover": {"state": {"target": ["1", "2", "2", "7", "3", "4", "6", "7", "5", "8", "11", "10", "9", "9", "10", "10"], "time": [24246, 25289, 25583, 27427, 28267, 30415, 32781, 34875, 36244, 38976, 41156, 42969, 44315, 44569, 49161, 49427]}, "edge": {"target": [], "time": []}}, "mouseout": {"state": {"target": ["6", "7", "1", "1", "2", "2", "7", "3", "4", "6", "4", "7", "5", "8", "11", "11", "10", "9", "9", "10", "10", "27"], "time": [21133, 21460, 21496, 25236, 25330, 27302, 28200, 30180, 32695, 34093, 34645, 35682, 38597, 40935, 41968, 42517, 44268, 44389, 46753, 49200, 50392, 64386]}, "edge": {"target": [], "time": []}}}, "displayed_time": "60.18", "trialTime": 66362, "trial_type": "mouselab-mdp", "trial_index": 23, "time_elapsed": 1412874, "internal_node_id": "0.0-6.0-1.0-14.0"}}, {"uniqueid": "w44956376:a73089788", "current_trial": 24, "dateTime": 1693482466797, "trialdata": {"revealed_states": [], "clicked_states": ["23", "24", "25", "26", "28", "27", "29"], "num_clicks_accrued": [0, 0, 0, 0, 0, 0, 0, 0, 0, 0, 0, 0, 0], "stateRewards": ["", -2, -4, 6, 14, -34, 49, 36, -8, -3, 32, -4, 1, -2, 1, -8, -20, -71, -57, -7, -86, -62, -16, -2, -3, -5, 11, 23, -21, 53, 5, -5, 85, 73], "withholdReward": false, "trial_id": "mdp_trial_16", "block": "test", "trialIndex": 17, "score": 44.2, "costs": -9.8, "simulationMode": [null, null, null, null, null], "rewards": [-2, -3, -5, 11, 53], "path": ["0", "0", "23", "24", "25", "26", "29"], "rt": [23245, 276, 134, 311, 100], "actions": ["left", "left", "left", "up", "left"], "actionTimes": [32008, 32830, 33533, 34411, 35066], "queries": {"click": {"state": {"target": ["23", "24", "25", "26", "28", "27", "29"], "time": [9930, 12100, 14178, 16287, 18249, 20287, 21935]}, "edge": {"target": [], "time": []}}, "mouseover": {"state": {"target": ["23", "24", "25", "26", "28", "27", "29", "25", "30", "25", "30"], "time": [9502, 10650, 12774, 15094, 17109, 19281, 20980, 24365, 24581, 24797, 26433]}, "edge": {"target": [], "time": []}}, "mouseout": {"state": {"target": ["27", "28", "23", "0", "23", "24", "25", "26", "28", "27", "29", "29", "25", "30", "25"], "time": [6290, 6618, 6685, 9083, 10128, 12761, 14963, 16983, 18766, 20872, 22141, 23015, 24418, 24703, 26393]}, "edge": {"target": [], "time": []}}}, "displayed_time": "35.63", "trialTime": 41102, "trial_type": "mouselab-mdp", "trial_index": 24, "time_elapsed": 1455630, "internal_node_id": "0.0-6.0-1.0-15.0"}}, {"uniqueid": "w44956376:a73089788", "current_trial": 25, "dateTime": 1693482538636, "trialdata": {"revealed_states": [], "clicked_states": ["12", "13", "14", "19", "20", "21", "22", "17", "15", "16", "18"], "num_clicks_accrued": [0, 0, 0, 0, 0, 0, 0, 0, 0, 0, 0, 0, 0], "stateRewards": ["", 1, 4, -8, -5, -15, -7, 21, 13, -30, 40, -65, 1, 1, 5, -14, 35, 27, -38, -11, 36, -58, -47, -2, 4, -3, 13, -16, -49, 22, 15, -56, -44, -10], "withholdReward": false, "trial_id": "mdp_trial_17", "block": "test", "trialIndex": 18, "score": 4.599999999999998, "costs": -15.400000000000002, "simulationMode": [null, null, null, null, null], "rewards": [1, 1, 5, -14, 27], "path": ["0", "0", "12", "13", "14", "15", "17"], "rt": [30904, 18, 373, 370, 207], "actions": ["right", "right", "right", "up", "right"], "actionTimes": [37072, 37657, 38589, 39537, 40352], "queries": {"click": {"state": {"target": ["12", "13", "14", "19", "20", "21", "22", "17", "15", "16", "18"], "time": [7414, 9305, 11516, 13704, 15645, 17622, 19702, 23469, 25634, 27842, 29763]}, "edge": {"target": [], "time": []}}, "mouseover": {"state": {"target": ["12", "13", "14", "14", "15", "19", "20", "21", "22", "13", "15", "17", "15", "16", "18"], "time": [6816, 8839, 10155, 11018, 12401, 13198, 14779, 16445, 18186, 22107, 22906, 22973, 24396, 27339, 28390]}, "edge": {"target": [], "time": []}}, "mouseout": {"state": {"target": ["30", "23", "12", "13", "14", "14", "15", "19", "19", "20", "21", "22", "13", "15", "17", "15", "16", "18"], "time": [4050, 4385, 8530, 9980, 10384, 12323, 12789, 13896, 14693, 16146, 18136, 21991, 22160, 22959, 24358, 27208, 28349, 30861]}, "edge": {"target": [], "time": []}}}, "displayed_time": "40.89", "trialTime": 70042, "trial_type": "mouselab-mdp", "trial_index": 25, "time_elapsed": 1527468, "internal_node_id": "0.0-6.0-1.0-16.0"}}, {"uniqueid": "w44956376:a73089788", "current_trial": 26, "dateTime": 1693482591149, "trialdata": {"revealed_states": [], "clicked_states": [], "num_clicks_accrued": [0, 0, 0, 0, 0, 0, 0, 0, 0, 0, 0, 0, 0], "stateRewards": ["", 2, -3, -2, 14, -4, 85, 46, 15, -28, 41, 31, -1, -1, -1, 5, 62, 79, 57, 12, -73, -64, 86, -1, 1, -3, -5, 68, 11, -32, 8, -80, -21, -56], "withholdReward": false, "trial_id": "mdp_trial_18", "block": "test", "trialIndex": 19, "score": -16, "costs": 0, "simulationMode": [null, null, null, null, null], "rewards": [-1, 1, -3, 8, -21], "path": ["0", "0", "23", "24", "25", "30", "32"], "rt": [10248, 370, 335, 468, 427], "actions": ["left", "left", "left", "down", "down"], "actionTimes": [32532, 33470, 34359, 35362, 36361], "queries": {"click": {"state": {"target": [], "time": []}, "edge": {"target": [], "time": []}}, "mouseover": {"state": {"target": ["23"], "time": [31664]}, "edge": {"target": [], "time": []}}, "mouseout": {"state": {"target": [], "time": []}, "edge": {"target": [], "time": []}}}, "displayed_time": "36.90", "trialTime": 50847, "trial_type": "mouselab-mdp", "trial_index": 26, "time_elapsed": 1579981, "internal_node_id": "0.0-6.0-1.0-17.0"}}, {"uniqueid": "w44956376:a73089788", "current_trial": 27, "dateTime": 1693482641135, "trialdata": {"revealed_states": [], "clicked_states": ["1", "2", "3", "4", "6", "7", "5", "8", "9", "11", "10"], "num_clicks_accrued": [0, 0, 0, 0, 0, 0, 0, 0, 0, 0, 0, 0, 0], "stateRewards": ["", 1, -2, 7, -14, 88, -56, -44, -14, 64, -51, -57, -2, 3, -4, -9, -11, 19, -77, -1, 68, 75, -67, -1, 1, -2, 5, -37, 70, -34, -10, -72, 63, -41], "withholdReward": false, "trial_id": "mdp_trial_19", "block": "test", "trialIndex": 20, "score": -80.4, "costs": -15.400000000000002, "simulationMode": [null, null, null, null, null], "rewards": [1, -2, 7, -14, -57], "path": ["0", "0", "1", "2", "3", "8", "11"], "rt": [33545, 228, 101, 372, 504], "actions": ["up", "up", "up", "left", "left"], "actionTimes": [37433, 38233, 38907, 39924, 40964], "queries": {"click": {"state": {"target": ["1", "2", "3", "4", "6", "7", "5", "8", "9", "11", "10"], "time": [4817, 7072, 10619, 13315, 15645, 17646, 19994, 22026, 24350, 26180, 28080]}, "edge": {"target": [], "time": []}}, "mouseover": {"state": {"target": ["1", "2", "7", "8", "3", "4", "6", "7", "5", "8", "8", "9", "11", "10", "1"], "time": [4240, 5670, 8011, 9802, 10101, 12894, 15205, 16740, 18283, 20845, 21099, 23748, 25042, 27236, 29396]}, "edge": {"target": [], "time": []}}, "mouseout": {"state": {"target": ["23", "1", "2", "7", "8", "3", "4", "6", "4", "7", "5", "8", "8", "9", "11", "10", "10", "1"], "time": [1956, 5429, 7956, 9721, 10004, 12680, 15074, 16399, 16585, 18206, 20828, 20894, 23594, 24900, 26821, 28272, 28946, 29565]}, "edge": {"target": [], "time": []}}}, "displayed_time": "41.53", "trialTime": 48387, "trial_type": "mouselab-mdp", "trial_index": 27, "time_elapsed": 1629967, "internal_node_id": "0.0-6.0-1.0-18.0"}}, {"uniqueid": "w44956376:a73089788", "current_trial": 28, "dateTime": 1693482682080, "trialdata": {"revealed_states": [], "clicked_states": ["23", "24", "25", "30", "31", "32", "33"], "num_clicks_accrued": [0, 0, 0, 0, 0, 0, 0, 0, 0, 0, 0, 0, 0], "stateRewards": ["", -2, 4, -7, -3, -76, 39, -28, 10, 14, 12, 60, 2, -3, 6, -10, 88, -34, -41, -3, 72, -13, -56, 1, 3, 2, 8, -51, 23, -57, 1, 14, -46, -16], "withholdReward": false, "trial_id": "mdp_trial_20", "block": "test", "trialIndex": 21, "score": 11.2, "costs": -9.8, "simulationMode": [null, null, null, null, null], "rewards": [1, 3, 2, 1, 14], "path": ["0", "0", "23", "24", "25", "30", "31"], "rt": [19744, 153, 156, 123, 230], "actions": ["left", "left", "left", "down", "right"], "actionTimes": [28484, 29188, 29890, 30621, 31393], "queries": {"click": {"state": {"target": ["23", "24", "25", "30", "31", "32", "33"], "time": [9763, 11990, 14231, 16348, 18610, 20562, 22621]}, "edge": {"target": [], "time": []}}, "mouseover": {"state": {"target": ["23", "24", "25", "30", "31", "32", "33"], "time": [9247, 10612, 12848, 15789, 17577, 19858, 21271]}, "edge": {"target": [], "time": []}}, "mouseout": {"state": {"target": ["1", "0", "23", "24", "25", "25", "30", "30", "31", "30", "32", "33", "26"], "time": [6419, 9163, 10515, 12798, 14457, 15439, 16541, 17480, 19266, 19504, 21102, 24506, 34512]}, "edge": {"target": [], "time": []}}}, "displayed_time": "32.00", "trialTime": 39355, "trial_type": "mouselab-mdp", "trial_index": 28, "time_elapsed": 1670912, "internal_node_id": "0.0-6.0-1.0-19.0"}}, {"uniqueid": "w44956376:a73089788", "current_trial": 29, "dateTime": 1693482748510, "trialdata": {"revealed_states": [], "clicked_states": ["12", "13", "14", "15", "17", "16", "18", "19", "20", "21", "22", "1", "2", "7", "4", "6", "5"], "num_clicks_accrued": [0, 0, 0, 0, 0, 0, 0, 0, 0, 0, 0, 0, 0], "stateRewards": ["", -1, 1, -2, 5, 73, 15, 61, 8, 7, 38, 76, 2, 2, -4, -6, -6, -26, 43, -5, -45, -85, -35, -2, 1, -4, 15, -10, 69, 72, -11, 84, -49, -38], "withholdReward": false, "trial_id": "mdp_trial_21", "block": "test", "trialIndex": 22, "score": 52.2, "costs": -23.799999999999994, "simulationMode": [null, null, null, null, null], "rewards": [-1, 1, -2, 5, 73], "path": ["0", "0", "1", "2", "3", "4", "5"], "rt": [44557, 340, 71, 38, 222], "actions": ["up", "up", "up", "right", "up"], "actionTimes": [50403, 51312, 51978, 52566, 53402], "queries": {"click": {"state": {"target": ["12", "13", "14", "15", "17", "16", "18", "19", "20", "21", "22", "1", "2", "7", "4", "6", "5"], "time": [7424, 9491, 11541, 13886, 15848, 17634, 19396, 22181, 24414, 26380, 28432, 31816, 34089, 35863, 37990, 40783, 43586]}, "edge": {"target": [], "time": []}}, "mouseover": {"state": {"target": ["13", "12", "13", "14", "15", "17", "16", "18", "18", "14", "19", "20", "21", "22", "1", "2", "7", "4", "4", "6", "6", "5"], "time": [6505, 6986, 8142, 10615, 12680, 14873, 17011, 18635, 18920, 20554, 21113, 23411, 25361, 26917, 31353, 33128, 34979, 37108, 37429, 39192, 39597, 42991]}, "edge": {"target": [], "time": []}}, "mouseout": {"state": {"target": ["18", "0", "13", "12", "13", "14", "15", "17", "16", "18", "18", "14", "19", "20", "21", "22", "1", "2", "7", "4", "4", "6", "6", "5"], "time": [3692, 5905, 6853, 7967, 10385, 12524, 14699, 16491, 18276, 18709, 20165, 20595, 23203, 24935, 26883, 30290, 32009, 34877, 37051, 37199, 39142, 39350, 42922, 44227]}, "edge": {"target": [], "time": []}}}, "displayed_time": "53.96", "trialTime": 64729, "trial_type": "mouselab-mdp", "trial_index": 29, "time_elapsed": 1737342, "internal_node_id": "0.0-6.0-1.0-20.0"}}, {"uniqueid": "w44956376:a73089788", "current_trial": 30, "dateTime": 1693482797848, "trialdata": {"revealed_states": [], "clicked_states": ["1", "2", "3", "8", "10", "11", "9"], "num_clicks_accrued": [0, 0, 0, 0, 0, 0, 0, 0, 0, 0, 0, 0, 0], "stateRewards": ["", -1, -3, 1, 13, -64, -29, 12, -4, -33, 50, 56, 2, -3, 4, 11, -64, -58, -55, 12, 47, 38, -25, -2, 2, 5, -15, 85, 7, 84, 10, 8, 57, 26], "withholdReward": false, "trial_id": "mdp_trial_22", "block": "test", "trialIndex": 23, "score": 39.2, "costs": -9.8, "simulationMode": [null, null, null, null, null], "rewards": [-1, -3, 1, -4, 56], "path": ["0", "0", "1", "2", "3", "8", "11"], "rt": [20526, 130, 301, 310, 11], "actions": ["up", "up", "up", "left", "left"], "actionTimes": [36764, 37449, 38313, 39203, 39830], "queries": {"click": {"state": {"target": ["1", "2", "3", "8", "10", "11", "9"], "time": [17508, 19601, 21649, 23987, 26048, 28183, 30015]}, "edge": {"target": [], "time": []}}, "mouseover": {"state": {"target": ["1", "2", "3", "8", "10", "11", "9"], "time": [16912, 18089, 20167, 22683, 24730, 26934, 28733]}, "edge": {"target": [], "time": []}}, "mouseout": {"state": {"target": ["1", "2", "3", "8", "10", "11", "9"], "time": [18027, 20124, 22578, 24686, 26522, 28656, 31028]}, "edge": {"target": [], "time": []}}}, "displayed_time": "40.39", "trialTime": 47600, "trial_type": "mouselab-mdp", "trial_index": 30, "time_elapsed": 1786681, "internal_node_id": "0.0-6.0-1.0-21.0"}}, {"uniqueid": "w44956376:a73089788", "current_trial": 31, "dateTime": 1693482843815, "trialdata": {"revealed_states": [], "clicked_states": ["12", "13", "14", "15", "17", "16", "18"], "num_clicks_accrued": [0, 0, 0, 0, 0, 0, 0, 0, 0, 0, 0, 0, 0], "stateRewards": ["", 1, 4, 5, -5, 58, -80, 75, 6, 25, -39, 46, 2, -2, 4, 2, 59, 31, -22, -12, -61, 15, 72, 1, -2, -7, 8, 77, 76, -23, -7, 71, -15, -3], "withholdReward": false, "trial_id": "mdp_trial_23", "block": "test", "trialIndex": 24, "score": 55.2, "costs": -9.8, "simulationMode": [null, null, null, null, null], "rewards": [2, -2, 4, 2, 59], "path": ["0", "0", "12", "13", "14", "15", "16"], "rt": [18731, 24, 205, 220, 48], "actions": ["right", "right", "right", "up", "up"], "actionTimes": [27503, 28076, 28836, 29602, 30198], "queries": {"click": {"state": {"target": ["12", "13", "14", "15", "17", "16", "18"], "time": [9840, 11919, 14055, 16143, 18144, 20090, 22101]}, "edge": {"target": [], "time": []}}, "mouseover": {"state": {"target": ["12", "13", "14", "15", "17", "16", "18"], "time": [9385, 10797, 13428, 15420, 16842, 18742, 20744]}, "edge": {"target": [], "time": []}}, "mouseout": {"state": {"target": ["12", "12", "13", "14", "15", "17", "16", "18", "13"], "time": [6841, 10695, 13163, 14972, 16741, 18586, 20690, 22775, 42902]}, "edge": {"target": [], "time": []}}}, "displayed_time": "30.82", "trialTime": 44321, "trial_type": "mouselab-mdp", "trial_index": 31, "time_elapsed": 1832647, "internal_node_id": "0.0-6.0-1.0-22.0"}}, {"uniqueid": "w44956376:a73089788", "current_trial": 32, "dateTime": 1693482907610, "trialdata": {"revealed_states": [], "clicked_states": ["23", "24", "25", "30", "31", "32", "33"], "num_clicks_accrued": [0, 0, 0, 0, 0, 0, 0, 0, 0, 0, 0, 0, 0], "stateRewards": ["", -1, 3, -5, -2, -13, -9, -34, -7, -81, 32, 35, -2, -2, 1, -14, -32, 81, 7, 4, 82, 56, -8, -1, 3, -8, 6, -24, -24, -53, 2, 38, 61, 54], "withholdReward": false, "trial_id": "mdp_trial_24", "block": "test", "trialIndex": 25, "score": 40.2, "costs": -9.8, "simulationMode": [null, null, null, null, null], "rewards": [-1, 3, -8, 2, 54], "path": ["0", "0", "23", "24", "25", "30", "33"], "rt": [22383, 658, 59, 277, 202], "actions": ["left", "left", "left", "down", "left"], "actionTimes": [49668, 50879, 51500, 52351, 53114], "queries": {"click": {"state": {"target": ["23", "24", "25", "30", "31", "32", "33"], "time": [28545, 30615, 32639, 34749, 36880, 38878, 40924]}, "edge": {"target": [], "time": []}}, "mouseover": {"state": {"target": ["23", "24", "25", "30", "31", "32", "33", "25", "26", "28", "26"], "time": [28052, 29580, 31473, 33612, 35500, 37575, 39647, 41913, 42297, 42862, 43345]}, "edge": {"target": [], "time": []}}, "mouseout": {"state": {"target": ["13", "12", "23", "24", "25", "30", "31", "32", "33", "25", "26", "28", "26", "1", "18", "15"], "time": [23908, 23944, 29468, 31271, 33245, 35349, 37264, 39407, 41812, 42250, 42778, 43279, 43389, 57038, 57308, 57354]}, "edge": {"target": [], "time": []}}}, "displayed_time": "53.67", "trialTime": 62115, "trial_type": "mouselab-mdp", "trial_index": 32, "time_elapsed": 1896442, "internal_node_id": "0.0-6.0-1.0-23.0"}}, {"uniqueid": "w44956376:a73089788", "current_trial": 33, "dateTime": 1693482956719, "trialdata": {"revealed_states": [], "clicked_states": ["1", "2", "3", "8", "10", "11", "9"], "num_clicks_accrued": [0, 0, 0, 0, 0, 0, 0, 0, 0, 0, 0, 0, 0], "stateRewards": ["", -1, -2, 4, 9, 10, -75, 39, 16, -43, 88, -19, -1, 1, 2, 4, -31, 10, 73, 12, 41, -64, -81, -2, 2, -6, 1, -81, -1, -26, 3, -59, -3, -20], "withholdReward": false, "trial_id": "mdp_trial_25", "block": "test", "trialIndex": 26, "score": 95.2, "costs": -9.8, "simulationMode": [null, null, null, null, null], "rewards": [-1, -2, 4, 16, 88], "path": ["0", "0", "1", "2", "3", "8", "10"], "rt": [21274, 586, 58, 279, 108], "actions": ["up", "up", "up", "left", "down"], "actionTimes": [29296, 30445, 31051, 31884, 32533], "queries": {"click": {"state": {"target": ["1", "2", "3", "8", "10", "11", "9"], "time": [9276, 11355, 13424, 15817, 18128, 20448, 22532]}, "edge": {"target": [], "time": []}}, "mouseover": {"state": {"target": ["1", "1", "2", "3", "8", "10", "11", "9", "5"], "time": [8586, 8902, 9667, 12475, 15236, 16617, 19406, 21453, 23635]}, "edge": {"target": [], "time": []}}, "mouseout": {"state": {"target": ["17", "0", "0", "1", "1", "2", "3", "8", "10", "11", "9", "5"], "time": [5241, 5686, 8085, 8641, 9619, 12002, 15133, 16538, 18601, 20921, 23585, 23686]}, "edge": {"target": [], "time": []}}}, "displayed_time": "33.08", "trialTime": 47312, "trial_type": "mouselab-mdp", "trial_index": 33, "time_elapsed": 1945552, "internal_node_id": "0.0-6.0-1.0-24.0"}}, {"uniqueid": "w44956376:a73089788", "current_trial": 34, "dateTime": 1693483002942, "trialdata": {"revealed_states": [], "clicked_states": ["1", "2", "3", "4", "5", "6", "7"], "num_clicks_accrued": [0, 0, 0, 0, 0, 0, 0, 0, 0, 0, 0, 0, 0], "stateRewards": ["", 1, 1, -3, 7, 49, 78, 26, -5, 26, 48, -43, -1, -3, 2, -5, 4, -1, -60, 10, -35, 51, 81, -2, 1, -7, -5, -39, -86, -54, 4, -3, 74, 77], "withholdReward": false, "trial_id": "mdp_trial_26", "block": "test", "trialIndex": 27, "score": 74.2, "costs": -9.8, "simulationMode": [null, null, null, null, null], "rewards": [1, 1, -3, 7, 78], "path": ["0", "0", "1", "2", "3", "4", "6"], "rt": [20171, 34, 73, 156, 56], "actions": ["up", "up", "up", "right", "right"], "actionTimes": [36550, 37154, 37791, 38513, 39132], "queries": {"click": {"state": {"target": ["1", "2", "3", "4", "5", "6", "7"], "time": [19403, 21356, 23487, 25466, 27479, 29558, 31533]}, "edge": {"target": [], "time": []}}, "mouseover": {"state": {"target": ["0", "1", "2", "3", "4", "4", "7", "5", "6", "7"], "time": [18644, 18743, 19888, 22738, 24359, 24671, 26200, 26439, 28598, 30370]}, "edge": {"target": [], "time": []}}, "mouseout": {"state": {"target": ["14", "12", "0", "0", "1", "2", "3", "4", "4", "7", "4", "5", "6", "7"], "time": [14451, 14517, 17580, 18692, 19831, 22292, 24309, 24414, 26015, 26381, 26428, 28127, 30041, 32576]}, "edge": {"target": [], "time": []}}}, "displayed_time": "39.70", "trialTime": 44450, "trial_type": "mouselab-mdp", "trial_index": 34, "time_elapsed": 1991774, "internal_node_id": "0.0-6.0-1.0-25.0"}}, {"uniqueid": "w44956376:a73089788", "current_trial": 35, "dateTime": 1693483046871, "trialdata": {"revealed_states": [], "clicked_states": ["12", "13", "14", "22", "19", "20", "21"], "num_clicks_accrued": [0, 0, 0, 0, 0, 0, 0, 0, 0, 0, 0, 0, 0], "stateRewards": ["", 1, -3, 4, 13, -72, 52, 5, 5, -58, 5, 14, 2, 1, 3, -14, -86, -4, 73, 6, -58, -50, 49, 2, -3, -4, 2, 33, -41, 42, -11, 81, 45, 53], "withholdReward": false, "trial_id": "mdp_trial_27", "block": "test", "trialIndex": 28, "score": 51.2, "costs": -9.8, "simulationMode": [null, null, null, null, null], "rewards": [2, 1, 3, 6, 49], "path": ["0", "0", "12", "13", "14", "19", "22"], "rt": [21016, 19, 15, 316, 461], "actions": ["right", "right", "right", "down", "left"], "actionTimes": [29731, 30334, 30920, 31799, 32840], "queries": {"click": {"state": {"target": ["12", "13", "14", "22", "19", "20", "21"], "time": [10612, 12676, 14799, 17296, 19555, 21622, 23938]}, "edge": {"target": [], "time": []}}, "mouseover": {"state": {"target": ["12", "13", "13", "14", "19", "22", "19", "20", "21", "14"], "time": [10230, 11163, 11433, 13756, 16384, 16732, 18043, 20368, 22691, 26536]}, "edge": {"target": [], "time": []}}, "mouseout": {"state": {"target": ["23", "0", "12", "13", "13", "14", "19", "22", "19", "20", "20", "21", "14", "12", "13"], "time": [6652, 10115, 11149, 11220, 13484, 15627, 16677, 17499, 20207, 22264, 22324, 24570, 26942, 41392, 41443]}, "edge": {"target": [], "time": []}}}, "displayed_time": "33.39", "trialTime": 42183, "trial_type": "mouselab-mdp", "trial_index": 35, "time_elapsed": 2035703, "internal_node_id": "0.0-6.0-1.0-26.0"}}, {"uniqueid": "w44956376:a73089788", "current_trial": 36, "dateTime": 1693483082038, "trialdata": {"revealed_states": [], "clicked_states": ["12", "13", "14", "15", "18", "16", "17"], "num_clicks_accrued": [0, 0, 0, 0, 0, 0, 0, 0, 0, 0, 0, 0, 0], "stateRewards": ["", -2, -3, -3, 9, 79, 67, 22, -15, -56, 27, -85, -2, 4, -4, -15, -20, -32, 60, 15, 71, 57, 17, 1, 2, -8, 15, -37, -81, 82, 15, 21, -3, 2], "withholdReward": false, "trial_id": "mdp_trial_28", "block": "test", "trialIndex": 29, "score": 33.2, "costs": -9.8, "simulationMode": [null, null, null, null, null], "rewards": [-2, 4, -4, -15, 60], "path": ["0", "0", "12", "13", "14", "15", "18"], "rt": [19743, 484, 98, 299, 155], "actions": ["right", "right", "right", "up", "left"], "actionTimes": [24911, 25967, 26624, 27492, 28217], "queries": {"click": {"state": {"target": ["12", "13", "14", "15", "18", "16", "17"], "time": [6440, 8539, 10656, 12830, 14938, 17101, 19386]}, "edge": {"target": [], "time": []}}, "mouseover": {"state": {"target": ["12", "13", "14", "15", "18", "16", "16", "17"], "time": [5997, 7019, 9500, 11603, 13437, 15509, 15880, 17841]}, "edge": {"target": [], "time": []}}, "mouseout": {"state": {"target": ["17", "14", "13", "0", "12", "13", "14", "15", "18", "16", "16", "17", "13"], "time": [2868, 2899, 2946, 3269, 6910, 9273, 11464, 13422, 15496, 15553, 17674, 21174, 31563]}, "edge": {"target": [], "time": []}}}, "displayed_time": "28.85", "trialTime": 33390, "trial_type": "mouselab-mdp", "trial_index": 36, "time_elapsed": 2070870, "internal_node_id": "0.0-6.0-1.0-27.0"}}, {"uniqueid": "w44956376:a73089788", "current_trial": 37, "dateTime": 1693483124494, "trialdata": {"revealed_states": [], "clicked_states": ["1", "2", "3", "8", "11", "9", "10"], "num_clicks_accrued": [0, 0, 0, 0, 0, 0, 0, 0, 0, 0, 0, 0, 0], "stateRewards": ["", -1, -4, -6, -15, 21, -67, -63, 9, 51, 69, -14, -1, 3, 8, -8, 39, 72, 63, 15, 19, 47, 15, 1, 4, 5, 16, -18, 34, 35, -14, -80, 40, 1], "withholdReward": false, "trial_id": "mdp_trial_29", "block": "test", "trialIndex": 30, "score": 57.2, "costs": -9.8, "simulationMode": [null, null, null, null, null], "rewards": [-1, -4, -6, 9, 69], "path": ["0", "0", "1", "2", "3", "8", "10"], "rt": [21167, 67, 95, 436, 151], "actions": ["up", "up", "up", "left", "down"], "actionTimes": [29452, 30055, 30702, 31685, 32392], "queries": {"click": {"state": {"target": ["1", "2", "3", "8", "11", "9", "10"], "time": [9551, 11628, 13742, 15954, 18273, 20357, 22445]}, "edge": {"target": [], "time": []}}, "mouseover": {"state": {"target": ["1", "2", "3", "4", "8", "11", "9", "8", "10", "4", "3"], "time": [8993, 10513, 13008, 14788, 15092, 17622, 19176, 21406, 21566, 24216, 26035]}, "edge": {"target": [], "time": []}}, "mouseout": {"state": {"target": ["0", "0", "1", "2", "3", "4", "8", "11", "9", "8", "10", "4", "3"], "time": [2889, 8386, 10180, 12889, 14665, 15004, 17428, 18870, 21265, 21555, 23648, 25965, 26092]}, "edge": {"target": [], "time": []}}}, "displayed_time": "32.93", "trialTime": 40827, "trial_type": "mouselab-mdp", "trial_index": 37, "time_elapsed": 2113326, "internal_node_id": "0.0-6.0-1.0-28.0"}}, {"uniqueid": "w44956376:a73089788", "current_trial": 38, "dateTime": 1693483147543, "trialdata": {"revealed_states": [], "clicked_states": [], "num_clicks_accrued": [0, 0, 0, 0, 0, 0, 0, 0, 0, 0, 0, 0, 0], "stateRewards": ["", -1, 4, -6, -5, -22, -38, -38, -2, -56, 88, 14, -1, -1, -7, -6, 61, -60, 21, 11, 57, 31, -30, -2, -2, 6, -9, -44, -70, -44, -15, 34, 16, -78], "withholdReward": false, "trial_id": "mdp_trial_30", "block": "test", "trialIndex": 31, "score": -46, "costs": 0, "simulationMode": [null, null, null, null, null], "rewards": [-1, 4, -6, -5, -38], "path": ["0", "0", "1", "2", "3", "4", "7"], "rt": [11130, 795, 265, 298, 222], "actions": ["up", "up", "up", "right", "down"], "actionTimes": [14448, 15799, 16608, 17441, 18199], "queries": {"click": {"state": {"target": [], "time": []}, "edge": {"target": [], "time": []}}, "mouseover": {"state": {"target": ["1", "12", "1", "1"], "time": [4194, 12654, 13219, 13685]}, "edge": {"target": [], "time": []}}, "mouseout": {"state": {"target": ["12", "0", "1", "12", "1", "1"], "time": [1348, 4087, 11706, 13036, 13435, 20499]}, "edge": {"target": [], "time": []}}}, "displayed_time": "18.77", "trialTime": 21342, "trial_type": "mouselab-mdp", "trial_index": 38, "time_elapsed": 2136375, "internal_node_id": "0.0-6.0-1.0-29.0"}}, {"uniqueid": "w44956376:a73089788", "current_trial": 39, "dateTime": 1693483179794, "trialdata": {"revealed_states": [], "clicked_states": ["1", "2", "3", "4", "7", "6", "5"], "num_clicks_accrued": [0, 0, 0, 0, 0, 0, 0, 0, 0, 0, 0, 0, 0], "stateRewards": ["", -1, 3, 1, -7, 56, 76, 57, 3, 11, -9, 14, 1, -2, 2, 8, -77, -3, 79, -5, 88, 24, -66, -2, -1, 7, -7, -30, 14, -76, 11, -36, 28, -6], "withholdReward": false, "trial_id": "mdp_trial_31", "block": "test", "trialIndex": 32, "score": 62.2, "costs": -9.8, "simulationMode": [null, null, null, null, null], "rewards": [-1, 3, 1, -7, 76], "path": ["0", "0", "1", "2", "3", "4", "6"], "rt": [19171, 21, 198, 122, 17], "actions": ["up", "up", "up", "right", "right"], "actionTimes": [22996, 23584, 24345, 25040, 25798], "queries": {"click": {"state": {"target": ["1", "2", "3", "4", "7", "6", "5"], "time": [5002, 7078, 9219, 11275, 13365, 15604, 18055]}, "edge": {"target": [], "time": []}}, "mouseover": {"state": {"target": ["1", "1", "2", "3", "4", "7", "6", "5", "9"], "time": [4299, 4636, 5543, 7891, 10039, 11961, 14132, 16279, 18547]}, "edge": {"target": [], "time": []}}, "mouseout": {"state": {"target": ["18", "1", "1", "2", "3", "4", "7", "6", "5", "5", "9"], "time": [1023, 4352, 5472, 7838, 9986, 11864, 13894, 16175, 18287, 18493, 28660]}, "edge": {"target": [], "time": []}}}, "displayed_time": "26.36", "trialTime": 30563, "trial_type": "mouselab-mdp", "trial_index": 39, "time_elapsed": 2168626, "internal_node_id": "0.0-6.0-1.0-30.0"}}, {"uniqueid": "w44956376:a73089788", "current_trial": 40, "dateTime": 1693483238964, "trialdata": {"revealed_states": [], "clicked_states": ["12", "13", "14", "19", "20", "21", "22"], "num_clicks_accrued": [0, 0, 0, 0, 0, 0, 0, 0, 0, 0, 0, 0, 0], "stateRewards": ["", 1, -3, -6, -5, 47, 80, -29, 11, -71, 10, -29, -2, 3, -6, 12, 2, -78, -6, 8, 34, -16, -5, -1, 3, 3, -13, 84, -36, -62, -3, -27, 66, 15], "withholdReward": false, "trial_id": "mdp_trial_32", "block": "test", "trialIndex": 33, "score": 27.2, "costs": -9.8, "simulationMode": [null, null, null, null, null, null], "rewards": [-2, 3, -6, 8, 34], "path": ["0", "0", "12", "13", "14", "19", "20"], "rt": [21599, 18937, 493, 276, 359, 515], "actions": ["right", "right", "right", "right", "down", "right"], "actionTimes": [27621, 46572, 49032, 49877, 50776, 51848], "queries": {"click": {"state": {"target": ["12", "13", "14", "19", "20", "21", "22"], "time": [7126, 9207, 11311, 13302, 15428, 18903, 27584]}, "edge": {"target": [], "time": []}}, "mouseover": {"state": {"target": ["12", "13", "14", "19", "20", "21", "22"], "time": [6637, 7711, 10139, 12439, 14070, 15960, 22075]}, "edge": {"target": [], "time": []}}, "mouseout": {"state": {"target": ["7", "0", "0", "0", "12", "13", "14", "19", "20", "21", "22"], "time": [2809, 3125, 3921, 4338, 7658, 9925, 12285, 13867, 15950, 18960, 27669]}, "edge": {"target": [], "time": []}}}, "displayed_time": "52.40", "trialTime": 57425, "trial_type": "mouselab-mdp", "trial_index": 40, "time_elapsed": 2227796, "internal_node_id": "0.0-6.0-1.0-31.0"}}, {"uniqueid": "w44956376:a73089788", "current_trial": 41, "dateTime": 1693483300095, "trialdata": {"revealed_states": [], "clicked_states": ["12", "13", "14", "15", "17", "16", "18", "19", "22", "21", "20"], "num_clicks_accrued": [0, 0, 0, 0, 0, 0, 0, 0, 0, 0, 0, 0, 0], "stateRewards": ["", -1, 3, 2, 9, 41, 4, -46, -12, -54, -87, -25, 2, 3, -1, 11, -77, 12, -33, -9, -32, 35, 72, 1, 3, -7, 4, 37, 65, -73, 6, 77, -43, 8], "withholdReward": false, "trial_id": "mdp_trial_33", "block": "test", "trialIndex": 34, "score": 51.599999999999994, "costs": -15.400000000000002, "simulationMode": [null, null, null, null, null], "rewards": [2, 3, -1, -9, 72], "path": ["0", "0", "12", "13", "14", "19", "22"], "rt": [30243, 511, 123, 141, 249], "actions": ["right", "right", "right", "down", "left"], "actionTimes": [49307, 50625, 51305, 52028, 52845], "queries": {"click": {"state": {"target": ["12", "13", "14", "15", "17", "16", "18", "19", "22", "21", "20"], "time": [21406, 23431, 25468, 27659, 29769, 31781, 33954, 37004, 40986, 43025, 45204]}, "edge": {"target": [], "time": []}}, "mouseover": {"state": {"target": ["12", "13", "14", "15", "17", "16", "18", "12", "22", "19", "20", "14", "14", "22", "21", "20"], "time": [20964, 22041, 24056, 26411, 28691, 30620, 32630, 35979, 36396, 36491, 37901, 38785, 39352, 40466, 41859, 43672]}, "edge": {"target": [], "time": []}}, "mouseout": {"state": {"target": ["19", "22", "0", "12", "13", "14", "15", "17", "16", "18", "12", "22", "19", "20", "14", "14", "22", "21", "20"], "time": [15509, 15808, 20748, 21960, 23641, 26240, 28575, 30285, 32295, 35658, 36031, 36447, 37785, 38750, 38820, 40301, 41536, 43579, 45958]}, "edge": {"target": [], "time": []}}}, "displayed_time": "53.40", "trialTime": 58241, "trial_type": "mouselab-mdp", "trial_index": 41, "time_elapsed": 2288928, "internal_node_id": "0.0-6.0-1.0-32.0"}}, {"uniqueid": "w44956376:a73089788", "current_trial": 42, "dateTime": 1693483369237, "trialdata": {"revealed_states": [], "clicked_states": ["23", "24", "25", "30", "33", "32", "31", "28", "26", "27", "29"], "num_clicks_accrued": [0, 0, 0, 0, 0, 0, 0, 0, 0, 0, 0, 0, 0], "stateRewards": ["", -2, 2, -5, 1, 42, -63, -58, -6, 2, 16, 81, -2, 4, 7, -10, 33, 3, -33, -2, -52, -84, -27, 2, -3, -3, 15, -74, -14, -5, -5, -84, 79, -31], "withholdReward": false, "trial_id": "mdp_trial_34", "block": "test", "trialIndex": 35, "score": -55.400000000000006, "costs": -15.400000000000002, "simulationMode": [null, null, null, null, null], "rewards": [2, -3, -3, -5, -31], "path": ["0", "0", "23", "24", "25", "30", "33"], "rt": [28873, 212, 112, 76, 426], "actions": ["left", "left", "left", "down", "left"], "actionTimes": [56712, 57461, 58131, 58759, 59881], "queries": {"click": {"state": {"target": ["23", "24", "25", "30", "33", "32", "31", "28", "26", "27", "29"], "time": [29088, 31202, 33253, 35362, 37413, 39513, 41737, 45220, 47272, 49396, 51836]}, "edge": {"target": [], "time": []}}, "mouseover": {"state": {"target": ["0", "23", "23", "24", "25", "30", "33", "32", "31", "25", "26", "28", "26", "27", "29"], "time": [28289, 28361, 28524, 29650, 31886, 33911, 36130, 38520, 40422, 44046, 44145, 44662, 46022, 47855, 51162]}, "edge": {"target": [], "time": []}}, "mouseout": {"state": {"target": ["16", "24", "25", "23", "0", "0", "23", "23", "24", "24", "25", "30", "33", "32", "31", "25", "26", "28", "26", "27", "29", "8", "3"], "time": [23581, 24029, 24079, 24278, 24662, 28348, 28410, 29291, 31410, 31838, 33862, 36029, 38008, 40232, 42995, 44131, 44529, 45940, 47843, 50362, 53639, 64275, 64329]}, "edge": {"target": [], "time": []}}}, "displayed_time": "60.41", "trialTime": 65603, "trial_type": "mouselab-mdp", "trial_index": 42, "time_elapsed": 2358069, "internal_node_id": "0.0-6.0-1.0-33.0"}}, {"uniqueid": "w44956376:a73089788", "current_trial": 43, "dateTime": 1693483411889, "trialdata": {"revealed_states": [], "clicked_states": ["1", "2", "7", "3", "4", "6", "5"], "num_clicks_accrued": [0, 0, 0, 0, 0, 0, 0, 0, 0, 0, 0, 0, 0], "stateRewards": ["", 1, 1, 4, 11, 83, -66, 18, -16, -23, 5, 25, 1, -3, 1, -12, 18, 24, -86, -11, -64, 36, 40, 2, 1, -6, 13, 55, 29, 72, -2, 81, -72, -41], "withholdReward": false, "trial_id": "mdp_trial_35", "block": "test", "trialIndex": 36, "score": 90.2, "costs": -9.8, "simulationMode": [null, null, null, null, null], "rewards": [1, 1, 4, 11, 83], "path": ["0", "0", "1", "2", "3", "4", "5"], "rt": [20035, 92, 162, 40, 81], "actions": ["up", "up", "up", "right", "up"], "actionTimes": [28437, 29075, 29785, 30371, 31069], "queries": {"click": {"state": {"target": ["1", "2", "7", "3", "4", "6", "5"], "time": [9789, 11850, 13977, 16177, 18295, 20642, 23135]}, "edge": {"target": [], "time": []}}, "mouseover": {"state": {"target": ["12", "1", "2", "7", "3", "4", "6", "5", "5", "8", "10"], "time": [8855, 9088, 10363, 12438, 15459, 17137, 20065, 21350, 22451, 25305, 26478]}, "edge": {"target": [], "time": []}}, "mouseout": {"state": {"target": ["18", "23", "0", "12", "1", "2", "7", "3", "4", "6", "5", "5", "8", "10", "1"], "time": [5748, 6593, 8535, 8920, 10310, 12390, 14800, 16381, 20012, 21225, 21903, 23341, 26129, 26532, 33743]}, "edge": {"target": [], "time": []}}}, "displayed_time": "31.64", "trialTime": 40886, "trial_type": "mouselab-mdp", "trial_index": 43, "time_elapsed": 2400721, "internal_node_id": "0.0-6.0-1.0-34.0"}}, {"uniqueid": "w44956376:a73089788", "current_trial": 44, "dateTime": 1693483464081, "trialdata": {"revealed_states": [], "clicked_states": ["1", "2", "3", "8", "9", "11", "10", "7", "6", "5"], "num_clicks_accrued": [0, 0, 0, 0, 0, 0, 0, 0, 0, 0, 0, 0, 0], "stateRewards": ["", -2, 1, -7, 9, 8, 25, 61, -7, -17, 69, -81, 1, 4, -4, -11, 16, 67, 44, 3, 6, -45, -54, -2, 3, 6, -11, -15, 32, -47, 3, -39, -6, -88], "withholdReward": false, "trial_id": "mdp_trial_36", "block": "test", "trialIndex": 37, "score": 40, "costs": -14.000000000000002, "simulationMode": [null, null, null, null, null], "rewards": [-2, 1, -7, -7, 69], "path": ["0", "0", "1", "2", "3", "8", "10"], "rt": [26993, 572, 113, 139, 137], "actions": ["up", "up", "up", "left", "down"], "actionTimes": [31106, 32220, 32890, 33591, 34279], "queries": {"click": {"state": {"target": ["1", "2", "3", "8", "9", "11", "10", "7", "6", "5"], "time": [5550, 7702, 9813, 11914, 14105, 16198, 18246, 21181, 24177, 26435]}, "edge": {"target": [], "time": []}}, "mouseover": {"state": {"target": ["1", "2", "3", "3", "8", "9", "9", "11", "10", "2", "7", "4", "6", "5", "6"], "time": [4979, 6190, 8563, 9078, 10468, 12578, 12823, 14807, 17126, 19099, 19698, 23008, 23196, 25060, 30259]}, "edge": {"target": [], "time": []}}, "mouseout": {"state": {"target": ["17", "14", "13", "12", "0", "1", "2", "3", "3", "8", "9", "9", "11", "10", "2", "7", "4", "6", "5", "6", "6"], "time": [1799, 1842, 2130, 2200, 4880, 5752, 8514, 8611, 10370, 12566, 12740, 14645, 16712, 18916, 19611, 22872, 23048, 24940, 28498, 30312, 47776]}, "edge": {"target": [], "time": []}}}, "displayed_time": "34.84", "trialTime": 48937, "trial_type": "mouselab-mdp", "trial_index": 44, "time_elapsed": 2452913, "internal_node_id": "0.0-6.0-1.0-35.0"}}, {"uniqueid": "w44956376:a73089788", "current_trial": 45, "dateTime": 1693483499223, "trialdata": {"revealed_states": [], "clicked_states": ["10", "11", "9", "5", "6", "7"], "num_clicks_accrued": [0, 0, 0, 0, 0, 0, 0, 0, 0, 0, 0, 0, 0], "stateRewards": ["", -2, -4, -2, -13, -15, 87, -19, -6, -80, 30, 12, 1, 1, -8, 2, 55, 56, 15, 11, -68, -7, 55, -2, 3, -3, -3, 48, 62, 4, 1, -3, 69, -33], "withholdReward": false, "trial_id": "mdp_trial_37", "block": "test", "trialIndex": 38, "score": 57.6, "costs": -8.4, "simulationMode": [null, null, null, null, null], "rewards": [-2, -4, -2, -13, 87], "path": ["0", "0", "1", "2", "3", "4", "6"], "rt": [18518, 92, 200, 72, 42], "actions": ["up", "up", "up", "right", "right"], "actionTimes": [25823, 26440, 27211, 27828, 28422], "queries": {"click": {"state": {"target": ["10", "11", "9", "5", "6", "7"], "time": [9514, 11719, 13862, 16768, 18922, 21235]}, "edge": {"target": [], "time": []}}, "mouseover": {"state": {"target": ["1", "2", "10", "8", "11", "9", "5", "6", "7", "2"], "time": [8171, 8819, 9068, 10192, 10870, 12381, 15968, 18133, 19909, 23614]}, "edge": {"target": [], "time": []}}, "mouseout": {"state": {"target": ["2", "0", "1", "2", "10", "8", "11", "9", "5", "6", "7", "2", "1"], "time": [3097, 5579, 8404, 8868, 10143, 10744, 12249, 15801, 17807, 19788, 23216, 30260, 30652]}, "edge": {"target": [], "time": []}}}, "displayed_time": "28.97", "trialTime": 33334, "trial_type": "mouselab-mdp", "trial_index": 45, "time_elapsed": 2488055, "internal_node_id": "0.0-6.0-1.0-36.0"}}, {"uniqueid": "w44956376:a73089788", "current_trial": 46, "dateTime": 1693483538181, "trialdata": {"revealed_states": [], "clicked_states": ["12", "13", "22", "21", "20", "17", "16", "18"], "num_clicks_accrued": [0, 0, 0, 0, 0, 0, 0, 0, 0, 0, 0, 0, 0], "stateRewards": ["", 1, 1, -2, 7, -31, -6, 76, 1, -36, -16, -53, 2, 1, 7, 13, -47, -10, 47, -7, 72, 46, -56, -2, -2, -2, 11, -80, 44, 38, 16, 67, 85, -78], "withholdReward": false, "trial_id": "mdp_trial_38", "block": "test", "trialIndex": 39, "score": 63.8, "costs": -11.200000000000001, "simulationMode": [null, null, null, null, null], "rewards": [2, 1, 7, -7, 72], "path": ["0", "0", "12", "13", "14", "19", "20"], "rt": [23944, 126, 160, 274, 313], "actions": ["right", "right", "right", "down", "right"], "actionTimes": [29584, 30272, 30983, 31818, 32791], "queries": {"click": {"state": {"target": ["12", "13", "22", "21", "20", "17", "16", "18"], "time": [6946, 9057, 11160, 13324, 15502, 19530, 22723, 25460]}, "edge": {"target": [], "time": []}}, "mouseover": {"state": {"target": ["12", "12", "13", "22", "21", "20", "14", "14", "17", "14", "15", "16", "18", "18"], "time": [6157, 6489, 7618, 9622, 12108, 13926, 16458, 17875, 18737, 21295, 21730, 22134, 24270, 24889]}, "edge": {"target": [], "time": []}}, "mouseout": {"state": {"target": ["18", "12", "12", "13", "22", "21", "20", "14", "14", "17", "14", "15", "16", "18", "18", "7"], "time": [2195, 6239, 7456, 9606, 11605, 13876, 16144, 17067, 18241, 21126, 21680, 22078, 24260, 24511, 27194, 35939]}, "edge": {"target": [], "time": []}}}, "displayed_time": "33.34", "trialTime": 37082, "trial_type": "mouselab-mdp", "trial_index": 46, "time_elapsed": 2527013, "internal_node_id": "0.0-6.0-1.0-37.0"}}, {"uniqueid": "w44956376:a73089788", "current_trial": 47, "dateTime": 1693483579422, "trialdata": {"revealed_states": [], "clicked_states": ["23", "28", "27", "29", "25", "33", "32", "31", "24"], "num_clicks_accrued": [0, 0, 0, 0, 0, 0, 0, 0, 0, 0, 0, 0, 0], "stateRewards": ["", -2, -3, 1, -14, 48, -49, 67, -1, -35, -48, 3, -2, 1, -4, -5, 86, -84, 39, 1, 48, 41, -42, -1, -4, 2, -7, 18, -86, 17, 7, -9, 57, -69], "withholdReward": false, "trial_id": "mdp_trial_39", "block": "test", "trialIndex": 40, "score": -17.6, "costs": -12.600000000000001, "simulationMode": [null, null, null, null, null], "rewards": [-1, -4, 2, 7, -9], "path": ["0", "0", "23", "24", "25", "30", "31"], "rt": [25070, 57, 180, 174, 1023], "actions": ["left", "left", "left", "down", "right"], "actionTimes": [30997, 31618, 32354, 33097, 34666], "queries": {"click": {"state": {"target": ["23", "28", "27", "29", "25", "33", "32", "31", "24"], "time": [7274, 9997, 12618, 15100, 17530, 20214, 23168, 25816, 28266]}, "edge": {"target": [], "time": []}}, "mouseover": {"state": {"target": ["0", "23", "24", "28", "28", "26", "27", "27", "29", "25", "30", "33", "32", "30", "31", "24", "23"], "time": [6408, 6641, 7994, 9055, 9366, 11317, 11789, 12060, 13407, 16540, 18301, 19674, 22579, 24750, 24856, 27597, 29135]}, "edge": {"target": [], "time": []}}, "mouseout": {"state": {"target": ["16", "18", "0", "0", "0", "23", "24", "28", "28", "28", "26", "27", "27", "29", "25", "30", "33", "32", "30", "31", "24", "24", "23", "0"], "time": [1702, 2039, 2515, 5998, 6508, 7927, 9022, 9131, 10205, 10880, 11707, 11856, 13264, 15991, 18237, 19557, 21559, 24627, 24820, 26018, 28475, 29047, 38072, 38126]}, "edge": {"target": [], "time": []}}}, "displayed_time": "35.22", "trialTime": 39497, "trial_type": "mouselab-mdp", "trial_index": 47, "time_elapsed": 2568254, "internal_node_id": "0.0-6.0-1.0-38.0"}}, {"uniqueid": "w44956376:a73089788", "current_trial": 48, "dateTime": 1693483602854, "trialdata": {"revealed_states": [], "clicked_states": [], "num_clicks_accrued": [0, 0, 0, 0, 0, 0, 0, 0, 0, 0, 0, 0, 0], "stateRewards": ["", -1, 1, 8, -8, -49, 62, -78, 16, 28, -81, 78, -2, -3, -1, -4, 67, 49, -2, -13, -16, -39, 83, 1, -4, 4, -5, -20, 7, 84, 7, -32, -59, 19], "withholdReward": false, "trial_id": "mdp_trial_40", "block": "test", "trialIndex": 41, "score": -49, "costs": 0, "simulationMode": [null, null, null, null, null], "rewards": [-1, 1, 8, -8, -49], "path": ["0", "0", "1", "2", "3", "4", "5"], "rt": [5453, 24, 251, 21, 93], "actions": ["up", "up", "up", "right", "up"], "actionTimes": [10816, 11410, 12232, 12814, 13551], "queries": {"click": {"state": {"target": [], "time": []}, "edge": {"target": [], "time": []}}, "mouseover": {"state": {"target": ["1", "7", "6", "7"], "time": [6911, 7019, 8207, 8639]}, "edge": {"target": [], "time": []}}, "mouseout": {"state": {"target": ["19", "12", "1", "7", "6", "7"], "time": [2635, 2750, 6961, 7079, 8260, 9885]}, "edge": {"target": [], "time": []}}}, "displayed_time": "19.37", "trialTime": 21711, "trial_type": "mouselab-mdp", "trial_index": 48, "time_elapsed": 2591687, "internal_node_id": "0.0-6.0-1.0-39.0"}}, {"uniqueid": "w44956376:a73089788", "current_trial": 49, "dateTime": 1693483702981, "trialdata": {"rt": 99147, "response": {"Q0": "$-2 to $2", "Q1": "$-16 to $16", "Q2": "$-88 to $88", "Q3": "The cost was always $1.4.", "Q4": "Very unmotivated"}, "question_order": [0, 1, 2, 3, 4], "trial_id": "final_quiz_control", "trial_type": "survey-multi-choice", "trial_index": 49, "time_elapsed": 2691814, "internal_node_id": "0.0-6.0-2.0"}}, {"uniqueid": "w44956376:a73089788", "current_trial": 50, "dateTime": 1693483915819, "trialdata": {"rt": 212027, "response": {"Q0": "Initially I had no idea what was going on so I was just going with luck. Then I found clicking on multiple nodes and going with the highest ones on the last move would make more sense. ", "Q1": "Instead of clicking on every node I just clicked the ones that would be the last point the spider went to and went with the highest one. ", "Q2": "What made it difficult was sometimes forgetting to use the node inspector and losing money"}, "trial_id": "self_report_control", "trial_type": "survey-text", "trial_index": 50, "time_elapsed": 2904653, "internal_node_id": "0.0-6.0-3.0"}}, {"uniqueid": "w44956376:a73089788", "current_trial": 51, "dateTime": 1693483945232, "trialdata": {"rt": 29071, "response": {"gender": "female", "age": "29", "colorblind": "0", "effort": "0"}, "trial_type": "survey-html-form", "trial_index": 51, "time_elapsed": 2934066, "internal_node_id": "0.0-6.0-4.0"}}, {"uniqueid": "w44956376:a73089788", "current_trial": 52, "dateTime": 1693484311422, "trialdata": {"rt": 366134, "response": {"Q0": "I had difficulty understanding the nodes in the beginning of the game. I understood while reading the instructions but when it was time to play I did not use them enough cause I had no idea what was going on. Another thing is I kept forgetting to use the node inspector until I was timed out which always led to going a random route that resulted in losing a lot of money. ", "Q1": "I had not participated before today.", "Q2": "After I got the hang of it I had fun. It was a tad stressful but I enjoyed it. I would like to add that I barely noticed the common theme of the amounts on the first, second or the last step at the edges. I barely paid that no mind"}, "trial_type": "survey-text", "trial_index": 52, "time_elapsed": 3300256, "internal_node_id": "0.0-6.0-5.0"}}, {"uniqueid": "w44956376:a73089788", "current_trial": 53, "dateTime": 1693484383054, "trialdata": {"rt": 71491, "stimulus": "<h1>Completion Code Instructions (1/2)</h1>\n<br><br><br><br>\nYou have reached the end of the experiment! The completion code consists of two parts: (1) a code with 2 characters (2) a code with 6 characters. On this page, you will receive the second part of the code. The first part of the completion code will be on the next page.\n<br><br>\nThe second part of your completion code is: <b>EWEK22</b>\n<br><br>\nPlease note this down. Then, press 'Finish HIT' in order to find the first part of your completion code. Once the data has been saved, you will receive this code either in this window or in the original browser window where you started the experiment.\n", "response": 0, "trial_type": "html-button-response", "trial_index": 53, "time_elapsed": 3371888, "internal_node_id": "0.0-6.0-6.0"}}, {"uniqueid": "w44956376:a73089788", "current_trial": 54, "dateTime": 1693484384167, "trialdata": {"success": true, "trial_type": "fullscreen", "trial_index": 54, "time_elapsed": 3373000, "internal_node_id": "0.0-7.0"}}], "questiondata": {"params": {"CODE": "C6DMOQA6", "MIN_TIME": 14, "inspectCost": 1, "startTime": "Thu Aug 31 2023 13:23:28 GMT+0200 (South Africa Standard Time)", "bonusRate": 0.002, "variance": "1_2_4_8_44", "branching": "31123"}}, "eventdata": [{"eventtype": "initialized", "value": null, "timestamp": 1693481007694, "interval": 0}, {"eventtype": "window_resize", "value": [1024, 661], "timestamp": 1693481007694, "interval": 0}, {"eventtype": "window_resize", "value": [1024, 661], "timestamp": 1693481008237, "interval": 543}, {"eventtype": "window_resize", "value": [1366, 677], "timestamp": 1693481025944, "interval": 17707}, {"eventtype": "window_resize", "value": [1366, 768], "timestamp": 1693481027444, "interval": 1500}], "useragent": "Mozilla/5.0 (Windows NT 10.0; Win64; x64) AppleWebKit/537.36 (KHTML, like Gecko) Chrome/109.0.0.0 Safari/537.36", "mode": "live", "id": "w44956376:a73089788", "status": "user data saved", "Beginhit": "2023-08-31 11:23:22.89007", "Beginexp": "2023-08-31 11:23:47.166381", "Endhit": "2023-08-31 12:19:50.396911", "psiturkStatus": 3, "browser": "<redacted>", "platform": "windows", "language": "en-US"}