{"condition": 0, "counterbalance": 0, "assignmentId": "a25321929", "workerId": "w27163576", "hitId": "h63860898", "currenttrial": 55, "bonus": 0, "data": [{"uniqueid": "w27163576:a25321929", "current_trial": 0, "dateTime": 1693481262978, "trialdata": {"success": true, "trial_type": "fullscreen", "trial_index": 0, "time_elapsed": 7506, "internal_node_id": "0.0-0.0"}}, {"uniqueid": "w27163576:a25321929", "current_trial": 1, "dateTime": 1693481278620, "trialdata": {"view_history": [{"page_index": 0, "viewing_time": 15630}], "rt": 15631, "trial_id": "exp_instructions_control", "trial_type": "instructions", "trial_index": 1, "time_elapsed": 23150, "internal_node_id": "0.0-1.0"}}, {"uniqueid": "w27163576:a25321929", "current_trial": 2, "dateTime": 1693482479379, "trialdata": {"view_history": [{"page_index": 0, "viewing_time": 80641}, {"page_index": 1, "viewing_time": 1091316}, {"page_index": 2, "viewing_time": 21860}, {"page_index": 3, "viewing_time": 6939}], "rt": 1200758, "trial_id": "mouselab_instructions_1_control", "trial_type": "instructions", "trial_index": 2, "time_elapsed": 1223909, "internal_node_id": "0.0-2.0-1.0"}}, {"uniqueid": "w27163576:a25321929", "current_trial": 3, "dateTime": 1693482501369, "trialdata": {"revealed_states": [], "clicked_states": [], "num_clicks_accrued": [0, 0, 0, 0, 0, 0, 0, 0, 0, 0, 0, 0, 0], "stateRewards": ["", -10, -10, 10, 10, -10, 10, -10, -10, 10, 10, -10, -10, 10, -10, -10, 10, -10, 10, -10, -10, -10, -10, 10, -10, 10, -10, 10, -10, -10, -10, 10, -10, 10], "withholdReward": false, "trial_id": "practice_1", "block": "test", "trialIndex": 0, "score": -6.5, "costs": 0, "simulationMode": [null, null, null, null, null], "rewards": [-10, -10, 10, 10, -10], "path": ["0", "0", "1", "2", "3", "4", "7"], "rt": [4428, 832, 420, 55, 6201], "actions": ["up", "up", "up", "right", "down"], "actionTimes": [8621, 9943, 10863, 11416, 18129], "queries": {"click": {"state": {"target": [], "time": []}, "edge": {"target": [], "time": []}}, "mouseover": {"state": {"target": ["12", "1", "1"], "time": [4943, 7161, 7598]}, "edge": {"target": [], "time": []}}, "mouseout": {"state": {"target": ["12", "22", "0", "0", "12", "1", "1", "7", "4", "7"], "time": [665, 3078, 3462, 4830, 7078, 7212, 13826, 13965, 15276, 15578]}, "edge": {"target": [], "time": []}}}, "displayed_time": "18.63", "trialTime": 21536, "trial_type": "mouselab-mdp", "trial_index": 3, "time_elapsed": 1245897, "internal_node_id": "0.0-2.0-2.0-0.0"}}, {"uniqueid": "w27163576:a25321929", "current_trial": 4, "dateTime": 1693482516743, "trialdata": {"revealed_states": [], "clicked_states": [], "num_clicks_accrued": [0, 0, 0, 0, 0, 0, 0, 0, 0, 0, 0, 0, 0], "stateRewards": ["", -10, 10, -10, 10, -10, -10, -10, -10, -10, -10, -10, 10, 10, 10, 10, -10, -10, 10, -10, 10, 10, -10, 10, -10, 10, -10, -10, 10, 10, -10, -10, -10, -10], "withholdReward": false, "trial_id": "practice_2", "block": "test", "trialIndex": 1, "score": -6.5, "costs": 0, "simulationMode": [null, null, null, null, null], "rewards": [10, -10, 10, -10, -10], "path": ["0", "0", "23", "24", "25", "30", "32"], "rt": [7275, 109, 141, 80, 75], "actions": ["left", "left", "left", "down", "down"], "actionTimes": [8816, 9452, 10100, 10675, 11269], "queries": {"click": {"state": {"target": [], "time": []}, "edge": {"target": [], "time": []}}, "mouseover": {"state": {"target": ["12", "13", "14", "14", "13", "12", "0", "23", "0", "23", "24", "25", "30", "32", "32", "21"], "time": [2075, 2125, 2360, 3099, 3145, 3166, 3178, 3209, 3432, 3741, 4112, 4462, 6877, 7810, 8042, 8361]}, "edge": {"target": [], "time": []}}, "mouseout": {"state": {"target": ["0", "12", "13", "14", "14", "13", "12", "0", "23", "0", "23", "24", "25", "30", "32", "32", "21"], "time": [2062, 2109, 2246, 2561, 3129, 3162, 3176, 3192, 3301, 3725, 4081, 4447, 6797, 7776, 7843, 8075, 8377]}, "edge": {"target": [], "time": []}}}, "displayed_time": "11.76", "trialTime": 15228, "trial_type": "mouselab-mdp", "trial_index": 4, "time_elapsed": 1261272, "internal_node_id": "0.0-2.0-2.0-1.0"}}, {"uniqueid": "w27163576:a25321929", "current_trial": 5, "dateTime": 1693482581492, "trialdata": {"view_history": [{"page_index": 0, "viewing_time": 26311}, {"page_index": 1, "viewing_time": 38432}], "rt": 64742, "trial_id": "mouselab_instructions_2_control", "trial_type": "instructions", "trial_index": 5, "time_elapsed": 1326022, "internal_node_id": "0.0-2.0-3.0"}}, {"uniqueid": "w27163576:a25321929", "current_trial": 6, "dateTime": 1693482616553, "trialdata": {"rt": 35057, "response": {"Q0": "The cost for clicking on nodes may vary between nodes.", "Q1": "The better I perform the higher my bonus will be.", "Q2": "No, the amount of cash at each node of the web may be different each time.", "Q3": "To get the highest total score.", "Q4": "Only before moving the spider.", "Q5": "3 seconds"}, "question_order": [0, 1, 2, 3, 4, 5], "correct": {"Q0": "The cost for clicking on nodes may vary between nodes.", "Q1": "The better I perform the higher my bonus will be.", "Q2": "No, the amount of cash at each node of the web may be different each time.", "Q3": "To get the highest total score.", "Q4": "Only before moving the spider.", "Q5": "3 seconds"}, "trial_id": "mouselab_quiz_control", "trial_type": "survey-multi-choice", "trial_index": 6, "time_elapsed": 1361083, "internal_node_id": "0.0-2.0-4.0"}}, {"uniqueid": "w27163576:a25321929", "current_trial": 7, "dateTime": 1693482620532, "trialdata": {"rt": 3974, "response": {"Q0": "No"}, "question_order": [0], "trial_id": "repeat_check", "trial_type": "survey-multi-choice", "trial_index": 7, "time_elapsed": 1365062, "internal_node_id": "0.0-4.0-0.0"}}, {"uniqueid": "w27163576:a25321929", "current_trial": 8, "dateTime": 1693482622192, "trialdata": {"rt": 1654, "stimulus": "\n<h1> Get ready to start the game! </h1>\n\nThank you for reading the instructions. Get ready start with the 40 rounds of this game.\n<br><br>\nIf you need to take a break, feel free to take one after the end of a round, before continuing to the next one.\n<br><br>\nRemember, the more money the spider gets, the bigger your bonus will be!\n<br><br>\n<div style='text-align: center;'>Press <code>space</code> to begin.</div>\n\n<br><br>\n(If, at any point, the <code>space</code> key does not take you to the next page, click once on the text and try again.)", "response": " ", "trial_id": "mdp_ready", "trial_type": "html-keyboard-response", "trial_index": 8, "time_elapsed": 1366722, "internal_node_id": "0.0-6.0-0.0"}}, {"uniqueid": "w27163576:a25321929", "current_trial": 9, "dateTime": 1693482645805, "trialdata": {"revealed_states": [], "clicked_states": [], "num_clicks_accrued": [0, 0, 0, 0, 0, 0, 0, 0, 0, 0, 0, 0, 0], "stateRewards": ["", 1, 1, -6, -2, 7, 77, 3, 16, -16, 66, 31, -1, 3, -8, -6, 33, -50, -48, 7, -60, -66, 36, 2, -3, 3, -7, -12, -61, -79, -4, 8, 74, -70], "withholdReward": false, "trial_id": "mdp_trial_1", "block": "test", "trialIndex": 2, "score": -66, "costs": 0, "simulationMode": [null, null, null, null, null], "rewards": [2, -3, 3, -7, -61], "path": ["0", "0", "23", "24", "25", "26", "28"], "rt": [8636, 139, 536, 3792, 2612], "actions": ["left", "left", "left", "up", "right"], "actionTimes": [10840, 11489, 12519, 16809, 19913], "queries": {"click": {"state": {"target": [], "time": []}, "edge": {"target": [], "time": []}}, "mouseover": {"state": {"target": ["0", "0"], "time": [2955, 4474]}, "edge": {"target": [], "time": []}}, "mouseout": {"state": {"target": ["22", "19", "13", "0", "0"], "time": [781, 966, 1250, 3429, 5433]}, "edge": {"target": [], "time": []}}}, "displayed_time": "20.43", "trialTime": 23444, "trial_type": "mouselab-mdp", "trial_index": 9, "time_elapsed": 1390333, "internal_node_id": "0.0-6.0-1.0-0.0"}}, {"uniqueid": "w27163576:a25321929", "current_trial": 10, "dateTime": 1693482683605, "trialdata": {"revealed_states": [], "clicked_states": ["26", "25", "4", "7", "15", "19", "21", "32", "30", "33", "31"], "num_clicks_accrued": [0, 0, 0, 0, 0, 0, 0, 0, 0, 0, 0, 0, 0], "stateRewards": ["", -2, 1, -7, 9, 8, 25, 61, -7, -17, 69, -81, 1, 4, -4, -11, 16, 67, 44, 3, 6, -45, -54, -2, 3, 6, -11, -15, 32, -47, 3, -39, -6, -88], "withholdReward": false, "trial_id": "mdp_trial_2", "block": "test", "trialIndex": 3, "score": 46.599999999999994, "costs": -15.400000000000002, "simulationMode": [null, null, null, null, null], "rewards": [-2, 1, -7, 9, 61], "path": ["0", "0", "1", "2", "3", "4", "7"], "rt": [26617, 499, 324, 97, 258], "actions": ["up", "up", "up", "right", "down"], "actionTimes": [29224, 30245, 31069, 31675, 32436], "queries": {"click": {"state": {"target": ["26", "25", "4", "7", "15", "19", "21", "32", "30", "33", "31"], "time": [3562, 5903, 7561, 9129, 11286, 13248, 14777, 16688, 18567, 20246, 21857]}, "edge": {"target": [], "time": []}}, "mouseover": {"state": {"target": ["23", "26", "28", "27", "25", "28", "10", "3", "4", "7", "18", "15", "14", "19", "21", "32", "30", "25", "33", "31", "6", "4", "7", "1", "23", "24", "1"], "time": [3245, 3361, 4193, 4860, 5747, 6110, 6210, 6510, 6977, 8227, 9560, 9610, 11944, 13044, 13744, 15427, 18433, 19094, 19577, 20611, 22961, 23394, 23660, 25712, 25912, 26295, 27149]}, "edge": {"target": [], "time": []}}, "mouseout": {"state": {"target": ["0", "23", "26", "26", "28", "27", "26", "25", "28", "10", "3", "4", "7", "18", "15", "14", "19", "21", "32", "30", "25", "33", "30", "31", "6", "4", "7", "1", "23", "24", "1"], "time": [1726, 3261, 3594, 4077, 4610, 5464, 5616, 6001, 6127, 6261, 6927, 8110, 9527, 9577, 11777, 12577, 13677, 15127, 18111, 18827, 19411, 20510, 20594, 22310, 23160, 23510, 25649, 25796, 26232, 26680, 27163]}, "edge": {"target": [], "time": []}}}, "displayed_time": "32.95", "trialTime": 37660, "trial_type": "mouselab-mdp", "trial_index": 10, "time_elapsed": 1428134, "internal_node_id": "0.0-6.0-1.0-1.0"}}, {"uniqueid": "w27163576:a25321929", "current_trial": 11, "dateTime": 1693482704274, "trialdata": {"revealed_states": [], "clicked_states": ["21", "20", "19", "32"], "num_clicks_accrued": [0, 0, 0, 0, 0, 0, 0, 0, 0, 0, 0, 0, 0], "stateRewards": ["", -1, -3, -7, -4, -85, -70, 79, 8, 84, -66, 42, 2, -2, -3, -16, -54, -66, 68, -3, 21, -14, 7, -2, -1, -3, -8, 75, 80, 86, -7, -84, 73, -16], "withholdReward": false, "trial_id": "mdp_trial_3", "block": "test", "trialIndex": 4, "score": 54.4, "costs": -5.6, "simulationMode": [null, null, null, null, null], "rewards": [-2, -1, -3, -7, 73], "path": ["0", "0", "23", "24", "25", "30", "32"], "rt": [12285, 669, 160, 115, 130], "actions": ["left", "left", "left", "down", "down"], "actionTimes": [13788, 14955, 15614, 16235, 16868], "queries": {"click": {"state": {"target": ["21", "20", "19", "32"], "time": [2879, 4901, 7999, 10380]}, "edge": {"target": [], "time": []}}, "mouseover": {"state": {"target": ["22", "21", "20", "21", "20", "20", "19", "22", "31", "31", "22", "19", "32", "31", "10", "23", "31", "18"], "time": [1738, 2006, 2440, 2652, 3669, 4708, 5402, 6342, 6422, 6540, 7035, 7552, 10191, 10769, 10936, 11887, 12187, 12706]}, "edge": {"target": [], "time": []}}, "mouseout": {"state": {"target": ["0", "22", "21", "20", "21", "20", "20", "19", "22", "31", "31", "22", "19", "32", "31", "10", "23", "31", "18"], "time": [1568, 1772, 2085, 2605, 3269, 4489, 5319, 6304, 6358, 6437, 6740, 7208, 8352, 10419, 10785, 11637, 11986, 12585, 12723]}, "edge": {"target": [], "time": []}}}, "displayed_time": "17.37", "trialTime": 20516, "trial_type": "mouselab-mdp", "trial_index": 11, "time_elapsed": 1448802, "internal_node_id": "0.0-6.0-1.0-2.0"}}, {"uniqueid": "w27163576:a25321929", "current_trial": 12, "dateTime": 1693482735188, "trialdata": {"revealed_states": [], "clicked_states": ["4", "7", "32", "25", "21", "17", "16"], "num_clicks_accrued": [0, 0, 0, 0, 0, 0, 0, 0, 0, 0, 0, 0, 0], "stateRewards": ["", -1, 1, -6, -1, 80, 23, 2, -11, 73, -81, 59, 1, 3, 5, -1, -26, 28, -3, 16, -59, -13, -50, -2, -2, 2, 15, -50, 86, 17, -4, 37, 35, 44], "withholdReward": false, "trial_id": "mdp_trial_4", "block": "test", "trialIndex": 5, "score": 26.2, "costs": -9.8, "simulationMode": [null, null, null, null, null], "rewards": [1, 3, 5, -1, 28], "path": ["0", "0", "12", "13", "14", "15", "17"], "rt": [19127, 119, 135, 78, 390], "actions": ["right", "right", "right", "up", "right"], "actionTimes": [23239, 23860, 24492, 25068, 25947], "queries": {"click": {"state": {"target": ["4", "7", "32", "25", "21", "17", "16"], "time": [5952, 7806, 10356, 12259, 14494, 16877, 18993]}, "edge": {"target": [], "time": []}}, "mouseover": {"state": {"target": ["18", "7", "6", "6", "4", "7", "7", "4", "7", "7", "23", "31", "32", "32", "32", "24", "25", "24", "23", "0", "15", "17", "17", "14", "19", "21", "20", "17", "17", "14", "15", "16"], "time": [4309, 4608, 4822, 4978, 5040, 5225, 5474, 5724, 6273, 6879, 8172, 8222, 8472, 9754, 10194, 10772, 10972, 12539, 12573, 12590, 12656, 12689, 12872, 13105, 14174, 14257, 14972, 15122, 16493, 17256, 18638, 18773]}, "edge": {"target": [], "time": []}}, "mouseout": {"state": {"target": ["18", "13", "0", "12", "16", "0", "0", "18", "7", "6", "6", "4", "7", "7", "4", "7", "7", "23", "31", "32", "32", "32", "24", "25", "24", "23", "0", "15", "17", "17", "14", "19", "21", "20", "17", "17", "14", "15", "16", "17", "15", "15", "20"], "time": [2524, 2556, 3238, 3294, 3505, 3625, 3975, 4459, 4789, 4872, 5023, 5105, 5344, 5624, 6207, 6339, 8022, 8206, 8272, 9006, 10073, 10473, 10856, 12522, 12556, 12589, 12605, 12672, 12722, 12922, 14161, 14222, 14894, 14995, 15339, 17206, 18622, 18722, 19239, 27593, 28267, 28861, 30092]}, "edge": {"target": [], "time": []}}}, "displayed_time": "26.46", "trialTime": 30755, "trial_type": "mouselab-mdp", "trial_index": 12, "time_elapsed": 1479718, "internal_node_id": "0.0-6.0-1.0-3.0"}}, {"uniqueid": "w27163576:a25321929", "current_trial": 13, "dateTime": 1693482752637, "trialdata": {"revealed_states": [], "clicked_states": ["6", "11", "32", "20"], "num_clicks_accrued": [0, 0, 0, 0, 0, 0, 0, 0, 0, 0, 0, 0, 0], "stateRewards": ["", -2, -3, 4, 1, 33, -53, 15, 9, -12, 61, -6, -2, 4, 6, -11, 47, -43, -7, -11, 46, 23, -28, -1, -1, 3, -10, 11, 76, -76, 10, 18, -38, 87], "withholdReward": false, "trial_id": "mdp_trial_5", "block": "test", "trialIndex": 6, "score": 37.4, "costs": -5.6, "simulationMode": [null, null, null, null, null], "rewards": [-2, 4, 6, -11, 46], "path": ["0", "0", "12", "13", "14", "19", "20"], "rt": [10141, 135, 261, 27, 50], "actions": ["right", "right", "right", "down", "right"], "actionTimes": [11148, 11785, 12543, 13080, 13631], "queries": {"click": {"state": {"target": ["6", "11", "32", "20"], "time": [1939, 3911, 5872, 8127]}, "edge": {"target": [], "time": []}}, "mouseover": {"state": {"target": ["1", "7", "6", "1", "10", "11", "31", "32", "22", "19", "20", "21", "20", "21", "21"], "time": [1132, 1250, 1804, 2898, 3115, 3684, 4382, 5299, 6632, 6665, 6731, 7049, 7600, 8515, 8898]}, "edge": {"target": [], "time": []}}, "mouseout": {"state": {"target": ["21", "0", "1", "7", "6", "1", "10", "11", "31", "32", "22", "19", "20", "21", "20", "21", "21", "21"], "time": [331, 818, 1182, 1281, 2232, 2948, 3601, 4115, 4449, 6149, 6648, 6698, 6865, 7521, 8398, 8548, 14798, 16233]}, "edge": {"target": [], "time": []}}}, "displayed_time": "15.01", "trialTime": 17296, "trial_type": "mouselab-mdp", "trial_index": 13, "time_elapsed": 1497166, "internal_node_id": "0.0-6.0-1.0-4.0"}}, {"uniqueid": "w27163576:a25321929", "current_trial": 14, "dateTime": 1693482821881, "trialdata": {"revealed_states": [], "clicked_states": ["28", "31", "32", "11", "9", "7", "21", "20"], "num_clicks_accrued": [0, 0, 0, 0, 0, 0, 0, 0, 0, 0, 0, 0, 0], "stateRewards": ["", 1, -1, 8, 4, 76, -33, -17, -3, -1, -54, -74, -2, 2, -5, 13, -51, 63, 83, 1, 84, 29, -36, 2, -1, 7, -12, -10, -44, -43, -14, 8, -69, 19], "withholdReward": false, "trial_id": "mdp_trial_6", "block": "test", "trialIndex": 7, "score": 68.8, "costs": -11.200000000000001, "simulationMode": [null, null, null, null, null], "rewards": [-2, 2, -5, 1, 84], "path": ["0", "0", "12", "13", "14", "19", "20"], "rt": [22823, 87, 129, 62, 66], "actions": ["right", "right", "right", "down", "right"], "actionTimes": [24036, 24642, 25266, 25833, 26403], "queries": {"click": {"state": {"target": ["28", "31", "32", "11", "9", "7", "21", "20"], "time": [2257, 5073, 9495, 12115, 14787, 17138, 19140, 21097]}, "edge": {"target": [], "time": []}}, "mouseover": {"state": {"target": ["23", "28", "26", "28", "28", "1", "1", "23", "31", "31", "32", "22", "20", "19", "22", "32", "33", "32", "32", "30", "26", "27", "10", "11", "9", "9", "4", "15", "14", "18", "7", "18", "19", "21", "20"], "time": [1421, 1619, 1790, 1851, 2025, 2518, 4223, 4335, 4435, 4773, 7223, 7284, 7669, 7719, 7755, 8124, 8484, 8968, 9340, 10801, 10902, 10935, 11521, 11891, 14173, 14451, 15068, 15168, 16302, 16687, 17008, 17918, 18118, 18923, 20187]}, "edge": {"target": [], "time": []}}, "mouseout": {"state": {"target": ["0", "23", "28", "26", "28", "28", "1", "1", "23", "31", "31", "32", "22", "20", "19", "22", "32", "33", "32", "32", "30", "26", "27", "10", "11", "9", "9", "4", "15", "14", "18", "7", "18", "19", "21", "20", "17", "16", "16"], "time": [1373, 1505, 1634, 1835, 1868, 2402, 2558, 4302, 4369, 4486, 5201, 7234, 7301, 7703, 7752, 7769, 8169, 8885, 9151, 9542, 10818, 10918, 11018, 11790, 12385, 14254, 14984, 15084, 15234, 16436, 16854, 17569, 17935, 18185, 19818, 21385, 28438, 28467, 68835]}, "edge": {"target": [], "time": []}}}, "displayed_time": "26.90", "trialTime": 69075, "trial_type": "mouselab-mdp", "trial_index": 14, "time_elapsed": 1566410, "internal_node_id": "0.0-6.0-1.0-5.0"}}, {"uniqueid": "w27163576:a25321929", "current_trial": 15, "dateTime": 1693482842985, "trialdata": {"revealed_states": [], "clicked_states": ["7"], "num_clicks_accrued": [0, 0, 0, 0, 0, 0, 0, 0, 0, 0, 0, 0, 0], "stateRewards": ["", -1, 3, 1, -7, 56, 76, 57, 3, 11, -9, 14, 1, -2, 2, 8, -77, -3, 79, -5, 88, 24, -66, -2, -1, 7, -7, -30, 14, -76, 11, -36, 28, -6], "withholdReward": false, "trial_id": "mdp_trial_7", "block": "test", "trialIndex": 8, "score": 51.6, "costs": -1.4, "simulationMode": [null, null, null, null, null], "rewards": [-1, 3, 1, -7, 57], "path": ["0", "0", "1", "2", "3", "4", "7"], "rt": [3986, 49, 49, 1, 486], "actions": ["up", "up", "up", "right", "down"], "actionTimes": [6808, 7353, 7920, 8439, 9440], "queries": {"click": {"state": {"target": ["7"], "time": [4171]}, "edge": {"target": [], "time": []}}, "mouseover": {"state": {"target": ["7", "7", "0", "12"], "time": [3506, 3771, 5170, 6239]}, "edge": {"target": [], "time": []}}, "mouseout": {"state": {"target": ["15", "14", "22", "0", "7", "7", "0", "12"], "time": [1607, 1640, 1686, 3030, 3538, 4520, 6188, 17822]}, "edge": {"target": [], "time": []}}}, "displayed_time": "16.82", "trialTime": 20914, "trial_type": "mouselab-mdp", "trial_index": 15, "time_elapsed": 1587514, "internal_node_id": "0.0-6.0-1.0-6.0"}}, {"uniqueid": "w27163576:a25321929", "current_trial": 16, "dateTime": 1693482864921, "trialdata": {"revealed_states": [], "clicked_states": ["7", "10"], "num_clicks_accrued": [0, 0, 0, 0, 0, 0, 0, 0, 0, 0, 0, 0, 0], "stateRewards": ["", -2, -3, 1, -7, 39, -67, 16, 5, -20, 73, 66, -1, 4, 5, -3, 23, -68, -87, -8, 3, -3, 17, 1, -4, -2, -13, -32, 34, 61, -5, -11, -18, 12], "withholdReward": false, "trial_id": "mdp_trial_8", "block": "test", "trialIndex": 9, "score": 71.2, "costs": -2.8, "simulationMode": [null, null, null, null, null], "rewards": [-2, -3, 1, 5, 73], "path": ["0", "0", "1", "2", "3", "8", "10"], "rt": [5812, 80, 113, 433, 132], "actions": ["up", "up", "up", "left", "down"], "actionTimes": [10430, 11028, 11661, 12630, 13262], "queries": {"click": {"state": {"target": ["7", "10"], "time": [5210, 7132]}, "edge": {"target": [], "time": []}}, "mouseover": {"state": {"target": ["7", "2", "10", "0", "31", "31", "6", "4", "2", "1"], "time": [4963, 5512, 5779, 7802, 7931, 8147, 8679, 8995, 9064, 9096]}, "edge": {"target": [], "time": []}}, "mouseout": {"state": {"target": ["7", "6", "7", "0", "0", "7", "2", "10", "0", "31", "31", "7", "6", "4", "2", "1", "18"], "time": [2098, 2517, 4088, 4215, 4624, 5462, 5629, 7446, 7868, 7963, 8180, 8246, 8983, 9028, 9079, 9133, 20979]}, "edge": {"target": [], "time": []}}}, "displayed_time": "18.62", "trialTime": 21758, "trial_type": "mouselab-mdp", "trial_index": 16, "time_elapsed": 1609449, "internal_node_id": "0.0-6.0-1.0-7.0"}}, {"uniqueid": "w27163576:a25321929", "current_trial": 17, "dateTime": 1693482882664, "trialdata": {"revealed_states": [], "clicked_states": ["32", "10"], "num_clicks_accrued": [0, 0, 0, 0, 0, 0, 0, 0, 0, 0, 0, 0, 0], "stateRewards": ["", 1, 3, 1, -13, 52, -28, 67, -14, 3, 63, -70, -1, -4, 7, -11, -10, 47, -18, 6, 69, -9, -61, 2, 3, -6, 10, 63, -34, 40, -6, -79, -35, -32], "withholdReward": false, "trial_id": "mdp_trial_9", "block": "test", "trialIndex": 10, "score": 51.2, "costs": -2.8, "simulationMode": [null, null, null, null, null], "rewards": [1, 3, 1, -14, 63], "path": ["0", "0", "1", "2", "3", "8", "10"], "rt": [5464, 96, 161, 535, 52], "actions": ["up", "up", "up", "left", "down"], "actionTimes": [6713, 7324, 7989, 9013, 9580], "queries": {"click": {"state": {"target": ["32", "10"], "time": [2214, 4096]}, "edge": {"target": [], "time": []}}, "mouseover": {"state": {"target": ["31", "32", "26", "24", "1", "7", "7", "2", "10", "2", "7", "16", "7"], "time": [1645, 1896, 2727, 3160, 3228, 3260, 3394, 3460, 3529, 4327, 4394, 4494, 5914]}, "edge": {"target": [], "time": []}}, "mouseout": {"state": {"target": ["0", "31", "32", "26", "24", "1", "7", "7", "2", "10", "2", "7", "16", "7"], "time": [1566, 1712, 2344, 2844, 3194, 3243, 3293, 3443, 3500, 4294, 4377, 4410, 4611, 6100]}, "edge": {"target": [], "time": []}}}, "displayed_time": "15.25", "trialTime": 17550, "trial_type": "mouselab-mdp", "trial_index": 17, "time_elapsed": 1627193, "internal_node_id": "0.0-6.0-1.0-8.0"}}, {"uniqueid": "w27163576:a25321929", "current_trial": 18, "dateTime": 1693482907555, "trialdata": {"revealed_states": [], "clicked_states": ["6", "7", "21", "32", "28", "10", "11"], "num_clicks_accrued": [0, 0, 0, 0, 0, 0, 0, 0, 0, 0, 0, 0, 0], "stateRewards": ["", 1, -3, -2, 14, 49, -40, -39, 2, 26, -61, 73, 1, -4, -8, 12, 79, 29, -65, -13, 55, -26, 27, -1, 3, 3, 9, -17, -60, -18, -8, 35, -88, 69], "withholdReward": false, "trial_id": "mdp_trial_10", "block": "test", "trialIndex": 11, "score": 61.2, "costs": -9.8, "simulationMode": [null, null, null, null, null], "rewards": [1, -3, -2, 2, 73], "path": ["0", "0", "1", "2", "3", "8", "11"], "rt": [17920, 9, 236, 55, 337], "actions": ["up", "up", "up", "left", "left"], "actionTimes": [19141, 19648, 20410, 20961, 21826], "queries": {"click": {"state": {"target": ["6", "7", "21", "32", "28", "10", "11"], "time": [3231, 5465, 7382, 9233, 11686, 14555, 16458]}, "edge": {"target": [], "time": []}}, "mouseover": {"state": {"target": ["18", "16", "6", "6", "7", "2", "2", "7", "18", "12", "12", "19", "21", "31", "30", "33", "32", "31", "23", "23", "14", "22", "31", "30", "25", "28", "23", "26", "26", "2", "10", "11", "1", "12", "13", "18"], "time": [1322, 1339, 2705, 3122, 3521, 3755, 4404, 4847, 5838, 6121, 6304, 6437, 6671, 8021, 8071, 8138, 8554, 9721, 9821, 10038, 10740, 11040, 11139, 11172, 11354, 11589, 12904, 13674, 13940, 14070, 14270, 15304, 16921, 17604, 18021, 18555]}, "edge": {"target": [], "time": []}}, "mouseout": {"state": {"target": ["7", "18", "16", "6", "6", "7", "2", "2", "7", "18", "12", "12", "19", "21", "31", "30", "33", "32", "31", "23", "23", "14", "22", "31", "30", "25", "28", "23", "28", "26", "26", "2", "10", "11", "10", "1", "12", "13"], "time": [592, 1337, 1354, 2721, 3421, 3705, 4088, 4637, 5754, 5887, 6154, 6337, 6604, 7424, 8038, 8121, 8270, 9571, 9771, 9871, 10170, 10770, 11055, 11155, 11272, 11460, 12071, 13087, 13658, 13804, 13971, 14241, 15021, 16770, 16887, 17037, 17655, 18206]}, "edge": {"target": [], "time": []}}}, "displayed_time": "22.32", "trialTime": 24688, "trial_type": "mouselab-mdp", "trial_index": 18, "time_elapsed": 1652085, "internal_node_id": "0.0-6.0-1.0-9.0"}}, {"uniqueid": "w27163576:a25321929", "current_trial": 19, "dateTime": 1693482924439, "trialdata": {"revealed_states": [], "clicked_states": [], "num_clicks_accrued": [0, 0, 0, 0, 0, 0, 0, 0, 0, 0, 0, 0, 0], "stateRewards": ["", 1, 4, -8, -5, -15, -7, 21, 13, -30, 40, -65, 1, 1, 5, -14, 35, 27, -38, -11, 36, -58, -47, -2, 4, -3, 13, -16, -49, 22, 15, -56, -44, -10], "withholdReward": false, "trial_id": "mdp_trial_11", "block": "test", "trialIndex": 12, "score": -20, "costs": 0, "simulationMode": [null, null, null, null, null], "rewards": [1, 4, -8, 13, -30], "path": ["0", "0", "1", "2", "3", "8", "9"], "rt": [9676, 353, 191, 33, 156], "actions": ["up", "up", "up", "left", "up"], "actionTimes": [11325, 12193, 12881, 13423, 14095], "queries": {"click": {"state": {"target": [], "time": []}, "edge": {"target": [], "time": []}}, "mouseover": {"state": {"target": ["1", "2", "6", "7", "12", "12", "0", "1", "7", "1", "12", "19", "20"], "time": [1906, 2039, 2138, 2438, 2754, 4093, 4760, 4873, 5256, 6306, 6607, 7076, 7144]}, "edge": {"target": [], "time": []}}, "mouseout": {"state": {"target": ["18", "12", "1", "2", "6", "7", "12", "12", "0", "1", "7", "1", "12", "19", "20"], "time": [1259, 1288, 1990, 2056, 2343, 2471, 3538, 4276, 4806, 5142, 5623, 6373, 6639, 7105, 7255]}, "edge": {"target": [], "time": []}}}, "displayed_time": "15.65", "trialTime": 16720, "trial_type": "mouselab-mdp", "trial_index": 19, "time_elapsed": 1668968, "internal_node_id": "0.0-6.0-1.0-10.0"}}, {"uniqueid": "w27163576:a25321929", "current_trial": 20, "dateTime": 1693482943391, "trialdata": {"revealed_states": [], "clicked_states": ["7", "17", "20", "33", "31", "11"], "num_clicks_accrued": [0, 0, 0, 0, 0, 0, 0, 0, 0, 0, 0, 0, 0], "stateRewards": ["", -1, 2, -7, -12, -62, 12, -13, 5, 77, -71, 83, 1, -4, 7, 15, -42, -87, -4, 5, -25, 44, 88, -1, 4, -5, -8, 14, 51, 8, -5, 83, -24, -19], "withholdReward": false, "trial_id": "mdp_trial_12", "block": "test", "trialIndex": 13, "score": 67.6, "costs": -8.4, "simulationMode": [null, null, null, null, null, null], "rewards": [-1, 4, -5, -5, 83], "path": ["0", "0", "23", "24", "25", "30", "31"], "rt": [11789, 407, 45, 31, 26, 5], "actions": ["left", "left", "left", "left", "down", "right"], "actionTimes": [14094, 14502, 15053, 15589, 16117, 16629], "queries": {"click": {"state": {"target": ["7", "17", "20", "33", "31", "11"], "time": [3026, 5144, 7003, 8902, 10743, 12704]}, "edge": {"target": [], "time": []}}, "mouseover": {"state": {"target": ["7", "2", "10", "2", "15", "17", "20", "14", "20", "21", "31", "30", "33", "30", "31", "11", "8"], "time": [2842, 3373, 3623, 4641, 4739, 4873, 5857, 6090, 6524, 7440, 7707, 8140, 8357, 9257, 9291, 11573, 12990]}, "edge": {"target": [], "time": []}}, "mouseout": {"state": {"target": ["15", "13", "12", "7", "2", "10", "2", "15", "17", "20", "14", "20", "21", "31", "30", "33", "30", "31", "11", "8"], "time": [1390, 1560, 1644, 3323, 3440, 4625, 4674, 4843, 5361, 6024, 6173, 7240, 7506, 7757, 8273, 9240, 9274, 11073, 12957, 13007]}, "edge": {"target": [], "time": []}}}, "displayed_time": "17.14", "trialTime": 18790, "trial_type": "mouselab-mdp", "trial_index": 20, "time_elapsed": 1687920, "internal_node_id": "0.0-6.0-1.0-11.0"}}, {"uniqueid": "w27163576:a25321929", "current_trial": 21, "dateTime": 1693482965480, "trialdata": {"revealed_states": [], "clicked_states": ["16", "6", "11", "21", "20"], "num_clicks_accrued": [0, 0, 0, 0, 0, 0, 0, 0, 0, 0, 0, 0, 0], "stateRewards": ["", 1, 2, -3, -5, 66, -50, -47, -5, 1, 28, -27, 1, 1, -1, -6, 37, -25, 56, 1, -82, -66, -40, -1, -4, -7, 15, -61, -23, 26, 10, 14, -56, 29], "withholdReward": false, "trial_id": "mdp_trial_13", "block": "test", "trialIndex": 14, "score": 25, "costs": -7, "simulationMode": [null, null, null, null, null], "rewards": [1, 1, -1, -6, 37], "path": ["0", "0", "12", "13", "14", "15", "16"], "rt": [13193, 594, 143, 413, 297], "actions": ["right", "right", "right", "up", "up"], "actionTimes": [16222, 17328, 17978, 18888, 19682], "queries": {"click": {"state": {"target": ["16", "6", "11", "21", "20"], "time": [5191, 7793, 9999, 11998, 14072]}, "edge": {"target": [], "time": []}}, "mouseover": {"state": {"target": ["0", "12", "13", "14", "15", "16", "17", "15", "6", "6", "15", "18", "1", "10", "11", "2", "18", "15", "19", "21", "20"], "time": [3689, 4216, 4251, 4434, 4901, 5101, 5633, 6366, 6836, 7655, 8767, 9301, 9472, 9618, 9885, 10333, 10433, 10466, 10899, 11017, 13956]}, "edge": {"target": [], "time": []}}, "mouseout": {"state": {"target": ["12", "0", "0", "12", "13", "14", "15", "16", "17", "15", "6", "6", "16", "15", "18", "1", "10", "11", "2", "18", "15", "19", "21", "20"], "time": [2516, 3318, 4199, 4249, 4305, 4869, 5005, 5416, 6349, 6382, 7139, 8067, 8700, 9067, 9366, 9550, 9668, 10183, 10385, 10449, 10716, 10933, 12416, 14083]}, "edge": {"target": [], "time": []}}}, "displayed_time": "20.18", "trialTime": 21921, "trial_type": "mouselab-mdp", "trial_index": 21, "time_elapsed": 1710008, "internal_node_id": "0.0-6.0-1.0-12.0"}}, {"uniqueid": "w27163576:a25321929", "current_trial": 22, "dateTime": 1693482996394, "trialdata": {"revealed_states": [], "clicked_states": ["32", "28", "6", "11", "29"], "num_clicks_accrued": [0, 0, 0, 0, 0, 0, 0, 0, 0, 0, 0, 0, 0], "stateRewards": ["", 1, 3, -2, 15, 51, 15, -19, 11, 67, -45, -73, 2, 4, -2, -13, 36, 9, -28, 10, -30, 31, 16, 1, 2, -1, -16, 14, -22, 36, -1, 88, -5, 45], "withholdReward": false, "trial_id": "mdp_trial_14", "block": "test", "trialIndex": 15, "score": 15, "costs": -7, "simulationMode": [null, null, null, null, null], "rewards": [1, 2, -1, -16, 36], "path": ["0", "0", "23", "24", "25", "26", "29"], "rt": [13528, 84, 108, 92, 123], "actions": ["left", "left", "left", "up", "left"], "actionTimes": [14901, 15493, 16118, 16702, 17332], "queries": {"click": {"state": {"target": ["32", "28", "6", "11", "29"], "time": [3179, 5380, 7815, 10007, 12278]}, "edge": {"target": [], "time": []}}, "mouseover": {"state": {"target": ["12", "12", "0", "23", "31", "32", "31", "24", "28", "6", "6", "7", "2", "10", "11", "8", "7", "23", "24", "25", "29", "26"], "time": [1874, 2680, 2699, 2725, 2875, 2974, 3524, 5075, 5194, 7363, 7676, 8191, 8241, 9141, 9826, 10291, 10391, 11558, 11591, 11624, 12144, 12625]}, "edge": {"target": [], "time": []}}, "mouseout": {"state": {"target": ["20", "21", "0", "12", "12", "0", "23", "31", "32", "31", "24", "28", "6", "6", "7", "2", "10", "11", "8", "7", "23", "24", "25", "29", "29", "26", "28", "0"], "time": [10, 242, 1661, 1890, 2695, 2709, 2808, 2908, 3390, 4007, 5092, 5657, 7409, 8124, 8207, 8524, 9224, 10274, 10323, 10407, 11574, 11607, 11641, 12354, 12575, 12680, 30157, 30256]}, "edge": {"target": [], "time": []}}}, "displayed_time": "17.84", "trialTime": 30743, "trial_type": "mouselab-mdp", "trial_index": 22, "time_elapsed": 1740922, "internal_node_id": "0.0-6.0-1.0-13.0"}}, {"uniqueid": "w27163576:a25321929", "current_trial": 23, "dateTime": 1693483013243, "trialdata": {"revealed_states": [], "clicked_states": ["7", "6", "11", "31"], "num_clicks_accrued": [0, 0, 0, 0, 0, 0, 0, 0, 0, 0, 0, 0, 0], "stateRewards": ["", 2, -1, 3, -12, -83, 6, -33, 9, 28, 24, -50, -2, -1, -2, -5, -87, 37, 82, 12, 80, -5, 10, -2, -3, -6, 9, 22, -1, 16, 9, 77, -62, 58], "withholdReward": false, "trial_id": "mdp_trial_15", "block": "test", "trialIndex": 16, "score": 69.4, "costs": -5.6, "simulationMode": [null, null, null, null, null], "rewards": [-2, -3, -6, 9, 77], "path": ["0", "0", "23", "24", "25", "30", "31"], "rt": [9393, 44, 260, 369, 94], "actions": ["left", "left", "left", "down", "right"], "actionTimes": [10733, 11273, 12041, 12914, 13505], "queries": {"click": {"state": {"target": ["7", "6", "11", "31"], "time": [2305, 4133, 5945, 7814]}, "edge": {"target": [], "time": []}}, "mouseover": {"state": {"target": ["12", "7", "6", "11", "26", "25", "30", "31", "32", "33", "30", "22"], "time": [1666, 2098, 2961, 5027, 6426, 6661, 6960, 7260, 8593, 9577, 9760, 10161]}, "edge": {"target": [], "time": []}}, "mouseout": {"state": {"target": ["0", "12", "7", "7", "6", "11", "26", "25", "30", "31", "32", "33", "30", "22", "21", "21"], "time": [1350, 1712, 2402, 2594, 4410, 6310, 6509, 6910, 7077, 8093, 9310, 9746, 9777, 14198, 14930, 15060]}, "edge": {"target": [], "time": []}}}, "displayed_time": "15.34", "trialTime": 16648, "trial_type": "mouselab-mdp", "trial_index": 23, "time_elapsed": 1757772, "internal_node_id": "0.0-6.0-1.0-14.0"}}, {"uniqueid": "w27163576:a25321929", "current_trial": 24, "dateTime": 1693483030243, "trialdata": {"revealed_states": [], "clicked_states": ["33"], "num_clicks_accrued": [0, 0, 0, 0, 0, 0, 0, 0, 0, 0, 0, 0, 0], "stateRewards": ["", -2, -1, -2, -15, 87, 57, 29, -10, 77, -80, -7, 1, -3, 6, 14, -11, 87, -59, 4, -71, 16, -11, 2, 2, -7, 2, -47, 61, 50, 14, -20, 17, 81], "withholdReward": false, "trial_id": "mdp_trial_16", "block": "test", "trialIndex": 17, "score": 90.6, "costs": -1.4, "simulationMode": [null, null, null, null, null], "rewards": [2, 2, -7, 14, 81], "path": ["0", "0", "23", "24", "25", "30", "33"], "rt": [4266, 189, 136, 64, 64], "actions": ["left", "left", "left", "down", "left"], "actionTimes": [5686, 6365, 7014, 7589, 8157], "queries": {"click": {"state": {"target": ["33"], "time": [3101]}, "edge": {"target": [], "time": []}}, "mouseover": {"state": {"target": ["23", "24", "30", "33", "30"], "time": [1608, 1625, 1710, 2981, 3460]}, "edge": {"target": [], "time": []}}, "mouseout": {"state": {"target": ["0", "23", "24", "30", "33", "30", "0", "0", "23", "24", "29"], "time": [1243, 1623, 1662, 2041, 3357, 3524, 9508, 10127, 10290, 10457, 16461]}, "edge": {"target": [], "time": []}}}, "displayed_time": "15.42", "trialTime": 16813, "trial_type": "mouselab-mdp", "trial_index": 24, "time_elapsed": 1774773, "internal_node_id": "0.0-6.0-1.0-15.0"}}, {"uniqueid": "w27163576:a25321929", "current_trial": 25, "dateTime": 1693483059835, "trialdata": {"revealed_states": [], "clicked_states": ["29", "31", "27", "28", "20", "21", "22", "17", "16", "18"], "num_clicks_accrued": [0, 0, 0, 0, 0, 0, 0, 0, 0, 0, 0, 0, 0], "stateRewards": ["", -2, 2, -5, 1, 42, -63, -58, -6, 2, 16, 81, -2, 4, 7, -10, 33, 3, -33, -2, -52, -84, -27, 2, -3, -3, 15, -74, -14, -5, -5, -84, 79, -31], "withholdReward": false, "trial_id": "mdp_trial_17", "block": "test", "trialIndex": 18, "score": 18, "costs": -14.000000000000002, "simulationMode": [null, null, null, null, null], "rewards": [-2, 4, 7, -10, 33], "path": ["0", "0", "12", "13", "14", "15", "16"], "rt": [23694, 53, 129, 37, 114], "actions": ["right", "right", "right", "up", "up"], "actionTimes": [25047, 25603, 26245, 26787, 27397], "queries": {"click": {"state": {"target": ["29", "31", "27", "28", "20", "21", "22", "17", "16", "18"], "time": [1969, 5352, 7609, 10014, 12785, 14634, 16504, 19072, 21080, 23096]}, "edge": {"target": [], "time": []}}, "mouseover": {"state": {"target": ["23", "24", "26", "29", "26", "23", "0", "12", "13", "12", "28", "26", "25", "31", "28", "27", "28", "12", "12", "28", "12", "13", "14", "20", "19", "21", "22", "14", "15", "17", "16", "15", "18", "15"], "time": [1416, 1549, 1718, 1784, 2348, 2415, 2482, 2565, 4014, 4048, 4302, 4382, 4714, 5034, 5832, 7485, 7998, 8281, 9503, 9882, 10398, 10449, 10666, 12571, 13181, 13681, 15081, 17132, 18600, 18938, 19581, 21498, 22315, 23398]}, "edge": {"target": [], "time": []}}, "mouseout": {"state": {"target": ["24", "23", "23", "24", "26", "29", "26", "23", "0", "12", "13", "12", "28", "26", "25", "31", "28", "27", "28", "12", "12", "28", "12", "13", "14", "20", "19", "21", "22", "14", "15", "17", "17", "16", "15", "18", "15"], "time": [847, 864, 1487, 1582, 1750, 2298, 2365, 2448, 2517, 2598, 4031, 4099, 4348, 4667, 4765, 5581, 7282, 7899, 8031, 8348, 9531, 10299, 10436, 10535, 12102, 13148, 13265, 14882, 16998, 17165, 18719, 19098, 19381, 21415, 21665, 23332, 23448]}, "edge": {"target": [], "time": []}}}, "displayed_time": "27.92", "trialTime": 29396, "trial_type": "mouselab-mdp", "trial_index": 25, "time_elapsed": 1804365, "internal_node_id": "0.0-6.0-1.0-16.0"}}, {"uniqueid": "w27163576:a25321929", "current_trial": 26, "dateTime": 1693483081251, "trialdata": {"revealed_states": [], "clicked_states": ["6", "7", "11", "10", "9", "5"], "num_clicks_accrued": [0, 0, 0, 0, 0, 0, 0, 0, 0, 0, 0, 0, 0], "stateRewards": ["", 1, -2, -8, -3, 31, -84, -55, -14, 15, -58, 17, -2, -3, 7, 7, -12, 48, 67, 4, -44, -68, 46, 2, 3, -5, -7, 76, 27, 5, 11, 57, 52, 59], "withholdReward": false, "trial_id": "mdp_trial_18", "block": "test", "trialIndex": 19, "score": 10.600000000000001, "costs": -8.4, "simulationMode": [null, null, null, null, null], "rewards": [1, -2, -8, -3, 31], "path": ["0", "0", "1", "2", "3", "4", "5"], "rt": [15461, 63, 313, 568, 138], "actions": ["up", "up", "up", "right", "up"], "actionTimes": [16431, 16987, 17803, 18893, 19565], "queries": {"click": {"state": {"target": ["6", "7", "11", "10", "9", "5"], "time": [3699, 5958, 7795, 9696, 11801, 13710]}, "edge": {"target": [], "time": []}}, "mouseover": {"state": {"target": ["23", "1", "2", "18", "15", "15", "1", "7", "4", "6", "6", "7", "2", "10", "10", "2", "7", "7", "2", "8", "11", "8", "9", "5", "3", "10", "8", "9", "5", "4", "18", "13", "19", "21", "14", "15"], "time": [1155, 1539, 1657, 1773, 1806, 1976, 2508, 2822, 3222, 3255, 3606, 4089, 4622, 4706, 5189, 5306, 5356, 5722, 6189, 6422, 6539, 8156, 8305, 8456, 8639, 8805, 9958, 10007, 12506, 14489, 14806, 14905, 15089, 15674, 15738, 15777]}, "edge": {"target": [], "time": []}}, "mouseout": {"state": {"target": ["19", "22", "0", "23", "1", "2", "18", "15", "15", "1", "7", "4", "6", "6", "7", "2", "10", "10", "2", "7", "7", "2", "8", "11", "8", "9", "5", "3", "10", "8", "9", "5", "4", "18", "13", "19", "21", "14", "15", "15", "14", "19"], "time": [455, 505, 1090, 1173, 1556, 1689, 1789, 1822, 2038, 2778, 2992, 3239, 3272, 3972, 4606, 4672, 4772, 5290, 5339, 5493, 6155, 6222, 6438, 8040, 8173, 8373, 8589, 8689, 9922, 10005, 12155, 14139, 14522, 14855, 14923, 15194, 15707, 15755, 20560, 20677, 20705, 20738]}, "edge": {"target": [], "time": []}}}, "displayed_time": "20.06", "trialTime": 21235, "trial_type": "mouselab-mdp", "trial_index": 26, "time_elapsed": 1825780, "internal_node_id": "0.0-6.0-1.0-17.0"}}, {"uniqueid": "w27163576:a25321929", "current_trial": 27, "dateTime": 1693483101944, "trialdata": {"revealed_states": [], "clicked_states": ["32", "20", "5", "27", "11", "10"], "num_clicks_accrued": [0, 0, 0, 0, 0, 0, 0, 0, 0, 0, 0, 0, 0], "stateRewards": ["", 2, 4, -6, -13, -75, -81, 30, 7, 5, 59, -65, -1, -1, 7, 14, -38, 36, -41, 1, -54, -5, 64, 2, -1, 5, 6, -19, 79, 11, 16, -33, -50, 58], "withholdReward": false, "trial_id": "mdp_trial_19", "block": "test", "trialIndex": 20, "score": 57.6, "costs": -8.4, "simulationMode": [null, null, null, null, null], "rewards": [2, 4, -6, 7, 59], "path": ["0", "0", "1", "2", "3", "8", "10"], "rt": [13967, 145, 135, 68, 118], "actions": ["up", "up", "up", "left", "down"], "actionTimes": [15210, 15848, 16488, 17071, 17688], "queries": {"click": {"state": {"target": ["32", "20", "5", "27", "11", "10"], "time": [2455, 4672, 6580, 8740, 10575, 12536]}, "edge": {"target": [], "time": []}}, "mouseover": {"state": {"target": ["30", "32", "31", "20", "16", "6", "5", "9", "11", "11", "27", "11", "2", "1", "10", "1", "18", "7"], "time": [2087, 2301, 2818, 4536, 5052, 5152, 5601, 7018, 7318, 7818, 8001, 9201, 11801, 11971, 12488, 12851, 13384, 14001]}, "edge": {"target": [], "time": []}}, "mouseout": {"state": {"target": ["0", "30", "32", "31", "20", "16", "6", "5", "9", "11", "11", "27", "11", "2", "1", "10", "1", "18", "7", "18", "13"], "time": [1470, 2135, 2618, 3884, 4901, 5068, 5301, 6885, 7134, 7552, 7901, 9034, 11018, 11901, 12101, 12767, 12917, 13534, 14570, 19120, 19337]}, "edge": {"target": [], "time": []}}}, "displayed_time": "18.20", "trialTime": 20505, "trial_type": "mouselab-mdp", "trial_index": 27, "time_elapsed": 1846472, "internal_node_id": "0.0-6.0-1.0-18.0"}}, {"uniqueid": "w27163576:a25321929", "current_trial": 28, "dateTime": 1693483126120, "trialdata": {"revealed_states": [], "clicked_states": ["11", "31"], "num_clicks_accrued": [0, 0, 0, 0, 0, 0, 0, 0, 0, 0, 0, 0, 0], "stateRewards": ["", -2, -3, 8, 14, -73, 73, 84, -12, -2, -50, -17, 2, 1, -2, -9, -44, -27, -33, 16, -63, -47, -66, -2, 1, 4, -5, -33, -11, 50, 9, 38, -79, 31], "withholdReward": false, "trial_id": "mdp_trial_20", "block": "test", "trialIndex": 21, "score": 47.2, "costs": -2.8, "simulationMode": [null, null, null, null, null], "rewards": [-2, 1, 4, 9, 38], "path": ["0", "0", "23", "24", "25", "30", "31"], "rt": [9343, 69, 70, 7, 60], "actions": ["left", "left", "left", "down", "right"], "actionTimes": [10160, 10766, 11333, 11837, 12423], "queries": {"click": {"state": {"target": ["11", "31"], "time": [1748, 5880]}, "edge": {"target": [], "time": []}}, "mouseover": {"state": {"target": ["0", "1", "8", "11", "31", "31"], "time": [825, 1096, 1412, 1612, 2482, 4980]}, "edge": {"target": [], "time": []}}, "mouseout": {"state": {"target": ["0", "0", "1", "8", "11", "31", "31", "22", "22", "22", "13", "19"], "time": [678, 995, 1112, 1545, 1913, 3129, 9047, 13381, 13731, 22828, 22965, 23561]}, "edge": {"target": [], "time": []}}}, "displayed_time": "14.82", "trialTime": 23992, "trial_type": "mouselab-mdp", "trial_index": 28, "time_elapsed": 1870649, "internal_node_id": "0.0-6.0-1.0-19.0"}}, {"uniqueid": "w27163576:a25321929", "current_trial": 29, "dateTime": 1693483143810, "trialdata": {"revealed_states": [], "clicked_states": ["20", "21"], "num_clicks_accrued": [0, 0, 0, 0, 0, 0, 0, 0, 0, 0, 0, 0, 0], "stateRewards": ["", -1, -2, -1, -10, -57, 73, -72, -16, 75, -14, -46, -2, -3, -7, -1, -61, -60, 76, -4, 50, 4, 14, 2, 2, -7, 12, -65, -32, 15, -8, -76, -25, -61], "withholdReward": false, "trial_id": "mdp_trial_21", "block": "test", "trialIndex": 22, "score": 31.2, "costs": -2.8, "simulationMode": [null, null, null, null, null], "rewards": [-2, -3, -7, -4, 50], "path": ["0", "0", "12", "13", "14", "19", "20"], "rt": [4319, 61, 112, 174, 163], "actions": ["right", "right", "right", "down", "right"], "actionTimes": [5967, 6523, 7156, 7835, 8508], "queries": {"click": {"state": {"target": ["20", "21"], "time": [2371, 4172]}, "edge": {"target": [], "time": []}}, "mouseover": {"state": {"target": ["12", "13", "14", "20", "21"], "time": [1728, 1793, 1876, 2179, 2709]}, "edge": {"target": [], "time": []}}, "mouseout": {"state": {"target": ["20", "19", "12", "12", "13", "14", "13", "12", "12", "13", "14", "20", "21"], "time": [378, 428, 611, 1013, 1060, 1209, 1260, 1293, 1760, 1844, 1946, 2626, 4477]}, "edge": {"target": [], "time": []}}}, "displayed_time": "15.65", "trialTime": 17483, "trial_type": "mouselab-mdp", "trial_index": 29, "time_elapsed": 1888339, "internal_node_id": "0.0-6.0-1.0-20.0"}}, {"uniqueid": "w27163576:a25321929", "current_trial": 30, "dateTime": 1693483170904, "trialdata": {"revealed_states": [], "clicked_states": ["17", "28"], "num_clicks_accrued": [0, 0, 0, 0, 0, 0, 0, 0, 0, 0, 0, 0, 0], "stateRewards": ["", -2, -1, -5, 10, -36, -70, 68, -9, 86, 71, -10, 2, -4, 7, -7, 66, 44, -66, -13, -69, 43, 15, -2, 2, 6, -13, 62, 57, 50, -10, -69, 42, -72], "withholdReward": false, "trial_id": "mdp_trial_22", "block": "test", "trialIndex": 23, "score": 47.2, "costs": -2.8, "simulationMode": [null, null, null, null, null], "rewards": [-2, 2, 6, -13, 57], "path": ["0", "0", "23", "24", "25", "26", "28"], "rt": [5358, 136, 37, 17, 493], "actions": ["left", "left", "left", "up", "right"], "actionTimes": [6980, 7603, 8155, 8667, 9675], "queries": {"click": {"state": {"target": ["17", "28"], "time": [2470, 4804]}, "edge": {"target": [], "time": []}}, "mouseover": {"state": {"target": ["12", "13", "14", "17", "15", "23", "24", "28"], "time": [2036, 2099, 2166, 2249, 2666, 2770, 3049, 3282]}, "edge": {"target": [], "time": []}}, "mouseout": {"state": {"target": ["2", "7", "2", "0", "12", "13", "14", "17", "15", "23", "24", "28", "19", "22", "2"], "time": [1000, 1048, 1133, 1837, 2082, 2132, 2216, 2649, 2682, 2850, 3182, 5015, 11649, 11682, 13281]}, "edge": {"target": [], "time": []}}}, "displayed_time": "15.62", "trialTime": 26846, "trial_type": "mouselab-mdp", "trial_index": 30, "time_elapsed": 1915434, "internal_node_id": "0.0-6.0-1.0-21.0"}}, {"uniqueid": "w27163576:a25321929", "current_trial": 31, "dateTime": 1693483194907, "trialdata": {"revealed_states": [], "clicked_states": ["17", "6", "11", "9", "28", "5", "7", "10"], "num_clicks_accrued": [0, 0, 0, 0, 0, 0, 0, 0, 0, 0, 0, 0, 0], "stateRewards": ["", -2, -1, -4, -15, -14, -67, 32, -3, -59, 63, 31, 2, -1, -7, -15, 71, -66, -27, -3, -54, -39, 72, 2, 1, 1, -13, 77, -40, 35, -9, 35, 75, 57], "withholdReward": false, "trial_id": "mdp_trial_23", "block": "test", "trialIndex": 24, "score": 41.8, "costs": -11.200000000000001, "simulationMode": [null, null, null, null, null], "rewards": [-2, -1, -4, -3, 63], "path": ["0", "0", "1", "2", "3", "8", "10"], "rt": [16340, 117, 132, 130, 86], "actions": ["up", "up", "up", "left", "down"], "actionTimes": [17428, 18043, 18691, 19321, 19900], "queries": {"click": {"state": {"target": ["17", "6", "11", "9", "28", "5", "7", "10"], "time": [1746, 3578, 5427, 7298, 9123, 10845, 12628, 14769]}, "edge": {"target": [], "time": []}}, "mouseover": {"state": {"target": ["12", "18", "15", "17", "16", "6", "4", "3", "11", "11", "27", "26", "28", "8", "9", "8", "10", "24", "28", "2", "3", "4", "5", "4", "7", "7", "2", "10", "28", "25", "26"], "time": [1177, 1223, 1375, 1574, 2041, 2341, 3840, 3875, 3923, 4413, 5791, 6007, 6223, 6791, 7111, 7591, 7641, 7741, 8007, 9858, 9907, 9990, 10290, 11290, 11373, 11790, 12873, 13012, 15207, 15274, 16712]}, "edge": {"target": [], "time": []}}, "mouseout": {"state": {"target": ["3", "7", "15", "13", "0", "12", "18", "15", "17", "16", "6", "4", "3", "11", "11", "27", "26", "28", "8", "9", "8", "10", "24", "28", "28", "2", "3", "4", "5", "5", "4", "7", "7", "2", "10", "28", "25", "26"], "time": [258, 407, 540, 573, 1144, 1191, 1240, 1477, 1940, 2058, 3807, 3874, 3906, 3940, 5690, 5841, 6124, 6624, 6897, 7491, 7624, 7657, 7941, 9524, 9590, 9874, 9940, 10057, 10931, 11223, 11340, 11457, 12740, 12973, 15140, 15240, 16140, 16806]}, "edge": {"target": [], "time": []}}}, "displayed_time": "20.39", "trialTime": 23793, "trial_type": "mouselab-mdp", "trial_index": 31, "time_elapsed": 1939436, "internal_node_id": "0.0-6.0-1.0-22.0"}}, {"uniqueid": "w27163576:a25321929", "current_trial": 32, "dateTime": 1693483212595, "trialdata": {"revealed_states": [], "clicked_states": [], "num_clicks_accrued": [0, 0, 0, 0, 0, 0, 0, 0, 0, 0, 0, 0, 0], "stateRewards": ["", 1, -2, -3, 14, -42, -87, -37, -11, -50, 33, -44, -2, 4, -7, 13, 48, -75, -66, 12, 23, -2, 82, 1, -4, 3, 12, 51, -15, -26, -11, -52, -29, 82], "withholdReward": false, "trial_id": "mdp_trial_24", "block": "test", "trialIndex": 25, "score": -3, "costs": 0, "simulationMode": [null, null, null, null, null], "rewards": [1, -4, 3, 12, -15], "path": ["0", "0", "23", "24", "25", "26", "28"], "rt": [6852, 466, 125, 139, 169], "actions": ["left", "left", "left", "up", "right"], "actionTimes": [8670, 9638, 10279, 10927, 11607], "queries": {"click": {"state": {"target": [], "time": []}, "edge": {"target": [], "time": []}}, "mouseover": {"state": {"target": ["0", "12", "18", "18", "6"], "time": [3857, 4287, 4388, 4470, 5001]}, "edge": {"target": [], "time": []}}, "mouseout": {"state": {"target": ["10", "23", "0", "0", "12", "18", "18", "6", "17", "19"], "time": [754, 1390, 3562, 3871, 4337, 4405, 4520, 13253, 14041, 14070]}, "edge": {"target": [], "time": []}}}, "displayed_time": "15.83", "trialTime": 17494, "trial_type": "mouselab-mdp", "trial_index": 32, "time_elapsed": 1957125, "internal_node_id": "0.0-6.0-1.0-23.0"}}, {"uniqueid": "w27163576:a25321929", "current_trial": 33, "dateTime": 1693483229592, "trialdata": {"revealed_states": [], "clicked_states": ["28", "7", "17"], "num_clicks_accrued": [0, 0, 0, 0, 0, 0, 0, 0, 0, 0, 0, 0, 0], "stateRewards": ["", -1, 3, -5, -2, -13, -9, -34, -7, -81, 32, 35, -2, -2, 1, -14, -32, 81, 7, 4, 82, 56, -8, -1, 3, -8, 6, -24, -24, -53, 2, 38, 61, 54], "withholdReward": false, "trial_id": "mdp_trial_25", "block": "test", "trialIndex": 26, "score": 59.8, "costs": -4.199999999999999, "simulationMode": [null, null, null, null, null], "rewards": [-2, -2, 1, -14, 81], "path": ["0", "0", "12", "13", "14", "15", "17"], "rt": [8155, 52, 102, 71, 32], "actions": ["right", "right", "right", "up", "right"], "actionTimes": [9145, 9689, 10305, 10874, 11425], "queries": {"click": {"state": {"target": ["28", "7", "17"], "time": [1551, 4367, 6467]}, "edge": {"target": [], "time": []}}, "mouseover": {"state": {"target": ["28", "1", "18", "15", "1", "7", "13", "14", "17", "21"], "time": [1354, 2018, 2151, 2218, 3437, 4206, 5202, 5802, 6307, 7168]}, "edge": {"target": [], "time": []}}, "mouseout": {"state": {"target": ["0", "28", "1", "18", "15", "1", "7", "13", "14", "17", "21", "21"], "time": [1051, 1901, 2068, 2185, 2285, 4068, 4752, 5368, 5988, 6652, 12671, 12970]}, "edge": {"target": [], "time": []}}}, "displayed_time": "14.99", "trialTime": 16803, "trial_type": "mouselab-mdp", "trial_index": 33, "time_elapsed": 1974121, "internal_node_id": "0.0-6.0-1.0-24.0"}}, {"uniqueid": "w27163576:a25321929", "current_trial": 34, "dateTime": 1693483246463, "trialdata": {"revealed_states": [], "clicked_states": ["32", "21"], "num_clicks_accrued": [0, 0, 0, 0, 0, 0, 0, 0, 0, 0, 0, 0, 0], "stateRewards": ["", -2, 1, -5, 2, -68, 80, 33, 10, 67, -59, 20, -1, -3, 3, 14, 74, -2, 24, -16, 63, 80, 46, -1, 4, 6, 12, 83, -38, -43, -4, 43, 14, -79], "withholdReward": false, "trial_id": "mdp_trial_26", "block": "test", "trialIndex": 27, "score": 60.2, "costs": -2.8, "simulationMode": [null, null, null, null, null], "rewards": [-1, -3, 3, -16, 80], "path": ["0", "0", "12", "13", "14", "19", "21"], "rt": [6812, 57, 35, 365, 2], "actions": ["right", "right", "right", "down", "down"], "actionTimes": [7808, 8356, 8900, 9780, 10301], "queries": {"click": {"state": {"target": ["32", "21"], "time": [2283, 5238]}, "edge": {"target": [], "time": []}}, "mouseover": {"state": {"target": ["0", "24", "30", "32", "32", "21", "20", "20", "21"], "time": [1131, 1515, 1951, 2017, 2131, 2914, 4497, 4782, 5120]}, "edge": {"target": [], "time": []}}, "mouseout": {"state": {"target": ["0", "0", "24", "30", "32", "32", "21", "20", "20", "21"], "time": [799, 1315, 1617, 1999, 2086, 2374, 2948, 4530, 4899, 6297]}, "edge": {"target": [], "time": []}}}, "displayed_time": "15.00", "trialTime": 16670, "trial_type": "mouselab-mdp", "trial_index": 34, "time_elapsed": 1990992, "internal_node_id": "0.0-6.0-1.0-25.0"}}, {"uniqueid": "w27163576:a25321929", "current_trial": 35, "dateTime": 1693483262842, "trialdata": {"revealed_states": [], "clicked_states": ["21", "20"], "num_clicks_accrued": [0, 0, 0, 0, 0, 0, 0, 0, 0, 0, 0, 0, 0], "stateRewards": ["", 1, 1, 1, -3, -7, -1, -41, -10, 20, -72, -63, 1, -4, -2, 2, -66, 30, -84, -2, 49, 23, 71, -1, -4, 4, -12, 67, 5, 18, -16, 88, 56, -5], "withholdReward": false, "trial_id": "mdp_trial_27", "block": "test", "trialIndex": 28, "score": 39.2, "costs": -2.8, "simulationMode": [null, null, null, null, null], "rewards": [1, -4, -2, -2, 49], "path": ["0", "0", "12", "13", "14", "19", "20"], "rt": [5935, 106, 81, 34, 43], "actions": ["right", "right", "right", "down", "right"], "actionTimes": [6933, 7537, 8127, 8663, 9223], "queries": {"click": {"state": {"target": ["21", "20"], "time": [2182, 4182]}, "edge": {"target": [], "time": []}}, "mouseover": {"state": {"target": ["23", "24", "31", "21", "21", "20", "19"], "time": [1394, 1461, 1511, 1795, 2045, 3832, 4595]}, "edge": {"target": [], "time": []}}, "mouseout": {"state": {"target": ["0", "23", "24", "31", "21", "21", "20", "19", "22", "14", "15"], "time": [1129, 1444, 1478, 1545, 1878, 3461, 4495, 4879, 10780, 14966, 15029]}, "edge": {"target": [], "time": []}}}, "displayed_time": "15.00", "trialTime": 16183, "trial_type": "mouselab-mdp", "trial_index": 35, "time_elapsed": 2007371, "internal_node_id": "0.0-6.0-1.0-26.0"}}, {"uniqueid": "w27163576:a25321929", "current_trial": 36, "dateTime": 1693483283003, "trialdata": {"revealed_states": [], "clicked_states": ["16"], "num_clicks_accrued": [0, 0, 0, 0, 0, 0, 0, 0, 0, 0, 0, 0, 0], "stateRewards": ["", -1, 3, 8, 10, -86, 61, -36, 10, 17, -60, 24, -1, -3, 3, 11, 50, 60, 33, -3, -20, 58, -6, 1, -4, -4, 13, -70, -71, 43, 14, 52, 82, -11], "withholdReward": false, "trial_id": "mdp_trial_28", "block": "test", "trialIndex": 29, "score": 58.6, "costs": -1.4, "simulationMode": [null, null, null, null, null], "rewards": [-1, -3, 3, 11, 50], "path": ["0", "0", "12", "13", "14", "15", "16"], "rt": [3286, 258, 180, 185, 174], "actions": ["right", "right", "right", "up", "up"], "actionTimes": [4507, 5273, 5945, 6633, 7305], "queries": {"click": {"state": {"target": ["16"], "time": [1803]}, "edge": {"target": [], "time": []}}, "mouseover": {"state": {"target": ["18", "16", "18", "7", "4", "6", "18", "18"], "time": [1330, 1482, 2280, 2580, 2646, 2830, 3147, 3503]}, "edge": {"target": [], "time": []}}, "mouseout": {"state": {"target": ["16", "18", "18", "16", "18", "7", "4", "6", "18", "18"], "time": [697, 748, 1363, 2180, 2547, 2614, 2797, 2847, 3213, 18331]}, "edge": {"target": [], "time": []}}}, "displayed_time": "15.22", "trialTime": 19946, "trial_type": "mouselab-mdp", "trial_index": 36, "time_elapsed": 2027532, "internal_node_id": "0.0-6.0-1.0-27.0"}}, {"uniqueid": "w27163576:a25321929", "current_trial": 37, "dateTime": 1693483308114, "trialdata": {"revealed_states": [], "clicked_states": ["6", "7", "29", "27", "28", "9", "11", "32"], "num_clicks_accrued": [0, 0, 0, 0, 0, 0, 0, 0, 0, 0, 0, 0, 0], "stateRewards": ["", 2, -2, -3, 10, -4, -1, -11, -8, -9, -36, -78, 2, 1, 7, -7, 44, -1, -31, -1, 26, 47, 83, 2, -4, -4, -6, -52, -76, -81, -1, -59, 45, 67], "withholdReward": false, "trial_id": "mdp_trial_29", "block": "test", "trialIndex": 30, "score": 26.799999999999997, "costs": -11.200000000000001, "simulationMode": [null, null, null, null, null], "rewards": [2, -4, -4, -1, 45], "path": ["0", "0", "23", "24", "25", "30", "32"], "rt": [18886, 90, 67, 357, 115], "actions": ["left", "left", "left", "down", "down"], "actionTimes": [20124, 20730, 21291, 22164, 22772], "queries": {"click": {"state": {"target": ["6", "7", "29", "27", "28", "9", "11", "32"], "time": [2471, 4856, 6988, 8808, 10803, 13620, 15741, 17567]}, "edge": {"target": [], "time": []}}, "mouseover": {"state": {"target": ["12", "13", "14", "15", "6", "7", "1", "28", "1", "13", "14", "14", "13", "12", "0", "23", "24", "25", "29", "28", "27", "28", "31", "31", "24", "11", "8", "9", "8", "10", "11", "28", "30", "32", "31", "31"], "time": [1542, 1559, 1589, 1805, 2275, 4622, 5172, 5456, 5672, 5739, 5772, 6006, 6056, 6105, 6139, 6272, 6372, 6505, 6874, 7422, 8322, 9989, 11372, 11739, 12622, 12705, 12838, 13473, 13906, 14055, 15541, 16022, 16189, 16656, 19291, 19539]}, "edge": {"target": [], "time": []}}, "mouseout": {"state": {"target": ["0", "12", "13", "14", "15", "6", "7", "1", "28", "1", "13", "14", "14", "13", "12", "0", "23", "24", "25", "29", "28", "27", "28", "28", "31", "31", "24", "28", "11", "8", "9", "8", "10", "11", "28", "30", "32", "31"], "time": [1526, 1556, 1573, 1724, 1822, 2688, 5056, 5205, 5572, 5705, 5755, 5889, 6039, 6089, 6122, 6222, 6322, 6491, 6522, 7256, 8272, 9073, 10876, 11188, 11439, 12605, 12639, 12656, 12738, 12905, 13839, 13956, 14522, 15956, 16039, 16456, 17873, 19507]}, "edge": {"target": [], "time": []}}}, "displayed_time": "23.27", "trialTime": 24882, "trial_type": "mouselab-mdp", "trial_index": 37, "time_elapsed": 2052643, "internal_node_id": "0.0-6.0-1.0-28.0"}}, {"uniqueid": "w27163576:a25321929", "current_trial": 38, "dateTime": 1693483330691, "trialdata": {"revealed_states": [], "clicked_states": ["32"], "num_clicks_accrued": [0, 0, 0, 0, 0, 0, 0, 0, 0, 0, 0, 0, 0], "stateRewards": ["", -1, 4, -5, 9, 29, -75, -42, -16, 24, -28, -41, 2, -3, 1, 10, 60, 47, 55, -1, -53, 22, -40, 2, -3, -6, 4, -26, 44, 54, 15, -76, 42, 14], "withholdReward": false, "trial_id": "mdp_trial_30", "block": "test", "trialIndex": 31, "score": 48.6, "costs": -1.4, "simulationMode": [null, null, null, null, null], "rewards": [2, -3, -6, 15, 42], "path": ["0", "0", "23", "24", "25", "30", "32"], "rt": [3263, 112, 121, 55, 154], "actions": ["left", "left", "left", "down", "down"], "actionTimes": [8872, 9492, 10133, 10685, 11350], "queries": {"click": {"state": {"target": ["32"], "time": [6192]}, "edge": {"target": [], "time": []}}, "mouseover": {"state": {"target": ["31", "32", "31", "31"], "time": [5828, 6013, 6529, 7279]}, "edge": {"target": [], "time": []}}, "mouseout": {"state": {"target": ["31", "0", "0", "31", "32", "31", "31"], "time": [579, 4144, 5728, 5862, 6445, 6562, 21445]}, "edge": {"target": [], "time": []}}}, "displayed_time": "19.61", "trialTime": 22364, "trial_type": "mouselab-mdp", "trial_index": 38, "time_elapsed": 2075220, "internal_node_id": "0.0-6.0-1.0-29.0"}}, {"uniqueid": "w27163576:a25321929", "current_trial": 39, "dateTime": 1693483347591, "trialdata": {"revealed_states": [], "clicked_states": ["21", "20", "31", "6"], "num_clicks_accrued": [0, 0, 0, 0, 0, 0, 0, 0, 0, 0, 0, 0, 0], "stateRewards": ["", -2, -2, -7, -13, -10, 49, -68, -1, 84, 70, 88, 1, 4, 4, 12, -57, 25, 30, 8, -1, -77, 57, 2, 3, 2, 3, -18, -80, 23, -15, -41, 70, 11], "withholdReward": false, "trial_id": "mdp_trial_31", "block": "test", "trialIndex": 32, "score": 19.4, "costs": -5.6, "simulationMode": [null, null, null, null, null], "rewards": [-2, -2, -7, -13, 49], "path": ["0", "0", "1", "2", "3", "4", "6"], "rt": [10354, 76, 127, 166, 99], "actions": ["up", "up", "up", "right", "right"], "actionTimes": [11595, 12176, 12792, 13447, 14064], "queries": {"click": {"state": {"target": ["21", "20", "31", "6"], "time": [2146, 4084, 7115, 9083]}, "edge": {"target": [], "time": []}}, "mouseover": {"state": {"target": ["19", "21", "20", "19", "14", "15", "1", "24", "31", "1", "4", "6", "4", "7"], "time": [1481, 2069, 2746, 5396, 6015, 6079, 6382, 6496, 6929, 7963, 8013, 8915, 9680, 10996]}, "edge": {"target": [], "time": []}}, "mouseout": {"state": {"target": ["0", "19", "21", "20", "19", "14", "15", "1", "24", "31", "1", "4", "6", "6", "4", "7"], "time": [1336, 1531, 2547, 5363, 5463, 6063, 6130, 6415, 6817, 7497, 7980, 8030, 9160, 9564, 9747, 15314]}, "edge": {"target": [], "time": []}}}, "displayed_time": "15.24", "trialTime": 16664, "trial_type": "mouselab-mdp", "trial_index": 39, "time_elapsed": 2092120, "internal_node_id": "0.0-6.0-1.0-30.0"}}, {"uniqueid": "w27163576:a25321929", "current_trial": 40, "dateTime": 1693483363130, "trialdata": {"revealed_states": [], "clicked_states": ["10", "32"], "num_clicks_accrued": [0, 0, 0, 0, 0, 0, 0, 0, 0, 0, 0, 0, 0], "stateRewards": ["", -2, 3, -1, -9, 44, 48, -37, -3, 71, -39, 87, -1, 3, -4, 4, -21, 59, -15, -8, -1, 28, -38, 2, 4, 4, 8, -85, -72, -63, 14, 58, 63, -46], "withholdReward": false, "trial_id": "mdp_trial_32", "block": "test", "trialIndex": 33, "score": 84.2, "costs": -2.8, "simulationMode": [null, null, null, null, null], "rewards": [2, 4, 4, 14, 63], "path": ["0", "0", "23", "24", "25", "30", "32"], "rt": [5548, 35, 30, 392, 60], "actions": ["left", "left", "left", "down", "down"], "actionTimes": [6521, 7048, 7576, 8505, 9072], "queries": {"click": {"state": {"target": ["10", "32"], "time": [1957, 3830]}, "edge": {"target": [], "time": []}}, "mouseover": {"state": {"target": ["2", "10", "24", "32", "21"], "time": [1714, 1795, 3194, 3612, 5094]}, "edge": {"target": [], "time": []}}, "mouseout": {"state": {"target": ["0", "2", "10", "24", "32", "21"], "time": [746, 1730, 2277, 3227, 4161, 12112]}, "edge": {"target": [], "time": []}}}, "displayed_time": "14.97", "trialTime": 15304, "trial_type": "mouselab-mdp", "trial_index": 40, "time_elapsed": 2107660, "internal_node_id": "0.0-6.0-1.0-31.0"}}, {"uniqueid": "w27163576:a25321929", "current_trial": 41, "dateTime": 1693483380770, "trialdata": {"revealed_states": [], "clicked_states": ["21", "20", "27", "9", "5", "31"], "num_clicks_accrued": [0, 0, 0, 0, 0, 0, 0, 0, 0, 0, 0, 0, 0], "stateRewards": ["", 2, -1, -4, -13, 74, 77, 3, 2, -43, -2, -11, 2, 3, 7, 11, -26, -29, -33, -3, -3, -13, -3, 1, 3, -7, 14, -59, 33, 9, -5, 34, 79, 68], "withholdReward": false, "trial_id": "mdp_trial_33", "block": "test", "trialIndex": 34, "score": 49.6, "costs": -8.4, "simulationMode": [null, null, null, null, null], "rewards": [2, -1, -4, -13, 74], "path": ["0", "0", "1", "2", "3", "4", "5"], "rt": [11795, 78, 96, 51, 63], "actions": ["up", "up", "up", "right", "up"], "actionTimes": [13146, 13719, 14319, 14894, 15486], "queries": {"click": {"state": {"target": ["21", "20", "27", "9", "5", "31"], "time": [1919, 4015, 5855, 7675, 9555, 11346]}, "edge": {"target": [], "time": []}}, "mouseover": {"state": {"target": ["21", "20", "19", "22", "24", "26", "27", "10", "8", "9", "5", "5", "4", "7", "0", "31", "31", "1", "7"], "time": [1505, 3741, 4222, 4240, 4789, 5023, 5139, 6372, 6572, 6855, 8789, 9122, 9839, 9922, 10213, 10406, 10689, 12039, 12105]}, "edge": {"target": [], "time": []}}, "mouseout": {"state": {"target": ["0", "23", "0", "21", "20", "19", "22", "24", "26", "27", "10", "8", "9", "5", "5", "4", "7", "0", "31", "31", "1", "7", "7", "0"], "time": [690, 706, 1372, 2239, 4206, 4239, 4255, 4872, 5089, 6189, 6464, 6739, 8023, 8839, 9806, 9889, 9989, 10230, 10522, 11905, 12072, 12122, 16573, 16723]}, "edge": {"target": [], "time": []}}}, "displayed_time": "15.97", "trialTime": 17421, "trial_type": "mouselab-mdp", "trial_index": 41, "time_elapsed": 2125299, "internal_node_id": "0.0-6.0-1.0-32.0"}}, {"uniqueid": "w27163576:a25321929", "current_trial": 42, "dateTime": 1693483396686, "trialdata": {"revealed_states": [], "clicked_states": ["7"], "num_clicks_accrued": [0, 0, 0, 0, 0, 0, 0, 0, 0, 0, 0, 0, 0], "stateRewards": ["", 2, -1, 5, 6, 10, 86, 55, 10, -45, 63, -71, 1, -2, 5, -8, -50, -72, 36, 15, 61, 12, 33, -1, -4, 6, 5, 79, -56, -21, -16, -87, 60, -81], "withholdReward": false, "trial_id": "mdp_trial_34", "block": "test", "trialIndex": 35, "score": 65.6, "costs": -1.4, "simulationMode": [null, null, null, null, null], "rewards": [2, -1, 5, 6, 55], "path": ["0", "0", "1", "2", "3", "4", "7"], "rt": [3087, 29, 116, 338, 96], "actions": ["up", "up", "up", "right", "down"], "actionTimes": [4450, 4991, 5610, 6465, 7073], "queries": {"click": {"state": {"target": ["7"], "time": [2498]}, "edge": {"target": [], "time": []}}, "mouseover": {"state": {"target": ["0", "23", "7", "4", "7"], "time": [1447, 1543, 2009, 2058, 2381]}, "edge": {"target": [], "time": []}}, "mouseout": {"state": {"target": ["13", "12", "0", "23", "7", "4", "7"], "time": [859, 991, 1492, 1627, 2042, 2210, 3466]}, "edge": {"target": [], "time": []}}}, "displayed_time": "15.36", "trialTime": 15707, "trial_type": "mouselab-mdp", "trial_index": 42, "time_elapsed": 2141215, "internal_node_id": "0.0-6.0-1.0-33.0"}}, {"uniqueid": "w27163576:a25321929", "current_trial": 43, "dateTime": 1693483413845, "trialdata": {"revealed_states": [], "clicked_states": ["7", "32", "33", "31", "21"], "num_clicks_accrued": [0, 0, 0, 0, 0, 0, 0, 0, 0, 0, 0, 0, 0], "stateRewards": ["", -2, 1, 6, -2, -10, -78, -69, 14, -15, 7, -1, 1, -1, -2, 13, 77, 32, 87, 5, -74, 30, -26, 1, 3, 4, 12, 39, 54, -43, 2, 10, 23, 13], "withholdReward": false, "trial_id": "mdp_trial_35", "block": "test", "trialIndex": 36, "score": 26, "costs": -7, "simulationMode": [null, null, null, null, null], "rewards": [1, -1, -2, 5, 30], "path": ["0", "0", "12", "13", "14", "19", "21"], "rt": [11204, 452, 108, 117, 235], "actions": ["right", "right", "right", "down", "down"], "actionTimes": [12007, 12968, 13574, 14216, 14951], "queries": {"click": {"state": {"target": ["7", "32", "33", "31", "21"], "time": [1303, 3140, 5370, 7649, 9548]}, "edge": {"target": [], "time": []}}, "mouseover": {"state": {"target": ["1", "7", "1", "0", "31", "32", "31", "31", "30", "33", "29", "26", "25", "30", "31", "22", "21"], "time": [964, 1065, 1648, 1715, 2032, 2198, 3665, 3914, 5117, 5187, 5898, 6048, 6548, 6848, 7483, 8048, 8381]}, "edge": {"target": [], "time": []}}, "mouseout": {"state": {"target": ["0", "0", "1", "7", "1", "0", "31", "32", "31", "31", "30", "33", "29", "26", "25", "30", "31", "31", "22", "21"], "time": [34, 903, 998, 1548, 1665, 1748, 2088, 3465, 3682, 4248, 5148, 5648, 5999, 6481, 6581, 6936, 7708, 7898, 8065, 10097]}, "edge": {"target": [], "time": []}}}, "displayed_time": "15.45", "trialTime": 16903, "trial_type": "mouselab-mdp", "trial_index": 43, "time_elapsed": 2158374, "internal_node_id": "0.0-6.0-1.0-34.0"}}, {"uniqueid": "w27163576:a25321929", "current_trial": 44, "dateTime": 1693483431436, "trialdata": {"revealed_states": [], "clicked_states": ["21", "16", "17"], "num_clicks_accrued": [0, 0, 0, 0, 0, 0, 0, 0, 0, 0, 0, 0, 0], "stateRewards": ["", -1, -3, -5, -14, -13, -47, 79, 8, -60, -64, 41, -1, 2, 3, 13, -46, 61, -79, -11, -64, -65, 23, 1, -2, 6, -14, 46, 32, 21, 7, 75, -66, 15], "withholdReward": false, "trial_id": "mdp_trial_36", "block": "test", "trialIndex": 37, "score": 73.8, "costs": -4.199999999999999, "simulationMode": [null, null, null, null, null], "rewards": [-1, 2, 3, 13, 61], "path": ["0", "0", "12", "13", "14", "15", "17"], "rt": [7982, 52, 11, 144, 54], "actions": ["right", "right", "right", "up", "right"], "actionTimes": [9024, 9581, 10124, 10773, 11316], "queries": {"click": {"state": {"target": ["21", "16", "17"], "time": [1853, 4263, 6167]}, "edge": {"target": [], "time": []}}, "mouseover": {"state": {"target": ["13", "19", "21", "22", "12", "0", "23", "25", "24", "23", "0", "12", "13", "14", "15", "16", "18", "13", "15", "17", "15", "18", "23", "24", "24", "24", "28"], "time": [1344, 1544, 1732, 2194, 2261, 2311, 2411, 3227, 3311, 3344, 3363, 3380, 3396, 3412, 3964, 4112, 4727, 5111, 5245, 5278, 6394, 6444, 6577, 6612, 6927, 7378, 7461]}, "edge": {"target": [], "time": []}}, "mouseout": {"state": {"target": ["0", "13", "19", "21", "22", "12", "0", "23", "25", "24", "23", "0", "12", "13", "14", "15", "16", "18", "13", "15", "17", "15", "18", "23", "24", "24", "24", "28", "13"], "time": [1051, 1377, 1628, 2027, 2227, 2294, 2346, 2444, 3245, 3327, 3361, 3378, 3394, 3411, 3429, 3980, 4678, 4744, 5161, 5261, 6364, 6427, 6461, 6595, 6661, 7194, 7410, 8444, 14163]}, "edge": {"target": [], "time": []}}}, "displayed_time": "15.04", "trialTime": 17325, "trial_type": "mouselab-mdp", "trial_index": 44, "time_elapsed": 2175965, "internal_node_id": "0.0-6.0-1.0-35.0"}}, {"uniqueid": "w27163576:a25321929", "current_trial": 45, "dateTime": 1693483462219, "trialdata": {"revealed_states": [], "clicked_states": ["28", "27", "18", "14", "17", "25", "9", "6", "7", "32", "31"], "num_clicks_accrued": [0, 0, 0, 0, 0, 0, 0, 0, 0, 0, 0, 0, 0], "stateRewards": ["", 1, 1, 5, 6, -29, -7, 3, -16, 9, -46, 65, -1, 4, -1, -16, -63, -77, -87, 8, 80, -50, 43, -1, -1, -5, 5, -38, -71, -62, 9, 81, -50, -52], "withholdReward": false, "trial_id": "mdp_trial_37", "block": "test", "trialIndex": 38, "score": 67.6, "costs": -15.400000000000002, "simulationMode": [null, null, null, null, null], "rewards": [-1, -1, -5, 9, 81], "path": ["0", "0", "23", "24", "25", "30", "31"], "rt": [25275, 122, 97, 38, 24], "actions": ["left", "left", "left", "down", "right"], "actionTimes": [26307, 26940, 27532, 28107, 28658], "queries": {"click": {"state": {"target": ["28", "27", "18", "14", "17", "25", "9", "6", "7", "32", "31"], "time": [1499, 4117, 6562, 8729, 10462, 12754, 15315, 17791, 19743, 21987, 24271]}, "edge": {"target": [], "time": []}}, "mouseover": {"state": {"target": ["23", "28", "27", "26", "26", "29", "27", "25", "24", "12", "13", "18", "14", "13", "17", "15", "13", "12", "0", "23", "24", "25", "25", "28", "24", "31", "32", "31", "1", "2", "3", "9", "8", "10", "2", "4", "4", "6", "7", "7", "1", "31", "32", "31", "21"], "time": [1138, 1368, 2251, 3319, 3500, 3720, 3935, 5687, 6067, 6100, 6133, 6366, 8518, 9067, 10033, 10817, 10933, 10984, 11101, 11200, 11267, 11350, 12420, 13283, 13567, 13601, 13683, 14766, 14851, 14901, 14967, 15217, 15667, 16017, 16967, 17067, 17420, 17676, 18184, 19703, 20167, 20267, 21834, 23917, 24983]}, "edge": {"target": [], "time": []}}, "mouseout": {"state": {"target": ["0", "12", "23", "0", "23", "28", "27", "26", "26", "29", "27", "25", "24", "12", "13", "18", "14", "13", "17", "17", "15", "13", "12", "0", "23", "24", "25", "25", "28", "24", "31", "32", "31", "1", "2", "3", "9", "8", "10", "2", "4", "4", "6", "7", "7", "1", "31", "32", "32", "31", "21"], "time": [219, 301, 366, 818, 1152, 1917, 3111, 3450, 3585, 3838, 4317, 6043, 6083, 6117, 6221, 6867, 8950, 9268, 10572, 10767, 10850, 10950, 11050, 11151, 11234, 11317, 11417, 13067, 13316, 13600, 13617, 14717, 14783, 14868, 14950, 14983, 15633, 15700, 16117, 17000, 17083, 17518, 18100, 18217, 20133, 20183, 20317, 22072, 23803, 24617, 26183]}, "edge": {"target": [], "time": []}}}, "displayed_time": "29.15", "trialTime": 30532, "trial_type": "mouselab-mdp", "trial_index": 45, "time_elapsed": 2206748, "internal_node_id": "0.0-6.0-1.0-36.0"}}, {"uniqueid": "w27163576:a25321929", "current_trial": 46, "dateTime": 1693483478149, "trialdata": {"revealed_states": [], "clicked_states": ["29"], "num_clicks_accrued": [0, 0, 0, 0, 0, 0, 0, 0, 0, 0, 0, 0, 0], "stateRewards": ["", -2, -4, 6, 14, -34, 49, 36, -8, -3, 32, -4, 1, -2, 1, -8, -20, -71, -57, -7, -86, -62, -16, -2, -3, -5, 11, 23, -21, 53, 5, -5, 85, 73], "withholdReward": false, "trial_id": "mdp_trial_38", "block": "test", "trialIndex": 39, "score": 52.6, "costs": -1.4, "simulationMode": [null, null, null, null, null], "rewards": [-2, -3, -5, 11, 53], "path": ["0", "0", "23", "24", "25", "26", "29"], "rt": [3279, 163, 94, 62, 100], "actions": ["left", "left", "left", "up", "left"], "actionTimes": [4157, 4820, 5433, 5985, 6591], "queries": {"click": {"state": {"target": ["29"], "time": [2182]}, "edge": {"target": [], "time": []}}, "mouseover": {"state": {"target": ["23", "25", "26", "29", "26", "26"], "time": [1039, 1638, 1722, 2138, 2571, 3356]}, "edge": {"target": [], "time": []}}, "mouseout": {"state": {"target": ["0", "23", "25", "26", "29", "26", "26", "24", "23"], "time": [1010, 1107, 1688, 1907, 2505, 3179, 3372, 6994, 7642]}, "edge": {"target": [], "time": []}}}, "displayed_time": "14.88", "trialTime": 15699, "trial_type": "mouselab-mdp", "trial_index": 46, "time_elapsed": 2222679, "internal_node_id": "0.0-6.0-1.0-37.0"}}, {"uniqueid": "w27163576:a25321929", "current_trial": 47, "dateTime": 1693483495497, "trialdata": {"revealed_states": [], "clicked_states": ["16", "27"], "num_clicks_accrued": [0, 0, 0, 0, 0, 0, 0, 0, 0, 0, 0, 0, 0], "stateRewards": ["", -1, -3, 1, 13, -64, -29, 12, -4, -33, 50, 56, 2, -3, 4, 11, -64, -58, -55, 12, 47, 38, -25, -2, 2, 5, -15, 85, 7, 84, 10, 8, 57, 26], "withholdReward": false, "trial_id": "mdp_trial_39", "block": "test", "trialIndex": 40, "score": 72.2, "costs": -2.8, "simulationMode": [null, null, null, null, null], "rewards": [-2, 2, 5, -15, 85], "path": ["0", "0", "23", "24", "25", "26", "27"], "rt": [5720, 571, 88, 89, 201], "actions": ["left", "left", "left", "up", "up"], "actionTimes": [7378, 8463, 9063, 9647, 10359], "queries": {"click": {"state": {"target": ["16", "27"], "time": [2880, 4745]}, "edge": {"target": [], "time": []}}, "mouseover": {"state": {"target": ["23", "12", "13", "15", "16", "1", "28", "27", "28", "23"], "time": [1775, 2262, 2473, 2589, 2757, 3210, 3323, 3724, 5156, 6889]}, "edge": {"target": [], "time": []}}, "mouseout": {"state": {"target": ["0", "23", "12", "13", "15", "16", "1", "28", "27", "27", "28", "23"], "time": [1041, 1808, 2440, 2506, 2662, 3056, 3240, 3357, 4803, 5040, 6856, 7026]}, "edge": {"target": [], "time": []}}}, "displayed_time": "15.66", "trialTime": 17134, "trial_type": "mouselab-mdp", "trial_index": 47, "time_elapsed": 2240026, "internal_node_id": "0.0-6.0-1.0-38.0"}}, {"uniqueid": "w27163576:a25321929", "current_trial": 48, "dateTime": 1693483512088, "trialdata": {"revealed_states": [], "clicked_states": ["28", "17", "16", "21", "32"], "num_clicks_accrued": [0, 0, 0, 0, 0, 0, 0, 0, 0, 0, 0, 0, 0], "stateRewards": ["", 1, -2, -8, -13, 4, 34, -84, -4, -49, 88, -70, -1, 3, -4, 10, -77, 13, -34, 15, -21, -16, 27, 1, -2, 8, -8, -6, 38, -26, 6, -15, 66, -3], "withholdReward": false, "trial_id": "mdp_trial_40", "block": "test", "trialIndex": 41, "score": 72, "costs": -7, "simulationMode": [null, null, null, null, null], "rewards": [1, -2, 8, 6, 66], "path": ["0", "0", "23", "24", "25", "30", "32"], "rt": [11012, 60, 166, 74, 244], "actions": ["left", "left", "left", "down", "down"], "actionTimes": [12608, 13160, 13832, 14440, 15177], "queries": {"click": {"state": {"target": ["28", "17", "16", "21", "32"], "time": [2293, 4315, 6374, 8594, 10462]}, "edge": {"target": [], "time": []}}, "mouseover": {"state": {"target": ["23", "28", "18", "15", "17", "15", "18", "15", "16", "1", "24", "24", "23", "21", "32", "32"], "time": [1686, 2114, 2781, 3115, 3431, 4648, 4715, 5514, 5765, 6632, 6781, 7231, 7565, 8467, 8997, 9431]}, "edge": {"target": [], "time": []}}, "mouseout": {"state": {"target": ["0", "23", "28", "18", "15", "17", "15", "18", "15", "16", "1", "24", "24", "23", "21", "32", "32", "32"], "time": [1647, 1716, 2565, 3014, 3298, 4615, 4682, 4732, 5633, 6548, 6665, 6865, 7448, 7614, 8781, 9031, 10831, 15665]}, "edge": {"target": [], "time": []}}}, "displayed_time": "15.67", "trialTime": 16383, "trial_type": "mouselab-mdp", "trial_index": 48, "time_elapsed": 2256618, "internal_node_id": "0.0-6.0-1.0-39.0"}}, {"uniqueid": "w27163576:a25321929", "current_trial": 49, "dateTime": 1693483555933, "trialdata": {"rt": 43841, "response": {"Q0": "$-2 to $2", "Q1": "$-16 to $16", "Q2": "$-88 to $88", "Q3": "The cost was always $1.4.", "Q4": "Very motivated"}, "question_order": [0, 1, 2, 3, 4], "trial_id": "final_quiz_control", "trial_type": "survey-multi-choice", "trial_index": 49, "time_elapsed": 2300463, "internal_node_id": "0.0-6.0-2.0"}}, {"uniqueid": "w27163576:a25321929", "current_trial": 50, "dateTime": 1693483604136, "trialdata": {"rt": 48198, "response": {"Q0": "Use the nodes to assist with a budget of a maximum of 6 clicks", "Q1": "Yes. I targeted the last steps to use the nodes", "Q2": "Easy"}, "trial_id": "self_report_control", "trial_type": "survey-text", "trial_index": 50, "time_elapsed": 2348666, "internal_node_id": "0.0-6.0-3.0"}}, {"uniqueid": "w27163576:a25321929", "current_trial": 51, "dateTime": 1693483614649, "trialdata": {"rt": 10509, "response": {"gender": "female", "age": "31", "colorblind": "0", "effort": "0"}, "trial_type": "survey-html-form", "trial_index": 51, "time_elapsed": 2359179, "internal_node_id": "0.0-6.0-4.0"}}, {"uniqueid": "w27163576:a25321929", "current_trial": 52, "dateTime": 1693483629072, "trialdata": {"rt": 14419, "response": {"Q0": "No", "Q1": "No", "Q2": "No"}, "trial_type": "survey-text", "trial_index": 52, "time_elapsed": 2373602, "internal_node_id": "0.0-6.0-5.0"}}, {"uniqueid": "w27163576:a25321929", "current_trial": 53, "dateTime": 1693483632785, "trialdata": {"rt": 3709, "stimulus": "<h1>Completion Code Instructions (1/2)</h1>\n<br><br><br><br>\nYou have reached the end of the experiment! The completion code consists of two parts: (1) a code with 2 characters (2) a code with 6 characters. On this page, you will receive the second part of the code. The first part of the completion code will be on the next page.\n<br><br>\nThe second part of your completion code is: <b>EWEK22</b>\n<br><br>\nPlease note this down. Then, press 'Finish HIT' in order to find the first part of your completion code. Once the data has been saved, you will receive this code either in this window or in the original browser window where you started the experiment.\n", "response": 0, "trial_type": "html-button-response", "trial_index": 53, "time_elapsed": 2377315, "internal_node_id": "0.0-6.0-6.0"}}, {"uniqueid": "w27163576:a25321929", "current_trial": 54, "dateTime": 1693483633799, "trialdata": {"success": true, "trial_type": "fullscreen", "trial_index": 54, "time_elapsed": 2378329, "internal_node_id": "0.0-7.0"}}], "questiondata": {"params": {"CODE": "C6DMOQA6", "MIN_TIME": 14, "inspectCost": 1, "startTime": "Thu Aug 31 2023 13:27:29 GMT+0200 (South Africa Standard Time)", "bonusRate": 0.002, "variance": "1_2_4_8_44", "branching": "31123"}, "final_score": 1777}, "eventdata": [{"eventtype": "initialized", "value": null, "timestamp": 1693481248932, "interval": 0}, {"eventtype": "window_resize", "value": [1024, 767], "timestamp": 1693481248932, "interval": 0}, {"eventtype": "window_resize", "value": [1024, 767], "timestamp": 1693481249406, "interval": 474}, {"eventtype": "window_resize", "value": [1920, 1080], "timestamp": 1693481262207, "interval": 12801}, {"eventtype": "focus", "value": "off", "timestamp": 1693483582169, "interval": 2319962}, {"eventtype": "window_resize", "value": [1920, 1079], "timestamp": 1693483582388, "interval": 219}, {"eventtype": "focus", "value": "on", "timestamp": 1693483584194, "interval": 1806}, {"eventtype": "window_resize", "value": [1920, 1080], "timestamp": 1693483584454, "interval": 260}, {"eventtype": "window_resize", "value": [1024, 767], "timestamp": 1693483633012, "interval": 48558}], "useragent": "Mozilla/5.0 (Windows NT 10.0; Win64; x64) AppleWebKit/537.36 (KHTML, like Gecko) Chrome/116.0.0.0 Safari/537.36", "mode": "live", "id": "w27163576:a25321929", "status": "user data saved", "Beginhit": "2023-08-31 11:27:16.484414", "Beginexp": "2023-08-31 11:27:42.045598", "Endhit": "2023-08-31 12:07:15.471707", "psiturkStatus": 3, "browser": "<redacted>", "platform": "windows", "language": "en-US"}