{"condition": 0, "counterbalance": 0, "assignmentId": "a67315850", "workerId": "w19439893", "hitId": "h86483418", "currenttrial": 61, "bonus": 0, "data": [{"uniqueid": "w19439893:a67315850", "current_trial": 0, "dateTime": 1693660267123, "trialdata": {"success": true, "trial_type": "fullscreen", "trial_index": 0, "time_elapsed": 5165, "internal_node_id": "0.0-0.0"}}, {"uniqueid": "w19439893:a67315850", "current_trial": 1, "dateTime": 1693660289985, "trialdata": {"view_history": [{"page_index": 0, "viewing_time": 22844}], "rt": 22845, "trial_id": "exp_instructions_control", "trial_type": "instructions", "trial_index": 1, "time_elapsed": 28027, "internal_node_id": "0.0-1.0"}}, {"uniqueid": "w19439893:a67315850", "current_trial": 2, "dateTime": 1693660481243, "trialdata": {"view_history": [{"page_index": 0, "viewing_time": 66545}, {"page_index": 1, "viewing_time": 63746}, {"page_index": 2, "viewing_time": 18447}, {"page_index": 3, "viewing_time": 42514}], "rt": 191253, "trial_id": "mouselab_instructions_1_control", "trial_type": "instructions", "trial_index": 2, "time_elapsed": 219285, "internal_node_id": "0.0-2.0-1.0"}}, {"uniqueid": "w19439893:a67315850", "current_trial": 3, "dateTime": 1693660530465, "trialdata": {"revealed_states": [], "clicked_states": ["23", "24", "25", "30", "14", "2", "22", "7", "10", "9", "16", "17", "1"], "num_clicks_accrued": [0, 0, 0, 0, 0, 0, 0, 0, 0, 0, 0, 0, 0], "stateRewards": ["", 10, -10, 10, -10, 10, -10, 10, -10, 10, -10, -10, -10, 10, -10, -10, 10, 10, 10, -10, -10, 10, -10, -10, -10, -10, 10, -10, -10, -10, -10, -10, 10, -10], "withholdReward": false, "trial_id": "practice_1", "block": "test", "trialIndex": 0, "score": -13, "costs": -6.5, "simulationMode": [null, null, null, null, null], "rewards": [10, -10, 10, -10, -10], "path": ["0", "0", "1", "2", "3", "8", "11"], "rt": [31786, 4200, 559, 1022, 962], "actions": ["up", "up", "up", "left", "left"], "actionTimes": [35820, 40518, 41591, 43136, 44608], "queries": {"click": {"state": {"target": ["23", "24", "25", "30", "14", "2", "22", "7", "10", "9", "16", "17", "1"], "time": [8934, 11823, 13775, 15158, 17501, 19063, 21772, 23643, 24702, 26070, 27474, 28506, 30025]}, "edge": {"target": [], "time": []}}, "mouseover": {"state": {"target": ["23", "23", "24", "24", "25", "30", "13", "14", "13", "12", "2", "1", "1", "12", "22", "13", "22", "22", "7", "6", "7", "10", "8", "9", "9", "4", "16", "17", "18", "1"], "time": [7722, 8277, 10637, 11078, 12584, 14755, 16484, 16751, 18084, 18166, 18568, 19599, 20318, 20434, 20601, 21191, 21250, 21448, 22382, 22785, 23250, 24332, 25081, 25114, 25682, 26633, 27002, 28048, 29080, 29580]}, "edge": {"target": [], "time": []}}, "mouseout": {"state": {"target": ["0", "0", "0", "23", "23", "24", "24", "25", "30", "13", "14", "13", "12", "2", "1", "2", "2", "1", "12", "22", "13", "22", "22", "7", "6", "7", "10", "8", "9", "9", "4", "16", "17", "18", "1", "1", "1", "2"], "time": [1063, 2726, 7657, 7870, 10486, 10853, 12436, 14569, 15379, 16616, 18049, 18134, 18183, 19549, 19783, 19899, 20234, 20386, 20501, 20991, 21209, 21266, 22316, 22417, 23131, 24114, 24919, 25097, 25247, 26272, 26666, 28014, 29032, 29114, 30600, 32921, 38386, 47868]}, "edge": {"target": [], "time": []}}}, "displayed_time": "45.13", "trialTime": 48761, "trial_type": "mouselab-mdp", "trial_index": 3, "time_elapsed": 268505, "internal_node_id": "0.0-2.0-2.0-0.0"}}, {"uniqueid": "w19439893:a67315850", "current_trial": 4, "dateTime": 1693660587286, "trialdata": {"revealed_states": [], "clicked_states": ["1", "23", "12", "2", "3", "8", "13", "14", "19", "25", "4", "10", "9", "11", "6", "17", "20", "32"], "num_clicks_accrued": [0, 0, 0, 0, 0, 0, 0, 0, 0, 0, 0, 0, 0], "stateRewards": ["", 10, 10, -10, -10, 10, -10, 10, -10, -10, -10, 10, 10, 10, -10, 10, 10, 10, -10, 10, 10, -10, -10, -10, 10, -10, -10, 10, 10, 10, 10, 10, 10, -10], "withholdReward": false, "trial_id": "practice_2", "block": "test", "trialIndex": 1, "score": 24.5, "costs": -9, "simulationMode": [null, null, null, null, null], "rewards": [10, 10, -10, 10, 10], "path": ["0", "0", "12", "13", "14", "19", "20"], "rt": [49508, 276, 192, 756, 215], "actions": ["right", "right", "right", "down", "right"], "actionTimes": [52272, 53047, 53733, 54992, 55702], "queries": {"click": {"state": {"target": ["1", "23", "12", "2", "3", "8", "13", "14", "19", "25", "4", "10", "9", "11", "6", "17", "20", "32"], "time": [4867, 6028, 7793, 9320, 11356, 14609, 19284, 22499, 24094, 25886, 33035, 39898, 42242, 43941, 45584, 47486, 49006, 50318]}, "edge": {"target": [], "time": []}}, "mouseover": {"state": {"target": ["1", "23", "0", "12", "2", "3", "8", "2", "12", "13", "12", "12", "14", "19", "13", "12", "0", "23", "24", "25", "24", "28", "2", "3", "8", "3", "4", "7", "1", "7", "4", "3", "8", "10", "8", "9", "11", "8", "3", "4", "6", "17", "20", "19", "22", "32", "31", "0"], "time": [3696, 5495, 6645, 6961, 8677, 10867, 13883, 14926, 15426, 18420, 19842, 21581, 21899, 23074, 24558, 24624, 24840, 25026, 25107, 25531, 27325, 27543, 27716, 28043, 28229, 30126, 30290, 30323, 30715, 32413, 32647, 34424, 36835, 39473, 41514, 41655, 43154, 44573, 44621, 44687, 44771, 47141, 48676, 49438, 49459, 49970, 50636, 50769]}, "edge": {"target": [], "time": []}}, "mouseout": {"state": {"target": ["22", "0", "1", "23", "0", "12", "2", "3", "8", "2", "12", "13", "12", "12", "13", "14", "19", "13", "12", "0", "23", "24", "25", "25", "24", "28", "2", "3", "8", "3", "4", "7", "1", "7", "4", "3", "8", "10", "8", "9", "11", "8", "3", "4", "6", "17", "20", "19", "22", "32", "31", "0"], "time": [1217, 1921, 5445, 6594, 6660, 8427, 10583, 12719, 14898, 14942, 18400, 19825, 21399, 21628, 21759, 22991, 24494, 24590, 24674, 24857, 25043, 25257, 26097, 27278, 27494, 27561, 27765, 28195, 30098, 30142, 30307, 30373, 32114, 32442, 34345, 34558, 39398, 40808, 41531, 43087, 44109, 44604, 44654, 44736, 46593, 48057, 49421, 49455, 49472, 50532, 50652, 50786]}, "edge": {"target": [], "time": []}}}, "displayed_time": "56.22", "trialTime": 56585, "trial_type": "mouselab-mdp", "trial_index": 4, "time_elapsed": 325326, "internal_node_id": "0.0-2.0-2.0-1.0"}}, {"uniqueid": "w19439893:a67315850", "current_trial": 5, "dateTime": 1693660605596, "trialdata": {"view_history": [{"page_index": 0, "viewing_time": 12270}, {"page_index": 1, "viewing_time": 6031}], "rt": 18303, "trial_id": "mouselab_instructions_2_control", "trial_type": "instructions", "trial_index": 5, "time_elapsed": 343638, "internal_node_id": "0.0-2.0-3.0"}}, {"uniqueid": "w19439893:a67315850", "current_trial": 6, "dateTime": 1693660675266, "trialdata": {"rt": 69657, "response": {"Q0": "The cost for clicking on nodes may vary between nodes.", "Q1": "I will receive a $1 bonus if I perform well, otherwise I will receive no bonus.", "Q2": "Yes.", "Q3": "To click on the least number of nodes.", "Q4": "Only before moving the spider.", "Q5": "3 seconds"}, "question_order": [0, 1, 2, 3, 4, 5], "correct": {"Q0": "The cost for clicking on nodes may vary between nodes.", "Q1": "The better I perform the higher my bonus will be.", "Q2": "No, the amount of cash at each node of the web may be different each time.", "Q3": "To get the highest total score.", "Q4": "Only before moving the spider.", "Q5": "3 seconds"}, "trial_id": "mouselab_quiz_control", "trial_type": "survey-multi-choice", "trial_index": 6, "time_elapsed": 413308, "internal_node_id": "0.0-2.0-4.0"}}, {"uniqueid": "w19439893:a67315850", "current_trial": 7, "dateTime": 1693660681039, "trialdata": {"success": true, "trial_type": "fullscreen", "trial_index": 7, "time_elapsed": 419081, "internal_node_id": "0.0-2.1-0.1-0.1"}}, {"uniqueid": "w19439893:a67315850", "current_trial": 8, "dateTime": 1693660710439, "trialdata": {"view_history": [{"page_index": 0, "viewing_time": 8092}, {"page_index": 1, "viewing_time": 4727}, {"page_index": 2, "viewing_time": 1908}, {"page_index": 3, "viewing_time": 14665}], "rt": 29393, "trial_id": "mouselab_instructions_1_control", "trial_type": "instructions", "trial_index": 8, "time_elapsed": 448481, "internal_node_id": "0.0-2.1-1.1"}}, {"uniqueid": "w19439893:a67315850", "current_trial": 9, "dateTime": 1693660724330, "trialdata": {"revealed_states": [], "clicked_states": ["21", "20"], "num_clicks_accrued": [0, 0, 0, 0, 0, 0, 0, 0, 0, 0, 0, 0, 0], "stateRewards": ["", 10, -10, 10, -10, 10, -10, 10, -10, 10, -10, -10, -10, 10, -10, -10, 10, 10, 10, -10, -10, 10, -10, -10, -10, -10, 10, -10, -10, -10, -10, -10, 10, -10], "withholdReward": false, "trial_id": "practice_1", "block": "test", "trialIndex": 2, "score": -7.5, "costs": -1, "simulationMode": [null, null, null, null, null], "rewards": [-10, 10, -10, -10, 10], "path": ["0", "0", "12", "13", "14", "19", "21"], "rt": [6757, 383, 18, 655, 192], "actions": ["right", "right", "right", "down", "down"], "actionTimes": [9607, 10496, 11030, 12221, 12923], "queries": {"click": {"state": {"target": ["21", "20"], "time": [4318, 5530]}, "edge": {"target": [], "time": []}}, "mouseover": {"state": {"target": ["12", "19", "21", "20", "17", "14", "13", "12"], "time": [3372, 3415, 3831, 5012, 6028, 8095, 8214, 8564]}, "edge": {"target": [], "time": []}}, "mouseout": {"state": {"target": ["12", "19", "21", "20", "17", "14", "13"], "time": [3391, 3446, 4879, 5895, 8070, 8145, 8285]}, "edge": {"target": [], "time": []}}}, "displayed_time": "13.43", "trialTime": 13649, "trial_type": "mouselab-mdp", "trial_index": 9, "time_elapsed": 462370, "internal_node_id": "0.0-2.1-2.1-0.1"}}, {"uniqueid": "w19439893:a67315850", "current_trial": 10, "dateTime": 1693660738336, "trialdata": {"revealed_states": [], "clicked_states": ["21", "22", "20"], "num_clicks_accrued": [0, 0, 0, 0, 0, 0, 0, 0, 0, 0, 0, 0, 0], "stateRewards": ["", 10, 10, -10, -10, 10, -10, 10, -10, -10, -10, 10, 10, 10, -10, 10, 10, 10, -10, 10, 10, -10, -10, -10, 10, -10, -10, 10, 10, 10, 10, 10, 10, -10], "withholdReward": false, "trial_id": "practice_2", "block": "test", "trialIndex": 3, "score": 32, "costs": -1.5, "simulationMode": [null, null, null, null, null], "rewards": [10, 10, -10, 10, 10], "path": ["0", "0", "12", "13", "14", "19", "20"], "rt": [7242, 198, 166, 465, 374], "actions": ["right", "right", "right", "down", "right"], "actionTimes": [9687, 10385, 11069, 12033, 12925], "queries": {"click": {"state": {"target": ["21", "22", "20"], "time": [3730, 5426, 7034]}, "edge": {"target": [], "time": []}}, "mouseover": {"state": {"target": ["12", "22", "21", "22", "19", "20", "20", "20", "17", "16", "15"], "time": [3073, 3106, 3419, 4582, 5970, 6034, 6133, 6586, 7699, 8271, 8835]}, "edge": {"target": [], "time": []}}, "mouseout": {"state": {"target": ["12", "12", "22", "21", "22", "19", "20", "20", "20", "17", "16"], "time": [1555, 3102, 3136, 3932, 5903, 6000, 6050, 6184, 7549, 7750, 8750]}, "edge": {"target": [], "time": []}}}, "displayed_time": "13.43", "trialTime": 13746, "trial_type": "mouselab-mdp", "trial_index": 10, "time_elapsed": 476377, "internal_node_id": "0.0-2.1-2.1-1.1"}}, {"uniqueid": "w19439893:a67315850", "current_trial": 11, "dateTime": 1693660771895, "trialdata": {"view_history": [{"page_index": 0, "viewing_time": 24113}, {"page_index": 1, "viewing_time": 9437}], "rt": 33551, "trial_id": "mouselab_instructions_2_control", "trial_type": "instructions", "trial_index": 11, "time_elapsed": 509937, "internal_node_id": "0.0-2.1-3.1"}}, {"uniqueid": "w19439893:a67315850", "current_trial": 12, "dateTime": 1693660801032, "trialdata": {"rt": 29127, "response": {"Q0": "The cost for clicking on nodes may vary between nodes.", "Q1": "The better I perform the higher my bonus will be.", "Q2": "No, the amount of cash at each node of the web may be different each time.", "Q3": "To get the highest total score.", "Q4": "Only before moving the spider.", "Q5": "3 seconds"}, "question_order": [0, 1, 2, 3, 4, 5], "correct": {"Q0": "The cost for clicking on nodes may vary between nodes.", "Q1": "The better I perform the higher my bonus will be.", "Q2": "No, the amount of cash at each node of the web may be different each time.", "Q3": "To get the highest total score.", "Q4": "Only before moving the spider.", "Q5": "3 seconds"}, "trial_id": "mouselab_quiz_control", "trial_type": "survey-multi-choice", "trial_index": 12, "time_elapsed": 539074, "internal_node_id": "0.0-2.1-4.1"}}, {"uniqueid": "w19439893:a67315850", "current_trial": 13, "dateTime": 1693660812003, "trialdata": {"rt": 10941, "response": {"Q0": "No"}, "question_order": [0], "trial_id": "repeat_check", "trial_type": "survey-multi-choice", "trial_index": 13, "time_elapsed": 550044, "internal_node_id": "0.0-4.0-0.0"}}, {"uniqueid": "w19439893:a67315850", "current_trial": 14, "dateTime": 1693660825103, "trialdata": {"rt": 13083, "stimulus": "\n<h1> Get ready to start the game! </h1>\n\nThank you for reading the instructions. Get ready start with the 40 rounds of this game.\n<br><br>\nIf you need to take a break, feel free to take one after the end of a round, before continuing to the next one.\n<br><br>\nRemember, the more money the spider gets, the bigger your bonus will be!\n<br><br>\n<div style='text-align: center;'>Press <code>space</code> to begin.</div>\n\n<br><br>\n(If, at any point, the <code>space</code> key does not take you to the next page, click once on the text and try again.)", "response": " ", "trial_id": "mdp_ready", "trial_type": "html-keyboard-response", "trial_index": 14, "time_elapsed": 563145, "internal_node_id": "0.0-6.0-0.0"}}, {"uniqueid": "w19439893:a67315850", "current_trial": 15, "dateTime": 1693660853015, "trialdata": {"revealed_states": [], "clicked_states": ["22", "21", "20", "17", "16", "18", "27", "29", "28"], "num_clicks_accrued": [0, 0, 0, 0, 0, 0, 0, 0, 0, 0, 0, 0, 0], "stateRewards": ["", -2, -4, -8, 8, 63, -50, -19, -7, -17, -31, 31, 1, 3, -5, 12, -35, -63, -29, -4, -17, -75, -79, -2, -3, -2, 8, -3, -85, 10, -2, -82, -82, 56], "withholdReward": false, "trial_id": "mdp_trial_1", "block": "test", "trialIndex": 4, "score": -1.6000000000000014, "costs": -12.600000000000001, "simulationMode": [null, null, null, null, null], "rewards": [-2, -3, -2, 8, 10], "path": ["0", "0", "23", "24", "25", "26", "29"], "rt": [20650, 66, 342, 377, 23], "actions": ["left", "left", "left", "up", "left"], "actionTimes": [23968, 24546, 25384, 26251, 26780], "queries": {"click": {"state": {"target": ["22", "21", "20", "17", "16", "18", "27", "29", "28"], "time": [5435, 7694, 9791, 12236, 14330, 16652, 18297, 19965, 22312]}, "edge": {"target": [], "time": []}}, "mouseover": {"state": {"target": ["0", "31", "30", "30", "33", "30", "31", "22", "21", "21", "20", "17", "16", "18", "7", "2", "27", "29", "26", "28", "23", "0"], "time": [3820, 3894, 4064, 4263, 4446, 4514, 4559, 4913, 6344, 6827, 8493, 10642, 12992, 16101, 17342, 17376, 17625, 19341, 20626, 20791, 22874, 22941]}, "edge": {"target": [], "time": []}}, "mouseout": {"state": {"target": ["8", "10", "0", "0", "31", "30", "30", "33", "30", "31", "22", "21", "21", "20", "17", "16", "18", "7", "2", "27", "29", "26", "28", "23"], "time": [845, 894, 2849, 3843, 3963, 4130, 4396, 4496, 4542, 4592, 6078, 6444, 8276, 10426, 12778, 15409, 16853, 17374, 17393, 19208, 20610, 20691, 22808, 22906]}, "edge": {"target": [], "time": []}}}, "displayed_time": "27.31", "trialTime": 27655, "trial_type": "mouselab-mdp", "trial_index": 15, "time_elapsed": 591056, "internal_node_id": "0.0-6.0-1.0-0.0"}}, {"uniqueid": "w19439893:a67315850", "current_trial": 16, "dateTime": 1693660872568, "trialdata": {"revealed_states": [], "clicked_states": ["33", "32"], "num_clicks_accrued": [0, 0, 0, 0, 0, 0, 0, 0, 0, 0, 0, 0, 0], "stateRewards": ["", 2, -2, 7, -11, -76, -65, -23, 16, -58, 30, 81, 1, 2, 7, 14, 9, 55, -2, 6, 11, -15, 31, -1, -1, -3, 2, 15, 2, 46, 15, 18, 45, -34], "withholdReward": false, "trial_id": "mdp_trial_2", "block": "test", "trialIndex": 5, "score": 52.2, "costs": -2.8, "simulationMode": [null, null, null, null, null], "rewards": [-1, -1, -3, 15, 45], "path": ["0", "0", "23", "24", "25", "30", "32"], "rt": [7602, 122, 231, 303, 367], "actions": ["left", "left", "left", "down", "down"], "actionTimes": [12295, 12928, 13669, 14492, 15354], "queries": {"click": {"state": {"target": ["33", "32"], "time": [6996, 9413]}, "edge": {"target": [], "time": []}}, "mouseover": {"state": {"target": ["31", "25", "26", "25", "33", "32", "31"], "time": [5471, 5739, 5874, 6271, 6711, 7754, 11577]}, "edge": {"target": [], "time": []}}, "mouseout": {"state": {"target": ["0", "22", "0", "0", "31", "25", "26", "25", "33", "33", "32", "31"], "time": [472, 772, 3792, 5312, 5639, 5774, 6246, 6345, 7198, 7703, 9869, 11602]}, "edge": {"target": [], "time": []}}}, "displayed_time": "18.70", "trialTime": 19272, "trial_type": "mouselab-mdp", "trial_index": 16, "time_elapsed": 610608, "internal_node_id": "0.0-6.0-1.0-1.0"}}, {"uniqueid": "w19439893:a67315850", "current_trial": 17, "dateTime": 1693660892770, "trialdata": {"revealed_states": [], "clicked_states": ["27", "11"], "num_clicks_accrued": [0, 0, 0, 0, 0, 0, 0, 0, 0, 0, 0, 0, 0], "stateRewards": ["", -1, 3, -5, -2, -13, -9, -34, -7, -81, 32, 35, -2, -2, 1, -14, -32, 81, 7, 4, 82, 56, -8, -1, 3, -8, 6, -24, -24, -53, 2, 38, 61, 54], "withholdReward": false, "trial_id": "mdp_trial_3", "block": "test", "trialIndex": 6, "score": 22.2, "costs": -2.8, "simulationMode": [null, null, null, null, null], "rewards": [-1, 3, -5, -7, 35], "path": ["0", "0", "1", "2", "3", "8", "11"], "rt": [7938, 470, 332, 149, 35], "actions": ["up", "up", "up", "left", "left"], "actionTimes": [10389, 11367, 12210, 12878, 13430], "queries": {"click": {"state": {"target": ["27", "11"], "time": [4113, 6812]}, "edge": {"target": [], "time": []}}, "mouseover": {"state": {"target": ["12", "28", "28", "26", "27", "11", "9"], "time": [2903, 3247, 3415, 3511, 3614, 6348, 8831]}, "edge": {"target": [], "time": []}}, "mouseout": {"state": {"target": ["23", "12", "28", "28", "26", "27", "11", "9", "2", "1"], "time": [950, 2928, 3366, 3483, 3528, 6234, 8769, 9134, 18616, 19169]}, "edge": {"target": [], "time": []}}}, "displayed_time": "16.45", "trialTime": 19903, "trial_type": "mouselab-mdp", "trial_index": 17, "time_elapsed": 630811, "internal_node_id": "0.0-6.0-1.0-2.0"}}, {"uniqueid": "w19439893:a67315850", "current_trial": 18, "dateTime": 1693660909370, "trialdata": {"revealed_states": [], "clicked_states": ["6"], "num_clicks_accrued": [0, 0, 0, 0, 0, 0, 0, 0, 0, 0, 0, 0, 0], "stateRewards": ["", 1, 1, 1, 15, -76, 52, -32, 14, -57, 37, 49, 1, -4, -3, 6, 83, -76, 25, 9, 36, -1, -17, -1, 4, 4, -2, -22, -21, 58, -15, -57, 49, -24], "withholdReward": false, "trial_id": "mdp_trial_4", "block": "test", "trialIndex": 7, "score": 68.6, "costs": -1.4, "simulationMode": [null, null, null, null, null], "rewards": [1, 1, 1, 15, 52], "path": ["0", "0", "1", "2", "3", "4", "6"], "rt": [4383, 374, 170, 288, 22], "actions": ["up", "up", "up", "right", "right"], "actionTimes": [6073, 6966, 7645, 8446, 8979], "queries": {"click": {"state": {"target": ["6"], "time": [3014]}, "edge": {"target": [], "time": []}}, "mouseover": {"state": {"target": ["7", "6"], "time": [2159, 2527]}, "edge": {"target": [], "time": []}}, "mouseout": {"state": {"target": ["0", "0", "7", "6"], "time": [430, 2048, 2179, 5461]}, "edge": {"target": [], "time": []}}}, "displayed_time": "15.69", "trialTime": 16318, "trial_type": "mouselab-mdp", "trial_index": 18, "time_elapsed": 647411, "internal_node_id": "0.0-6.0-1.0-3.0"}}, {"uniqueid": "w19439893:a67315850", "current_trial": 19, "dateTime": 1693660927682, "trialdata": {"revealed_states": [], "clicked_states": ["33"], "num_clicks_accrued": [0, 0, 0, 0, 0, 0, 0, 0, 0, 0, 0, 0, 0], "stateRewards": ["", -2, -3, 7, -13, 60, 9, 37, -6, 37, 20, 1, 2, -2, -8, 6, -80, -31, -10, -7, 70, -65, -44, -1, 1, 7, 6, -11, 73, -85, 16, -21, 47, 34], "withholdReward": false, "trial_id": "mdp_trial_5", "block": "test", "trialIndex": 8, "score": 55.6, "costs": -1.4, "simulationMode": [null, null, null, null, null], "rewards": [-1, 1, 7, 16, 34], "path": ["0", "0", "23", "24", "25", "30", "33"], "rt": [5474, 732, 254, 382, 293], "actions": ["left", "left", "left", "down", "left"], "actionTimes": [8355, 9580, 10356, 11246, 12057], "queries": {"click": {"state": {"target": ["33"], "time": [5336]}, "edge": {"target": [], "time": []}}, "mouseover": {"state": {"target": ["12", "18", "1", "28", "26", "29", "33", "32"], "time": [3799, 3864, 4046, 4229, 4329, 4533, 4932, 6363]}, "edge": {"target": [], "time": []}}, "mouseout": {"state": {"target": ["6", "7", "0", "12", "18", "1", "28", "26", "29", "33"], "time": [1484, 1506, 3753, 3831, 3995, 4064, 4296, 4428, 4737, 6162]}, "edge": {"target": [], "time": []}}}, "displayed_time": "16.88", "trialTime": 18006, "trial_type": "mouselab-mdp", "trial_index": 19, "time_elapsed": 665722, "internal_node_id": "0.0-6.0-1.0-4.0"}}, {"uniqueid": "w19439893:a67315850", "current_trial": 20, "dateTime": 1693660945586, "trialdata": {"revealed_states": [], "clicked_states": ["22", "31"], "num_clicks_accrued": [0, 0, 0, 0, 0, 0, 0, 0, 0, 0, 0, 0, 0], "stateRewards": ["", -1, -4, -3, 1, -45, -67, -24, 14, 32, 22, 22, -1, 1, -5, -7, 72, 84, -79, -5, 19, -40, -2, -1, -2, 8, -3, 84, -25, -28, 11, 64, -66, 77], "withholdReward": false, "trial_id": "mdp_trial_6", "block": "test", "trialIndex": 9, "score": 77.2, "costs": -2.8, "simulationMode": [null, null, null, null, null], "rewards": [-1, -2, 8, 11, 64], "path": ["0", "0", "23", "24", "25", "30", "31"], "rt": [8997, 410, 258, 337, 226], "actions": ["left", "left", "left", "down", "right"], "actionTimes": [12417, 13328, 14092, 14938, 15676], "queries": {"click": {"state": {"target": ["22", "31"], "time": [6326, 9495]}, "edge": {"target": [], "time": []}}, "mouseover": {"state": {"target": ["0", "12", "13", "14", "19", "22", "21", "31", "30", "30", "33", "33"], "time": [3792, 4076, 5575, 5605, 5734, 5968, 7216, 8600, 9784, 10021, 10066, 10785]}, "edge": {"target": [], "time": []}}, "mouseout": {"state": {"target": ["32", "0", "0", "12", "13", "14", "19", "22", "21", "31", "30", "30", "33"], "time": [641, 2652, 3920, 4102, 5601, 5684, 5853, 7041, 8481, 9701, 9833, 10051, 10184]}, "edge": {"target": [], "time": []}}}, "displayed_time": "17.42", "trialTime": 17584, "trial_type": "mouselab-mdp", "trial_index": 20, "time_elapsed": 683626, "internal_node_id": "0.0-6.0-1.0-5.0"}}, {"uniqueid": "w19439893:a67315850", "current_trial": 21, "dateTime": 1693660965629, "trialdata": {"revealed_states": [], "clicked_states": ["33"], "num_clicks_accrued": [0, 0, 0, 0, 0, 0, 0, 0, 0, 0, 0, 0, 0], "stateRewards": ["", -2, 2, 3, -7, -31, -33, 29, -8, -57, 50, -83, -1, -1, 5, 13, -23, -62, 25, 5, -66, -85, 14, 1, -2, -1, 16, 71, 33, -19, -14, 5, -43, 79], "withholdReward": false, "trial_id": "mdp_trial_7", "block": "test", "trialIndex": 10, "score": 61.6, "costs": -1.4, "simulationMode": [null, null, null, null, null], "rewards": [1, -2, -1, -14, 79], "path": ["0", "0", "23", "24", "25", "30", "33"], "rt": [4531, 42, 126, 218, 134], "actions": ["left", "left", "left", "down", "left"], "actionTimes": [6660, 7198, 7832, 8556, 9189], "queries": {"click": {"state": {"target": ["33"], "time": [3927]}, "edge": {"target": [], "time": []}}, "mouseover": {"state": {"target": ["0", "23", "30", "33", "32"], "time": [2714, 3136, 3290, 3523, 5254]}, "edge": {"target": [], "time": []}}, "mouseout": {"state": {"target": ["33", "30", "31", "0", "0", "23", "30", "33"], "time": [1177, 1204, 1254, 1510, 3112, 3155, 3358, 4839]}, "edge": {"target": [], "time": []}}}, "displayed_time": "16.13", "trialTime": 19751, "trial_type": "mouselab-mdp", "trial_index": 21, "time_elapsed": 703669, "internal_node_id": "0.0-6.0-1.0-6.0"}}, {"uniqueid": "w19439893:a67315850", "current_trial": 22, "dateTime": 1693660987086, "trialdata": {"revealed_states": [], "clicked_states": ["29"], "num_clicks_accrued": [0, 0, 0, 0, 0, 0, 0, 0, 0, 0, 0, 0, 0], "stateRewards": ["", 2, -1, -1, 7, 11, -40, -22, -2, 69, 37, 8, -2, 4, -8, -12, -2, -72, -3, -12, 17, 63, 12, 1, 3, -7, 6, 25, 61, 61, -9, 28, -17, 27], "withholdReward": false, "trial_id": "mdp_trial_8", "block": "test", "trialIndex": 11, "score": 62.6, "costs": -1.4, "simulationMode": [null, null, null, null, null], "rewards": [1, 3, -7, 6, 61], "path": ["0", "0", "23", "24", "25", "26", "29"], "rt": [4050, 769, 99, 594, 51], "actions": ["left", "left", "left", "up", "left"], "actionTimes": [6832, 8123, 8737, 9852, 10425], "queries": {"click": {"state": {"target": ["29"], "time": [4087]}, "edge": {"target": [], "time": []}}, "mouseover": {"state": {"target": ["26", "29"], "time": [3554, 3721]}, "edge": {"target": [], "time": []}}, "mouseout": {"state": {"target": ["32", "0", "26"], "time": [1623, 3360, 3654]}, "edge": {"target": [], "time": []}}}, "displayed_time": "16.79", "trialTime": 21147, "trial_type": "mouselab-mdp", "trial_index": 22, "time_elapsed": 725127, "internal_node_id": "0.0-6.0-1.0-7.0"}}, {"uniqueid": "w19439893:a67315850", "current_trial": 23, "dateTime": 1693661009298, "trialdata": {"revealed_states": [], "clicked_states": ["11", "9", "28", "33", "32"], "num_clicks_accrued": [0, 0, 0, 0, 0, 0, 0, 0, 0, 0, 0, 0, 0], "stateRewards": ["", 2, -3, -4, -1, 25, -16, 16, 10, -71, -20, -55, 1, 3, -4, -9, 1, 32, 11, -6, 32, -50, -41, -1, 4, 4, -8, 7, -81, 70, 2, -52, 45, -10], "withholdReward": false, "trial_id": "mdp_trial_9", "block": "test", "trialIndex": 12, "score": 47, "costs": -7, "simulationMode": [null, null, null, null, null], "rewards": [-1, 4, 4, 2, 45], "path": ["0", "0", "23", "24", "25", "30", "32"], "rt": [14205, 302, 124, 242, 81], "actions": ["left", "left", "left", "down", "down"], "actionTimes": [17360, 18153, 18792, 19543, 20131], "queries": {"click": {"state": {"target": ["11", "9", "28", "33", "32"], "time": [4365, 6852, 9459, 12431, 14623]}, "edge": {"target": [], "time": []}}, "mouseover": {"state": {"target": ["10", "8", "11", "9", "27", "26", "28", "26", "33", "30", "31", "32"], "time": [3578, 3653, 3974, 6360, 7585, 8841, 9086, 11596, 11850, 13136, 13251, 13585]}, "edge": {"target": [], "time": []}}, "mouseout": {"state": {"target": ["29", "26", "24", "23", "10", "8", "11", "9", "11", "27", "26", "28", "26", "33", "30", "31", "32"], "time": [1541, 1740, 1919, 2373, 3608, 3820, 5768, 7484, 7552, 7618, 8952, 11575, 11632, 13101, 13186, 13517, 14822]}, "edge": {"target": [], "time": []}}}, "displayed_time": "20.65", "trialTime": 21909, "trial_type": "mouselab-mdp", "trial_index": 23, "time_elapsed": 747338, "internal_node_id": "0.0-6.0-1.0-8.0"}}, {"uniqueid": "w19439893:a67315850", "current_trial": 24, "dateTime": 1693661029129, "trialdata": {"revealed_states": [], "clicked_states": ["22", "21", "31"], "num_clicks_accrued": [0, 0, 0, 0, 0, 0, 0, 0, 0, 0, 0, 0, 0], "stateRewards": ["", 2, -1, -4, -13, 74, 77, 3, 2, -43, -2, -11, 2, 3, 7, 11, -26, -29, -33, -3, -3, -13, -3, 1, 3, -7, 14, -59, 33, 9, -5, 34, 79, 68], "withholdReward": false, "trial_id": "mdp_trial_10", "block": "test", "trialIndex": 13, "score": 21.8, "costs": -4.199999999999999, "simulationMode": [null, null, null, null, null], "rewards": [1, 3, -7, -5, 34], "path": ["0", "0", "23", "24", "25", "30", "31"], "rt": [11035, 345, 919, 347, 325], "actions": ["left", "left", "left", "down", "right"], "actionTimes": [14081, 14935, 16373, 17219, 18062], "queries": {"click": {"state": {"target": ["22", "21", "31"], "time": [6029, 8661, 11391]}, "edge": {"target": [], "time": []}}, "mouseover": {"state": {"target": ["22", "19", "21", "22", "22", "21", "31"], "time": [3906, 4057, 4340, 5324, 5623, 8078, 10891]}, "edge": {"target": [], "time": []}}, "mouseout": {"state": {"target": ["0", "0", "22", "19", "21", "22", "22", "21", "31", "31"], "time": [2280, 3863, 3956, 4224, 4696, 5373, 7087, 10427, 11604, 13221]}, "edge": {"target": [], "time": []}}}, "displayed_time": "18.57", "trialTime": 19497, "trial_type": "mouselab-mdp", "trial_index": 24, "time_elapsed": 767169, "internal_node_id": "0.0-6.0-1.0-9.0"}}, {"uniqueid": "w19439893:a67315850", "current_trial": 25, "dateTime": 1693661049607, "trialdata": {"revealed_states": [], "clicked_states": ["32", "33"], "num_clicks_accrued": [0, 0, 0, 0, 0, 0, 0, 0, 0, 0, 0, 0, 0], "stateRewards": ["", 1, 4, 5, 8, -55, -11, 8, 16, -37, 77, -22, -2, 3, -8, -10, 45, 87, -67, 4, 17, -33, -22, -1, -3, 7, 6, -39, -85, 75, -1, 7, -48, 45], "withholdReward": false, "trial_id": "mdp_trial_11", "block": "test", "trialIndex": 14, "score": 44.2, "costs": -2.8, "simulationMode": [null, null, null, null, null], "rewards": [-1, -3, 7, -1, 45], "path": ["0", "0", "23", "24", "25", "30", "33"], "rt": [6708, 691, 83, 377, 113], "actions": ["left", "left", "left", "down", "left"], "actionTimes": [12734, 13946, 14539, 15435, 16067], "queries": {"click": {"state": {"target": ["32", "33"], "time": [7367, 9934]}, "edge": {"target": [], "time": []}}, "mouseover": {"state": {"target": ["23", "31", "30", "32", "33"], "time": [6603, 6672, 6705, 7088, 9312]}, "edge": {"target": [], "time": []}}, "mouseout": {"state": {"target": ["23", "0", "23", "31", "30", "32"], "time": [5292, 6578, 6616, 6690, 6789, 8540]}, "edge": {"target": [], "time": []}}}, "displayed_time": "20.02", "trialTime": 20130, "trial_type": "mouselab-mdp", "trial_index": 25, "time_elapsed": 787648, "internal_node_id": "0.0-6.0-1.0-10.0"}}, {"uniqueid": "w19439893:a67315850", "current_trial": 26, "dateTime": 1693661069888, "trialdata": {"revealed_states": [], "clicked_states": [], "num_clicks_accrued": [0, 0, 0, 0, 0, 0, 0, 0, 0, 0, 0, 0, 0], "stateRewards": ["", -1, 2, -2, 13, -56, -28, 10, 14, 53, -80, -29, 1, -3, -3, -14, 14, 9, -40, -9, 18, 18, 48, 1, 1, 1, -9, 64, -39, -9, 7, -52, -78, 7], "withholdReward": false, "trial_id": "mdp_trial_12", "block": "test", "trialIndex": 15, "score": -42, "costs": 0, "simulationMode": [null, null, null, null, null], "rewards": [1, 1, 1, 7, -52], "path": ["0", "0", "23", "24", "25", "30", "31"], "rt": [1389, 3856, 347, 204, 248], "actions": ["left", "left", "left", "down", "right"], "actionTimes": [3187, 7554, 8412, 9135, 9896], "queries": {"click": {"state": {"target": [], "time": []}, "edge": {"target": [], "time": []}}, "mouseover": {"state": {"target": ["0", "23"], "time": [2321, 2470]}, "edge": {"target": [], "time": []}}, "mouseout": {"state": {"target": ["33", "30", "31", "0", "0", "23", "31", "31", "32", "32", "0"], "time": [753, 781, 848, 1199, 2341, 4388, 5849, 6386, 12569, 16285, 18679]}, "edge": {"target": [], "time": []}}}, "displayed_time": "15.80", "trialTime": 19940, "trial_type": "mouselab-mdp", "trial_index": 26, "time_elapsed": 807929, "internal_node_id": "0.0-6.0-1.0-11.0"}}, {"uniqueid": "w19439893:a67315850", "current_trial": 27, "dateTime": 1693661086914, "trialdata": {"revealed_states": [], "clicked_states": ["33"], "num_clicks_accrued": [0, 0, 0, 0, 0, 0, 0, 0, 0, 0, 0, 0, 0], "stateRewards": ["", -1, 3, -7, 16, -32, -74, -48, 2, 10, 15, -30, 1, 1, -2, 10, 12, -83, 67, 13, -66, 47, 65, -2, 4, 2, -14, -8, -57, 24, 9, 65, 12, 46], "withholdReward": false, "trial_id": "mdp_trial_13", "block": "test", "trialIndex": 16, "score": 57.6, "costs": -1.4, "simulationMode": [null, null, null, null, null], "rewards": [-2, 4, 2, 9, 46], "path": ["0", "0", "23", "24", "25", "30", "33"], "rt": [4487, 484, 363, 378, 137], "actions": ["left", "left", "left", "down", "left"], "actionTimes": [6791, 7782, 8662, 9558, 10217], "queries": {"click": {"state": {"target": ["33"], "time": [3749]}, "edge": {"target": [], "time": []}}, "mouseover": {"state": {"target": ["31", "32", "33", "32", "31"], "time": [2882, 2964, 3265, 4495, 6040]}, "edge": {"target": [], "time": []}}, "mouseout": {"state": {"target": ["0", "31", "32", "33", "32", "31"], "time": [2833, 2917, 3132, 4363, 6005, 6080]}, "edge": {"target": [], "time": []}}}, "displayed_time": "16.30", "trialTime": 16673, "trial_type": "mouselab-mdp", "trial_index": 27, "time_elapsed": 824955, "internal_node_id": "0.0-6.0-1.0-12.0"}}, {"uniqueid": "w19439893:a67315850", "current_trial": 28, "dateTime": 1693661104151, "trialdata": {"revealed_states": [], "clicked_states": [], "num_clicks_accrued": [0, 0, 0, 0, 0, 0, 0, 0, 0, 0, 0, 0, 0], "stateRewards": ["", 1, -3, 4, 13, -72, 52, 5, 5, -58, 5, 14, 2, 1, 3, -14, -86, -4, 73, 6, -58, -50, 49, 2, -3, -4, 2, 33, -41, 42, -11, 81, 45, 53], "withholdReward": false, "trial_id": "mdp_trial_14", "block": "test", "trialIndex": 17, "score": 39, "costs": 0, "simulationMode": [null, null, null, null, null], "rewards": [2, -3, -4, 2, 42], "path": ["0", "0", "23", "24", "25", "26", "29"], "rt": [8438, 963, 564, 801, 643], "actions": ["left", "left", "left", "up", "left"], "actionTimes": [11004, 12484, 13569, 14888, 16046], "queries": {"click": {"state": {"target": [], "time": []}, "edge": {"target": [], "time": []}}, "mouseover": {"state": {"target": ["0", "23", "23", "31", "0", "31", "0", "0", "31", "32", "31", "0"], "time": [3065, 3478, 3824, 4120, 4457, 5728, 7212, 7915, 7971, 8053, 8306, 8620]}, "edge": {"target": [], "time": []}}, "mouseout": {"state": {"target": ["12", "13", "12", "0", "23", "23", "31", "0", "31", "0", "0", "31", "32", "31", "0"], "time": [1192, 1492, 1639, 3106, 3623, 4005, 4360, 5446, 6896, 7338, 7944, 7988, 8225, 8390, 9929]}, "edge": {"target": [], "time": []}}}, "displayed_time": "16.57", "trialTime": 16834, "trial_type": "mouselab-mdp", "trial_index": 28, "time_elapsed": 842191, "internal_node_id": "0.0-6.0-1.0-13.0"}}, {"uniqueid": "w19439893:a67315850", "current_trial": 29, "dateTime": 1693661122726, "trialdata": {"revealed_states": [], "clicked_states": ["32"], "num_clicks_accrued": [0, 0, 0, 0, 0, 0, 0, 0, 0, 0, 0, 0, 0], "stateRewards": ["", -1, -3, 1, -4, -48, -63, -49, -2, -84, -19, 65, 2, -2, -2, -12, -4, 59, 9, 6, 75, 69, -13, -1, -3, -3, -2, -37, -68, -36, 13, 32, 18, -14], "withholdReward": false, "trial_id": "mdp_trial_15", "block": "test", "trialIndex": 18, "score": 22.6, "costs": -1.4, "simulationMode": [null, null, null, null, null], "rewards": [-1, -3, -3, 13, 18], "path": ["0", "0", "23", "24", "25", "30", "32"], "rt": [3772, 445, 128, 331, 78], "actions": ["left", "left", "left", "down", "down"], "actionTimes": [7023, 7960, 8628, 9463, 10061], "queries": {"click": {"state": {"target": ["32"], "time": [4306]}, "edge": {"target": [], "time": []}}, "mouseover": {"state": {"target": ["31", "32"], "time": [3732, 3796]}, "edge": {"target": [], "time": []}}, "mouseout": {"state": {"target": ["0", "0", "31", "32", "32"], "time": [603, 3692, 3751, 5031, 12288]}, "edge": {"target": [], "time": []}}}, "displayed_time": "17.25", "trialTime": 18223, "trial_type": "mouselab-mdp", "trial_index": 29, "time_elapsed": 860766, "internal_node_id": "0.0-6.0-1.0-14.0"}}, {"uniqueid": "w19439893:a67315850", "current_trial": 30, "dateTime": 1693661139877, "trialdata": {"revealed_states": [], "clicked_states": [], "num_clicks_accrued": [0, 0, 0, 0, 0, 0, 0, 0, 0, 0, 0, 0, 0], "stateRewards": ["", -2, -3, 8, 14, -73, 73, 84, -12, -2, -50, -17, 2, 1, -2, -9, -44, -27, -33, 16, -63, -47, -66, -2, 1, 4, -5, -33, -11, 50, 9, 38, -79, 31], "withholdReward": false, "trial_id": "mdp_trial_16", "block": "test", "trialIndex": 19, "score": 43, "costs": 0, "simulationMode": [null, null, null, null, null], "rewards": [-2, 1, 4, 9, 31], "path": ["0", "0", "23", "24", "25", "30", "33"], "rt": [1254, 1022, 716, 296, 172], "actions": ["left", "left", "left", "down", "left"], "actionTimes": [3107, 4641, 5868, 6680, 7374], "queries": {"click": {"state": {"target": [], "time": []}, "edge": {"target": [], "time": []}}, "mouseover": {"state": {"target": [], "time": []}, "edge": {"target": [], "time": []}}, "mouseout": {"state": {"target": [], "time": []}, "edge": {"target": [], "time": []}}}, "displayed_time": "15.86", "trialTime": 16797, "trial_type": "mouselab-mdp", "trial_index": 30, "time_elapsed": 877918, "internal_node_id": "0.0-6.0-1.0-15.0"}}, {"uniqueid": "w19439893:a67315850", "current_trial": 31, "dateTime": 1693661157602, "trialdata": {"revealed_states": [], "clicked_states": ["21", "32"], "num_clicks_accrued": [0, 0, 0, 0, 0, 0, 0, 0, 0, 0, 0, 0, 0], "stateRewards": ["", 2, 4, 7, 7, -79, -2, -21, -5, -53, 47, -21, 1, -3, -1, 7, 83, 7, 84, -7, 80, -37, 69, 2, -4, 5, 2, 4, -20, -30, 7, 71, 44, -81], "withholdReward": false, "trial_id": "mdp_trial_17", "block": "test", "trialIndex": 20, "score": 51.2, "costs": -2.8, "simulationMode": [null, null, null, null, null], "rewards": [2, -4, 5, 7, 44], "path": ["0", "0", "23", "24", "25", "30", "32"], "rt": [7527, 225, 355, 308, 485], "actions": ["left", "left", "left", "down", "down"], "actionTimes": [10581, 11318, 12165, 12985, 13980], "queries": {"click": {"state": {"target": ["21", "32"], "time": [4961, 7767]}, "edge": {"target": [], "time": []}}, "mouseover": {"state": {"target": ["21", "31", "32", "31", "0"], "time": [4278, 5475, 7444, 9733, 9839]}, "edge": {"target": [], "time": []}}, "mouseout": {"state": {"target": ["0", "12", "12", "0", "21", "31", "32", "31", "0"], "time": [1198, 1293, 2047, 4133, 5169, 5508, 8707, 9762, 9874]}, "edge": {"target": [], "time": []}}}, "displayed_time": "17.06", "trialTime": 17367, "trial_type": "mouselab-mdp", "trial_index": 31, "time_elapsed": 895643, "internal_node_id": "0.0-6.0-1.0-16.0"}}, {"uniqueid": "w19439893:a67315850", "current_trial": 32, "dateTime": 1693661181478, "trialdata": {"revealed_states": [], "clicked_states": ["31", "33"], "num_clicks_accrued": [0, 0, 0, 0, 0, 0, 0, 0, 0, 0, 0, 0, 0], "stateRewards": ["", -1, -1, 4, -16, -75, 81, -51, -7, -84, 73, -30, -2, 1, -3, -16, -77, 33, 14, 1, 45, 87, -66, 2, 2, -5, -7, -19, -17, 79, -3, 8, 49, 47], "withholdReward": false, "trial_id": "mdp_trial_18", "block": "test", "trialIndex": 21, "score": 40.2, "costs": -2.8, "simulationMode": [null, null, null, null, null], "rewards": [2, 2, -5, -3, 47], "path": ["0", "0", "23", "24", "25", "30", "33"], "rt": [6053, 487, 204, 281, 744], "actions": ["left", "left", "left", "down", "left"], "actionTimes": [14257, 15265, 15979, 16777, 18022], "queries": {"click": {"state": {"target": ["31", "33"], "time": [9235, 11349]}, "edge": {"target": [], "time": []}}, "mouseover": {"state": {"target": ["31", "31", "30", "33", "30", "23"], "time": [8626, 8809, 10111, 10240, 12074, 12260]}, "edge": {"target": [], "time": []}}, "mouseout": {"state": {"target": ["0", "31", "31", "30", "33", "30", "23"], "time": [8465, 8693, 10091, 10146, 12057, 12107, 12390]}, "edge": {"target": [], "time": []}}}, "displayed_time": "22.21", "trialTime": 23529, "trial_type": "mouselab-mdp", "trial_index": 32, "time_elapsed": 919518, "internal_node_id": "0.0-6.0-1.0-17.0"}}, {"uniqueid": "w19439893:a67315850", "current_trial": 33, "dateTime": 1693661243252, "trialdata": {"revealed_states": [], "clicked_states": [], "num_clicks_accrued": [0, 0, 0, 0, 0, 0, 0, 0, 0, 0, 0, 0, 0], "stateRewards": ["", -2, 2, 2, -6, 9, 37, 50, -13, -7, -18, -75, -2, -4, 4, 7, 23, -57, -66, -7, -81, -48, -76, 1, 1, -8, 1, 51, -2, 70, 14, 59, 71, -37], "withholdReward": false, "trial_id": "mdp_trial_19", "block": "test", "trialIndex": 22, "score": 46, "costs": 0, "simulationMode": [null, null, null, null, null], "rewards": [1, 1, -8, 1, 51], "path": ["0", "0", "23", "24", "25", "26", "27"], "rt": [5196, 42, 575, 544, 300], "actions": ["left", "left", "left", "up", "up"], "actionTimes": [7379, 7937, 9004, 10056, 10880], "queries": {"click": {"state": {"target": [], "time": []}, "edge": {"target": [], "time": []}}, "mouseover": {"state": {"target": ["23", "23", "0", "23", "24", "26", "27", "27", "28", "0"], "time": [3104, 3232, 3596, 4492, 4526, 4575, 4680, 4878, 6277, 6780]}, "edge": {"target": [], "time": []}}, "mouseout": {"state": {"target": ["0", "23", "23", "0", "23", "24", "26", "27", "27", "28", "0", "0", "12", "0"], "time": [3068, 3160, 3364, 4477, 4511, 4558, 4629, 4697, 6252, 6311, 6811, 59832, 60153, 60456]}, "edge": {"target": [], "time": []}}}, "displayed_time": "16.18", "trialTime": 61393, "trial_type": "mouselab-mdp", "trial_index": 33, "time_elapsed": 981293, "internal_node_id": "0.0-6.0-1.0-18.0"}}, {"uniqueid": "w19439893:a67315850", "current_trial": 34, "dateTime": 1693661259808, "trialdata": {"revealed_states": [], "clicked_states": ["27", "28", "29"], "num_clicks_accrued": [0, 0, 0, 0, 0, 0, 0, 0, 0, 0, 0, 0, 0], "stateRewards": ["", -2, 2, -1, -6, 22, 6, 6, -5, 70, -42, 65, 1, 3, 5, -6, -67, -9, 3, 14, 7, -62, -13, -2, 4, 1, 16, 42, -21, -52, -8, 32, 53, 81], "withholdReward": false, "trial_id": "mdp_trial_20", "block": "test", "trialIndex": 23, "score": 56.8, "costs": -4.199999999999999, "simulationMode": [null, null, null, null, null], "rewards": [-2, 4, 1, 16, 42], "path": ["0", "0", "23", "24", "25", "26", "27"], "rt": [9187, 126, 446, 423, 327], "actions": ["left", "left", "left", "up", "up"], "actionTimes": [10396, 11021, 11975, 12917, 13753], "queries": {"click": {"state": {"target": ["27", "28", "29"], "time": [2566, 5730, 8427]}, "edge": {"target": [], "time": []}}, "mouseover": {"state": {"target": ["23", "24", "28", "27", "26", "25", "28", "26", "29"], "time": [1529, 1592, 1642, 2050, 3776, 4594, 5184, 7766, 7908]}, "edge": {"target": [], "time": []}}, "mouseout": {"state": {"target": ["12", "0", "23", "24", "28", "27", "26", "25", "28", "28", "26"], "time": [434, 1507, 1548, 1627, 1692, 3677, 3993, 4613, 5938, 7735, 7846]}, "edge": {"target": [], "time": []}}}, "displayed_time": "15.21", "trialTime": 16178, "trial_type": "mouselab-mdp", "trial_index": 34, "time_elapsed": 997848, "internal_node_id": "0.0-6.0-1.0-19.0"}}, {"uniqueid": "w19439893:a67315850", "current_trial": 35, "dateTime": 1693661382174, "trialdata": {"revealed_states": [], "clicked_states": ["32"], "num_clicks_accrued": [0, 0, 0, 0, 0, 0, 0, 0, 0, 0, 0, 0, 0], "stateRewards": ["", -2, -1, -1, 5, -54, -87, 35, 2, -8, 20, -22, 1, 3, 6, 13, -75, -32, -55, -3, 56, 62, -22, -1, -4, -1, -7, -51, 84, 70, 7, -15, 5, 55], "withholdReward": false, "trial_id": "mdp_trial_21", "block": "test", "trialIndex": 24, "score": 54.6, "costs": -1.4, "simulationMode": [null, null, null, null, null], "rewards": [-1, -4, -1, 7, 55], "path": ["0", "0", "23", "24", "25", "30", "33"], "rt": [3655, 512, 13, 703, 215], "actions": ["left", "left", "left", "down", "left"], "actionTimes": [5660, 6692, 7225, 8465, 9196], "queries": {"click": {"state": {"target": ["32"], "time": [3021]}, "edge": {"target": [], "time": []}}, "mouseover": {"state": {"target": ["31", "30", "32", "31"], "time": [2316, 2360, 2663, 4010]}, "edge": {"target": [], "time": []}}, "mouseout": {"state": {"target": ["29", "23", "0", "0", "31", "30", "32", "31"], "time": [933, 1011, 1429, 2220, 2330, 2514, 3220, 4077]}, "edge": {"target": [], "time": []}}}, "displayed_time": "16.01", "trialTime": 121996, "trial_type": "mouselab-mdp", "trial_index": 35, "time_elapsed": 1120213, "internal_node_id": "0.0-6.0-1.0-20.0"}}, {"uniqueid": "w19439893:a67315850", "current_trial": 36, "dateTime": 1693661398614, "trialdata": {"revealed_states": [], "clicked_states": ["33", "29"], "num_clicks_accrued": [0, 0, 0, 0, 0, 0, 0, 0, 0, 0, 0, 0, 0], "stateRewards": ["", -2, -1, 3, -3, 71, -58, -21, 7, -10, -75, -37, 2, 4, -1, -12, -79, -29, -48, 3, -41, -10, -30, -1, -2, 1, -15, 13, 66, 22, -1, -42, -86, -55], "withholdReward": false, "trial_id": "mdp_trial_22", "block": "test", "trialIndex": 25, "score": 2.1999999999999993, "costs": -2.8, "simulationMode": [null, null, null, null, null], "rewards": [-1, -2, 1, -15, 22], "path": ["0", "0", "23", "24", "25", "26", "29"], "rt": [7250, 71, 1397, 51, 78], "actions": ["left", "left", "left", "up", "left"], "actionTimes": [8978, 9558, 11466, 12020, 12613], "queries": {"click": {"state": {"target": ["33", "29"], "time": [2842, 6424]}, "edge": {"target": [], "time": []}}, "mouseover": {"state": {"target": ["30", "33", "33", "30", "31", "0", "24", "26", "29", "26", "26"], "time": [1986, 2007, 2422, 3368, 3503, 3653, 5643, 5701, 6010, 7025, 7319]}, "edge": {"target": [], "time": []}}, "mouseout": {"state": {"target": ["0", "30", "33", "33", "30", "31", "0", "24", "26", "29", "29", "26", "26"], "time": [1929, 2004, 2035, 3353, 3428, 3569, 3703, 5662, 5717, 6625, 6984, 7069, 7384]}, "edge": {"target": [], "time": []}}}, "displayed_time": "15.74", "trialTime": 16069, "trial_type": "mouselab-mdp", "trial_index": 36, "time_elapsed": 1136654, "internal_node_id": "0.0-6.0-1.0-21.0"}}, {"uniqueid": "w19439893:a67315850", "current_trial": 37, "dateTime": 1693661418266, "trialdata": {"revealed_states": [], "clicked_states": ["31"], "num_clicks_accrued": [0, 0, 0, 0, 0, 0, 0, 0, 0, 0, 0, 0, 0], "stateRewards": ["", 2, -3, -8, 14, -7, -51, 73, 2, 36, 36, -43, -1, 3, -4, 1, 6, 87, -65, 15, 61, -42, -83, -1, 3, -2, -7, 30, -48, 35, 13, 26, 60, 78], "withholdReward": false, "trial_id": "mdp_trial_23", "block": "test", "trialIndex": 26, "score": 37.6, "costs": -1.4, "simulationMode": [null, null, null, null, null], "rewards": [-1, 3, -2, 13, 26], "path": ["0", "0", "23", "24", "25", "30", "31"], "rt": [3511, 468, 308, 154, 252], "actions": ["left", "left", "left", "down", "right"], "actionTimes": [7355, 8336, 9137, 9800, 10546], "queries": {"click": {"state": {"target": ["31"], "time": [4821]}, "edge": {"target": [], "time": []}}, "mouseover": {"state": {"target": ["0", "31"], "time": [4125, 4267]}, "edge": {"target": [], "time": []}}, "mouseout": {"state": {"target": ["26", "28", "1", "0", "31"], "time": [2763, 2944, 3173, 4149, 6427]}, "edge": {"target": [], "time": []}}}, "displayed_time": "17.85", "trialTime": 19300, "trial_type": "mouselab-mdp", "trial_index": 37, "time_elapsed": 1156306, "internal_node_id": "0.0-6.0-1.0-22.0"}}, {"uniqueid": "w19439893:a67315850", "current_trial": 38, "dateTime": 1693661435801, "trialdata": {"revealed_states": [], "clicked_states": ["32", "33"], "num_clicks_accrued": [0, 0, 0, 0, 0, 0, 0, 0, 0, 0, 0, 0, 0], "stateRewards": ["", 1, -2, -3, 14, -42, -87, -37, -11, -50, 33, -44, -2, 4, -7, 13, 48, -75, -66, 12, 23, -2, 82, 1, -4, 3, 12, 51, -15, -26, -11, -52, -29, 82], "withholdReward": false, "trial_id": "mdp_trial_24", "block": "test", "trialIndex": 27, "score": 68.2, "costs": -2.8, "simulationMode": [null, null, null, null, null], "rewards": [1, -4, 3, -11, 82], "path": ["0", "0", "23", "24", "25", "30", "33"], "rt": [6415, 174, 122, 335, 85], "actions": ["left", "left", "left", "down", "left"], "actionTimes": [8719, 9412, 10026, 10875, 11471], "queries": {"click": {"state": {"target": ["32", "33"], "time": [3249, 6113]}, "edge": {"target": [], "time": []}}, "mouseover": {"state": {"target": ["31", "32", "33", "30", "31"], "time": [2619, 2878, 5560, 7152, 7402]}, "edge": {"target": [], "time": []}}, "mouseout": {"state": {"target": ["0", "31", "32", "33", "30"], "time": [2595, 2639, 4202, 7069, 7252]}, "edge": {"target": [], "time": []}}}, "displayed_time": "16.31", "trialTime": 17131, "trial_type": "mouselab-mdp", "trial_index": 38, "time_elapsed": 1173842, "internal_node_id": "0.0-6.0-1.0-23.0"}}, {"uniqueid": "w19439893:a67315850", "current_trial": 39, "dateTime": 1693661454862, "trialdata": {"revealed_states": [], "clicked_states": ["32", "31", "33", "29"], "num_clicks_accrued": [0, 0, 0, 0, 0, 0, 0, 0, 0, 0, 0, 0, 0], "stateRewards": ["", 1, 3, 1, -13, 52, -28, 67, -14, 3, 63, -70, -1, -4, 7, -11, -10, 47, -18, 6, 69, -9, -61, 2, 3, -6, 10, 63, -34, 40, -6, -79, -35, -32], "withholdReward": false, "trial_id": "mdp_trial_25", "block": "test", "trialIndex": 28, "score": 43.4, "costs": -5.6, "simulationMode": [null, null, null, null, null], "rewards": [2, 3, -6, 10, 40], "path": ["0", "0", "23", "24", "25", "26", "29"], "rt": [12129, 211, 147, 217, 84], "actions": ["left", "left", "left", "up", "left"], "actionTimes": [14999, 15724, 16392, 17112, 17694], "queries": {"click": {"state": {"target": ["32", "31", "33", "29"], "time": [4301, 6929, 9533, 12249]}, "edge": {"target": [], "time": []}}, "mouseover": {"state": {"target": ["23", "24", "30", "32", "31", "33", "24", "26", "29", "26", "24", "23", "0", "12"], "time": [3102, 3154, 3598, 3888, 6420, 8095, 10394, 11678, 11797, 13947, 14026, 14126, 14277, 14477]}, "edge": {"target": [], "time": []}}, "mouseout": {"state": {"target": ["31", "23", "24", "30", "32", "31", "33", "24", "26", "29", "29", "26", "24", "23", "0"], "time": [2036, 3136, 3167, 3630, 4508, 7895, 10295, 11601, 11728, 12467, 13918, 13962, 14092, 14227, 14415]}, "edge": {"target": [], "time": []}}}, "displayed_time": "18.21", "trialTime": 18640, "trial_type": "mouselab-mdp", "trial_index": 39, "time_elapsed": 1192903, "internal_node_id": "0.0-6.0-1.0-24.0"}}, {"uniqueid": "w19439893:a67315850", "current_trial": 40, "dateTime": 1693661473732, "trialdata": {"revealed_states": [], "clicked_states": ["27"], "num_clicks_accrued": [0, 0, 0, 0, 0, 0, 0, 0, 0, 0, 0, 0, 0], "stateRewards": ["", -1, 1, 6, -6, 70, 66, 67, -16, -75, -35, 37, -1, 4, 4, -6, 47, -9, 63, 15, 21, -63, 13, 1, 3, -6, 10, 79, -29, 18, -15, 9, -67, -19], "withholdReward": false, "trial_id": "mdp_trial_26", "block": "test", "trialIndex": 29, "score": 85.6, "costs": -1.4, "simulationMode": [null, null, null, null, null], "rewards": [1, 3, -6, 10, 79], "path": ["0", "0", "23", "24", "25", "26", "27"], "rt": [3817, 459, 302, 190, 235], "actions": ["left", "left", "left", "up", "up"], "actionTimes": [6611, 7609, 8405, 9113, 9867], "queries": {"click": {"state": {"target": ["27"], "time": [3938]}, "edge": {"target": [], "time": []}}, "mouseover": {"state": {"target": ["23", "28", "27", "28"], "time": [3122, 3181, 3482, 4932]}, "edge": {"target": [], "time": []}}, "mouseout": {"state": {"target": ["12", "0", "0", "23", "28", "27", "28"], "time": [1910, 2034, 3097, 3141, 3332, 4783, 5891]}, "edge": {"target": [], "time": []}}}, "displayed_time": "16.80", "trialTime": 18299, "trial_type": "mouselab-mdp", "trial_index": 40, "time_elapsed": 1211772, "internal_node_id": "0.0-6.0-1.0-25.0"}}, {"uniqueid": "w19439893:a67315850", "current_trial": 41, "dateTime": 1693661490937, "trialdata": {"revealed_states": [], "clicked_states": ["27", "29", "28"], "num_clicks_accrued": [0, 0, 0, 0, 0, 0, 0, 0, 0, 0, 0, 0, 0], "stateRewards": ["", 1, 4, -8, -13, -13, -87, -77, -10, -44, 54, 42, 2, -3, -4, 12, -9, -80, 52, 9, 84, -2, -65, 1, -4, -5, -6, 8, 80, 32, 13, -59, -5, -13], "withholdReward": false, "trial_id": "mdp_trial_27", "block": "test", "trialIndex": 30, "score": 61.8, "costs": -4.199999999999999, "simulationMode": [null, null, null, null, null], "rewards": [1, -4, -5, -6, 80], "path": ["0", "0", "23", "24", "25", "26", "28"], "rt": [9402, 401, 551, 247, 171], "actions": ["left", "left", "left", "up", "right"], "actionTimes": [11807, 12720, 13789, 14546, 15237], "queries": {"click": {"state": {"target": ["27", "29", "28"], "time": [3939, 6570, 9321]}, "edge": {"target": [], "time": []}}, "mouseover": {"state": {"target": ["23", "24", "25", "27", "26", "29", "26", "28"], "time": [2852, 2950, 3018, 3451, 6006, 6167, 8793, 8864]}, "edge": {"target": [], "time": []}}, "mouseout": {"state": {"target": ["1", "0", "23", "24", "25", "27", "26", "29", "26"], "time": [733, 1334, 2918, 2985, 3255, 4982, 6044, 8756, 8820]}, "edge": {"target": [], "time": []}}}, "displayed_time": "16.41", "trialTime": 16808, "trial_type": "mouselab-mdp", "trial_index": 41, "time_elapsed": 1228978, "internal_node_id": "0.0-6.0-1.0-26.0"}}, {"uniqueid": "w19439893:a67315850", "current_trial": 42, "dateTime": 1693661509288, "trialdata": {"revealed_states": [], "clicked_states": ["28", "31"], "num_clicks_accrued": [0, 0, 0, 0, 0, 0, 0, 0, 0, 0, 0, 0, 0], "stateRewards": ["", 2, 3, 3, 10, 19, -21, 6, 9, 54, 68, 16, 2, 2, -6, -8, 40, -2, -75, -2, -42, 55, 59, -1, 2, 4, -14, 11, -34, -30, -6, 61, -53, 13], "withholdReward": false, "trial_id": "mdp_trial_28", "block": "test", "trialIndex": 31, "score": 57.2, "costs": -2.8, "simulationMode": [null, null, null, null, null], "rewards": [-1, 2, 4, -6, 61], "path": ["0", "0", "23", "24", "25", "30", "31"], "rt": [7333, 281, 1339, 238, 1041], "actions": ["left", "left", "left", "down", "right"], "actionTimes": [11040, 11867, 13719, 14468, 16022], "queries": {"click": {"state": {"target": ["28", "31"], "time": [4680, 8179]}, "edge": {"target": [], "time": []}}, "mouseover": {"state": {"target": ["28", "26", "28", "25", "30", "30", "31"], "time": [4031, 4146, 4349, 7365, 7479, 7607, 7835]}, "edge": {"target": [], "time": []}}, "mouseout": {"state": {"target": ["28", "23", "0", "28", "26", "28", "25", "30", "30"], "time": [2869, 3014, 3954, 4050, 4287, 7316, 7380, 7536, 7634]}, "edge": {"target": [], "time": []}}}, "displayed_time": "17.71", "trialTime": 17976, "trial_type": "mouselab-mdp", "trial_index": 42, "time_elapsed": 1247328, "internal_node_id": "0.0-6.0-1.0-27.0"}}, {"uniqueid": "w19439893:a67315850", "current_trial": 43, "dateTime": 1693661531366, "trialdata": {"revealed_states": [], "clicked_states": [], "num_clicks_accrued": [0, 0, 0, 0, 0, 0, 0, 0, 0, 0, 0, 0, 0], "stateRewards": ["", -1, 2, 7, 8, 75, 67, -11, 6, 52, -17, 38, -1, 4, -8, 14, 74, -37, -17, -12, 52, 55, 71, -2, -1, -5, 2, 21, 6, -88, -14, 64, -61, -47], "withholdReward": false, "trial_id": "mdp_trial_29", "block": "test", "trialIndex": 32, "score": 15, "costs": 0, "simulationMode": [null, null, null, null, null], "rewards": [-2, -1, -5, 2, 21], "path": ["0", "0", "23", "24", "25", "26", "27"], "rt": [6995, 16, 18, 198, 308], "actions": ["left", "left", "left", "up", "up"], "actionTimes": [14639, 15185, 15709, 16405, 17233], "queries": {"click": {"state": {"target": [], "time": []}, "edge": {"target": [], "time": []}}, "mouseover": {"state": {"target": ["0", "23", "31", "0", "31", "0", "0", "23"], "time": [7849, 7976, 9531, 10094, 10527, 11843, 12240, 13607]}, "edge": {"target": [], "time": []}}, "mouseout": {"state": {"target": ["31", "1", "0", "23", "31", "0", "31", "0", "0", "23"], "time": [6500, 6826, 7925, 8192, 9825, 10250, 11752, 11911, 13597, 13632]}, "edge": {"target": [], "time": []}}}, "displayed_time": "21.65", "trialTime": 21704, "trial_type": "mouselab-mdp", "trial_index": 43, "time_elapsed": 1269407, "internal_node_id": "0.0-6.0-1.0-28.0"}}, {"uniqueid": "w19439893:a67315850", "current_trial": 44, "dateTime": 1693661549629, "trialdata": {"revealed_states": [], "clicked_states": ["32", "27", "29", "22"], "num_clicks_accrued": [0, 0, 0, 0, 0, 0, 0, 0, 0, 0, 0, 0, 0], "stateRewards": ["", -2, 3, -5, -7, 66, 43, -60, -4, -70, -75, 4, -1, 2, 2, -13, 54, 11, -40, -1, 77, 32, 15, -2, 3, -8, -9, -35, 83, -27, 6, -74, -34, 44], "withholdReward": false, "trial_id": "mdp_trial_30", "block": "test", "trialIndex": 33, "score": 11.4, "costs": -5.6, "simulationMode": [null, null, null, null, null], "rewards": [-1, 2, 2, -1, 15], "path": ["0", "0", "12", "13", "14", "19", "22"], "rt": [10749, 202, 132, 273, 503], "actions": ["right", "right", "right", "down", "left"], "actionTimes": [13627, 14343, 14970, 15763, 16763], "queries": {"click": {"state": {"target": ["32", "27", "29", "22"], "time": [3702, 5918, 8752, 11237]}, "edge": {"target": [], "time": []}}, "mouseover": {"state": {"target": ["0", "31", "32", "30", "25", "26", "27", "27", "28", "23", "0", "23", "23", "24", "25", "29", "25", "31", "22"], "time": [2967, 3038, 3256, 4261, 4283, 4372, 4440, 4873, 6388, 6522, 6638, 7777, 7964, 8007, 8044, 8323, 9471, 9688, 10741]}, "edge": {"target": [], "time": []}}, "mouseout": {"state": {"target": ["31", "0", "0", "31", "32", "30", "25", "26", "27", "27", "28", "23", "0", "23", "23", "24", "25", "29", "25", "31", "22"], "time": [2028, 2106, 2988, 3055, 3903, 4280, 4340, 4407, 4606, 6339, 6438, 6588, 6972, 7805, 7985, 8041, 8061, 9322, 9578, 9788, 11807]}, "edge": {"target": [], "time": []}}}, "displayed_time": "17.27", "trialTime": 17887, "trial_type": "mouselab-mdp", "trial_index": 44, "time_elapsed": 1287669, "internal_node_id": "0.0-6.0-1.0-29.0"}}, {"uniqueid": "w19439893:a67315850", "current_trial": 45, "dateTime": 1693661570588, "trialdata": {"revealed_states": [], "clicked_states": ["22", "20", "29"], "num_clicks_accrued": [0, 0, 0, 0, 0, 0, 0, 0, 0, 0, 0, 0, 0], "stateRewards": ["", 1, 2, -3, 6, -88, 74, -45, 7, -46, 40, -77, 1, -4, 4, 3, 22, -25, -59, 8, -83, 19, -60, -1, -1, -1, -8, 26, -29, 64, -7, -88, -51, -55], "withholdReward": false, "trial_id": "mdp_trial_31", "block": "test", "trialIndex": 34, "score": 48.8, "costs": -4.199999999999999, "simulationMode": [null, null, null, null, null], "rewards": [-1, -1, -1, -8, 64], "path": ["0", "0", "23", "24", "25", "26", "29"], "rt": [7810, 201, 430, 201, 696], "actions": ["left", "left", "left", "up", "left"], "actionTimes": [10666, 11378, 12323, 13044, 14255], "queries": {"click": {"state": {"target": ["22", "20", "29"], "time": [3790, 5827, 7895]}, "edge": {"target": [], "time": []}}, "mouseover": {"state": {"target": ["0", "22", "22", "19", "20", "12", "26", "29", "29", "26", "28", "0"], "time": [3016, 3127, 3427, 4408, 4609, 6275, 6574, 6625, 7523, 8317, 8607, 10132]}, "edge": {"target": [], "time": []}}, "mouseout": {"state": {"target": ["0", "0", "22", "22", "22", "19", "20", "12", "26", "29", "29", "26", "28"], "time": [2230, 3063, 3195, 3999, 4375, 4458, 6243, 6292, 6609, 6692, 8314, 8361, 10067]}, "edge": {"target": [], "time": []}}}, "displayed_time": "16.86", "trialTime": 20584, "trial_type": "mouselab-mdp", "trial_index": 45, "time_elapsed": 1308629, "internal_node_id": "0.0-6.0-1.0-30.0"}}, {"uniqueid": "w19439893:a67315850", "current_trial": 46, "dateTime": 1693661586822, "trialdata": {"revealed_states": [], "clicked_states": ["33", "28", "27"], "num_clicks_accrued": [0, 0, 0, 0, 0, 0, 0, 0, 0, 0, 0, 0, 0], "stateRewards": ["", 1, -3, -4, -11, -56, 61, -47, -16, -28, -9, 69, -2, -3, -4, -8, 40, -86, 59, -4, 80, 27, 54, -1, 3, -1, 8, 67, 23, 50, 6, 83, -43, -29], "withholdReward": false, "trial_id": "mdp_trial_32", "block": "test", "trialIndex": 35, "score": 71.8, "costs": -4.199999999999999, "simulationMode": [null, null, null, null, null, null], "rewards": [-1, 3, -1, 8, 67], "path": ["0", "0", "23", "24", "25", "26", "27"], "rt": [7096, 438, 243, 120, 51, 92], "actions": ["left", "left", "left", "left", "up", "up"], "actionTimes": [8197, 8638, 9390, 10015, 10580, 11204], "queries": {"click": {"state": {"target": ["33", "28", "27"], "time": [2057, 4244, 6720]}, "edge": {"target": [], "time": []}}, "mouseover": {"state": {"target": ["23", "24", "30", "33", "24", "28", "27"], "time": [1295, 1397, 1529, 1696, 2631, 2681, 6353]}, "edge": {"target": [], "time": []}}, "mouseout": {"state": {"target": ["0", "23", "24", "30", "33", "24", "28", "27"], "time": [1253, 1363, 1463, 1664, 2566, 2656, 4929, 7128]}, "edge": {"target": [], "time": []}}}, "displayed_time": "15.10", "trialTime": 15791, "trial_type": "mouselab-mdp", "trial_index": 46, "time_elapsed": 1324862, "internal_node_id": "0.0-6.0-1.0-31.0"}}, {"uniqueid": "w19439893:a67315850", "current_trial": 47, "dateTime": 1693661607213, "trialdata": {"revealed_states": [], "clicked_states": ["29", "27"], "num_clicks_accrued": [0, 0, 0, 0, 0, 0, 0, 0, 0, 0, 0, 0, 0], "stateRewards": ["", 1, -1, -7, -7, -22, 15, -13, 13, 26, -32, 38, -1, 1, -7, -4, 16, -62, 86, 12, -54, 56, 64, -2, -1, 6, 14, -57, 37, 62, -6, -25, 50, -70], "withholdReward": false, "trial_id": "mdp_trial_33", "block": "test", "trialIndex": 36, "score": 76.2, "costs": -2.8, "simulationMode": [null, null, null, null, null], "rewards": [-2, -1, 6, 14, 62], "path": ["0", "0", "23", "24", "25", "26", "29"], "rt": [6201, 3, 130, 85, 470], "actions": ["left", "left", "left", "up", "left"], "actionTimes": [10749, 11258, 11918, 12522, 13491], "queries": {"click": {"state": {"target": ["29", "27"], "time": [5624, 7990]}, "edge": {"target": [], "time": []}}, "mouseover": {"state": {"target": ["23", "26", "29", "26", "28", "27", "28"], "time": [4918, 5211, 5289, 6022, 6187, 7539, 9003]}, "edge": {"target": [], "time": []}}, "mouseout": {"state": {"target": ["0", "23", "0", "0", "23", "26", "23", "0", "23", "26", "29", "26", "28", "27", "28"], "time": [897, 2025, 2073, 3009, 3042, 3593, 3655, 4901, 4931, 5233, 5987, 6073, 7328, 8709, 9336]}, "edge": {"target": [], "time": []}}}, "displayed_time": "18.55", "trialTime": 19978, "trial_type": "mouselab-mdp", "trial_index": 47, "time_elapsed": 1345253, "internal_node_id": "0.0-6.0-1.0-32.0"}}, {"uniqueid": "w19439893:a67315850", "current_trial": 48, "dateTime": 1693661624301, "trialdata": {"revealed_states": [], "clicked_states": ["31"], "num_clicks_accrued": [0, 0, 0, 0, 0, 0, 0, 0, 0, 0, 0, 0, 0], "stateRewards": ["", 1, 1, 1, -3, -7, -1, -41, -10, 20, -72, -63, 1, -4, -2, 2, -66, 30, -84, -2, 49, 23, 71, -1, -4, 4, -12, 67, 5, 18, -16, 88, 56, -5], "withholdReward": false, "trial_id": "mdp_trial_34", "block": "test", "trialIndex": 37, "score": 69.6, "costs": -1.4, "simulationMode": [null, null, null, null, null], "rewards": [-1, -4, 4, -16, 88], "path": ["0", "0", "23", "24", "25", "30", "31"], "rt": [3563, 155, 244, 12, 170], "actions": ["left", "left", "left", "down", "right"], "actionTimes": [5962, 6612, 7368, 7902, 8609], "queries": {"click": {"state": {"target": ["31"], "time": [3350]}, "edge": {"target": [], "time": []}}, "mouseover": {"state": {"target": ["23", "24", "30", "31", "25", "29"], "time": [2580, 2629, 2843, 3006, 3822, 4105]}, "edge": {"target": [], "time": []}}, "mouseout": {"state": {"target": ["23", "24", "30", "31", "25"], "time": [2609, 2671, 2942, 3787, 3855]}, "edge": {"target": [], "time": []}}}, "displayed_time": "16.40", "trialTime": 16688, "trial_type": "mouselab-mdp", "trial_index": 48, "time_elapsed": 1362341, "internal_node_id": "0.0-6.0-1.0-33.0"}}, {"uniqueid": "w19439893:a67315850", "current_trial": 49, "dateTime": 1693661644373, "trialdata": {"revealed_states": [], "clicked_states": ["29", "28", "31", "33"], "num_clicks_accrued": [0, 0, 0, 0, 0, 0, 0, 0, 0, 0, 0, 0, 0], "stateRewards": ["", -1, -3, -6, 14, 41, 18, 63, -14, 80, 21, 17, -2, -4, -2, -5, 13, 70, 8, -4, -64, -10, -20, 2, -1, 4, -1, -17, -55, 42, -7, 47, 54, 15], "withholdReward": false, "trial_id": "mdp_trial_35", "block": "test", "trialIndex": 38, "score": 39.4, "costs": -5.6, "simulationMode": [null, null, null, null, null], "rewards": [2, -1, 4, -7, 47], "path": ["0", "0", "23", "24", "25", "30", "31"], "rt": [10799, 482, 86, 203, 137], "actions": ["left", "left", "left", "down", "right"], "actionTimes": [15528, 16531, 17117, 17837, 18469], "queries": {"click": {"state": {"target": ["29", "28", "31", "33"], "time": [5772, 7948, 10877, 13135]}, "edge": {"target": [], "time": []}}, "mouseover": {"state": {"target": ["23", "25", "29", "26", "28", "27", "26", "24", "31", "30", "33", "33", "30"], "time": [4932, 5081, 5432, 6136, 6316, 9954, 10267, 10347, 10547, 11647, 11796, 11847, 13763]}, "edge": {"target": [], "time": []}}, "mouseout": {"state": {"target": ["29", "10", "2", "1", "0", "23", "25", "29", "26", "28", "28", "27", "26", "24", "31", "30", "33", "33"], "time": [3701, 3848, 4004, 4082, 4882, 4964, 5115, 6116, 6207, 8548, 9922, 10234, 10315, 10415, 11380, 11664, 11814, 13730]}, "edge": {"target": [], "time": []}}}, "displayed_time": "18.98", "trialTime": 19657, "trial_type": "mouselab-mdp", "trial_index": 49, "time_elapsed": 1382414, "internal_node_id": "0.0-6.0-1.0-34.0"}}, {"uniqueid": "w19439893:a67315850", "current_trial": 50, "dateTime": 1693661664089, "trialdata": {"revealed_states": [], "clicked_states": ["31", "29", "27", "28", "33"], "num_clicks_accrued": [0, 0, 0, 0, 0, 0, 0, 0, 0, 0, 0, 0, 0], "stateRewards": ["", 1, 1, 7, -11, 80, -20, -53, -14, 3, 31, 27, 2, -1, -8, -10, 33, 41, 86, 9, 78, -37, -13, -1, -2, -6, -8, -80, 75, 4, -16, -49, -74, 24], "withholdReward": false, "trial_id": "mdp_trial_36", "block": "test", "trialIndex": 39, "score": 51, "costs": -7, "simulationMode": [null, null, null, null, null], "rewards": [-1, -2, -6, -8, 75], "path": ["0", "0", "23", "24", "25", "26", "28"], "rt": [12688, 9, 379, 149, 68], "actions": ["left", "left", "left", "up", "right"], "actionTimes": [15380, 15899, 16818, 17490, 18054], "queries": {"click": {"state": {"target": ["31", "29", "27", "28", "33"], "time": [4260, 6306, 8701, 11065, 13114]}, "edge": {"target": [], "time": []}}, "mouseover": {"state": {"target": ["23", "24", "31", "25", "29", "26", "28", "27", "28", "28", "25", "33"], "time": [3178, 3218, 3787, 4856, 4903, 6803, 6893, 8209, 9319, 9668, 11752, 12234]}, "edge": {"target": [], "time": []}}, "mouseout": {"state": {"target": ["30", "0", "23", "24", "31", "25", "29", "26", "28", "27", "28", "28", "25"], "time": [1575, 2126, 3201, 3230, 4854, 4870, 6786, 6853, 8078, 9169, 9353, 11552, 11935]}, "edge": {"target": [], "time": []}}}, "displayed_time": "18.57", "trialTime": 19316, "trial_type": "mouselab-mdp", "trial_index": 50, "time_elapsed": 1402129, "internal_node_id": "0.0-6.0-1.0-35.0"}}, {"uniqueid": "w19439893:a67315850", "current_trial": 51, "dateTime": 1693661681079, "trialdata": {"revealed_states": [], "clicked_states": ["28", "29", "27"], "num_clicks_accrued": [0, 0, 0, 0, 0, 0, 0, 0, 0, 0, 0, 0, 0], "stateRewards": ["", -2, -1, -5, 10, -36, -70, 68, -9, 86, 71, -10, 2, -4, 7, -7, 66, 44, -66, -13, -69, 43, 15, -2, 2, 6, -13, 62, 57, 50, -10, -69, 42, -72], "withholdReward": false, "trial_id": "mdp_trial_37", "block": "test", "trialIndex": 40, "score": 50.8, "costs": -4.199999999999999, "simulationMode": [null, null, null, null, null], "rewards": [-2, 2, 6, -13, 62], "path": ["0", "0", "23", "24", "25", "26", "27"], "rt": [7439, 427, 153, 175, 133], "actions": ["left", "left", "left", "up", "up"], "actionTimes": [9419, 10365, 11044, 11712, 12353], "queries": {"click": {"state": {"target": ["28", "29", "27"], "time": [2961, 4942, 6930]}, "edge": {"target": [], "time": []}}, "mouseover": {"state": {"target": ["23", "24", "28", "28", "26", "29", "27", "28", "23", "0", "0"], "time": [2160, 2207, 2320, 2689, 3434, 3801, 5535, 7534, 7717, 7783, 8102]}, "edge": {"target": [], "time": []}}, "mouseout": {"state": {"target": ["33", "31", "0", "23", "24", "28", "28", "26", "29", "27", "28", "23", "0"], "time": [766, 835, 1388, 2186, 2250, 2368, 3418, 3534, 5485, 7484, 7552, 7751, 7866]}, "edge": {"target": [], "time": []}}}, "displayed_time": "15.99", "trialTime": 16572, "trial_type": "mouselab-mdp", "trial_index": 51, "time_elapsed": 1419119, "internal_node_id": "0.0-6.0-1.0-36.0"}}, {"uniqueid": "w19439893:a67315850", "current_trial": 52, "dateTime": 1693661697825, "trialdata": {"revealed_states": [], "clicked_states": ["31", "28", "29", "27"], "num_clicks_accrued": [0, 0, 0, 0, 0, 0, 0, 0, 0, 0, 0, 0, 0], "stateRewards": ["", -1, 1, -5, -6, -78, 47, -13, 12, 48, -88, 20, 2, -3, -2, 13, -20, 37, -57, 14, -38, 30, 31, -2, -2, 8, 2, -23, 78, 28, 12, -74, -88, 8], "withholdReward": false, "trial_id": "mdp_trial_38", "block": "test", "trialIndex": 41, "score": 78.4, "costs": -5.6, "simulationMode": [null, null, null, null, null], "rewards": [-2, -2, 8, 2, 78], "path": ["0", "0", "23", "24", "25", "26", "28"], "rt": [8516, 845, 39, 73, 207], "actions": ["left", "left", "left", "up", "right"], "actionTimes": [10694, 12052, 12609, 13191, 13876], "queries": {"click": {"state": {"target": ["31", "28", "29", "27"], "time": [3066, 4692, 6695, 8669]}, "edge": {"target": [], "time": []}}, "mouseover": {"state": {"target": ["31", "24", "28", "26", "29", "26", "27"], "time": [2660, 3570, 3672, 5352, 5436, 7292, 7570]}, "edge": {"target": [], "time": []}}, "mouseout": {"state": {"target": ["0", "31", "24", "28", "26", "29", "26", "27"], "time": [2502, 3275, 3658, 5319, 5386, 7238, 7308, 9554]}, "edge": {"target": [], "time": []}}}, "displayed_time": "16.18", "trialTime": 16357, "trial_type": "mouselab-mdp", "trial_index": 52, "time_elapsed": 1435865, "internal_node_id": "0.0-6.0-1.0-37.0"}}, {"uniqueid": "w19439893:a67315850", "current_trial": 53, "dateTime": 1693661723619, "trialdata": {"revealed_states": [], "clicked_states": ["29", "27"], "num_clicks_accrued": [0, 0, 0, 0, 0, 0, 0, 0, 0, 0, 0, 0, 0], "stateRewards": ["", -1, 1, -2, 5, 73, 15, 61, 8, 7, 38, 76, 2, 2, -4, -6, -6, -26, 43, -5, -45, -85, -35, -2, 1, -4, 15, -10, 69, 72, -11, 84, -49, -38], "withholdReward": false, "trial_id": "mdp_trial_39", "block": "test", "trialIndex": 42, "score": 79.2, "costs": -2.8, "simulationMode": [null, null, null, null, null, null], "rewards": [-2, 1, -4, 15, 72], "path": ["0", "0", "23", "24", "25", "26", "29"], "rt": [4390, 388, 450, 167, 42, 615], "actions": ["left", "left", "left", "left", "up", "left"], "actionTimes": [6426, 6818, 7790, 8456, 9013, 10137], "queries": {"click": {"state": {"target": ["29", "27"], "time": [3065, 5179]}, "edge": {"target": [], "time": []}}, "mouseover": {"state": {"target": ["23", "24", "26", "29", "29", "27", "28"], "time": [2077, 2116, 2156, 2190, 2721, 3589, 5723]}, "edge": {"target": [], "time": []}}, "mouseout": {"state": {"target": ["28", "23", "0", "23", "24", "26", "29", "29", "27", "28"], "time": [960, 1006, 2057, 2099, 2130, 2173, 2328, 3489, 5672, 16489]}, "edge": {"target": [], "time": []}}}, "displayed_time": "16.05", "trialTime": 25408, "trial_type": "mouselab-mdp", "trial_index": 53, "time_elapsed": 1461660, "internal_node_id": "0.0-6.0-1.0-38.0"}}, {"uniqueid": "w19439893:a67315850", "current_trial": 54, "dateTime": 1693661741270, "trialdata": {"revealed_states": [], "clicked_states": ["28", "33"], "num_clicks_accrued": [0, 0, 0, 0, 0, 0, 0, 0, 0, 0, 0, 0, 0], "stateRewards": ["", 2, -4, 1, -12, -59, -53, -74, 16, -88, -66, 66, 1, -2, 8, -9, -14, 22, 25, -1, -39, 47, -14, -1, -1, -2, 1, -4, 52, -26, 15, -7, 46, 43], "withholdReward": false, "trial_id": "mdp_trial_40", "block": "test", "trialIndex": 43, "score": 46.2, "costs": -2.8, "simulationMode": [null, null, null, null, null, null], "rewards": [-1, -1, -2, 1, 52], "path": ["0", "0", "23", "24", "25", "26", "28"], "rt": [5541, 216, 137, 341, 619, 103], "actions": ["left", "left", "left", "left", "up", "right"], "actionTimes": [7263, 7481, 8132, 8987, 10116, 10730], "queries": {"click": {"state": {"target": ["28", "33"], "time": [4199, 6478]}, "edge": {"target": [], "time": []}}, "mouseover": {"state": {"target": ["23", "28", "28", "28", "25", "33"], "time": [1743, 2101, 2312, 3850, 4693, 5093]}, "edge": {"target": [], "time": []}}, "mouseout": {"state": {"target": ["0", "23", "28", "28", "28", "25"], "time": [1739, 1778, 2232, 2512, 4659, 4777]}, "edge": {"target": [], "time": []}}}, "displayed_time": "15.72", "trialTime": 16968, "trial_type": "mouselab-mdp", "trial_index": 54, "time_elapsed": 1479310, "internal_node_id": "0.0-6.0-1.0-39.0"}}, {"uniqueid": "w19439893:a67315850", "current_trial": 55, "dateTime": 1693661793533, "trialdata": {"rt": 52247, "response": {"Q0": "$-16 to 16", "Q1": "$-32 to $32", "Q2": "$-88 to $88", "Q3": "The cost for clicking on nodes varied between nodes.", "Q4": "Very motivated"}, "question_order": [0, 1, 2, 3, 4], "trial_id": "final_quiz_control", "trial_type": "survey-multi-choice", "trial_index": 55, "time_elapsed": 1531574, "internal_node_id": "0.0-6.0-2.0"}}, {"uniqueid": "w19439893:a67315850", "current_trial": 56, "dateTime": 1693661928012, "trialdata": {"rt": 134452, "response": {"Q0": "to check nodes before moving, then usin similar areas", "Q1": "recognising nodes that were more likely to produce a positive result", "Q2": "it was randomly selected"}, "trial_id": "self_report_control", "trial_type": "survey-text", "trial_index": 56, "time_elapsed": 1666054, "internal_node_id": "0.0-6.0-3.0"}}, {"uniqueid": "w19439893:a67315850", "current_trial": 57, "dateTime": 1693661954770, "trialdata": {"rt": 26743, "response": {"gender": "male", "age": "53", "colorblind": "0", "effort": "0"}, "trial_type": "survey-html-form", "trial_index": 57, "time_elapsed": 1692812, "internal_node_id": "0.0-6.0-4.0"}}, {"uniqueid": "w19439893:a67315850", "current_trial": 58, "dateTime": 1693661983354, "trialdata": {"rt": 28555, "response": {"Q0": "no but it seemed random", "Q1": "no", "Q2": "none"}, "trial_type": "survey-text", "trial_index": 58, "time_elapsed": 1721396, "internal_node_id": "0.0-6.0-5.0"}}, {"uniqueid": "w19439893:a67315850", "current_trial": 59, "dateTime": 1693661992098, "trialdata": {"rt": 8725, "stimulus": "<h1>Completion Code Instructions (1/2)</h1>\n<br><br><br><br>\nYou have reached the end of the experiment! The completion code consists of two parts: (1) a code with 2 characters (2) a code with 6 characters. On this page, you will receive the second part of the code. The first part of the completion code will be on the next page.\n<br><br>\nThe second part of your completion code is: <b>EWEK22</b>\n<br><br>\nPlease note this down. Then, press 'Next' in order to find the first part of your completion code. Once the data has been saved, you will receive this code either in this window or in the original browser window where you started the experiment.\n <br><br>\n<h2 style='color: red;'>Note: this is <strong>NOT</strong> the full completion code. Copy this down and click 'Next' to get the full completion code on the next page.</h2>", "response": 0, "trial_type": "html-button-response", "trial_index": 59, "time_elapsed": 1730139, "internal_node_id": "0.0-6.0-6.0"}}, {"uniqueid": "w19439893:a67315850", "current_trial": 60, "dateTime": 1693661993107, "trialdata": {"success": true, "trial_type": "fullscreen", "trial_index": 60, "time_elapsed": 1731149, "internal_node_id": "0.0-7.0"}}], "questiondata": {"params": {"CODE": "C6DMOQA6", "MIN_TIME": 14, "inspectCost": 1, "startTime": "Sat Sep 02 2023 14:11:00 GMT+0100 (British Summer Time)", "bonusRate": 0.002, "variance": "1_2_4_8_44", "branching": "31123"}, "final_score": 1874.2}, "eventdata": [{"eventtype": "initialized", "value": null, "timestamp": 1693660259616, "interval": 0}, {"eventtype": "window_resize", "value": [1028, 744], "timestamp": 1693660259616, "interval": 0}, {"eventtype": "window_resize", "value": [1028, 744], "timestamp": 1693660259932, "interval": 316}, {"eventtype": "window_resize", "value": [1536, 864], "timestamp": 1693660266349, "interval": 6417}, {"eventtype": "focus", "value": "off", "timestamp": 1693660677278, "interval": 410929}, {"eventtype": "focus", "value": "on", "timestamp": 1693660677280, "interval": 2}, {"eventtype": "window_resize", "value": [1028, 744], "timestamp": 1693660677512, "interval": 232}, {"eventtype": "window_resize", "value": [1536, 864], "timestamp": 1693660680284, "interval": 2772}, {"eventtype": "focus", "value": "off", "timestamp": 1693661714582, "interval": 1034298}, {"eventtype": "focus", "value": "on", "timestamp": 1693661720144, "interval": 5562}, {"eventtype": "window_resize", "value": [1028, 744], "timestamp": 1693661992368, "interval": 272224}], "useragent": "Mozilla/5.0 (Windows NT 10.0; Win64; x64) AppleWebKit/537.36 (KHTML, like Gecko) Chrome/116.0.0.0 Safari/537.36", "mode": "live", "id": "w19439893:a67315850", "status": "user data saved", "Beginhit": "2023-09-02 13:10:58.712557", "Beginexp": "2023-09-02 13:11:07.3939", "Endhit": "2023-09-02 13:39:53.79827", "psiturkStatus": 3, "browser": "<redacted>", "platform": "windows", "language": "en-US"}