{"condition": 0, "counterbalance": 0, "assignmentId": "a46110226", "workerId": "w57364468", "hitId": "h74091261", "currenttrial": 55, "bonus": 0, "data": [{"uniqueid": "w57364468:a46110226", "current_trial": 0, "dateTime": 1693564723027, "trialdata": {"success": true, "trial_type": "fullscreen", "trial_index": 0, "time_elapsed": 11483, "internal_node_id": "0.0-0.0"}}, {"uniqueid": "w57364468:a46110226", "current_trial": 1, "dateTime": 1693564760983, "trialdata": {"view_history": [{"page_index": 0, "viewing_time": 37937}], "rt": 37939, "trial_id": "exp_instructions_control", "trial_type": "instructions", "trial_index": 1, "time_elapsed": 49441, "internal_node_id": "0.0-1.0"}}, {"uniqueid": "w57364468:a46110226", "current_trial": 2, "dateTime": 1693565273991, "trialdata": {"view_history": [{"page_index": 0, "viewing_time": 140474}, {"page_index": 1, "viewing_time": 177800}, {"page_index": 2, "viewing_time": 105767}, {"page_index": 3, "viewing_time": 88960}], "rt": 513002, "trial_id": "mouselab_instructions_1_control", "trial_type": "instructions", "trial_index": 2, "time_elapsed": 562448, "internal_node_id": "0.0-2.0-1.0"}}, {"uniqueid": "w57364468:a46110226", "current_trial": 3, "dateTime": 1693565325855, "trialdata": {"revealed_states": [], "clicked_states": ["23", "12", "1"], "num_clicks_accrued": [0, 0, 0, 0, 0, 0, 0, 0, 0, 0, 0, 0, 0], "stateRewards": ["", -10, 10, 10, -10, 10, -10, -10, 10, 10, 10, -10, -10, 10, 10, 10, -10, -10, 10, -10, -10, -10, -10, -10, 10, 10, 10, 10, -10, 10, -10, 10, 10, -10], "withholdReward": false, "trial_id": "practice_1", "block": "test", "trialIndex": 0, "score": -8, "costs": -1.5, "simulationMode": [null, null, null, null, null], "rewards": [-10, 10, 10, -10, -10], "path": ["0", "0", "12", "13", "14", "19", "21"], "rt": [7713, 1242, 7252, 1692, 4608], "actions": ["right", "right", "right", "down", "down"], "actionTimes": [19055, 20814, 28588, 30797, 35912], "queries": {"click": {"state": {"target": ["23", "12", "1"], "time": [13466, 15864, 17065]}, "edge": {"target": [], "time": []}}, "mouseover": {"state": {"target": ["23", "0", "12", "1"], "time": [12946, 15211, 15410, 16589]}, "edge": {"target": [], "time": []}}, "mouseout": {"state": {"target": ["0", "0", "23", "0", "12", "1", "18", "14", "19", "19", "20", "19", "15", "14", "19", "19", "20"], "time": [3293, 12846, 14115, 15233, 16289, 17651, 22695, 32628, 32762, 35646, 41012, 41627, 42195, 42278, 42430, 43545, 43630]}, "edge": {"target": [], "time": []}}}, "displayed_time": "36.42", "trialTime": 50137, "trial_type": "mouselab-mdp", "trial_index": 3, "time_elapsed": 614312, "internal_node_id": "0.0-2.0-2.0-0.0"}}, {"uniqueid": "w57364468:a46110226", "current_trial": 4, "dateTime": 1693565361466, "trialdata": {"revealed_states": [], "clicked_states": ["25", "3", "14"], "num_clicks_accrued": [0, 0, 0, 0, 0, 0, 0, 0, 0, 0, 0, 0, 0], "stateRewards": ["", 10, -10, -10, -10, 10, 10, -10, 10, -10, -10, 10, 10, 10, 10, 10, -10, -10, 10, -10, -10, -10, 10, 10, -10, -10, 10, 10, 10, 10, -10, 10, 10, -10], "withholdReward": false, "trial_id": "practice_2", "block": "test", "trialIndex": 1, "score": 32, "costs": -1.5, "simulationMode": [null, null, null, null, null], "rewards": [10, 10, 10, 10, -10], "path": ["0", "0", "12", "13", "14", "15", "16"], "rt": [13272, 597, 532, 5827, 820], "actions": ["right", "right", "right", "up", "up"], "actionTimes": [17822, 18950, 20001, 26364, 27689], "queries": {"click": {"state": {"target": ["25", "3", "14"], "time": [10793, 12687, 14608]}, "edge": {"target": [], "time": []}}, "mouseover": {"state": {"target": ["0", "23", "24", "25", "26", "25", "24", "25", "24", "24", "25", "24", "1", "7", "3", "7", "14", "22"], "time": [5579, 5928, 6627, 6761, 7060, 8010, 8127, 8778, 9410, 9677, 10059, 11330, 11416, 11623, 12043, 13374, 14011, 16078]}, "edge": {"target": [], "time": []}}, "mouseout": {"state": {"target": ["16", "12", "0", "0", "23", "24", "25", "26", "25", "24", "25", "24", "24", "25", "24", "1", "7", "3", "7", "14", "22", "15", "16", "16", "15"], "time": [1042, 1674, 2257, 5643, 6193, 6693, 6944, 7945, 8077, 8611, 9361, 9460, 9811, 11305, 11358, 11447, 11675, 13266, 13673, 16028, 21695, 22112, 22494, 23945, 24027]}, "edge": {"target": [], "time": []}}}, "displayed_time": "28.20", "trialTime": 34614, "trial_type": "mouselab-mdp", "trial_index": 4, "time_elapsed": 649923, "internal_node_id": "0.0-2.0-2.0-1.0"}}, {"uniqueid": "w57364468:a46110226", "current_trial": 5, "dateTime": 1693565509651, "trialdata": {"view_history": [{"page_index": 0, "viewing_time": 111605}, {"page_index": 1, "viewing_time": 36573}], "rt": 148180, "trial_id": "mouselab_instructions_2_control", "trial_type": "instructions", "trial_index": 5, "time_elapsed": 798109, "internal_node_id": "0.0-2.0-3.0"}}, {"uniqueid": "w57364468:a46110226", "current_trial": 6, "dateTime": 1693565906481, "trialdata": {"rt": 396818, "response": {"Q0": "The cost for clicking on nodes may vary between nodes.", "Q1": "The better I perform the higher my bonus will be.", "Q2": "No, the amount of cash at each node of the web may be different each time.", "Q3": "To get the highest total score.", "Q4": "Only before moving the spider.", "Q5": "3 seconds"}, "question_order": [0, 1, 2, 3, 4, 5], "correct": {"Q0": "The cost for clicking on nodes may vary between nodes.", "Q1": "The better I perform the higher my bonus will be.", "Q2": "No, the amount of cash at each node of the web may be different each time.", "Q3": "To get the highest total score.", "Q4": "Only before moving the spider.", "Q5": "3 seconds"}, "trial_id": "mouselab_quiz_control", "trial_type": "survey-multi-choice", "trial_index": 6, "time_elapsed": 1194939, "internal_node_id": "0.0-2.0-4.0"}}, {"uniqueid": "w57364468:a46110226", "current_trial": 7, "dateTime": 1693565924807, "trialdata": {"rt": 18307, "response": {"Q0": "No"}, "question_order": [0], "trial_id": "repeat_check", "trial_type": "survey-multi-choice", "trial_index": 7, "time_elapsed": 1213264, "internal_node_id": "0.0-4.0-0.0"}}, {"uniqueid": "w57364468:a46110226", "current_trial": 8, "dateTime": 1693565969687, "trialdata": {"rt": 44866, "stimulus": "\n<h1> Get ready to start the game! </h1>\n\nThank you for reading the instructions. Get ready start with the 40 rounds of this game.\n<br><br>\nIf you need to take a break, feel free to take one after the end of a round, before continuing to the next one.\n<br><br>\nRemember, the more money the spider gets, the bigger your bonus will be!\n<br><br>\n<div style='text-align: center;'>Press <code>space</code> to begin.</div>\n\n<br><br>\n(If, at any point, the <code>space</code> key does not take you to the next page, click once on the text and try again.)", "response": " ", "trial_id": "mdp_ready", "trial_type": "html-keyboard-response", "trial_index": 8, "time_elapsed": 1258145, "internal_node_id": "0.0-6.0-0.0"}}, {"uniqueid": "w57364468:a46110226", "current_trial": 9, "dateTime": 1693566023826, "trialdata": {"revealed_states": [], "clicked_states": ["23", "12", "1", "2", "3", "8", "11", "24", "25", "27", "32", "13", "15", "16", "14", "21"], "num_clicks_accrued": [0, 0, 0, 0, 0, 0, 0, 0, 0, 0, 0, 0, 0], "stateRewards": ["", 2, 4, 7, -6, -76, -81, 2, 5, -66, -3, 36, -2, -4, 6, -2, -69, 4, -49, -6, 67, 38, -67, 2, 1, 1, 6, -68, -21, 52, -16, -16, 6, -70], "withholdReward": false, "trial_id": "mdp_trial_1", "block": "test", "trialIndex": 2, "score": 9.600000000000005, "costs": -22.399999999999995, "simulationMode": [null, null, null, null, null], "rewards": [-2, -4, 6, -6, 38], "path": ["0", "0", "12", "13", "14", "19", "21"], "rt": [33108, 1198, 249, 293, 359], "actions": ["right", "right", "right", "down", "down"], "actionTimes": [41620, 43329, 44106, 44915, 45797], "queries": {"click": {"state": {"target": ["23", "12", "1", "2", "3", "8", "11", "24", "25", "27", "32", "13", "15", "16", "14", "21"], "time": [10110, 11822, 13957, 15782, 17425, 19064, 20640, 23228, 24811, 27035, 29529, 31297, 33450, 35297, 37185, 39955]}, "edge": {"target": [], "time": []}}, "mouseover": {"state": {"target": ["23", "23", "0", "12", "1", "2", "3", "8", "11", "23", "24", "25", "26", "27", "26", "30", "32", "30", "32", "31", "13", "14", "15", "16", "14", "19", "21", "19", "14", "19", "21", "19"], "time": [9197, 9597, 10884, 11024, 13430, 15325, 16962, 18649, 20285, 21555, 22746, 23946, 25529, 26680, 27623, 27682, 27752, 28124, 29129, 30213, 30746, 31942, 32917, 33862, 35912, 35946, 35997, 36372, 36717, 37744, 39514, 40578]}, "edge": {"target": [], "time": []}}, "mouseout": {"state": {"target": ["12", "0", "23", "23", "0", "12", "1", "2", "3", "8", "11", "23", "24", "25", "26", "27", "27", "26", "30", "32", "30", "32", "31", "13", "14", "15", "16", "15", "14", "19", "21", "19", "14", "19", "21", "19"], "time": [2293, 9163, 9280, 10816, 10955, 13161, 15101, 16567, 18344, 19668, 21089, 22529, 23779, 25375, 26563, 27162, 27613, 27652, 27711, 28018, 28980, 29649, 30241, 31892, 32851, 33784, 35797, 35902, 35937, 35969, 36309, 36407, 37639, 39279, 40540, 40727]}, "edge": {"target": [], "time": []}}}, "displayed_time": "46.32", "trialTime": 53062, "trial_type": "mouselab-mdp", "trial_index": 9, "time_elapsed": 1312284, "internal_node_id": "0.0-6.0-1.0-0.0"}}, {"uniqueid": "w57364468:a46110226", "current_trial": 10, "dateTime": 1693566105513, "trialdata": {"revealed_states": [], "clicked_states": ["1", "2", "8", "4", "5"], "num_clicks_accrued": [0, 0, 0, 0, 0, 0, 0, 0, 0, 0, 0, 0, 0], "stateRewards": ["", -1, 4, -6, -5, -22, -38, -38, -2, -56, 88, 14, -1, -1, -7, -6, 61, -60, 21, 11, 57, 31, -30, -2, -2, 6, -9, -44, -70, -44, -15, 34, 16, -78], "withholdReward": false, "trial_id": "mdp_trial_2", "block": "test", "trialIndex": 3, "score": -37, "costs": -7, "simulationMode": [null, null, null, null, null], "rewards": [-1, 4, -6, -5, -22], "path": ["0", "0", "1", "2", "3", "4", "5"], "rt": [20721, 1078, 342, 390, 2191], "actions": ["up", "up", "up", "right", "up"], "actionTimes": [67893, 69478, 70354, 71258, 73957], "queries": {"click": {"state": {"target": ["1", "2", "8", "4", "5"], "time": [48459, 50440, 53108, 55985, 58272]}, "edge": {"target": [], "time": []}}, "mouseover": {"state": {"target": ["1", "2", "3", "8", "11", "3", "4", "4", "6", "5", "9", "11", "27", "26", "25", "24"], "time": [47958, 49217, 51198, 52640, 54113, 55111, 55178, 55541, 56680, 57775, 58781, 60091, 63458, 63824, 65107, 66784]}, "edge": {"target": [], "time": []}}, "mouseout": {"state": {"target": ["12", "0", "0", "1", "2", "3", "8", "8", "11", "8", "3", "4", "4", "6", "5", "9", "11", "27", "26", "25", "24"], "time": [44222, 45739, 47807, 49026, 50976, 52508, 53657, 53880, 55025, 55091, 55143, 55341, 56522, 57472, 58653, 59828, 60292, 63724, 64577, 66741, 66858]}, "edge": {"target": [], "time": []}}}, "displayed_time": "74.47", "trialTime": 80710, "trial_type": "mouselab-mdp", "trial_index": 10, "time_elapsed": 1393970, "internal_node_id": "0.0-6.0-1.0-1.0"}}, {"uniqueid": "w57364468:a46110226", "current_trial": 11, "dateTime": 1693566164317, "trialdata": {"revealed_states": [], "clicked_states": ["23", "24", "30", "27", "26", "12", "14", "16", "21", "1", "3", "8", "11", "9", "5", "6", "32"], "num_clicks_accrued": [0, 0, 0, 0, 0, 0, 0, 0, 0, 0, 0, 0, 0], "stateRewards": ["", 2, 4, -3, 16, -58, 30, -35, 11, -60, 47, 27, -2, -1, -7, -16, 23, -70, 68, -10, -65, -43, -34, -2, 1, 7, 9, -63, 34, -31, -8, -12, -86, 59], "withholdReward": false, "trial_id": "mdp_trial_3", "block": "test", "trialIndex": 4, "score": -111.8, "costs": -23.799999999999994, "simulationMode": [null, null, null, null, null, null], "rewards": [-2, 1, 7, -8, -86], "path": ["0", "0", "23", "24", "25", "30", "32"], "rt": [42408, 1251, 394, 49, 229, 361], "actions": ["left", "left", "left", "left", "down", "down"], "actionTimes": [45412, 46677, 47573, 48129, 48875, 49759], "queries": {"click": {"state": {"target": ["23", "24", "30", "27", "26", "12", "14", "16", "21", "1", "3", "8", "11", "9", "5", "6", "32"], "time": [4359, 6304, 9182, 11821, 14008, 15878, 18198, 20709, 22967, 25997, 28723, 30849, 33924, 35527, 37737, 40334, 44289]}, "edge": {"target": [], "time": []}}, "mouseover": {"state": {"target": ["23", "24", "25", "30", "32", "25", "27", "26", "28", "13", "12", "13", "14", "15", "16", "15", "19", "19", "21", "13", "1", "10", "2", "1", "2", "3", "8", "11", "9", "9", "5", "4", "6", "10", "26", "25", "25", "24", "30", "32"], "time": [3873, 5097, 7106, 8753, 9717, 11173, 11238, 12301, 14446, 15110, 15423, 16346, 17853, 18874, 20205, 21154, 21241, 21614, 22586, 24381, 24987, 25173, 25324, 25522, 26324, 28398, 29524, 31427, 34439, 34827, 36232, 38299, 39887, 41014, 41663, 42105, 42804, 42940, 43587, 43874]}, "edge": {"target": [], "time": []}}, "mouseout": {"state": {"target": ["22", "12", "0", "23", "24", "25", "30", "32", "25", "27", "26", "28", "13", "12", "13", "14", "15", "16", "15", "14", "19", "19", "21", "13", "1", "10", "2", "1", "2", "3", "8", "11", "9", "9", "5", "5", "4", "6", "10", "26", "25", "25", "24", "30", "32"], "time": [618, 1469, 3588, 4958, 7010, 8420, 9688, 11137, 11193, 12269, 14415, 14514, 15371, 16296, 17469, 18657, 20086, 21144, 21183, 21212, 21377, 22420, 23088, 24412, 25009, 25289, 25472, 26295, 28270, 29386, 31391, 34393, 34466, 36072, 37868, 38210, 39821, 40897, 41157, 41721, 42220, 42889, 42957, 43637, 44456]}, "edge": {"target": [], "time": []}}}, "displayed_time": "50.28", "trialTime": 57509, "trial_type": "mouselab-mdp", "trial_index": 11, "time_elapsed": 1452774, "internal_node_id": "0.0-6.0-1.0-2.0"}}, {"uniqueid": "w57364468:a46110226", "current_trial": 12, "dateTime": 1693566196537, "trialdata": {"revealed_states": [], "clicked_states": [], "num_clicks_accrued": [0, 0, 0, 0, 0, 0, 0, 0, 0, 0, 0, 0, 0], "stateRewards": ["", 2, -1, -3, 16, -3, -16, -62, -1, 13, -26, 43, -1, 4, 3, -9, -54, -37, -3, -12, -71, -68, -57, 1, -3, 2, -9, 2, -2, -9, -11, 84, -52, 55], "withholdReward": false, "trial_id": "mdp_trial_4", "block": "test", "trialIndex": 5, "score": -7, "costs": 0, "simulationMode": [null, null, null, null, null], "rewards": [1, -3, 2, -9, 2], "path": ["0", "0", "23", "24", "25", "26", "27"], "rt": [15950, 398, 75, 396, 91], "actions": ["left", "left", "left", "up", "up"], "actionTimes": [18682, 19608, 20218, 21120, 21732], "queries": {"click": {"state": {"target": [], "time": []}, "edge": {"target": [], "time": []}}, "mouseover": {"state": {"target": ["1", "2", "1", "2", "3", "9", "8", "1", "0", "23"], "time": [3433, 3667, 4234, 4504, 4558, 5149, 10649, 12033, 14965, 16250]}, "edge": {"target": [], "time": []}}, "mouseout": {"state": {"target": ["32", "0", "1", "2", "1", "2", "3", "9", "8", "1", "0"], "time": [663, 3382, 3616, 4032, 4483, 4536, 4884, 10614, 10669, 14666, 16116]}, "edge": {"target": [], "time": []}}}, "displayed_time": "22.26", "trialTime": 30358, "trial_type": "mouselab-mdp", "trial_index": 12, "time_elapsed": 1484994, "internal_node_id": "0.0-6.0-1.0-3.0"}}, {"uniqueid": "w57364468:a46110226", "current_trial": 13, "dateTime": 1693566232737, "trialdata": {"revealed_states": [], "clicked_states": ["23", "25", "24", "30", "21", "19"], "num_clicks_accrued": [0, 0, 0, 0, 0, 0, 0, 0, 0, 0, 0, 0, 0], "stateRewards": ["", 1, -1, 8, -3, 38, 85, -20, -4, 8, 23, 73, 2, -4, 6, -13, 44, 7, -28, -11, -77, 45, -69, 1, -1, -7, -11, 75, -51, -87, 7, 36, -53, -26], "withholdReward": false, "trial_id": "mdp_trial_5", "block": "test", "trialIndex": 6, "score": 29.6, "costs": -8.4, "simulationMode": [null, null, null, null, null, null], "rewards": [2, -4, 6, -11, 45], "path": ["0", "0", "12", "13", "14", "19", "21"], "rt": [17465, 1377, 193, 120, 541, 82], "actions": ["right", "right", "right", "right", "down", "down"], "actionTimes": [20413, 21798, 22521, 23164, 24220, 24810], "queries": {"click": {"state": {"target": ["23", "25", "24", "30", "21", "19"], "time": [4464, 7619, 9369, 12049, 16240, 19065]}, "edge": {"target": [], "time": []}}, "mouseover": {"state": {"target": ["0", "23", "24", "25", "24", "30", "32", "21", "19"], "time": [3649, 3853, 5137, 6870, 8639, 10077, 12640, 15570, 18537]}, "edge": {"target": [], "time": []}}, "mouseout": {"state": {"target": ["23", "0", "23", "24", "25", "24", "30", "32", "21", "19", "22", "19", "20"], "time": [1534, 3786, 5025, 6603, 8508, 10026, 12530, 14337, 18220, 19560, 30370, 30437, 30937]}, "edge": {"target": [], "time": []}}}, "displayed_time": "25.37", "trialTime": 35178, "trial_type": "mouselab-mdp", "trial_index": 13, "time_elapsed": 1521194, "internal_node_id": "0.0-6.0-1.0-4.0"}}, {"uniqueid": "w57364468:a46110226", "current_trial": 14, "dateTime": 1693566266929, "trialdata": {"revealed_states": [], "clicked_states": ["23", "24", "25", "30", "32"], "num_clicks_accrued": [0, 0, 0, 0, 0, 0, 0, 0, 0, 0, 0, 0, 0], "stateRewards": ["", 1, -2, -8, -13, 4, 34, -84, -4, -49, 88, -70, -1, 3, -4, 10, -77, 13, -34, 15, -21, -16, 27, 1, -2, 8, -8, -6, 38, -26, 6, -15, 66, -3], "withholdReward": false, "trial_id": "mdp_trial_6", "block": "test", "trialIndex": 7, "score": 72, "costs": -7, "simulationMode": [null, null, null, null, null], "rewards": [1, -2, 8, 6, 66], "path": ["0", "0", "23", "24", "25", "30", "32"], "rt": [13879, 395, 55, 400, 624], "actions": ["left", "left", "left", "down", "down"], "actionTimes": [18744, 19663, 20222, 21134, 22292], "queries": {"click": {"state": {"target": ["23", "24", "25", "30", "32"], "time": [6243, 8861, 11283, 13169, 15206]}, "edge": {"target": [], "time": []}}, "mouseover": {"state": {"target": ["23", "24", "25", "30", "32", "25", "26"], "time": [5616, 8246, 9594, 12496, 14044, 16876, 17275]}, "edge": {"target": [], "time": []}}, "mouseout": {"state": {"target": ["14", "13", "12", "0", "23", "24", "25", "30", "32", "25"], "time": [1224, 1322, 1738, 5567, 7825, 9502, 12130, 13881, 15336, 16896]}, "edge": {"target": [], "time": []}}}, "displayed_time": "22.82", "trialTime": 33243, "trial_type": "mouselab-mdp", "trial_index": 14, "time_elapsed": 1555386, "internal_node_id": "0.0-6.0-1.0-5.0"}}, {"uniqueid": "w57364468:a46110226", "current_trial": 15, "dateTime": 1693566307462, "trialdata": {"revealed_states": [], "clicked_states": ["23", "25", "30", "32", "26", "27"], "num_clicks_accrued": [0, 0, 0, 0, 0, 0, 0, 0, 0, 0, 0, 0, 0], "stateRewards": ["", -2, -3, 8, 14, -73, 73, 84, -12, -2, -50, -17, 2, 1, -2, -9, -44, -27, -33, 16, -63, -47, -66, -2, 1, 4, -5, -33, -11, 50, 9, 38, -79, 31], "withholdReward": false, "trial_id": "mdp_trial_7", "block": "test", "trialIndex": 8, "score": -64.4, "costs": -8.4, "simulationMode": [null, null, null, null, null], "rewards": [-2, -3, 8, 14, -73], "path": ["0", "0", "1", "2", "3", "4", "5"], "rt": [28827, 151, 786, 156, 346], "actions": ["up", "up", "up", "right", "up"], "actionTimes": [31521, 32180, 33496, 34164, 35021], "queries": {"click": {"state": {"target": ["23", "25", "30", "32", "26", "27"], "time": [4237, 6826, 9380, 12977, 16284, 20344]}, "edge": {"target": [], "time": []}}, "mouseover": {"state": {"target": ["23", "24", "25", "24", "30", "32", "25", "26", "26", "26", "27", "27", "28", "26", "26", "28", "12", "13", "13", "12"], "time": [3667, 4735, 6184, 7368, 8934, 10454, 13632, 14585, 15168, 15651, 16900, 19801, 21880, 25835, 26439, 26494, 26917, 26969, 27383, 27501]}, "edge": {"target": [], "time": []}}, "mouseout": {"state": {"target": ["26", "28", "23", "24", "25", "24", "30", "30", "32", "25", "26", "26", "26", "27", "27", "27", "28", "26", "26", "28", "12", "13", "13", "12"], "time": [864, 899, 4682, 5689, 7315, 8452, 9519, 10107, 13530, 13901, 14901, 15467, 16836, 18667, 20472, 20953, 25766, 26083, 26485, 26516, 26942, 26993, 27418, 28850]}, "edge": {"target": [], "time": []}}}, "displayed_time": "35.53", "trialTime": 39468, "trial_type": "mouselab-mdp", "trial_index": 15, "time_elapsed": 1595919, "internal_node_id": "0.0-6.0-1.0-6.0"}}, {"uniqueid": "w57364468:a46110226", "current_trial": 16, "dateTime": 1693566373449, "trialdata": {"revealed_states": [], "clicked_states": ["12", "14", "19", "21", "32", "27", "33", "31", "22", "20", "17", "18", "5", "9", "11", "6"], "num_clicks_accrued": [0, 0, 0, 0, 0, 0, 0, 0, 0, 0, 0, 0, 0], "stateRewards": ["", 2, 4, 4, -8, -36, -33, 38, 16, -51, 57, 57, 1, 3, 4, -6, 45, 68, 87, 1, 63, 24, -55, -2, 2, -6, -13, -63, -50, 8, 2, 80, 6, 60], "withholdReward": false, "trial_id": "mdp_trial_8", "block": "test", "trialIndex": 9, "score": 66.60000000000001, "costs": -22.399999999999995, "simulationMode": [null, null, null, null, null], "rewards": [1, 3, 4, -6, 87], "path": ["0", "0", "12", "13", "14", "15", "18"], "rt": [48224, 325, 268, 211, 235], "actions": ["right", "right", "right", "up", "left"], "actionTimes": [53445, 54276, 55065, 55820, 56583], "queries": {"click": {"state": {"target": ["12", "14", "19", "21", "32", "27", "33", "31", "22", "20", "17", "18", "5", "9", "11", "6"], "time": [6900, 9573, 13302, 17849, 21451, 24327, 27549, 29989, 33760, 35348, 37961, 40272, 43496, 45808, 48143, 50033]}, "edge": {"target": [], "time": []}}, "mouseover": {"state": {"target": ["12", "13", "14", "19", "19", "19", "21", "21", "32", "30", "25", "26", "27", "29", "33", "30", "31", "22", "22", "19", "20", "17", "15", "18", "4", "5", "9", "11", "3", "4", "6", "18"], "time": [6008, 7764, 8957, 10330, 12606, 12855, 14044, 17307, 20790, 22826, 22872, 22949, 23489, 26374, 27041, 28262, 28485, 32840, 33257, 34533, 34642, 37309, 38601, 38740, 42526, 42707, 44874, 47053, 49070, 49125, 49433, 52191]}, "edge": {"target": [], "time": []}}, "mouseout": {"state": {"target": ["0", "12", "13", "14", "19", "19", "19", "21", "21", "32", "30", "25", "26", "27", "29", "33", "30", "31", "22", "22", "19", "20", "17", "15", "18", "4", "5", "9", "11", "3", "4", "6"], "time": [5956, 7556, 8789, 10115, 12173, 12672, 13796, 15710, 18722, 22795, 22863, 22910, 23439, 26078, 26411, 28226, 28320, 32112, 32875, 33893, 34583, 37175, 38557, 38670, 41211, 42607, 44260, 46724, 49004, 49111, 49167, 51808]}, "edge": {"target": [], "time": []}}}, "displayed_time": "57.12", "trialTime": 64928, "trial_type": "mouselab-mdp", "trial_index": 16, "time_elapsed": 1661906, "internal_node_id": "0.0-6.0-1.0-7.0"}}, {"uniqueid": "w57364468:a46110226", "current_trial": 17, "dateTime": 1693566408194, "trialdata": {"revealed_states": [], "clicked_states": ["32", "27", "21", "16", "5", "9", "11", "6"], "num_clicks_accrued": [0, 0, 0, 0, 0, 0, 0, 0, 0, 0, 0, 0, 0], "stateRewards": ["", -1, -3, 3, 5, 56, 39, 50, -1, -80, 33, -46, 1, -2, -6, -8, 87, 48, 54, -11, -20, -64, -54, -2, 3, -7, -3, 12, 88, 35, -16, -46, -70, -3], "withholdReward": false, "trial_id": "mdp_trial_9", "block": "test", "trialIndex": 10, "score": 60.8, "costs": -11.200000000000001, "simulationMode": [null, null, null, null, null], "rewards": [1, -2, -6, -8, 87], "path": ["0", "0", "12", "13", "14", "15", "16"], "rt": [22142, 518, 172, 677, 114], "actions": ["right", "right", "right", "up", "up"], "actionTimes": [24873, 25916, 26618, 27824, 28444], "queries": {"click": {"state": {"target": ["32", "27", "21", "16", "5", "9", "11", "6"], "time": [5378, 7494, 9979, 12208, 15209, 17324, 19666, 21932]}, "edge": {"target": [], "time": []}}, "mouseover": {"state": {"target": ["23", "24", "25", "30", "32", "32", "25", "26", "27", "10", "13", "19", "21", "19", "14", "15", "16", "6", "5", "9", "11", "3", "4", "6", "7"], "time": [3590, 3657, 3756, 4071, 4304, 4785, 6023, 6216, 6603, 8151, 8592, 8943, 9190, 10913, 10974, 11075, 11317, 14124, 14524, 15959, 18342, 20309, 20358, 20787, 23972]}, "edge": {"target": [], "time": []}}, "mouseout": {"state": {"target": ["18", "23", "24", "25", "30", "32", "32", "25", "26", "27", "10", "13", "19", "21", "19", "14", "15", "16", "6", "5", "9", "11", "3", "4", "6", "7"], "time": [1069, 3623, 3691, 3821, 4171, 4638, 5966, 6054, 6576, 8120, 8183, 8625, 8999, 10882, 10944, 11004, 11201, 13461, 14308, 15670, 18019, 20245, 20348, 20726, 23755, 23994]}, "edge": {"target": [], "time": []}}}, "displayed_time": "28.95", "trialTime": 33622, "trial_type": "mouselab-mdp", "trial_index": 17, "time_elapsed": 1696651, "internal_node_id": "0.0-6.0-1.0-8.0"}}, {"uniqueid": "w57364468:a46110226", "current_trial": 18, "dateTime": 1693566429481, "trialdata": {"revealed_states": [], "clicked_states": [], "num_clicks_accrued": [0, 0, 0, 0, 0, 0, 0, 0, 0, 0, 0, 0, 0], "stateRewards": ["", -1, 1, -6, -1, 80, 23, 2, -11, 73, -81, 59, 1, 3, 5, -1, -26, 28, -3, 16, -59, -13, -50, -2, -2, 2, 15, -50, 86, 17, -4, 37, 35, 44], "withholdReward": false, "trial_id": "mdp_trial_10", "block": "test", "trialIndex": 11, "score": -18, "costs": 0, "simulationMode": [null, null, null, null, null], "rewards": [1, 3, 5, -1, -26], "path": ["0", "0", "12", "13", "14", "15", "16"], "rt": [10181, 727, 129, 710, 836], "actions": ["right", "right", "right", "up", "up"], "actionTimes": [12969, 14216, 14868, 16082, 17442], "queries": {"click": {"state": {"target": [], "time": []}, "edge": {"target": [], "time": []}}, "mouseover": {"state": {"target": ["23", "24", "27", "26", "25", "24", "23", "0"], "time": [4098, 4248, 5232, 6832, 7048, 7932, 8015, 8414]}, "edge": {"target": [], "time": []}}, "mouseout": {"state": {"target": ["0", "23", "24", "27", "26", "25", "24", "23", "0"], "time": [3966, 4198, 4381, 6781, 6931, 7898, 7981, 8231, 19531]}, "edge": {"target": [], "time": []}}}, "displayed_time": "17.97", "trialTime": 20219, "trial_type": "mouselab-mdp", "trial_index": 18, "time_elapsed": 1717938, "internal_node_id": "0.0-6.0-1.0-9.0"}}, {"uniqueid": "w57364468:a46110226", "current_trial": 19, "dateTime": 1693566483740, "trialdata": {"revealed_states": [], "clicked_states": ["23", "27", "29", "28", "33", "31", "32", "21", "20", "22", "16", "18", "17", "5", "9", "11", "10", "6"], "num_clicks_accrued": [0, 0, 0, 0, 0, 0, 0, 0, 0, 0, 0, 0, 0], "stateRewards": ["", 2, -1, 5, 6, 10, 86, 55, 10, -45, 63, -71, 1, -2, 5, -8, -50, -72, 36, 15, 61, 12, 33, -1, -4, 6, 5, 79, -56, -21, -16, -87, 60, -81], "withholdReward": false, "trial_id": "mdp_trial_11", "block": "test", "trialIndex": 12, "score": 72.80000000000001, "costs": -25.199999999999992, "simulationMode": [null, null, null, null, null], "rewards": [2, -1, 5, 6, 86], "path": ["0", "0", "1", "2", "3", "4", "6"], "rt": [42675, 374, 228, 301, 56], "actions": ["up", "up", "up", "right", "right"], "actionTimes": [46544, 47432, 48172, 48993, 49563], "queries": {"click": {"state": {"target": ["23", "27", "29", "28", "33", "31", "32", "21", "20", "22", "16", "18", "17", "5", "9", "11", "10", "6"], "time": [5238, 7902, 9963, 11579, 13272, 15872, 18516, 20952, 22948, 25170, 27514, 29859, 31954, 34199, 36384, 38794, 41072, 43321]}, "edge": {"target": [], "time": []}}, "mouseover": {"state": {"target": ["23", "24", "27", "29", "26", "28", "24", "30", "33", "30", "31", "31", "32", "13", "21", "21", "20", "19", "22", "14", "14", "15", "16", "18", "15", "17", "16", "6", "5", "5", "5", "9", "11", "8", "3", "10", "6", "6", "1"], "time": [4732, 6065, 7182, 8730, 10533, 10743, 12308, 12404, 12742, 13772, 13834, 14280, 16537, 19700, 20109, 20500, 21873, 23468, 23742, 25942, 26381, 26730, 26773, 28321, 30336, 30656, 32392, 32437, 32484, 32753, 33475, 35667, 36992, 39129, 39301, 40586, 41783, 42172, 45516]}, "edge": {"target": [], "time": []}}, "mouseout": {"state": {"target": ["0", "23", "24", "27", "29", "26", "28", "24", "30", "33", "30", "31", "31", "32", "13", "21", "21", "20", "19", "22", "14", "14", "15", "16", "18", "15", "17", "16", "6", "5", "5", "5", "9", "11", "8", "3", "10", "6", "6"], "time": [4633, 5885, 7049, 8589, 10504, 10636, 12275, 12343, 12494, 13730, 13820, 14043, 16438, 19153, 19779, 20169, 21589, 23412, 23641, 25831, 26206, 26720, 26761, 28145, 30305, 30457, 32090, 32427, 32474, 32518, 32787, 34969, 36878, 39101, 39227, 40488, 41721, 41974, 45100]}, "edge": {"target": [], "time": []}}}, "displayed_time": "50.08", "trialTime": 53163, "trial_type": "mouselab-mdp", "trial_index": 19, "time_elapsed": 1772198, "internal_node_id": "0.0-6.0-1.0-10.0"}}, {"uniqueid": "w57364468:a46110226", "current_trial": 20, "dateTime": 1693566541284, "trialdata": {"revealed_states": [], "clicked_states": ["27", "32", "33", "31", "28", "29", "21", "22", "20", "17", "18", "16", "6", "5", "9", "11", "10"], "num_clicks_accrued": [0, 0, 0, 0, 0, 0, 0, 0, 0, 0, 0, 0, 0], "stateRewards": ["", -1, 4, -8, 12, 14, 69, -8, 5, -72, -14, 56, -1, -1, -1, 9, 67, 19, 11, -9, -88, -58, 3, 2, -4, -8, 4, 62, 77, -74, 5, -31, 65, 88], "withholdReward": false, "trial_id": "mdp_trial_12", "block": "test", "trialIndex": 13, "score": 59.2, "costs": -23.799999999999994, "simulationMode": [null, null, null, null, null], "rewards": [2, -4, -8, 5, 88], "path": ["0", "0", "23", "24", "25", "30", "33"], "rt": [45476, 216, 227, 428, 2297], "actions": ["left", "left", "left", "down", "left"], "actionTimes": [48554, 49295, 50054, 51008, 53821], "queries": {"click": {"state": {"target": ["27", "32", "33", "31", "28", "29", "21", "22", "20", "17", "18", "16", "6", "5", "9", "11", "10"], "time": [4916, 7250, 9343, 11826, 13749, 16196, 18815, 21780, 23817, 25816, 28752, 30480, 32708, 34836, 36630, 39980, 44280]}, "edge": {"target": [], "time": []}}, "mouseover": {"state": {"target": ["23", "28", "27", "26", "25", "30", "32", "33", "30", "31", "30", "25", "28", "26", "29", "29", "12", "13", "19", "21", "20", "19", "22", "19", "20", "17", "17", "15", "18", "15", "18", "16", "4", "6", "5", "9", "11", "11", "10", "2", "1", "10", "23"], "time": [3819, 4035, 4318, 5624, 5759, 6056, 6702, 8341, 9913, 10055, 12617, 12747, 12897, 14249, 14391, 15820, 16866, 17148, 17229, 18336, 19506, 20888, 21303, 22535, 22748, 24856, 25168, 26372, 26628, 28103, 28374, 29492, 31385, 31576, 34304, 35416, 37631, 39502, 40560, 43413, 43603, 43803, 45778]}, "edge": {"target": [], "time": []}}, "mouseout": {"state": {"target": ["1", "0", "0", "23", "28", "27", "26", "25", "30", "32", "33", "30", "31", "30", "25", "28", "26", "29", "29", "28", "12", "13", "19", "21", "20", "19", "22", "19", "20", "17", "17", "15", "18", "15", "18", "16", "4", "6", "5", "9", "11", "11", "10", "2", "1", "10", "10"], "time": [1084, 1250, 3735, 3903, 4153, 5536, 5697, 5879, 6519, 8127, 9858, 9965, 12496, 12671, 12781, 14215, 14312, 14535, 16664, 16740, 17114, 17183, 17516, 19491, 20804, 21103, 22492, 22603, 24756, 24952, 26290, 26489, 28052, 28336, 29228, 31216, 31544, 33224, 35250, 37304, 39102, 40505, 42186, 43470, 43753, 44401, 44975]}, "edge": {"target": [], "time": []}}}, "displayed_time": "54.33", "trialTime": 56476, "trial_type": "mouselab-mdp", "trial_index": 20, "time_elapsed": 1829741, "internal_node_id": "0.0-6.0-1.0-11.0"}}, {"uniqueid": "w57364468:a46110226", "current_trial": 21, "dateTime": 1693566607819, "trialdata": {"revealed_states": [], "clicked_states": ["23", "27", "32", "33", "31", "28", "29", "21", "17", "22", "20", "18", "16", "6", "5", "9", "11", "10", "7"], "num_clicks_accrued": [0, 0, 0, 0, 0, 0, 0, 0, 0, 0, 0, 0, 0], "stateRewards": ["", 2, 3, -3, 12, -43, 81, -82, -15, 58, -7, -75, -1, -1, 3, -5, 50, -25, -8, 4, 66, 65, -66, 2, -4, 2, -1, -10, 10, 37, 11, 88, -37, 8], "withholdReward": false, "trial_id": "mdp_trial_13", "block": "test", "trialIndex": 14, "score": -52.599999999999994, "costs": -26.59999999999999, "simulationMode": [null, null, null, null, null], "rewards": [2, -4, 2, 11, -37], "path": ["0", "0", "23", "24", "25", "30", "32"], "rt": [50524, 448, 48, 167, 263], "actions": ["left", "left", "left", "down", "down"], "actionTimes": [55220, 56195, 56777, 57481, 58277], "queries": {"click": {"state": {"target": ["23", "27", "32", "33", "31", "28", "29", "21", "17", "22", "20", "18", "16", "6", "5", "9", "11", "10", "7"], "time": [5884, 10044, 12545, 14601, 18631, 21471, 25742, 28350, 31034, 33115, 34870, 37157, 39067, 40819, 43743, 46593, 48246, 50064, 52383]}, "edge": {"target": [], "time": []}}, "mouseover": {"state": {"target": ["23", "28", "27", "25", "30", "32", "33", "30", "31", "24", "28", "24", "31", "24", "28", "26", "29", "26", "26", "29", "26", "28", "12", "13", "21", "20", "17", "14", "19", "22", "19", "20", "14", "13", "13", "14", "15", "18", "16", "6", "6", "5", "9", "9", "9", "11", "10", "2", "7"], "time": [5339, 6502, 6816, 11149, 11502, 12035, 13498, 15089, 15323, 16624, 16753, 18005, 18120, 19126, 19356, 22036, 22395, 24302, 24953, 25352, 26320, 26361, 26804, 27320, 27785, 29664, 30537, 31962, 32026, 32322, 33758, 33892, 35579, 35697, 36022, 36180, 36247, 36428, 38553, 39962, 40436, 41767, 44238, 44700, 46153, 47491, 49329, 51109, 51936]}, "edge": {"target": [], "time": []}}, "mouseout": {"state": {"target": ["23", "0", "23", "28", "27", "25", "30", "32", "33", "30", "31", "24", "28", "24", "31", "24", "28", "26", "29", "26", "28", "28", "26", "29", "26", "28", "12", "13", "21", "20", "17", "17", "14", "19", "22", "22", "19", "20", "14", "13", "13", "14", "15", "18", "16", "6", "6", "5", "9", "9", "9", "11", "10", "2", "7", "19"], "time": [3468, 5290, 6446, 6556, 10752, 11211, 11686, 13144, 15058, 15232, 16603, 16703, 17969, 18038, 19097, 19194, 22009, 22065, 24252, 24352, 24402, 24920, 25053, 26290, 26352, 26391, 26928, 27385, 29044, 30058, 31166, 31718, 31994, 32154, 33247, 33671, 33864, 35513, 35659, 35940, 36078, 36214, 36302, 38075, 39206, 39998, 41486, 44162, 44391, 45886, 47226, 49064, 51017, 51445, 53858, 64803]}, "edge": {"target": [], "time": []}}}, "displayed_time": "58.83", "trialTime": 65528, "trial_type": "mouselab-mdp", "trial_index": 21, "time_elapsed": 1896276, "internal_node_id": "0.0-6.0-1.0-12.0"}}, {"uniqueid": "w57364468:a46110226", "current_trial": 22, "dateTime": 1693566629394, "trialdata": {"revealed_states": [], "clicked_states": [], "num_clicks_accrued": [0, 0, 0, 0, 0, 0, 0, 0, 0, 0, 0, 0, 0], "stateRewards": ["", -2, -3, -3, 9, 79, 67, 22, -15, -56, 27, -85, -2, 4, -4, -15, -20, -32, 60, 15, 71, 57, 17, 1, 2, -8, 15, -37, -81, 82, 15, 21, -3, 2], "withholdReward": false, "trial_id": "mdp_trial_14", "block": "test", "trialIndex": 15, "score": 7, "costs": 0, "simulationMode": [null, null, null, null, null], "rewards": [1, 2, -8, 15, -3], "path": ["0", "0", "23", "24", "25", "30", "32"], "rt": [6717, 412, 186, 1688, 140], "actions": ["left", "left", "left", "down", "down"], "actionTimes": [9200, 10145, 10851, 13069, 13742], "queries": {"click": {"state": {"target": [], "time": []}, "edge": {"target": [], "time": []}}, "mouseover": {"state": {"target": ["23", "2", "10", "27"], "time": [3526, 3723, 3992, 4790]}, "edge": {"target": [], "time": []}}, "mouseout": {"state": {"target": ["0", "0", "23", "2", "10"], "time": [889, 3425, 3558, 3957, 4012]}, "edge": {"target": [], "time": []}}}, "displayed_time": "16.48", "trialTime": 20573, "trial_type": "mouselab-mdp", "trial_index": 22, "time_elapsed": 1917851, "internal_node_id": "0.0-6.0-1.0-13.0"}}, {"uniqueid": "w57364468:a46110226", "current_trial": 23, "dateTime": 1693566680529, "trialdata": {"revealed_states": [], "clicked_states": ["23", "27", "33", "31", "32", "28", "29", "21", "20", "22", "17", "18", "16", "6", "5", "9", "11", "10"], "num_clicks_accrued": [0, 0, 0, 0, 0, 0, 0, 0, 0, 0, 0, 0, 0], "stateRewards": ["", 1, 4, -4, 14, 35, 51, 19, -13, 54, 78, -74, -2, -1, -3, 13, -11, -42, -73, -15, -24, -3, -69, 2, -1, 5, 16, -27, 73, 58, 9, -60, 5, -60], "withholdReward": false, "trial_id": "mdp_trial_15", "block": "test", "trialIndex": 16, "score": 69.80000000000001, "costs": -25.199999999999992, "simulationMode": [null, null, null, null, null], "rewards": [2, -1, 5, 16, 73], "path": ["0", "0", "23", "24", "25", "26", "28"], "rt": [40691, 105, 192, 334, 336], "actions": ["left", "left", "left", "up", "right"], "actionTimes": [43727, 44366, 45086, 45943, 46795], "queries": {"click": {"state": {"target": ["23", "27", "33", "31", "32", "28", "29", "21", "20", "22", "17", "18", "16", "6", "5", "9", "11", "10"], "time": [5423, 7788, 10339, 11971, 13647, 15322, 16978, 20736, 22938, 25016, 27157, 29193, 31063, 32913, 34955, 36965, 38671, 40610]}, "edge": {"target": [], "time": []}}, "mouseover": {"state": {"target": ["23", "24", "28", "23", "27", "26", "33", "30", "31", "32", "24", "28", "26", "29", "26", "12", "13", "22", "21", "20", "19", "22", "14", "17", "15", "18", "16", "6", "5", "9", "11", "10", "2", "7"], "time": [3751, 4167, 4733, 4834, 6323, 8829, 9817, 11047, 11420, 12800, 14366, 14586, 16027, 16327, 17721, 18538, 19499, 19901, 20267, 22293, 23453, 23808, 26151, 26571, 27633, 27947, 29977, 32038, 34289, 36001, 37512, 39705, 41151, 41250]}, "edge": {"target": [], "time": []}}, "mouseout": {"state": {"target": ["27", "10", "1", "0", "23", "24", "28", "23", "27", "26", "33", "30", "31", "32", "24", "28", "26", "29", "26", "28", "12", "13", "22", "21", "20", "19", "22", "14", "17", "15", "18", "16", "6", "5", "9", "11", "10", "2"], "time": [584, 681, 883, 3701, 4034, 4299, 4767, 6053, 8720, 9327, 11015, 11153, 12568, 14234, 14553, 15967, 16215, 17685, 17753, 17811, 19385, 19870, 19935, 21893, 23395, 23657, 25952, 26465, 27595, 27857, 29731, 31996, 34012, 35693, 37471, 39316, 41112, 41188]}, "edge": {"target": [], "time": []}}}, "displayed_time": "47.33", "trialTime": 50053, "trial_type": "mouselab-mdp", "trial_index": 23, "time_elapsed": 1968986, "internal_node_id": "0.0-6.0-1.0-14.0"}}, {"uniqueid": "w57364468:a46110226", "current_trial": 24, "dateTime": 1693566737692, "trialdata": {"revealed_states": [], "clicked_states": ["23", "27", "29", "28", "33", "32", "31", "21", "20", "22", "18", "17", "16", "6", "5", "7", "11", "10", "9"], "num_clicks_accrued": [0, 0, 0, 0, 0, 0, 0, 0, 0, 0, 0, 0, 0], "stateRewards": ["", 2, 3, 8, 11, 25, -80, 6, -4, -56, 84, -23, -2, -4, -3, 4, -51, -9, -61, -15, -64, 67, -35, 1, -1, -7, -6, 83, 59, -15, 12, -79, 56, 41], "withholdReward": false, "trial_id": "mdp_trial_16", "block": "test", "trialIndex": 17, "score": 66.4, "costs": -26.59999999999999, "simulationMode": [null, null, null, null, null], "rewards": [2, 3, 8, -4, 84], "path": ["0", "0", "1", "2", "3", "8", "10"], "rt": [45008, 316, 742, 197, 362], "actions": ["up", "up", "up", "left", "down"], "actionTimes": [48921, 49796, 51045, 51767, 52684], "queries": {"click": {"state": {"target": ["23", "27", "29", "28", "33", "32", "31", "21", "20", "22", "18", "17", "16", "6", "5", "7", "11", "10", "9"], "time": [5907, 7487, 9956, 12259, 14634, 17140, 19403, 21042, 23151, 25291, 27342, 29031, 31582, 34336, 35958, 38121, 41420, 43764, 45471]}, "edge": {"target": [], "time": []}}, "mouseover": {"state": {"target": ["23", "28", "27", "29", "26", "28", "24", "25", "30", "33", "32", "31", "22", "21", "20", "19", "22", "13", "18", "15", "17", "16", "6", "6", "5", "4", "7", "3", "9", "11", "10", "8", "9", "8"], "time": [5343, 6432, 6739, 9260, 10873, 11827, 13369, 13522, 13718, 14111, 15491, 17677, 20145, 20598, 22758, 24014, 24792, 25865, 25969, 27995, 28304, 29775, 32103, 32438, 35389, 36473, 36558, 38722, 38852, 40744, 42244, 44215, 44278, 47745]}, "edge": {"target": [], "time": []}}, "mouseout": {"state": {"target": ["7", "0", "23", "28", "27", "29", "26", "28", "24", "25", "30", "33", "32", "31", "22", "21", "20", "19", "22", "13", "18", "15", "17", "16", "6", "6", "5", "4", "7", "3", "9", "11", "10", "8", "9", "9", "8"], "time": [1791, 5261, 6047, 6487, 8792, 10804, 11713, 12894, 13423, 13576, 13749, 15290, 17276, 19555, 20224, 22276, 23839, 24575, 25827, 25904, 27915, 28105, 29165, 32075, 32133, 34890, 36429, 36517, 38669, 38752, 40577, 41957, 44180, 44248, 45598, 47694, 47796]}, "edge": {"target": [], "time": []}}}, "displayed_time": "53.25", "trialTime": 56092, "trial_type": "mouselab-mdp", "trial_index": 24, "time_elapsed": 2026149, "internal_node_id": "0.0-6.0-1.0-15.0"}}, {"uniqueid": "w57364468:a46110226", "current_trial": 25, "dateTime": 1693566797536, "trialdata": {"revealed_states": [], "clicked_states": ["23", "27", "29", "28", "33", "32", "31", "21", "20", "22", "17", "18", "16", "6", "5", "9", "11", "10", "7"], "num_clicks_accrued": [0, 0, 0, 0, 0, 0, 0, 0, 0, 0, 0, 0, 0], "stateRewards": ["", 1, 1, 1, -3, -7, -1, -41, -10, 20, -72, -63, 1, -4, -2, 2, -66, 30, -84, -2, 49, 23, 71, -1, -4, 4, -12, 67, 5, 18, -16, 88, 56, -5], "withholdReward": false, "trial_id": "mdp_trial_17", "block": "test", "trialIndex": 18, "score": 27.400000000000006, "costs": -26.59999999999999, "simulationMode": [null, null, null, null, null], "rewards": [-1, -4, 4, -12, 67], "path": ["0", "0", "23", "24", "25", "26", "27"], "rt": [42635, 88, 15, 187, 952], "actions": ["left", "left", "left", "up", "up"], "actionTimes": [46672, 47279, 47807, 48535, 50025], "queries": {"click": {"state": {"target": ["23", "27", "29", "28", "33", "32", "31", "21", "20", "22", "17", "18", "16", "6", "5", "9", "11", "10", "7"], "time": [6304, 7999, 10777, 12745, 14933, 16949, 18518, 20888, 22814, 24685, 27048, 28836, 30823, 33874, 36234, 38747, 40376, 42765, 44889]}, "edge": {"target": [], "time": []}}, "mouseover": {"state": {"target": ["23", "28", "27", "29", "26", "28", "25", "33", "32", "32", "31", "21", "20", "19", "22", "17", "15", "18", "16", "6", "6", "5", "5", "9", "11", "10", "2", "7"], "time": [5774, 6947, 7320, 9777, 11357, 11684, 13731, 14395, 15856, 16362, 17629, 20111, 21713, 23329, 23681, 26182, 27683, 28230, 29723, 31415, 33375, 34541, 34787, 37065, 39791, 40991, 43272, 43540]}, "edge": {"target": [], "time": []}}, "mouseout": {"state": {"target": ["10", "0", "23", "28", "27", "29", "26", "28", "25", "33", "32", "32", "31", "21", "20", "19", "22", "17", "15", "18", "16", "6", "6", "5", "5", "9", "11", "10", "2", "7", "12"], "time": [2577, 5545, 6867, 7063, 9468, 11254, 11569, 13534, 13812, 15817, 15921, 17440, 19659, 21009, 23291, 23563, 25520, 27561, 27998, 29491, 30950, 33112, 34433, 34650, 36724, 39393, 40893, 43227, 43362, 45814, 53212]}, "edge": {"target": [], "time": []}}}, "displayed_time": "50.55", "trialTime": 58837, "trial_type": "mouselab-mdp", "trial_index": 25, "time_elapsed": 2085993, "internal_node_id": "0.0-6.0-1.0-16.0"}}, {"uniqueid": "w57364468:a46110226", "current_trial": 26, "dateTime": 1693566851540, "trialdata": {"revealed_states": [], "clicked_states": ["23", "27", "29", "28", "33", "32", "31", "22", "21", "20", "18", "17", "16", "6", "5", "7", "10", "9", "11"], "num_clicks_accrued": [0, 0, 0, 0, 0, 0, 0, 0, 0, 0, 0, 0, 0], "stateRewards": ["", -2, -1, -5, 10, -36, -70, 68, -9, 86, 71, -10, 2, -4, 7, -7, 66, 44, -66, -13, -69, 43, 15, -2, 2, 6, -13, 62, 57, 50, -10, -69, 42, -72], "withholdReward": false, "trial_id": "mdp_trial_18", "block": "test", "trialIndex": 19, "score": 42.400000000000006, "costs": -26.59999999999999, "simulationMode": [null, null, null, null, null], "rewards": [-2, -1, -5, -9, 86], "path": ["0", "0", "1", "2", "3", "8", "9"], "rt": [40750, 196, 331, 425, 675], "actions": ["up", "up", "up", "left", "up"], "actionTimes": [44422, 45157, 45994, 46939, 48137], "queries": {"click": {"state": {"target": ["23", "27", "29", "28", "33", "32", "31", "22", "21", "20", "18", "17", "16", "6", "5", "7", "10", "9", "11"], "time": [4946, 7296, 9391, 11400, 13523, 15220, 17015, 18857, 20860, 22415, 24280, 25954, 28439, 30512, 32310, 34187, 36082, 39492, 41556]}, "edge": {"target": [], "time": []}}, "mouseover": {"state": {"target": ["23", "28", "27", "29", "26", "28", "25", "33", "32", "31", "22", "21", "20", "18", "15", "17", "16", "6", "5", "4", "7", "2", "10", "11", "9", "11", "8"], "time": [4421, 5854, 6588, 8443, 9945, 10393, 12374, 12907, 14705, 16005, 17878, 19894, 21692, 23599, 25039, 25529, 26707, 29440, 31534, 33316, 33627, 35126, 35394, 36913, 38423, 41089, 42268]}, "edge": {"target": [], "time": []}}, "mouseout": {"state": {"target": ["0", "23", "28", "27", "29", "26", "28", "25", "33", "32", "31", "22", "21", "20", "18", "15", "17", "16", "6", "5", "4", "7", "2", "10", "11", "9", "11", "8"], "time": [4256, 5527, 5939, 7949, 9883, 10028, 12048, 12537, 14076, 15355, 17647, 19501, 21335, 23152, 24969, 25139, 26574, 29218, 31072, 33275, 33358, 34911, 35309, 36214, 38222, 40375, 41682, 42307]}, "edge": {"target": [], "time": []}}}, "displayed_time": "48.66", "trialTime": 52918, "trial_type": "mouselab-mdp", "trial_index": 26, "time_elapsed": 2139997, "internal_node_id": "0.0-6.0-1.0-17.0"}}, {"uniqueid": "w57364468:a46110226", "current_trial": 27, "dateTime": 1693566915189, "trialdata": {"revealed_states": [], "clicked_states": ["23", "27", "29", "28", "33", "31", "32", "21", "20", "22", "18", "17", "16", "6", "5", "7", "10", "11", "9"], "num_clicks_accrued": [0, 0, 0, 0, 0, 0, 0, 0, 0, 0, 0, 0, 0], "stateRewards": ["", -1, 2, 7, 8, 75, 67, -11, 6, 52, -17, 38, -1, 4, -8, 14, 74, -37, -17, -12, 52, 55, 71, -2, -1, -5, 2, 21, 6, -88, -14, 64, -61, -47], "withholdReward": false, "trial_id": "mdp_trial_19", "block": "test", "trialIndex": 20, "score": 56.400000000000006, "costs": -26.59999999999999, "simulationMode": [null, null, null, null, null], "rewards": [-1, 4, -8, 14, 74], "path": ["0", "0", "12", "13", "14", "15", "16"], "rt": [43463, 592, 294, 613, 184], "actions": ["right", "right", "right", "up", "up"], "actionTimes": [48702, 49806, 50610, 51786, 52480], "queries": {"click": {"state": {"target": ["23", "27", "29", "28", "33", "31", "32", "21", "20", "22", "18", "17", "16", "6", "5", "7", "10", "11", "9"], "time": [7553, 9133, 10960, 12804, 14798, 17809, 19374, 22663, 24493, 26537, 28526, 30813, 33166, 35009, 37525, 39130, 41339, 43421, 45405]}, "edge": {"target": [], "time": []}}, "mouseover": {"state": {"target": ["23", "28", "27", "29", "26", "28", "25", "33", "32", "31", "32", "22", "21", "20", "19", "22", "18", "15", "17", "16", "6", "5", "4", "7", "2", "10", "11", "9", "8", "10"], "time": [7120, 8229, 8543, 9968, 11580, 11787, 13690, 14046, 15630, 16986, 18586, 21673, 22038, 24047, 25157, 25503, 27578, 29286, 29799, 31648, 34464, 36936, 38240, 38693, 39681, 39904, 41857, 44210, 47789, 47908]}, "edge": {"target": [], "time": []}}, "mouseout": {"state": {"target": ["0", "23", "28", "27", "29", "26", "28", "25", "33", "32", "31", "32", "22", "21", "20", "19", "22", "18", "15", "17", "16", "6", "5", "5", "4", "7", "2", "10", "11", "9", "8", "10"], "time": [6986, 8163, 8341, 9815, 11548, 11639, 13521, 13773, 15413, 16837, 18576, 20243, 21708, 22800, 25058, 25291, 26984, 29240, 29450, 31319, 33863, 36171, 37654, 38154, 38413, 39273, 39782, 41755, 43901, 47722, 47871, 47942]}, "edge": {"target": [], "time": []}}}, "displayed_time": "53.01", "trialTime": 62499, "trial_type": "mouselab-mdp", "trial_index": 27, "time_elapsed": 2203646, "internal_node_id": "0.0-6.0-1.0-18.0"}}, {"uniqueid": "w57364468:a46110226", "current_trial": 28, "dateTime": 1693566967446, "trialdata": {"revealed_states": [], "clicked_states": ["23", "27", "29", "28", "33", "32", "31", "22", "21", "20", "17", "16", "18", "6", "5", "7", "9", "11", "10"], "num_clicks_accrued": [0, 0, 0, 0, 0, 0, 0, 0, 0, 0, 0, 0, 0], "stateRewards": ["", -1, -4, -1, -11, 43, 69, 39, 4, 17, -20, -82, -2, -1, 4, 8, -79, 24, -79, 11, 36, 64, 41, 2, 4, -1, 11, -79, -47, 75, -3, 63, -36, -19], "withholdReward": false, "trial_id": "mdp_trial_20", "block": "test", "trialIndex": 21, "score": 64.4, "costs": -26.59999999999999, "simulationMode": [null, null, null, null, null], "rewards": [2, 4, -1, 11, 75], "path": ["0", "0", "23", "24", "25", "26", "29"], "rt": [40395, 252, 311, 684, 647], "actions": ["left", "left", "left", "up", "left"], "actionTimes": [44554, 45349, 46184, 47417, 48607], "queries": {"click": {"state": {"target": ["23", "27", "29", "28", "33", "32", "31", "22", "21", "20", "17", "16", "18", "6", "5", "7", "9", "11", "10"], "time": [6589, 8412, 10814, 12562, 15230, 16819, 18820, 20595, 22419, 24277, 26194, 27934, 30302, 32293, 34358, 36213, 39396, 40982, 42713]}, "edge": {"target": [], "time": []}}, "mouseover": {"state": {"target": ["1", "23", "28", "27", "29", "26", "28", "28", "24", "30", "33", "32", "31", "22", "21", "20", "17", "16", "18", "6", "5", "4", "7", "3", "9", "9", "11", "10"], "time": [5362, 6079, 7454, 7809, 10259, 11316, 11384, 11813, 13792, 14578, 14744, 16190, 17774, 20088, 21452, 23463, 25693, 26722, 28854, 30900, 32788, 34965, 35566, 36831, 36933, 38913, 40381, 42031]}, "edge": {"target": [], "time": []}}, "mouseout": {"state": {"target": ["0", "0", "1", "23", "28", "27", "29", "26", "28", "28", "24", "30", "33", "32", "31", "22", "21", "20", "17", "16", "18", "6", "5", "4", "7", "3", "9", "9", "11", "11"], "time": [2684, 5195, 5728, 7373, 7576, 9632, 11284, 11349, 11527, 13726, 13956, 14616, 15844, 17428, 19423, 21282, 22992, 24413, 26633, 28565, 30821, 32702, 34831, 35267, 36346, 36875, 38277, 40129, 41111, 41741]}, "edge": {"target": [], "time": []}}}, "displayed_time": "49.15", "trialTime": 51164, "trial_type": "mouselab-mdp", "trial_index": 28, "time_elapsed": 2255904, "internal_node_id": "0.0-6.0-1.0-19.0"}}, {"uniqueid": "w57364468:a46110226", "current_trial": 29, "dateTime": 1693567021960, "trialdata": {"revealed_states": [], "clicked_states": ["23", "27", "29", "28", "33", "32", "31", "21", "20", "22", "18", "16", "17", "6", "7", "5", "9", "11", "10"], "num_clicks_accrued": [0, 0, 0, 0, 0, 0, 0, 0, 0, 0, 0, 0, 0], "stateRewards": ["", 1, -2, -8, -3, 31, -84, -55, -14, 15, -58, 17, -2, -3, 7, 7, -12, 48, 67, 4, -44, -68, 46, 2, 3, -5, -7, 76, 27, 5, 11, 57, 52, 59], "withholdReward": false, "trial_id": "mdp_trial_21", "block": "test", "trialIndex": 22, "score": 42.400000000000006, "costs": -26.59999999999999, "simulationMode": [null, null, null, null, null], "rewards": [2, 3, -5, -7, 76], "path": ["0", "0", "23", "24", "25", "26", "27"], "rt": [41979, 36, 221, 383, 100], "actions": ["left", "left", "left", "up", "up"], "actionTimes": [47179, 47739, 48507, 49403, 50020], "queries": {"click": {"state": {"target": ["23", "27", "29", "28", "33", "32", "31", "21", "20", "22", "18", "16", "17", "6", "7", "5", "9", "11", "10"], "time": [6246, 7887, 9874, 11888, 13937, 15919, 18775, 20918, 23161, 25262, 28093, 29875, 31764, 33453, 35968, 37922, 39942, 41995, 44133]}, "edge": {"target": [], "time": []}}, "mouseover": {"state": {"target": ["23", "28", "27", "29", "26", "28", "25", "33", "32", "31", "22", "21", "20", "19", "22", "13", "18", "16", "18", "16", "17", "6", "6", "7", "4", "5", "5", "9", "11", "10"], "time": [5844, 6875, 7307, 8963, 10400, 10636, 12556, 13106, 14857, 16550, 19609, 20344, 21727, 23613, 23835, 25703, 26193, 27429, 27628, 28509, 30433, 32453, 32914, 34424, 36364, 36411, 36727, 38703, 40723, 42715]}, "edge": {"target": [], "time": []}}, "mouseout": {"state": {"target": ["10", "1", "0", "23", "28", "27", "29", "26", "28", "25", "33", "32", "31", "22", "21", "20", "19", "22", "13", "18", "16", "18", "16", "17", "16", "6", "6", "7", "4", "5", "5", "5", "9", "11"], "time": [3626, 3860, 5609, 6816, 6955, 8584, 10339, 10511, 12478, 12686, 14721, 16354, 19434, 19975, 21534, 23544, 23700, 25667, 25739, 27228, 27511, 28444, 30364, 32302, 32390, 32487, 34208, 36333, 36402, 36528, 38058, 38476, 40479, 42575]}, "edge": {"target": [], "time": []}}}, "displayed_time": "50.55", "trialTime": 53495, "trial_type": "mouselab-mdp", "trial_index": 29, "time_elapsed": 2310417, "internal_node_id": "0.0-6.0-1.0-20.0"}}, {"uniqueid": "w57364468:a46110226", "current_trial": 30, "dateTime": 1693567072927, "trialdata": {"revealed_states": [], "clicked_states": ["23", "27", "29", "28", "33", "32", "31", "21", "22", "20", "17", "18", "16", "6", "5", "7", "9", "11", "10"], "num_clicks_accrued": [0, 0, 0, 0, 0, 0, 0, 0, 0, 0, 0, 0, 0], "stateRewards": ["", -2, -4, 6, 14, -34, 49, 36, -8, -3, 32, -4, 1, -2, 1, -8, -20, -71, -57, -7, -86, -62, -16, -2, -3, -5, 11, 23, -21, 53, 5, -5, 85, 73], "withholdReward": false, "trial_id": "mdp_trial_22", "block": "test", "trialIndex": 23, "score": 53.400000000000006, "costs": -26.59999999999999, "simulationMode": [null, null, null, null, null], "rewards": [-2, -3, -5, 5, 85], "path": ["0", "0", "23", "24", "25", "30", "32"], "rt": [41920, 347, 192, 32, 181], "actions": ["left", "left", "left", "down", "down"], "actionTimes": [44311, 45168, 45907, 46471, 47212], "queries": {"click": {"state": {"target": ["23", "27", "29", "28", "33", "32", "31", "21", "22", "20", "17", "18", "16", "6", "5", "7", "9", "11", "10"], "time": [4016, 6670, 9265, 11530, 14016, 17301, 19567, 22730, 24772, 26538, 28142, 29975, 31641, 33292, 35096, 36814, 38557, 40596, 42250]}, "edge": {"target": [], "time": []}}, "mouseover": {"state": {"target": ["23", "28", "27", "26", "29", "26", "28", "25", "33", "32", "32", "31", "21", "19", "22", "19", "20", "20", "17", "15", "18", "16", "16", "6", "5", "4", "7", "3", "9", "11", "10"], "time": [3295, 4669, 5006, 8203, 8795, 9802, 9979, 12382, 13478, 14850, 16894, 17938, 22149, 23474, 23635, 25351, 25499, 26002, 27473, 29005, 29374, 30699, 31182, 32797, 33853, 35627, 36259, 37462, 37699, 39560, 41567]}, "edge": {"target": [], "time": []}}, "mouseout": {"state": {"target": ["10", "0", "23", "28", "27", "26", "29", "26", "28", "25", "33", "32", "32", "31", "21", "19", "22", "19", "20", "20", "17", "15", "18", "16", "16", "6", "5", "4", "7", "3", "9", "11"], "time": [876, 3195, 4558, 4728, 7613, 8645, 9767, 9894, 12272, 13312, 14565, 16212, 17726, 20825, 22851, 23510, 25314, 25438, 25663, 27315, 28868, 29229, 30625, 30743, 31773, 33749, 35584, 35887, 37390, 37531, 39281, 41111]}, "edge": {"target": [], "time": []}}}, "displayed_time": "47.73", "trialTime": 49861, "trial_type": "mouselab-mdp", "trial_index": 30, "time_elapsed": 2361383, "internal_node_id": "0.0-6.0-1.0-21.0"}}, {"uniqueid": "w57364468:a46110226", "current_trial": 31, "dateTime": 1693567097519, "trialdata": {"revealed_states": [], "clicked_states": ["23", "27", "29"], "num_clicks_accrued": [0, 0, 0, 0, 0, 0, 0, 0, 0, 0, 0, 0, 0], "stateRewards": ["", -2, -3, -6, -7, 9, 16, 65, 5, -41, 20, -25, -1, -4, 1, -11, -49, -4, 71, 1, 39, -62, 52, -2, -3, 7, -9, -28, -70, 84, 8, 24, -58, 82], "withholdReward": false, "trial_id": "mdp_trial_23", "block": "test", "trialIndex": 24, "score": 72.8, "costs": -4.199999999999999, "simulationMode": [null, null, null, null, null], "rewards": [-2, -3, 7, -9, 84], "path": ["0", "0", "23", "24", "25", "26", "29"], "rt": [9728, 570, 277, 280, 367], "actions": ["left", "left", "left", "up", "left"], "actionTimes": [12582, 13678, 14520, 15317, 16190], "queries": {"click": {"state": {"target": ["23", "27", "29"], "time": [4382, 6796, 8867]}, "edge": {"target": [], "time": []}}, "mouseover": {"state": {"target": ["23", "28", "27", "29", "26", "28", "24"], "time": [3629, 5013, 5250, 8069, 9355, 9526, 11796]}, "edge": {"target": [], "time": []}}, "mouseout": {"state": {"target": ["10", "1", "0", "23", "28", "27", "27", "29", "26", "28"], "time": [1361, 1577, 3513, 4946, 5115, 6928, 7496, 9322, 9439, 11730]}, "edge": {"target": [], "time": []}}}, "displayed_time": "16.85", "trialTime": 23572, "trial_type": "mouselab-mdp", "trial_index": 31, "time_elapsed": 2385976, "internal_node_id": "0.0-6.0-1.0-22.0"}}, {"uniqueid": "w57364468:a46110226", "current_trial": 32, "dateTime": 1693567125979, "trialdata": {"revealed_states": [], "clicked_states": ["23", "27", "29", "28", "33", "32", "31"], "num_clicks_accrued": [0, 0, 0, 0, 0, 0, 0, 0, 0, 0, 0, 0, 0], "stateRewards": ["", -2, 2, -5, 1, 42, -63, -58, -6, 2, 16, 81, -2, 4, 7, -10, 33, 3, -33, -2, -52, -84, -27, 2, -3, -3, 15, -74, -14, -5, -5, -84, 79, -31], "withholdReward": false, "trial_id": "mdp_trial_24", "block": "test", "trialIndex": 25, "score": 60.2, "costs": -9.8, "simulationMode": [null, null, null, null, null], "rewards": [2, -3, -3, -5, 79], "path": ["0", "0", "23", "24", "25", "30", "32"], "rt": [17526, 123, 43, 13, 53], "actions": ["left", "left", "left", "down", "down"], "actionTimes": [20947, 21596, 22164, 22744, 23340], "queries": {"click": {"state": {"target": ["23", "27", "29", "28", "33", "32", "31"], "time": [5044, 7578, 9820, 11549, 13343, 15381, 18364]}, "edge": {"target": [], "time": []}}, "mouseover": {"state": {"target": ["23", "28", "27", "29", "26", "28", "33", "32", "31", "31"], "time": [4394, 5583, 5911, 8366, 10285, 10612, 12500, 14307, 16271, 18012]}, "edge": {"target": [], "time": []}}, "mouseout": {"state": {"target": ["24", "0", "23", "28", "27", "29", "26", "28", "33", "32", "31", "31"], "time": [1525, 4261, 5517, 5669, 8166, 10250, 10452, 12177, 14161, 15516, 17763, 18947]}, "edge": {"target": [], "time": []}}}, "displayed_time": "23.89", "trialTime": 27331, "trial_type": "mouselab-mdp", "trial_index": 32, "time_elapsed": 2414437, "internal_node_id": "0.0-6.0-1.0-23.0"}}, {"uniqueid": "w57364468:a46110226", "current_trial": 33, "dateTime": 1693567150368, "trialdata": {"revealed_states": [], "clicked_states": [], "num_clicks_accrued": [0, 0, 0, 0, 0, 0, 0, 0, 0, 0, 0, 0, 0], "stateRewards": ["", -2, 2, -2, -7, -50, -62, -45, 7, 36, -24, -72, -1, -1, 8, -1, -67, 20, -52, 2, 35, -50, 80, -1, 1, 6, -6, -70, 6, 88, 8, -47, 74, -19], "withholdReward": false, "trial_id": "mdp_trial_25", "block": "test", "trialIndex": 26, "score": 88, "costs": 0, "simulationMode": [null, null, null, null, null], "rewards": [-1, 1, 6, -6, 88], "path": ["0", "0", "23", "24", "25", "26", "29"], "rt": [2647, 530, 513, 1429, 324], "actions": ["left", "left", "left", "up", "left"], "actionTimes": [5636, 6694, 7709, 9658, 10503], "queries": {"click": {"state": {"target": [], "time": []}, "edge": {"target": [], "time": []}}, "mouseover": {"state": {"target": [], "time": []}, "edge": {"target": [], "time": []}}, "mouseout": {"state": {"target": [], "time": []}, "edge": {"target": [], "time": []}}}, "displayed_time": "16.99", "trialTime": 23246, "trial_type": "mouselab-mdp", "trial_index": 33, "time_elapsed": 2438825, "internal_node_id": "0.0-6.0-1.0-24.0"}}, {"uniqueid": "w57364468:a46110226", "current_trial": 34, "dateTime": 1693567205969, "trialdata": {"revealed_states": [], "clicked_states": ["23", "27", "29", "28", "33", "32", "31", "21", "20", "22", "18", "16", "17", "5", "6", "7", "9", "11", "10"], "num_clicks_accrued": [0, 0, 0, 0, 0, 0, 0, 0, 0, 0, 0, 0, 0], "stateRewards": ["", 2, -2, 7, -11, -76, -65, -23, 16, -58, 30, 81, 1, 2, 7, 14, 9, 55, -2, 6, 11, -15, 31, -1, -1, -3, 2, 15, 2, 46, 15, 18, 45, -34], "withholdReward": false, "trial_id": "mdp_trial_26", "block": "test", "trialIndex": 27, "score": 77.4, "costs": -26.59999999999999, "simulationMode": [null, null, null, null, null], "rewards": [2, -2, 7, 16, 81], "path": ["0", "0", "1", "2", "3", "8", "11"], "rt": [44615, 120, 346, 496, 346], "actions": ["up", "up", "up", "left", "left"], "actionTimes": [46738, 47381, 48253, 49298, 50173], "queries": {"click": {"state": {"target": ["23", "27", "29", "28", "33", "32", "31", "21", "20", "22", "18", "16", "17", "5", "6", "7", "9", "11", "10"], "time": [3354, 5925, 7974, 10016, 12074, 14071, 16141, 18799, 20909, 23337, 25371, 27365, 29419, 31161, 34361, 36575, 39072, 41725, 44221]}, "edge": {"target": [], "time": []}}, "mouseover": {"state": {"target": ["23", "28", "27", "29", "26", "28", "33", "32", "31", "21", "20", "19", "22", "18", "16", "17", "5", "4", "6", "7", "7", "3", "8", "9", "11", "10"], "time": [2834, 3782, 4109, 6886, 8431, 8704, 11450, 13045, 15215, 18249, 19894, 21314, 21680, 24219, 26024, 28140, 30496, 33317, 33831, 35025, 36098, 37077, 37195, 37463, 39722, 42245]}, "edge": {"target": [], "time": []}}, "mouseout": {"state": {"target": ["0", "23", "28", "27", "29", "26", "28", "33", "32", "31", "21", "20", "19", "22", "18", "16", "17", "5", "4", "6", "7", "7", "3", "8", "9", "11"], "time": [2750, 3658, 3934, 6662, 8392, 8526, 10593, 12603, 14566, 17554, 19883, 21276, 21486, 23809, 25798, 27874, 29786, 33216, 33499, 34952, 35757, 37034, 37121, 37238, 39587, 42180]}, "edge": {"target": [], "time": []}}}, "displayed_time": "50.71", "trialTime": 54341, "trial_type": "mouselab-mdp", "trial_index": 34, "time_elapsed": 2494426, "internal_node_id": "0.0-6.0-1.0-25.0"}}, {"uniqueid": "w57364468:a46110226", "current_trial": 35, "dateTime": 1693567243492, "trialdata": {"revealed_states": [], "clicked_states": ["23", "27", "29", "28", "33", "32", "31", "21"], "num_clicks_accrued": [0, 0, 0, 0, 0, 0, 0, 0, 0, 0, 0, 0, 0], "stateRewards": ["", 1, 1, 6, -14, -40, 37, 16, -13, 33, -68, 49, 2, 4, 3, 6, 55, 27, 32, 10, -65, 20, -87, 2, 1, -6, -5, -42, 12, 29, -8, 16, 76, -33], "withholdReward": false, "trial_id": "mdp_trial_27", "block": "test", "trialIndex": 28, "score": 53.8, "costs": -11.200000000000001, "simulationMode": [null, null, null, null, null], "rewards": [2, 1, -6, -8, 76], "path": ["0", "0", "23", "24", "25", "30", "32"], "rt": [21789, 612, 249, 78, 34], "actions": ["left", "left", "left", "down", "down"], "actionTimes": [26461, 27608, 28378, 28992, 29565], "queries": {"click": {"state": {"target": ["23", "27", "29", "28", "33", "32", "31", "21"], "time": [6689, 8720, 10897, 12943, 15710, 17786, 20217, 22979]}, "edge": {"target": [], "time": []}}, "mouseover": {"state": {"target": ["23", "28", "27", "29", "26", "28", "28", "24", "33", "32", "31", "22", "21", "20"], "time": [5713, 7450, 7824, 9998, 11474, 11520, 11956, 14092, 15263, 16500, 18470, 21001, 22281, 24007]}, "edge": {"target": [], "time": []}}, "mouseout": {"state": {"target": ["10", "1", "0", "23", "28", "27", "29", "26", "28", "28", "24", "33", "32", "31", "22", "21"], "time": [2575, 2658, 5579, 7394, 7533, 9775, 11439, 11511, 11633, 14004, 14127, 16293, 17909, 20798, 21299, 23743]}, "edge": {"target": [], "time": []}}}, "displayed_time": "30.09", "trialTime": 36210, "trial_type": "mouselab-mdp", "trial_index": 35, "time_elapsed": 2531949, "internal_node_id": "0.0-6.0-1.0-26.0"}}, {"uniqueid": "w57364468:a46110226", "current_trial": 36, "dateTime": 1693567280327, "trialdata": {"revealed_states": [], "clicked_states": ["23", "27", "29", "28", "33", "32", "31", "21", "22", "20", "17"], "num_clicks_accrued": [0, 0, 0, 0, 0, 0, 0, 0, 0, 0, 0, 0, 0], "stateRewards": ["", 1, -3, -1, 9, -34, -40, 22, -7, 45, 53, -11, 2, 4, 5, 15, 21, 37, -49, -3, 80, -28, -34, 1, -3, 1, 1, -40, -6, -5, -16, -85, -86, 59], "withholdReward": false, "trial_id": "mdp_trial_28", "block": "test", "trialIndex": 29, "score": 72.6, "costs": -15.400000000000002, "simulationMode": [null, null, null, null, null], "rewards": [2, 4, 5, -3, 80], "path": ["0", "0", "12", "13", "14", "19", "20"], "rt": [26125, 610, 615, 76, 418], "actions": ["right", "right", "right", "down", "right"], "actionTimes": [29672, 30799, 31930, 32545, 33490], "queries": {"click": {"state": {"target": ["23", "27", "29", "28", "33", "32", "31", "21", "22", "20", "17"], "time": [5090, 7624, 9905, 11582, 13580, 15763, 17801, 20085, 22163, 24774, 26864]}, "edge": {"target": [], "time": []}}, "mouseover": {"state": {"target": ["23", "27", "29", "26", "28", "28", "24", "30", "33", "32", "31", "21", "22", "19", "20", "17"], "time": [4531, 5869, 8510, 10298, 10397, 10815, 12295, 12533, 12719, 14494, 16816, 19374, 20780, 22552, 22658, 25318]}, "edge": {"target": [], "time": []}}, "mouseout": {"state": {"target": ["20", "19", "12", "0", "23", "27", "29", "26", "28", "28", "24", "30", "33", "32", "31", "21", "22", "19", "20"], "time": [1261, 1311, 1827, 4379, 5583, 8288, 10259, 10382, 10564, 12262, 12332, 12599, 14134, 16564, 18341, 20506, 22499, 22609, 25176]}, "edge": {"target": [], "time": []}}}, "displayed_time": "34.05", "trialTime": 35630, "trial_type": "mouselab-mdp", "trial_index": 36, "time_elapsed": 2568784, "internal_node_id": "0.0-6.0-1.0-27.0"}}, {"uniqueid": "w57364468:a46110226", "current_trial": 37, "dateTime": 1693567338682, "trialdata": {"revealed_states": [], "clicked_states": ["23", "27", "29", "28", "33"], "num_clicks_accrued": [0, 0, 0, 0, 0, 0, 0, 0, 0, 0, 0, 0, 0], "stateRewards": ["", -2, -3, 4, 1, 33, -53, 15, 9, -12, 61, -6, -2, 4, 6, -11, 47, -43, -7, -11, 46, 23, -28, -1, -1, 3, -10, 11, 76, -76, 10, 18, -38, 87], "withholdReward": false, "trial_id": "mdp_trial_29", "block": "test", "trialIndex": 30, "score": 91, "costs": -7, "simulationMode": [null, null, null, null, null], "rewards": [-1, -1, 3, 10, 87], "path": ["0", "0", "23", "24", "25", "30", "33"], "rt": [13675, 545, 211, 66, 589], "actions": ["left", "left", "left", "down", "left"], "actionTimes": [16915, 17995, 18723, 19331, 20435], "queries": {"click": {"state": {"target": ["23", "27", "29", "28", "33"], "time": [4582, 7540, 10021, 12492, 14471]}, "edge": {"target": [], "time": []}}, "mouseover": {"state": {"target": ["23", "28", "27", "29", "26", "28", "25", "33"], "time": [4048, 5187, 5562, 8604, 11586, 12048, 13281, 13464]}, "edge": {"target": [], "time": []}}, "mouseout": {"state": {"target": ["17", "18", "1", "0", "23", "28", "27", "29", "26", "28", "25", "33"], "time": [779, 829, 1360, 1794, 5139, 5267, 8273, 11461, 11814, 13110, 13327, 15171]}, "edge": {"target": [], "time": []}}}, "displayed_time": "20.96", "trialTime": 56868, "trial_type": "mouselab-mdp", "trial_index": 37, "time_elapsed": 2627139, "internal_node_id": "0.0-6.0-1.0-28.0"}}, {"uniqueid": "w57364468:a46110226", "current_trial": 38, "dateTime": 1693567393253, "trialdata": {"revealed_states": [], "clicked_states": ["23", "27", "29", "28", "33", "32", "31", "22", "21", "20", "17", "18", "16", "9", "11", "10", "5", "6", "7"], "num_clicks_accrued": [0, 0, 0, 0, 0, 0, 0, 0, 0, 0, 0, 0, 0], "stateRewards": ["", 1, -4, 6, -3, 40, 76, -51, 5, -24, -63, 44, -2, -2, 8, 1, 76, -85, -58, 10, 59, 20, 11, -2, 3, -3, 3, -82, -10, 54, -7, -57, -6, -32], "withholdReward": false, "trial_id": "mdp_trial_30", "block": "test", "trialIndex": 31, "score": 49.400000000000006, "costs": -26.59999999999999, "simulationMode": [null, null, null, null, null], "rewards": [1, -4, 6, -3, 76], "path": ["0", "0", "1", "2", "3", "4", "6"], "rt": [43929, 39, 127, 124, 181], "actions": ["up", "up", "up", "right", "right"], "actionTimes": [46815, 47383, 48063, 48714, 49426], "queries": {"click": {"state": {"target": ["23", "27", "29", "28", "33", "32", "31", "22", "21", "20", "17", "18", "16", "9", "11", "10", "5", "6", "7"], "time": [4445, 6515, 8560, 10477, 12993, 15027, 17173, 19298, 21292, 23183, 25480, 28220, 30313, 32870, 34893, 36991, 39327, 41685, 43628]}, "edge": {"target": [], "time": []}}, "mouseover": {"state": {"target": ["23", "28", "27", "29", "26", "28", "25", "33", "32", "31", "22", "21", "20", "17", "15", "18", "16", "5", "9", "11", "10", "3", "5", "6", "7"], "time": [3731, 5062, 5222, 7635, 9011, 9184, 11472, 12050, 13757, 15746, 18181, 19957, 21956, 24253, 26914, 27313, 29037, 30767, 31495, 33987, 36530, 37572, 38119, 40120, 42564]}, "edge": {"target": [], "time": []}}, "mouseout": {"state": {"target": ["30", "0", "23", "28", "27", "29", "26", "28", "25", "33", "32", "31", "22", "21", "20", "17", "15", "18", "16", "5", "9", "11", "10", "10", "3", "5", "6"], "time": [1012, 1610, 5024, 5100, 7291, 8973, 9087, 11243, 11570, 13498, 15152, 17751, 19725, 21755, 23744, 25621, 27084, 28360, 30669, 30965, 33672, 35881, 37115, 37473, 37982, 39884, 42273]}, "edge": {"target": [], "time": []}}}, "displayed_time": "49.97", "trialTime": 53423, "trial_type": "mouselab-mdp", "trial_index": 38, "time_elapsed": 2681710, "internal_node_id": "0.0-6.0-1.0-29.0"}}, {"uniqueid": "w57364468:a46110226", "current_trial": 39, "dateTime": 1693567413691, "trialdata": {"revealed_states": [], "clicked_states": ["23", "27", "29"], "num_clicks_accrued": [0, 0, 0, 0, 0, 0, 0, 0, 0, 0, 0, 0, 0], "stateRewards": ["", -1, -2, 8, -6, -79, -6, 87, 9, -5, -66, -38, 2, 2, 5, -6, -82, 74, 85, -8, 67, -30, -15, 1, -2, -2, -2, 87, 64, 49, 7, 2, -38, -9], "withholdReward": false, "trial_id": "mdp_trial_31", "block": "test", "trialIndex": 32, "score": 77.8, "costs": -4.199999999999999, "simulationMode": [null, null, null, null, null], "rewards": [1, -2, -2, -2, 87], "path": ["0", "0", "23", "24", "25", "26", "27"], "rt": [7702, 337, 301, 287, 180], "actions": ["left", "left", "left", "up", "up"], "actionTimes": [10760, 11629, 12470, 13278, 13996], "queries": {"click": {"state": {"target": ["23", "27", "29"], "time": [4560, 6830, 8766]}, "edge": {"target": [], "time": []}}, "mouseover": {"state": {"target": ["23", "24", "28", "26", "27", "29"], "time": [3675, 5312, 5413, 5546, 6313, 7710]}, "edge": {"target": [], "time": []}}, "mouseout": {"state": {"target": ["7", "0", "23", "24", "28", "26", "27"], "time": [1262, 3646, 5274, 5348, 5450, 5581, 7502]}, "edge": {"target": [], "time": []}}}, "displayed_time": "17.06", "trialTime": 19261, "trial_type": "mouselab-mdp", "trial_index": 39, "time_elapsed": 2702148, "internal_node_id": "0.0-6.0-1.0-30.0"}}, {"uniqueid": "w57364468:a46110226", "current_trial": 40, "dateTime": 1693567440928, "trialdata": {"revealed_states": [], "clicked_states": ["23", "27", "29", "28"], "num_clicks_accrued": [0, 0, 0, 0, 0, 0, 0, 0, 0, 0, 0, 0, 0], "stateRewards": ["", 2, -1, 8, -2, -16, 69, -39, -7, -13, -27, -86, 2, -2, 2, 13, -34, -16, -20, -5, 19, 81, 32, -2, -1, 2, -14, 20, 80, 58, 4, 70, 12, 73], "withholdReward": false, "trial_id": "mdp_trial_32", "block": "test", "trialIndex": 33, "score": 59.4, "costs": -5.6, "simulationMode": [null, null, null, null, null], "rewards": [-2, -1, 2, -14, 80], "path": ["0", "0", "23", "24", "25", "26", "28"], "rt": [10720, 257, 308, 489, 164], "actions": ["left", "left", "left", "up", "right"], "actionTimes": [13683, 14462, 15300, 16326, 17026], "queries": {"click": {"state": {"target": ["23", "27", "29", "28"], "time": [4574, 6803, 8861, 10631]}, "edge": {"target": [], "time": []}}, "mouseover": {"state": {"target": ["23", "24", "23", "28", "27", "29", "28", "24"], "time": [3533, 3765, 4033, 5001, 5492, 7559, 9369, 12433]}, "edge": {"target": [], "time": []}}, "mouseout": {"state": {"target": ["29", "24", "23", "0", "23", "24", "23", "28", "27", "29", "28", "24"], "time": [848, 981, 1065, 3450, 3615, 3898, 4933, 5100, 7472, 9361, 11408, 12752]}, "edge": {"target": [], "time": []}}}, "displayed_time": "17.57", "trialTime": 26051, "trial_type": "mouselab-mdp", "trial_index": 40, "time_elapsed": 2729385, "internal_node_id": "0.0-6.0-1.0-31.0"}}, {"uniqueid": "w57364468:a46110226", "current_trial": 41, "dateTime": 1693567495682, "trialdata": {"revealed_states": [], "clicked_states": ["23", "27", "29", "28", "33", "31", "32", "21", "22", "20", "17", "18", "16", "6", "5", "7", "9", "11", "10"], "num_clicks_accrued": [0, 0, 0, 0, 0, 0, 0, 0, 0, 0, 0, 0, 0], "stateRewards": ["", -2, 3, -1, 2, -72, 63, 20, -1, 62, -66, 39, -2, 3, -6, 14, 22, 47, 1, 8, -49, -1, -41, 2, 2, -6, -16, -64, -60, -34, 16, 54, 22, -7], "withholdReward": false, "trial_id": "mdp_trial_33", "block": "test", "trialIndex": 34, "score": 38.400000000000006, "costs": -26.59999999999999, "simulationMode": [null, null, null, null, null], "rewards": [-2, 3, -1, 2, 63], "path": ["0", "0", "1", "2", "3", "4", "6"], "rt": [44727, 670, 294, 183, 190], "actions": ["up", "up", "up", "right", "right"], "actionTimes": [47719, 48916, 49760, 50470, 51177], "queries": {"click": {"state": {"target": ["23", "27", "29", "28", "33", "31", "32", "21", "22", "20", "17", "18", "16", "6", "5", "7", "9", "11", "10"], "time": [4143, 6782, 8839, 10787, 12808, 14906, 16913, 19750, 21925, 24783, 27019, 29136, 31270, 33206, 35266, 37535, 40171, 42188, 44494]}, "edge": {"target": [], "time": []}}, "mouseover": {"state": {"target": ["23", "28", "27", "29", "26", "28", "30", "33", "30", "31", "32", "21", "22", "19", "20", "17", "17", "15", "18", "16", "6", "6", "5", "4", "7", "3", "10", "8", "8", "9", "9", "11", "10"], "time": [3683, 4505, 4836, 7633, 9282, 9366, 11483, 11690, 13368, 13577, 15667, 19217, 21228, 22302, 22454, 25839, 26488, 27872, 28086, 29637, 31872, 32210, 33840, 36045, 36532, 38002, 38192, 38511, 38982, 39367, 39683, 41002, 43637]}, "edge": {"target": [], "time": []}}, "mouseout": {"state": {"target": ["24", "23", "0", "23", "28", "27", "29", "26", "28", "30", "33", "30", "31", "32", "21", "22", "19", "20", "17", "17", "15", "18", "16", "6", "6", "5", "5", "4", "7", "3", "10", "8", "8", "9", "9", "11", "10", "10"], "time": [1434, 1582, 3618, 4469, 4600, 7443, 9273, 9327, 11326, 11602, 13328, 13512, 15453, 17515, 20449, 22261, 22346, 25318, 26188, 27139, 27982, 29590, 31807, 32047, 33653, 35404, 35949, 36214, 37936, 38099, 38472, 38706, 39233, 39391, 40785, 43130, 44617, 45995]}, "edge": {"target": [], "time": []}}}, "displayed_time": "51.70", "trialTime": 53406, "trial_type": "mouselab-mdp", "trial_index": 41, "time_elapsed": 2784139, "internal_node_id": "0.0-6.0-1.0-32.0"}}, {"uniqueid": "w57364468:a46110226", "current_trial": 42, "dateTime": 1693567521026, "trialdata": {"revealed_states": [], "clicked_states": ["23", "27", "29", "28"], "num_clicks_accrued": [0, 0, 0, 0, 0, 0, 0, 0, 0, 0, 0, 0, 0], "stateRewards": ["", 1, 2, 2, -15, -84, 28, -26, 13, 31, 86, 30, -2, 1, -1, -8, 66, -40, -1, -10, -32, 57, -17, 1, 2, -2, 9, -23, 77, 85, 12, -32, -62, -35], "withholdReward": false, "trial_id": "mdp_trial_34", "block": "test", "trialIndex": 35, "score": 89.4, "costs": -5.6, "simulationMode": [null, null, null, null, null], "rewards": [1, 2, -2, 9, 85], "path": ["0", "0", "23", "24", "25", "26", "29"], "rt": [9744, 219, 608, 577, 434], "actions": ["left", "left", "left", "up", "left"], "actionTimes": [13071, 13800, 14937, 16030, 17004], "queries": {"click": {"state": {"target": ["23", "27", "29", "28"], "time": [4392, 6711, 9137, 11161]}, "edge": {"target": [], "time": []}}, "mouseover": {"state": {"target": ["23", "28", "27", "29", "26", "28"], "time": [3850, 4781, 5155, 8095, 9879, 10220]}, "edge": {"target": [], "time": []}}, "mouseout": {"state": {"target": ["0", "23", "28", "27", "29", "26", "28"], "time": [1681, 4714, 4849, 7517, 9746, 10062, 11709]}, "edge": {"target": [], "time": []}}}, "displayed_time": "17.53", "trialTime": 24182, "trial_type": "mouselab-mdp", "trial_index": 42, "time_elapsed": 2809483, "internal_node_id": "0.0-6.0-1.0-33.0"}}, {"uniqueid": "w57364468:a46110226", "current_trial": 43, "dateTime": 1693567575861, "trialdata": {"revealed_states": [], "clicked_states": ["23", "27", "29", "28", "33", "32", "31", "22", "21", "20", "17", "16", "18", "6", "5", "7", "9", "11", "10"], "num_clicks_accrued": [0, 0, 0, 0, 0, 0, 0, 0, 0, 0, 0, 0, 0], "stateRewards": ["", 1, -1, 1, -14, -10, 67, -28, -11, 72, 40, -65, -1, 1, 1, -2, 8, -55, 34, -10, 61, 33, -15, 2, -4, 7, 4, -75, 63, -21, -16, 61, 19, 21], "withholdReward": false, "trial_id": "mdp_trial_35", "block": "test", "trialIndex": 36, "score": 35.400000000000006, "costs": -26.59999999999999, "simulationMode": [null, null, null, null, null], "rewards": [1, -1, 1, -11, 72], "path": ["0", "0", "1", "2", "3", "8", "9"], "rt": [40724, 274, 560, 324, 263], "actions": ["up", "up", "up", "left", "up"], "actionTimes": [44710, 45546, 46652, 47502, 48343], "queries": {"click": {"state": {"target": ["23", "27", "29", "28", "33", "32", "31", "22", "21", "20", "17", "16", "18", "6", "5", "7", "9", "11", "10"], "time": [4928, 6951, 9434, 11435, 13466, 16224, 18426, 20620, 22614, 24199, 26298, 28204, 29871, 31894, 33928, 35788, 37828, 40143, 42868]}, "edge": {"target": [], "time": []}}, "mouseover": {"state": {"target": ["23", "28", "27", "29", "26", "28", "25", "30", "33", "32", "31", "22", "21", "20", "17", "16", "18", "6", "5", "4", "7", "9", "11", "8", "10"], "time": [4499, 5343, 5836, 8865, 9905, 10025, 11985, 12136, 12257, 15081, 17186, 19262, 21492, 23321, 25316, 27211, 28961, 30668, 32880, 34404, 34987, 36588, 38388, 40717, 41100]}, "edge": {"target": [], "time": []}}, "mouseout": {"state": {"target": ["0", "23", "28", "27", "29", "26", "28", "25", "30", "33", "32", "31", "22", "21", "20", "17", "16", "18", "6", "5", "5", "4", "7", "9", "11", "8", "10"], "time": [4033, 5305, 5454, 8264, 9846, 9972, 11921, 12020, 12170, 14347, 16699, 19070, 21004, 23043, 25010, 26782, 28806, 30569, 32359, 34068, 34301, 34454, 36396, 38211, 40610, 40758, 43357]}, "edge": {"target": [], "time": []}}}, "displayed_time": "48.87", "trialTime": 53600, "trial_type": "mouselab-mdp", "trial_index": 43, "time_elapsed": 2864318, "internal_node_id": "0.0-6.0-1.0-34.0"}}, {"uniqueid": "w57364468:a46110226", "current_trial": 44, "dateTime": 1693567612616, "trialdata": {"revealed_states": [], "clicked_states": ["23", "27", "29", "28", "33", "32", "31", "22", "21", "20"], "num_clicks_accrued": [0, 0, 0, 0, 0, 0, 0, 0, 0, 0, 0, 0, 0], "stateRewards": ["", 1, -1, 4, 5, -32, 18, 20, 6, -88, -74, 9, -2, 1, -2, -14, 34, -77, -38, -1, 80, -36, 73, 2, 3, -8, 10, -48, -73, -71, -11, -22, 20, 54], "withholdReward": false, "trial_id": "mdp_trial_36", "block": "test", "trialIndex": 37, "score": 62, "costs": -14.000000000000002, "simulationMode": [null, null, null, null, null], "rewards": [-2, 1, -2, -1, 80], "path": ["0", "0", "12", "13", "14", "19", "20"], "rt": [25818, 101, 310, 198, 343], "actions": ["right", "right", "right", "down", "right"], "actionTimes": [28160, 28790, 29633, 30345, 31227], "queries": {"click": {"state": {"target": ["23", "27", "29", "28", "33", "32", "31", "22", "21", "20"], "time": [3779, 6076, 8734, 10821, 13038, 15025, 17195, 19257, 21611, 23905]}, "edge": {"target": [], "time": []}}, "mouseover": {"state": {"target": ["23", "28", "27", "29", "26", "28", "25", "33", "32", "31", "22", "21", "20", "14", "13", "15", "18", "15", "18"], "time": [3212, 4255, 4333, 8178, 9285, 9617, 11312, 11577, 13946, 15649, 18190, 19881, 22484, 24492, 24881, 25190, 25591, 26729, 27096]}, "edge": {"target": [], "time": []}}, "mouseout": {"state": {"target": ["0", "0", "23", "28", "27", "29", "26", "28", "25", "33", "32", "31", "22", "21", "20", "14", "13", "15", "18", "15", "18"], "time": [947, 3079, 4178, 4292, 7554, 9246, 9355, 11279, 11377, 13657, 15452, 17697, 19703, 22231, 24304, 24531, 24918, 25377, 26396, 27028, 27278]}, "edge": {"target": [], "time": []}}}, "displayed_time": "31.77", "trialTime": 35584, "trial_type": "mouselab-mdp", "trial_index": 44, "time_elapsed": 2901073, "internal_node_id": "0.0-6.0-1.0-35.0"}}, {"uniqueid": "w57364468:a46110226", "current_trial": 45, "dateTime": 1693567639874, "trialdata": {"revealed_states": [], "clicked_states": ["23", "27", "29", "28", "33", "32", "31"], "num_clicks_accrued": [0, 0, 0, 0, 0, 0, 0, 0, 0, 0, 0, 0, 0], "stateRewards": ["", 1, -2, -2, 10, -31, -77, 35, 9, -47, 8, 48, -2, 1, -4, -3, -26, -50, 43, -11, 76, -38, 17, 1, -1, 6, 10, 15, -9, 12, -8, 85, 11, -55], "withholdReward": false, "trial_id": "mdp_trial_37", "block": "test", "trialIndex": 38, "score": 73.2, "costs": -9.8, "simulationMode": [null, null, null, null, null], "rewards": [1, -1, 6, -8, 85], "path": ["0", "0", "23", "24", "25", "30", "31"], "rt": [17512, 51, 232, 81, 408], "actions": ["left", "left", "left", "down", "right"], "actionTimes": [20781, 21359, 22127, 22757, 23692], "queries": {"click": {"state": {"target": ["23", "27", "29", "28", "33", "32", "31"], "time": [4364, 6685, 9053, 11319, 13398, 15379, 17412]}, "edge": {"target": [], "time": []}}, "mouseover": {"state": {"target": ["23", "28", "27", "29", "26", "28", "30", "33", "32", "31", "22", "22"], "time": [3770, 4880, 5293, 7556, 9433, 9510, 12048, 12235, 13838, 15933, 18567, 19702]}, "edge": {"target": [], "time": []}}, "mouseout": {"state": {"target": ["13", "12", "23", "28", "27", "29", "26", "28", "30", "33", "32", "31", "22", "22"], "time": [1002, 1170, 4808, 4919, 7317, 9395, 9472, 11904, 12140, 13766, 15753, 17948, 19418, 19785]}, "edge": {"target": [], "time": []}}}, "displayed_time": "24.23", "trialTime": 26117, "trial_type": "mouselab-mdp", "trial_index": 45, "time_elapsed": 2928331, "internal_node_id": "0.0-6.0-1.0-36.0"}}, {"uniqueid": "w57364468:a46110226", "current_trial": 46, "dateTime": 1693567692445, "trialdata": {"revealed_states": [], "clicked_states": ["23", "27", "29", "28", "33", "32", "31", "22", "21", "20", "17", "18", "16", "6", "5", "7", "9", "11", "10"], "num_clicks_accrued": [0, 0, 0, 0, 0, 0, 0, 0, 0, 0, 0, 0, 0], "stateRewards": ["", -1, -2, 4, 9, 10, -75, 39, 16, -43, 88, -19, -1, 1, 2, 4, -31, 10, 73, 12, 41, -64, -81, -2, 2, -6, 1, -81, -1, -26, 3, -59, -3, -20], "withholdReward": false, "trial_id": "mdp_trial_38", "block": "test", "trialIndex": 39, "score": 78.4, "costs": -26.59999999999999, "simulationMode": [null, null, null, null, null], "rewards": [-1, -2, 4, 16, 88], "path": ["0", "0", "1", "2", "3", "8", "10"], "rt": [40825, 442, 230, 440, 324], "actions": ["up", "up", "up", "left", "down"], "actionTimes": [45267, 46263, 47018, 48001, 48879], "queries": {"click": {"state": {"target": ["23", "27", "29", "28", "33", "32", "31", "22", "21", "20", "17", "18", "16", "6", "5", "7", "9", "11", "10"], "time": [5615, 7841, 9938, 11945, 13740, 15794, 17507, 19972, 21859, 23439, 25176, 27513, 29577, 31741, 33650, 35748, 37888, 39953, 42028]}, "edge": {"target": [], "time": []}}, "mouseover": {"state": {"target": ["23", "28", "27", "29", "26", "28", "30", "33", "32", "31", "22", "21", "20", "17", "18", "16", "16", "6", "5", "4", "7", "9", "11", "10"], "time": [5121, 6089, 6439, 8724, 10501, 10815, 12538, 12903, 14788, 16672, 18887, 20652, 22466, 24402, 26567, 28300, 28837, 30773, 32179, 34261, 34456, 36446, 38774, 40522]}, "edge": {"target": [], "time": []}}, "mouseout": {"state": {"target": ["0", "23", "28", "27", "29", "26", "28", "30", "33", "32", "31", "22", "21", "20", "17", "18", "16", "16", "6", "5", "4", "7", "9", "11"], "time": [3384, 6054, 6158, 8524, 10435, 10614, 12418, 12656, 14515, 16242, 18252, 20433, 22364, 24290, 26044, 28190, 28342, 30657, 32086, 34199, 34390, 36285, 38589, 40336]}, "edge": {"target": [], "time": []}}}, "displayed_time": "49.44", "trialTime": 51436, "trial_type": "mouselab-mdp", "trial_index": 46, "time_elapsed": 2980901, "internal_node_id": "0.0-6.0-1.0-37.0"}}, {"uniqueid": "w57364468:a46110226", "current_trial": 47, "dateTime": 1693567736744, "trialdata": {"revealed_states": [], "clicked_states": ["23", "27", "29", "28", "33", "32", "31", "22", "21", "20", "17", "16", "18", "5"], "num_clicks_accrued": [0, 0, 0, 0, 0, 0, 0, 0, 0, 0, 0, 0, 0], "stateRewards": ["", 1, -1, 4, -2, -75, -75, 84, -9, -60, -79, 59, 2, -4, 8, 9, -17, -82, 80, 14, -4, 49, 49, -1, 3, 6, -11, -33, 34, 55, 9, -57, 5, 59], "withholdReward": false, "trial_id": "mdp_trial_39", "block": "test", "trialIndex": 40, "score": 75.4, "costs": -19.599999999999998, "simulationMode": [null, null, null, null, null], "rewards": [2, -4, 8, 9, 80], "path": ["0", "0", "12", "13", "14", "15", "18"], "rt": [32254, 142, 302, 307, 491], "actions": ["right", "right", "right", "up", "left"], "actionTimes": [36232, 36901, 37737, 38586, 39632], "queries": {"click": {"state": {"target": ["23", "27", "29", "28", "33", "32", "31", "22", "21", "20", "17", "16", "18", "5"], "time": [5604, 7318, 9336, 11838, 14512, 16569, 18814, 21493, 23597, 25749, 27902, 30274, 32328, 34246]}, "edge": {"target": [], "time": []}}, "mouseover": {"state": {"target": ["23", "28", "27", "29", "26", "28", "25", "33", "32", "31", "12", "13", "22", "21", "20", "17", "16", "18", "6", "5"], "time": [5146, 5981, 6528, 8477, 9807, 10008, 13183, 14078, 15253, 17269, 19641, 20597, 21046, 22531, 24478, 26872, 28394, 30974, 33001, 33657]}, "edge": {"target": [], "time": []}}, "mouseout": {"state": {"target": ["10", "1", "0", "23", "28", "27", "29", "26", "28", "25", "33", "32", "31", "12", "13", "22", "22", "21", "20", "17", "16", "18", "6", "5"], "time": [2077, 2260, 4812, 5890, 6045, 8311, 9768, 9878, 12955, 13222, 15090, 17042, 19344, 20315, 20698, 21627, 22193, 24139, 26724, 28037, 30891, 32924, 33310, 35180]}, "edge": {"target": [], "time": []}}}, "displayed_time": "40.14", "trialTime": 43113, "trial_type": "mouselab-mdp", "trial_index": 47, "time_elapsed": 3025201, "internal_node_id": "0.0-6.0-1.0-38.0"}}, {"uniqueid": "w57364468:a46110226", "current_trial": 48, "dateTime": 1693567793529, "trialdata": {"revealed_states": [], "clicked_states": ["23", "27", "29", "28", "33", "32", "31", "22", "21", "20", "17", "16", "18", "6", "5", "9", "11", "10", "7"], "num_clicks_accrued": [0, 0, 0, 0, 0, 0, 0, 0, 0, 0, 0, 0, 0], "stateRewards": ["", 1, -4, -4, 8, 1, -79, 68, -10, -79, 8, -74, -1, -3, -6, 14, 43, 23, 9, 5, -51, 63, 61, -2, 4, 6, -10, 69, -32, 57, 15, -80, -80, -77], "withholdReward": false, "trial_id": "mdp_trial_40", "block": "test", "trialIndex": 41, "score": 40.400000000000006, "costs": -26.59999999999999, "simulationMode": [null, null, null, null, null], "rewards": [-2, 4, 6, -10, 69], "path": ["0", "0", "23", "24", "25", "26", "27"], "rt": [44059, 619, 320, 13, 651], "actions": ["left", "left", "left", "up", "up"], "actionTimes": [48160, 49320, 50170, 50715, 51916], "queries": {"click": {"state": {"target": ["23", "27", "29", "28", "33", "32", "31", "22", "21", "20", "17", "16", "18", "6", "5", "9", "11", "10", "7"], "time": [5614, 7677, 10461, 12720, 15693, 17754, 19852, 23084, 25063, 27253, 29267, 31291, 33325, 36171, 38102, 40174, 42181, 44183, 46311]}, "edge": {"target": [], "time": []}}, "mouseover": {"state": {"target": ["23", "28", "27", "29", "26", "28", "30", "33", "32", "31", "12", "13", "13", "22", "21", "20", "17", "16", "18", "6", "5", "9", "11", "10", "2", "7"], "time": [4762, 6086, 6381, 8650, 11294, 11474, 14839, 15034, 16538, 18375, 20455, 21036, 21988, 22555, 23801, 25915, 27792, 29787, 31854, 34810, 36722, 38957, 40788, 42727, 44582, 44662]}, "edge": {"target": [], "time": []}}, "mouseout": {"state": {"target": ["1", "0", "23", "28", "27", "29", "26", "28", "30", "33", "32", "31", "12", "13", "13", "22", "21", "20", "17", "16", "18", "6", "5", "9", "11", "10", "2"], "time": [2520, 4723, 6047, 6127, 8453, 11239, 11370, 14722, 14923, 16281, 18208, 20277, 20809, 21755, 22506, 23624, 25626, 27685, 29658, 31739, 34546, 36652, 38706, 40561, 42567, 44317, 44624]}, "edge": {"target": [], "time": []}}}, "displayed_time": "52.45", "trialTime": 55708, "trial_type": "mouselab-mdp", "trial_index": 48, "time_elapsed": 3081986, "internal_node_id": "0.0-6.0-1.0-39.0"}}, {"uniqueid": "w57364468:a46110226", "current_trial": 49, "dateTime": 1693568029330, "trialdata": {"rt": 235781, "response": {"Q0": "$-2 to $2", "Q1": "$-32 to $32", "Q2": "$-88 to $88", "Q3": "The cost for clicking on nodes varied between nodes.", "Q4": "Very motivated"}, "question_order": [0, 1, 2, 3, 4], "trial_id": "final_quiz_control", "trial_type": "survey-multi-choice", "trial_index": 49, "time_elapsed": 3317787, "internal_node_id": "0.0-6.0-2.0"}}, {"uniqueid": "w57364468:a46110226", "current_trial": 50, "dateTime": 1693569066894, "trialdata": {"rt": 1037499, "response": {"Q0": "Firstly, I made sure I didn't run out of time by clicking the closest possible node. Then I moved to far-end nodes to reveal their value as they had more value than mid and center nodes. This is to make sure I pay very little to get more and don't waste resources on less-paying nodes. ", "Q1": "Yes. My approach initially was to click, pay, and reveal all nodes possible. However, I noticed that the paying or highest paying nodes are actually on the far end (edge), and started utilizing the strategy mentioned above. Avoid timeout and click far end, pay little for more, and don't click non-paying or less-paying nodes. ", "Q2": "It wasn't difficult at all. The game was fascinating and intuitive. I followed my learning abilities to improve and formulate strategies along the way. "}, "trial_id": "self_report_control", "trial_type": "survey-text", "trial_index": 50, "time_elapsed": 4355350, "internal_node_id": "0.0-6.0-3.0"}}, {"uniqueid": "w57364468:a46110226", "current_trial": 51, "dateTime": 1693569172463, "trialdata": {"rt": 105548, "response": {"gender": "male", "age": "26", "colorblind": "0", "effort": "0"}, "trial_type": "survey-html-form", "trial_index": 51, "time_elapsed": 4460921, "internal_node_id": "0.0-6.0-4.0"}}, {"uniqueid": "w57364468:a46110226", "current_trial": 52, "dateTime": 1693569285330, "trialdata": {"rt": 112841, "response": {"Q0": "No.", "Q1": "No.", "Q2": "None."}, "trial_type": "survey-text", "trial_index": 52, "time_elapsed": 4573787, "internal_node_id": "0.0-6.0-5.0"}}, {"uniqueid": "w57364468:a46110226", "current_trial": 53, "dateTime": 1693569356119, "trialdata": {"rt": 70764, "stimulus": "<h1>Completion Code Instructions (1/2)</h1>\n<br><br><br><br>\nYou have reached the end of the experiment! The completion code consists of two parts: (1) a code with 2 characters (2) a code with 6 characters. On this page, you will receive the second part of the code. The first part of the completion code will be on the next page.\n<br><br>\nThe second part of your completion code is: <b>EWEK22</b>\n<br><br>\nPlease note this down. Then, press 'Finish HIT' in order to find the first part of your completion code. Once the data has been saved, you will receive this code either in this window or in the original browser window where you started the experiment.\n", "response": 0, "trial_type": "html-button-response", "trial_index": 53, "time_elapsed": 4644577, "internal_node_id": "0.0-6.0-6.0"}}, {"uniqueid": "w57364468:a46110226", "current_trial": 54, "dateTime": 1693569357134, "trialdata": {"success": true, "trial_type": "fullscreen", "trial_index": 54, "time_elapsed": 4645592, "internal_node_id": "0.0-7.0"}}], "questiondata": {"params": {"CODE": "C6DMOQA6", "MIN_TIME": 14, "inspectCost": 1, "startTime": "Fri Sep 01 2023 12:38:27 GMT+0200 (South Africa Standard Time)", "bonusRate": 0.002, "variance": "1_2_4_8_44", "branching": "31123"}, "final_score": 1704.4}, "eventdata": [{"eventtype": "initialized", "value": null, "timestamp": 1693564706107, "interval": 0}, {"eventtype": "window_resize", "value": [1366, 670], "timestamp": 1693564706107, "interval": 0}, {"eventtype": "window_resize", "value": [1366, 670], "timestamp": 1693564706880, "interval": 773}, {"eventtype": "window_resize", "value": [1366, 768], "timestamp": 1693564722326, "interval": 15446}, {"eventtype": "window_resize", "value": [1366, 670], "timestamp": 1693569356451, "interval": 4634125}], "useragent": "Mozilla/5.0 (Windows NT 10.0; Win64; x64) AppleWebKit/537.36 (KHTML, like Gecko) Chrome/116.0.0.0 Safari/537.36", "mode": "live", "id": "w57364468:a46110226", "status": "user data saved", "Beginhit": "2023-09-01 10:38:20.441563", "Beginexp": "2023-09-01 10:38:44.239481", "Endhit": "2023-09-01 11:56:00.169983", "psiturkStatus": 3, "browser": "<redacted>", "platform": "windows", "language": "en-US", "excludeReason": "exceededTime"}