{"condition": 0, "counterbalance": 0, "assignmentId": "a20402600", "workerId": "w58795616", "hitId": "h43904884", "currenttrial": 55, "bonus": 0, "data": [{"uniqueid": "w58795616:a20402600", "current_trial": 0, "dateTime": 1693388911081, "trialdata": {"success": true, "trial_type": "fullscreen", "trial_index": 0, "time_elapsed": 25364, "internal_node_id": "0.0-0.0"}}, {"uniqueid": "w58795616:a20402600", "current_trial": 1, "dateTime": 1693388945000, "trialdata": {"view_history": [{"page_index": 0, "viewing_time": 33910}], "rt": 33911, "trial_id": "exp_instructions_control", "trial_type": "instructions", "trial_index": 1, "time_elapsed": 59285, "internal_node_id": "0.0-1.0"}}, {"uniqueid": "w58795616:a20402600", "current_trial": 2, "dateTime": 1693389162336, "trialdata": {"view_history": [{"page_index": 0, "viewing_time": 75949}, {"page_index": 1, "viewing_time": 82246}, {"page_index": 2, "viewing_time": 19889}, {"page_index": 3, "viewing_time": 39249}], "rt": 217333, "trial_id": "mouselab_instructions_1_control", "trial_type": "instructions", "trial_index": 2, "time_elapsed": 276621, "internal_node_id": "0.0-2.0-1.0"}}, {"uniqueid": "w58795616:a20402600", "current_trial": 3, "dateTime": 1693389182594, "trialdata": {"revealed_states": [], "clicked_states": [], "num_clicks_accrued": [0, 0, 0, 0, 0, 0, 0, 0, 0, 0, 0, 0, 0], "stateRewards": ["", 10, -10, -10, 10, 10, 10, 10, -10, 10, 10, -10, 10, -10, -10, -10, 10, 10, 10, 10, 10, 10, -10, -10, -10, -10, 10, -10, 10, 10, -10, 10, -10, -10], "withholdReward": false, "trial_id": "practice_1", "block": "test", "trialIndex": 0, "score": 13.5, "costs": 0, "simulationMode": [null, null, null, null, null], "rewards": [10, -10, -10, 10, 10], "path": ["0", "0", "1", "2", "3", "4", "6"], "rt": [1313, 2398, 377, 1018, 197], "actions": ["up", "up", "up", "right", "right"], "actionTimes": [6089, 8992, 9888, 11413, 12126], "queries": {"click": {"state": {"target": [], "time": []}, "edge": {"target": [], "time": []}}, "mouseover": {"state": {"target": [], "time": []}, "edge": {"target": [], "time": []}}, "mouseout": {"state": {"target": ["0", "1", "2", "7", "6", "18", "13", "22"], "time": [15257, 15547, 15624, 15739, 16674, 17123, 17733, 18806]}, "edge": {"target": [], "time": []}}}, "displayed_time": "12.63", "trialTime": 19716, "trial_type": "mouselab-mdp", "trial_index": 3, "time_elapsed": 296878, "internal_node_id": "0.0-2.0-2.0-0.0"}}, {"uniqueid": "w58795616:a20402600", "current_trial": 4, "dateTime": 1693389199066, "trialdata": {"revealed_states": [], "clicked_states": [], "num_clicks_accrued": [0, 0, 0, 0, 0, 0, 0, 0, 0, 0, 0, 0, 0], "stateRewards": ["", -10, -10, 10, 10, 10, -10, 10, 10, 10, 10, 10, 10, -10, 10, -10, 10, -10, -10, 10, -10, -10, -10, -10, -10, 10, 10, 10, -10, 10, 10, 10, 10, -10], "withholdReward": false, "trial_id": "practice_2", "block": "test", "trialIndex": 1, "score": -6.5, "costs": 0, "simulationMode": [null, null, null, null, null], "rewards": [10, -10, 10, -10, -10], "path": ["0", "0", "12", "13", "14", "15", "17"], "rt": [3571, 567, 1416, 582, 222], "actions": ["right", "right", "right", "up", "right"], "actionTimes": [6630, 7708, 9641, 10722, 11464], "queries": {"click": {"state": {"target": [], "time": []}, "edge": {"target": [], "time": []}}, "mouseover": {"state": {"target": ["0"], "time": [3213]}, "edge": {"target": [], "time": []}}, "mouseout": {"state": {"target": ["12", "0"], "time": [2522, 3255]}, "edge": {"target": [], "time": []}}}, "displayed_time": "11.98", "trialTime": 16271, "trial_type": "mouselab-mdp", "trial_index": 4, "time_elapsed": 313349, "internal_node_id": "0.0-2.0-2.0-1.0"}}, {"uniqueid": "w58795616:a20402600", "current_trial": 5, "dateTime": 1693389223693, "trialdata": {"view_history": [{"page_index": 0, "viewing_time": 9980}, {"page_index": 1, "viewing_time": 14640}], "rt": 24621, "trial_id": "mouselab_instructions_2_control", "trial_type": "instructions", "trial_index": 5, "time_elapsed": 337978, "internal_node_id": "0.0-2.0-3.0"}}, {"uniqueid": "w58795616:a20402600", "current_trial": 6, "dateTime": 1693389280754, "trialdata": {"rt": 57056, "response": {"Q0": "The cost for clicking on nodes may vary between nodes.", "Q1": "The better I perform the higher my bonus will be.", "Q2": "No, the amount of cash at each node of the web may be different each time.", "Q3": "To get the highest total score.", "Q4": "Only before moving the spider.", "Q5": "3 seconds"}, "question_order": [0, 1, 2, 3, 4, 5], "correct": {"Q0": "The cost for clicking on nodes may vary between nodes.", "Q1": "The better I perform the higher my bonus will be.", "Q2": "No, the amount of cash at each node of the web may be different each time.", "Q3": "To get the highest total score.", "Q4": "Only before moving the spider.", "Q5": "3 seconds"}, "trial_id": "mouselab_quiz_control", "trial_type": "survey-multi-choice", "trial_index": 6, "time_elapsed": 395039, "internal_node_id": "0.0-2.0-4.0"}}, {"uniqueid": "w58795616:a20402600", "current_trial": 7, "dateTime": 1693389288806, "trialdata": {"rt": 8045, "response": {"Q0": "No"}, "question_order": [0], "trial_id": "repeat_check", "trial_type": "survey-multi-choice", "trial_index": 7, "time_elapsed": 403091, "internal_node_id": "0.0-4.0-0.0"}}, {"uniqueid": "w58795616:a20402600", "current_trial": 8, "dateTime": 1693389314405, "trialdata": {"rt": 25593, "stimulus": "\n<h1> Get ready to start the game! </h1>\n\nThank you for reading the instructions. Get ready start with the 40 rounds of this game.\n<br><br>\nIf you need to take a break, feel free to take one after the end of a round, before continuing to the next one.\n<br><br>\nRemember, the more money the spider gets, the bigger your bonus will be!\n<br><br>\n<div style='text-align: center;'>Press <code>space</code> to begin.</div>\n\n<br><br>\n(If, at any point, the <code>space</code> key does not take you to the next page, click once on the text and try again.)", "response": " ", "trial_id": "mdp_ready", "trial_type": "html-keyboard-response", "trial_index": 8, "time_elapsed": 428690, "internal_node_id": "0.0-6.0-0.0"}}, {"uniqueid": "w58795616:a20402600", "current_trial": 9, "dateTime": 1693389335542, "trialdata": {"revealed_states": [], "clicked_states": [], "num_clicks_accrued": [0, 0, 0, 0, 0, 0, 0, 0, 0, 0, 0, 0, 0], "stateRewards": ["", 1, -2, -8, -13, 4, 34, -84, -4, -49, 88, -70, -1, 3, -4, 10, -77, 13, -34, 15, -21, -16, 27, 1, -2, 8, -8, -6, 38, -26, 6, -15, 66, -3], "withholdReward": false, "trial_id": "mdp_trial_1", "block": "test", "trialIndex": 2, "score": -2, "costs": 0, "simulationMode": [null, null, null, null, null], "rewards": [1, -2, 8, 6, -15], "path": ["0", "0", "23", "24", "25", "30", "31"], "rt": [2432, 832, 300, 821, 248], "actions": ["left", "left", "left", "down", "right"], "actionTimes": [6362, 7716, 8516, 9854, 10597], "queries": {"click": {"state": {"target": [], "time": []}, "edge": {"target": [], "time": []}}, "mouseover": {"state": {"target": [], "time": []}, "edge": {"target": [], "time": []}}, "mouseout": {"state": {"target": ["8", "2", "22", "0", "0", "23", "31", "31"], "time": [2203, 3097, 3231, 3485, 13036, 13062, 15816, 17372]}, "edge": {"target": [], "time": []}}}, "displayed_time": "17.93", "trialTime": 20933, "trial_type": "mouselab-mdp", "trial_index": 9, "time_elapsed": 449826, "internal_node_id": "0.0-6.0-1.0-0.0"}}, {"uniqueid": "w58795616:a20402600", "current_trial": 10, "dateTime": 1693389354833, "trialdata": {"revealed_states": [], "clicked_states": [], "num_clicks_accrued": [0, 0, 0, 0, 0, 0, 0, 0, 0, 0, 0, 0, 0], "stateRewards": ["", 2, -2, 7, -11, -76, -65, -23, 16, -58, 30, 81, 1, 2, 7, 14, 9, 55, -2, 6, 11, -15, 31, -1, -1, -3, 2, 15, 2, 46, 15, 18, 45, -34], "withholdReward": false, "trial_id": "mdp_trial_2", "block": "test", "trialIndex": 3, "score": -69, "costs": 0, "simulationMode": [null, null, null, null, null], "rewards": [2, -2, 7, -11, -65], "path": ["0", "0", "1", "2", "3", "4", "6"], "rt": [1375, 204, 270, 274, 164], "actions": ["up", "up", "up", "right", "right"], "actionTimes": [3211, 3922, 4690, 5478, 6151], "queries": {"click": {"state": {"target": [], "time": []}, "edge": {"target": [], "time": []}}, "mouseover": {"state": {"target": ["0"], "time": [2373]}, "edge": {"target": [], "time": []}}, "mouseout": {"state": {"target": ["31", "0", "0", "22", "20", "17", "5", "6", "18", "13", "4", "14", "19", "21"], "time": [918, 1465, 2401, 7166, 7348, 7438, 7718, 8799, 9302, 9318, 14398, 14547, 14630, 14797]}, "edge": {"target": [], "time": []}}}, "displayed_time": "15.84", "trialTime": 19080, "trial_type": "mouselab-mdp", "trial_index": 10, "time_elapsed": 469117, "internal_node_id": "0.0-6.0-1.0-1.0"}}, {"uniqueid": "w58795616:a20402600", "current_trial": 11, "dateTime": 1693389373187, "trialdata": {"revealed_states": [], "clicked_states": [], "num_clicks_accrued": [0, 0, 0, 0, 0, 0, 0, 0, 0, 0, 0, 0, 0], "stateRewards": ["", 1, -1, 4, 5, -32, 18, 20, 6, -88, -74, 9, -2, 1, -2, -14, 34, -77, -38, -1, 80, -36, 73, 2, 3, -8, 10, -48, -73, -71, -11, -22, 20, 54], "withholdReward": false, "trial_id": "mdp_trial_3", "block": "test", "trialIndex": 4, "score": 40, "costs": 0, "simulationMode": [null, null, null, null, null], "rewards": [2, 3, -8, -11, 54], "path": ["0", "0", "23", "24", "25", "30", "33"], "rt": [2750, 564, 354, 226, 327], "actions": ["left", "left", "left", "down", "left"], "actionTimes": [4208, 5280, 6136, 6861, 7711], "queries": {"click": {"state": {"target": [], "time": []}, "edge": {"target": [], "time": []}}, "mouseover": {"state": {"target": [], "time": []}, "edge": {"target": [], "time": []}}, "mouseout": {"state": {"target": ["0", "33"], "time": [1986, 14280]}, "edge": {"target": [], "time": []}}}, "displayed_time": "15.46", "trialTime": 18152, "trial_type": "mouselab-mdp", "trial_index": 11, "time_elapsed": 487471, "internal_node_id": "0.0-6.0-1.0-2.0"}}, {"uniqueid": "w58795616:a20402600", "current_trial": 12, "dateTime": 1693389393662, "trialdata": {"revealed_states": [], "clicked_states": [], "num_clicks_accrued": [0, 0, 0, 0, 0, 0, 0, 0, 0, 0, 0, 0, 0], "stateRewards": ["", 2, -2, -3, 10, -4, -1, -11, -8, -9, -36, -78, 2, 1, 7, -7, 44, -1, -31, -1, 26, 47, 83, 2, -4, -4, -6, -52, -76, -81, -1, -59, 45, 67], "withholdReward": false, "trial_id": "mdp_trial_4", "block": "test", "trialIndex": 5, "score": 60, "costs": 0, "simulationMode": [null, null, null, null, null], "rewards": [2, -4, -4, -1, 67], "path": ["0", "0", "23", "24", "25", "30", "33"], "rt": [1105, 206, 298, 183, 300], "actions": ["left", "left", "left", "down", "left"], "actionTimes": [4349, 5057, 5866, 6558, 7369], "queries": {"click": {"state": {"target": [], "time": []}, "edge": {"target": [], "time": []}}, "mouseover": {"state": {"target": [], "time": []}, "edge": {"target": [], "time": []}}, "mouseout": {"state": {"target": ["0", "33", "33"], "time": [3521, 10305, 13321]}, "edge": {"target": [], "time": []}}}, "displayed_time": "17.25", "trialTime": 20264, "trial_type": "mouselab-mdp", "trial_index": 12, "time_elapsed": 507945, "internal_node_id": "0.0-6.0-1.0-3.0"}}, {"uniqueid": "w58795616:a20402600", "current_trial": 13, "dateTime": 1693389415388, "trialdata": {"revealed_states": [], "clicked_states": [], "num_clicks_accrued": [0, 0, 0, 0, 0, 0, 0, 0, 0, 0, 0, 0, 0], "stateRewards": ["", 2, 4, 4, 9, -88, -10, 44, 16, -54, 64, 78, 1, 2, 5, 16, 80, 36, 7, -4, 9, -47, -70, -1, -3, 6, -16, 11, 80, 28, 8, -1, 34, -17], "withholdReward": false, "trial_id": "mdp_trial_5", "block": "test", "trialIndex": 6, "score": -7, "costs": 0, "simulationMode": [null, null, null, null, null], "rewards": [-1, -3, 6, 8, -17], "path": ["0", "0", "23", "24", "25", "30", "33"], "rt": [797, 279, 463, 162, 300], "actions": ["left", "left", "left", "down", "left"], "actionTimes": [2814, 3611, 4576, 5242, 6063], "queries": {"click": {"state": {"target": [], "time": []}, "edge": {"target": [], "time": []}}, "mouseover": {"state": {"target": [], "time": []}, "edge": {"target": [], "time": []}}, "mouseout": {"state": {"target": ["33", "30", "31", "0", "12", "12", "0", "24", "33", "33", "30"], "time": [1038, 1081, 1094, 1213, 1277, 1499, 7747, 9092, 10360, 11164, 20423]}, "edge": {"target": [], "time": []}}}, "displayed_time": "16.02", "trialTime": 21509, "trial_type": "mouselab-mdp", "trial_index": 13, "time_elapsed": 529672, "internal_node_id": "0.0-6.0-1.0-4.0"}}, {"uniqueid": "w58795616:a20402600", "current_trial": 14, "dateTime": 1693389439405, "trialdata": {"revealed_states": [], "clicked_states": [], "num_clicks_accrued": [0, 0, 0, 0, 0, 0, 0, 0, 0, 0, 0, 0, 0], "stateRewards": ["", 2, 2, 3, -15, 23, -14, 73, -7, -32, -20, -6, 1, 1, -5, -12, 73, 6, -84, 11, -81, -57, 13, -2, -1, -4, -8, -52, -58, 49, 13, 5, -41, -41], "withholdReward": false, "trial_id": "mdp_trial_6", "block": "test", "trialIndex": 7, "score": 15, "costs": 0, "simulationMode": [null, null, null, null, null], "rewards": [2, 2, 3, -15, 23], "path": ["0", "0", "1", "2", "3", "4", "5"], "rt": [1380, 220, 495, 460, 67], "actions": ["up", "up", "up", "right", "up"], "actionTimes": [8289, 9009, 10019, 10984, 11577], "queries": {"click": {"state": {"target": [], "time": []}, "edge": {"target": [], "time": []}}, "mouseover": {"state": {"target": [], "time": []}, "edge": {"target": [], "time": []}}, "mouseout": {"state": {"target": ["25", "25", "24", "23", "0", "0", "0", "0", "0", "12", "0", "0"], "time": [1625, 3788, 3854, 4355, 5374, 5703, 14791, 19067, 21934, 22168, 22251, 23304]}, "edge": {"target": [], "time": []}}}, "displayed_time": "20.91", "trialTime": 23806, "trial_type": "mouselab-mdp", "trial_index": 14, "time_elapsed": 553689, "internal_node_id": "0.0-6.0-1.0-5.0"}}, {"uniqueid": "w58795616:a20402600", "current_trial": 15, "dateTime": 1693389458946, "trialdata": {"revealed_states": [], "clicked_states": [], "num_clicks_accrued": [0, 0, 0, 0, 0, 0, 0, 0, 0, 0, 0, 0, 0], "stateRewards": ["", 1, -1, 1, 13, 31, -56, 72, 2, 41, 5, 63, -2, -3, -2, 3, -71, -26, 52, 13, -31, 24, -67, 2, -2, 5, 4, 66, 43, 72, 9, 86, -26, 44], "withholdReward": false, "trial_id": "mdp_trial_7", "block": "test", "trialIndex": 8, "score": -61, "costs": 0, "simulationMode": [null, null, null, null, null], "rewards": [-2, -3, -2, 13, -67], "path": ["0", "0", "12", "13", "14", "19", "22"], "rt": [2540, 268, 220, 652, 615], "actions": ["right", "right", "right", "down", "left"], "actionTimes": [3703, 4488, 5225, 6388, 7518], "queries": {"click": {"state": {"target": [], "time": []}, "edge": {"target": [], "time": []}}, "mouseover": {"state": {"target": [], "time": []}, "edge": {"target": [], "time": []}}, "mouseout": {"state": {"target": [], "time": []}, "edge": {"target": [], "time": []}}}, "displayed_time": "15.17", "trialTime": 19296, "trial_type": "mouselab-mdp", "trial_index": 15, "time_elapsed": 573230, "internal_node_id": "0.0-6.0-1.0-6.0"}}, {"uniqueid": "w58795616:a20402600", "current_trial": 16, "dateTime": 1693389476869, "trialdata": {"revealed_states": [], "clicked_states": [], "num_clicks_accrued": [0, 0, 0, 0, 0, 0, 0, 0, 0, 0, 0, 0, 0], "stateRewards": ["", -2, -3, -6, -7, 9, 16, 65, 5, -41, 20, -25, -1, -4, 1, -11, -49, -4, 71, 1, 39, -62, 52, -2, -3, 7, -9, -28, -70, 84, 8, 24, -58, 82], "withholdReward": false, "trial_id": "mdp_trial_8", "block": "test", "trialIndex": 9, "score": 92, "costs": 0, "simulationMode": [null, null, null, null, null], "rewards": [-2, -3, 7, 8, 82], "path": ["0", "0", "23", "24", "25", "30", "33"], "rt": [1861, 195, 308, 115, 316], "actions": ["left", "left", "left", "down", "left"], "actionTimes": [2832, 3531, 4362, 4983, 5816], "queries": {"click": {"state": {"target": [], "time": []}, "edge": {"target": [], "time": []}}, "mouseover": {"state": {"target": [], "time": []}, "edge": {"target": [], "time": []}}, "mouseout": {"state": {"target": [], "time": []}, "edge": {"target": [], "time": []}}}, "displayed_time": "14.97", "trialTime": 17672, "trial_type": "mouselab-mdp", "trial_index": 16, "time_elapsed": 591152, "internal_node_id": "0.0-6.0-1.0-7.0"}}, {"uniqueid": "w58795616:a20402600", "current_trial": 17, "dateTime": 1693389494687, "trialdata": {"revealed_states": [], "clicked_states": [], "num_clicks_accrued": [0, 0, 0, 0, 0, 0, 0, 0, 0, 0, 0, 0, 0], "stateRewards": ["", -1, 1, 8, -3, -24, 11, -65, -6, -77, 48, 44, -2, 1, -2, -7, -55, -35, 33, 8, -28, 19, -53, -1, -1, -5, -5, -70, 10, 44, 8, -58, -70, 51], "withholdReward": false, "trial_id": "mdp_trial_9", "block": "test", "trialIndex": 10, "score": 52, "costs": 0, "simulationMode": [null, null, null, null, null], "rewards": [-1, -1, -5, 8, 51], "path": ["0", "0", "23", "24", "25", "30", "33"], "rt": [1803, 249, 220, 145, 283], "actions": ["left", "left", "left", "down", "left"], "actionTimes": [3394, 4163, 4897, 5558, 6359], "queries": {"click": {"state": {"target": [], "time": []}, "edge": {"target": [], "time": []}}, "mouseover": {"state": {"target": ["0"], "time": [2978]}, "edge": {"target": [], "time": []}}, "mouseout": {"state": {"target": ["0"], "time": [2727]}, "edge": {"target": [], "time": []}}}, "displayed_time": "15.59", "trialTime": 17570, "trial_type": "mouselab-mdp", "trial_index": 17, "time_elapsed": 608971, "internal_node_id": "0.0-6.0-1.0-8.0"}}, {"uniqueid": "w58795616:a20402600", "current_trial": 18, "dateTime": 1693389512463, "trialdata": {"revealed_states": [], "clicked_states": [], "num_clicks_accrued": [0, 0, 0, 0, 0, 0, 0, 0, 0, 0, 0, 0, 0], "stateRewards": ["", 1, 1, -5, 8, -6, 45, 16, -6, -7, -22, -38, -1, -4, 8, -11, -16, 21, -45, -15, -59, -32, 42, -1, 3, 6, 11, -7, 34, -27, -8, 85, 43, -9], "withholdReward": false, "trial_id": "mdp_trial_10", "block": "test", "trialIndex": 11, "score": -9, "costs": 0, "simulationMode": [null, null, null, null, null], "rewards": [-1, 3, 6, -8, -9], "path": ["0", "0", "23", "24", "25", "30", "33"], "rt": [815, 271, 141, 114, 500], "actions": ["left", "left", "left", "down", "left"], "actionTimes": [1856, 2628, 3282, 3905, 4924], "queries": {"click": {"state": {"target": [], "time": []}, "edge": {"target": [], "time": []}}, "mouseover": {"state": {"target": [], "time": []}, "edge": {"target": [], "time": []}}, "mouseout": {"state": {"target": [], "time": []}, "edge": {"target": [], "time": []}}}, "displayed_time": "15.04", "trialTime": 17511, "trial_type": "mouselab-mdp", "trial_index": 18, "time_elapsed": 626746, "internal_node_id": "0.0-6.0-1.0-9.0"}}, {"uniqueid": "w58795616:a20402600", "current_trial": 19, "dateTime": 1693389532149, "trialdata": {"revealed_states": [], "clicked_states": [], "num_clicks_accrued": [0, 0, 0, 0, 0, 0, 0, 0, 0, 0, 0, 0, 0], "stateRewards": ["", -2, -3, 1, -7, 39, -67, 16, 5, -20, 73, 66, -1, 4, 5, -3, 23, -68, -87, -8, 3, -3, 17, 1, -4, -2, -13, -32, 34, 61, -5, -11, -18, 12], "withholdReward": false, "trial_id": "mdp_trial_11", "block": "test", "trialIndex": 12, "score": 2, "costs": 0, "simulationMode": [null, null, null, null, null], "rewards": [1, -4, -2, -5, 12], "path": ["0", "0", "23", "24", "25", "30", "33"], "rt": [2696, 179, 254, 204, 4883], "actions": ["left", "left", "left", "down", "left"], "actionTimes": [5603, 6292, 7066, 7782, 13179], "queries": {"click": {"state": {"target": [], "time": []}, "edge": {"target": [], "time": []}}, "mouseover": {"state": {"target": ["0", "8"], "time": [3197, 3294]}, "edge": {"target": [], "time": []}}, "mouseout": {"state": {"target": ["0", "0", "8", "20", "19", "22", "12", "0", "23"], "time": [2164, 3273, 3309, 11040, 11075, 11190, 11240, 11263, 11743]}, "edge": {"target": [], "time": []}}}, "displayed_time": "16.91", "trialTime": 19457, "trial_type": "mouselab-mdp", "trial_index": 19, "time_elapsed": 646433, "internal_node_id": "0.0-6.0-1.0-10.0"}}, {"uniqueid": "w58795616:a20402600", "current_trial": 20, "dateTime": 1693389555628, "trialdata": {"revealed_states": [], "clicked_states": [], "num_clicks_accrued": [0, 0, 0, 0, 0, 0, 0, 0, 0, 0, 0, 0, 0], "stateRewards": ["", 1, 1, 5, 6, -29, -7, 3, -16, 9, -46, 65, -1, 4, -1, -16, -63, -77, -87, 8, 80, -50, 43, -1, -1, -5, 5, -38, -71, -62, 9, 81, -50, -52], "withholdReward": false, "trial_id": "mdp_trial_12", "block": "test", "trialIndex": 13, "score": -50, "costs": 0, "simulationMode": [null, null, null, null, null], "rewards": [-1, -1, -5, 9, -52], "path": ["0", "0", "23", "24", "25", "30", "33"], "rt": [1367, 205, 153, 91, 204], "actions": ["left", "left", "left", "down", "left"], "actionTimes": [4250, 4966, 5630, 6234, 6949], "queries": {"click": {"state": {"target": [], "time": []}, "edge": {"target": [], "time": []}}, "mouseover": {"state": {"target": [], "time": []}, "edge": {"target": [], "time": []}}, "mouseout": {"state": {"target": [], "time": []}, "edge": {"target": [], "time": []}}}, "displayed_time": "16.89", "trialTime": 23256, "trial_type": "mouselab-mdp", "trial_index": 20, "time_elapsed": 669912, "internal_node_id": "0.0-6.0-1.0-11.0"}}, {"uniqueid": "w58795616:a20402600", "current_trial": 21, "dateTime": 1693389573426, "trialdata": {"revealed_states": [], "clicked_states": [], "num_clicks_accrued": [0, 0, 0, 0, 0, 0, 0, 0, 0, 0, 0, 0, 0], "stateRewards": ["", 2, -1, -4, -13, 74, 77, 3, 2, -43, -2, -11, 2, 3, 7, 11, -26, -29, -33, -3, -3, -13, -3, 1, 3, -7, 14, -59, 33, 9, -5, 34, 79, 68], "withholdReward": false, "trial_id": "mdp_trial_13", "block": "test", "trialIndex": 14, "score": 26, "costs": 0, "simulationMode": [null, null, null, null, null], "rewards": [1, 3, -7, -5, 34], "path": ["0", "0", "23", "24", "25", "30", "31"], "rt": [1123, 196, 200, 133, 202], "actions": ["left", "left", "left", "down", "right"], "actionTimes": [2221, 2940, 3661, 4310, 5028], "queries": {"click": {"state": {"target": [], "time": []}, "edge": {"target": [], "time": []}}, "mouseover": {"state": {"target": [], "time": []}, "edge": {"target": [], "time": []}}, "mouseout": {"state": {"target": [], "time": []}, "edge": {"target": [], "time": []}}}, "displayed_time": "15.10", "trialTime": 17557, "trial_type": "mouselab-mdp", "trial_index": 21, "time_elapsed": 687710, "internal_node_id": "0.0-6.0-1.0-12.0"}}, {"uniqueid": "w58795616:a20402600", "current_trial": 22, "dateTime": 1693389591341, "trialdata": {"revealed_states": [], "clicked_states": [], "num_clicks_accrued": [0, 0, 0, 0, 0, 0, 0, 0, 0, 0, 0, 0, 0], "stateRewards": ["", 1, -3, -1, 9, -34, -40, 22, -7, 45, 53, -11, 2, 4, 5, 15, 21, 37, -49, -3, 80, -28, -34, 1, -3, 1, 1, -40, -6, -5, -16, -85, -86, 59], "withholdReward": false, "trial_id": "mdp_trial_14", "block": "test", "trialIndex": 15, "score": -103, "costs": 0, "simulationMode": [null, null, null, null, null], "rewards": [1, -3, 1, -16, -86], "path": ["0", "0", "23", "24", "25", "30", "32"], "rt": [1095, 141, 216, 16, 101], "actions": ["left", "left", "left", "down", "down"], "actionTimes": [2632, 3291, 4016, 4551, 5184], "queries": {"click": {"state": {"target": [], "time": []}, "edge": {"target": [], "time": []}}, "mouseover": {"state": {"target": [], "time": []}, "edge": {"target": [], "time": []}}, "mouseout": {"state": {"target": [], "time": []}, "edge": {"target": [], "time": []}}}, "displayed_time": "15.54", "trialTime": 17665, "trial_type": "mouselab-mdp", "trial_index": 22, "time_elapsed": 705625, "internal_node_id": "0.0-6.0-1.0-13.0"}}, {"uniqueid": "w58795616:a20402600", "current_trial": 23, "dateTime": 1693389610963, "trialdata": {"revealed_states": [], "clicked_states": [], "num_clicks_accrued": [0, 0, 0, 0, 0, 0, 0, 0, 0, 0, 0, 0, 0], "stateRewards": ["", -1, 1, -2, 5, 73, 15, 61, 8, 7, 38, 76, 2, 2, -4, -6, -6, -26, 43, -5, -45, -85, -35, -2, 1, -4, 15, -10, 69, 72, -11, 84, -49, -38], "withholdReward": false, "trial_id": "mdp_trial_15", "block": "test", "trialIndex": 16, "score": -65, "costs": 0, "simulationMode": [null, null, null, null, null], "rewards": [-2, 1, -4, -11, -49], "path": ["0", "0", "23", "24", "25", "30", "32"], "rt": [902, 111, 180, 38, 103], "actions": ["left", "left", "left", "down", "down"], "actionTimes": [2820, 3450, 4149, 4706, 5320], "queries": {"click": {"state": {"target": [], "time": []}, "edge": {"target": [], "time": []}}, "mouseover": {"state": {"target": [], "time": []}, "edge": {"target": [], "time": []}}, "mouseout": {"state": {"target": [], "time": []}, "edge": {"target": [], "time": []}}}, "displayed_time": "15.92", "trialTime": 19358, "trial_type": "mouselab-mdp", "trial_index": 23, "time_elapsed": 725246, "internal_node_id": "0.0-6.0-1.0-14.0"}}, {"uniqueid": "w58795616:a20402600", "current_trial": 24, "dateTime": 1693389628647, "trialdata": {"revealed_states": [], "clicked_states": [], "num_clicks_accrued": [0, 0, 0, 0, 0, 0, 0, 0, 0, 0, 0, 0, 0], "stateRewards": ["", -2, 2, -1, -6, 22, 6, 6, -5, 70, -42, 65, 1, 3, 5, -6, -67, -9, 3, 14, 7, -62, -13, -2, 4, 1, 16, 42, -21, -52, -8, 32, 53, 81], "withholdReward": false, "trial_id": "mdp_trial_16", "block": "test", "trialIndex": 17, "score": 76, "costs": 0, "simulationMode": [null, null, null, null, null], "rewards": [-2, 4, 1, -8, 81], "path": ["0", "0", "23", "24", "25", "30", "33"], "rt": [883, 116, 209, 911, 157], "actions": ["left", "left", "left", "down", "left"], "actionTimes": [2060, 2677, 3404, 4822, 5486], "queries": {"click": {"state": {"target": [], "time": []}, "edge": {"target": [], "time": []}}, "mouseover": {"state": {"target": [], "time": []}, "edge": {"target": [], "time": []}}, "mouseout": {"state": {"target": [], "time": []}, "edge": {"target": [], "time": []}}}, "displayed_time": "15.18", "trialTime": 17423, "trial_type": "mouselab-mdp", "trial_index": 24, "time_elapsed": 742930, "internal_node_id": "0.0-6.0-1.0-15.0"}}, {"uniqueid": "w58795616:a20402600", "current_trial": 25, "dateTime": 1693389652472, "trialdata": {"revealed_states": [], "clicked_states": [], "num_clicks_accrued": [0, 0, 0, 0, 0, 0, 0, 0, 0, 0, 0, 0, 0], "stateRewards": ["", -2, -1, -3, -1, -78, -6, 2, -1, 22, -88, 32, 2, 2, -7, -8, -51, -17, 54, 2, -44, 54, 75, 2, -2, -8, -15, -29, 12, -67, 15, -1, -47, -47], "withholdReward": false, "trial_id": "mdp_trial_17", "block": "test", "trialIndex": 18, "score": -40, "costs": 0, "simulationMode": [null, null, null, null, null], "rewards": [2, -2, -8, 15, -47], "path": ["0", "0", "23", "24", "25", "30", "33"], "rt": [3226, 258, 189, 114, 205], "actions": ["left", "left", "left", "down", "left"], "actionTimes": [4463, 5238, 5936, 6560, 7284], "queries": {"click": {"state": {"target": [], "time": []}, "edge": {"target": [], "time": []}}, "mouseover": {"state": {"target": [], "time": []}, "edge": {"target": [], "time": []}}, "mouseout": {"state": {"target": [], "time": []}, "edge": {"target": [], "time": []}}}, "displayed_time": "15.24", "trialTime": 23558, "trial_type": "mouselab-mdp", "trial_index": 25, "time_elapsed": 766757, "internal_node_id": "0.0-6.0-1.0-16.0"}}, {"uniqueid": "w58795616:a20402600", "current_trial": 26, "dateTime": 1693389674869, "trialdata": {"revealed_states": [], "clicked_states": [], "num_clicks_accrued": [0, 0, 0, 0, 0, 0, 0, 0, 0, 0, 0, 0, 0], "stateRewards": ["", -1, 2, 5, -6, 13, -64, -47, 8, -79, -80, -33, 1, 2, -2, -16, 56, -71, -10, 3, 29, 44, 85, -1, 4, 5, 4, -36, -56, 19, 8, 52, -13, -2], "withholdReward": false, "trial_id": "mdp_trial_18", "block": "test", "trialIndex": 19, "score": 14, "costs": 0, "simulationMode": [null, null, null, null, null], "rewards": [-1, 4, 5, 8, -2], "path": ["0", "0", "23", "24", "25", "30", "33"], "rt": [4413, 420, 214, 387, 454], "actions": ["left", "left", "left", "down", "left"], "actionTimes": [9381, 10300, 11026, 11932, 12899], "queries": {"click": {"state": {"target": [], "time": []}, "edge": {"target": [], "time": []}}, "mouseover": {"state": {"target": [], "time": []}, "edge": {"target": [], "time": []}}, "mouseout": {"state": {"target": [], "time": []}, "edge": {"target": [], "time": []}}}, "displayed_time": "18.97", "trialTime": 22138, "trial_type": "mouselab-mdp", "trial_index": 26, "time_elapsed": 789153, "internal_node_id": "0.0-6.0-1.0-17.0"}}, {"uniqueid": "w58795616:a20402600", "current_trial": 27, "dateTime": 1693389693599, "trialdata": {"revealed_states": [], "clicked_states": [], "num_clicks_accrued": [0, 0, 0, 0, 0, 0, 0, 0, 0, 0, 0, 0, 0], "stateRewards": ["", 1, -3, 4, 13, -72, 52, 5, 5, -58, 5, 14, 2, 1, 3, -14, -86, -4, 73, 6, -58, -50, 49, 2, -3, -4, 2, 33, -41, 42, -11, 81, 45, 53], "withholdReward": false, "trial_id": "mdp_trial_19", "block": "test", "trialIndex": 20, "score": -94, "costs": 0, "simulationMode": [null, null, null, null, null], "rewards": [2, 1, 3, -14, -86], "path": ["0", "0", "12", "13", "14", "15", "16"], "rt": [1379, 192, 295, 1216, 214], "actions": ["right", "right", "right", "up", "up"], "actionTimes": [3564, 4272, 5078, 6812, 7527], "queries": {"click": {"state": {"target": [], "time": []}, "edge": {"target": [], "time": []}}, "mouseover": {"state": {"target": [], "time": []}, "edge": {"target": [], "time": []}}, "mouseout": {"state": {"target": [], "time": []}, "edge": {"target": [], "time": []}}}, "displayed_time": "16.19", "trialTime": 18456, "trial_type": "mouselab-mdp", "trial_index": 27, "time_elapsed": 807883, "internal_node_id": "0.0-6.0-1.0-18.0"}}, {"uniqueid": "w58795616:a20402600", "current_trial": 28, "dateTime": 1693389711373, "trialdata": {"revealed_states": [], "clicked_states": [], "num_clicks_accrued": [0, 0, 0, 0, 0, 0, 0, 0, 0, 0, 0, 0, 0], "stateRewards": ["", -1, -1, 4, -16, -75, 81, -51, -7, -84, 73, -30, -2, 1, -3, -16, -77, 33, 14, 1, 45, 87, -66, 2, 2, -5, -7, -19, -17, 79, -3, 8, 49, 47], "withholdReward": false, "trial_id": "mdp_trial_20", "block": "test", "trialIndex": 21, "score": 67, "costs": 0, "simulationMode": [null, null, null, null, null], "rewards": [-1, -1, 4, -16, 81], "path": ["0", "0", "1", "2", "3", "4", "6"], "rt": [1139, 121, 108, 394, 123], "actions": ["up", "up", "up", "right", "right"], "actionTimes": [2942, 3573, 4191, 5093, 5724], "queries": {"click": {"state": {"target": [], "time": []}, "edge": {"target": [], "time": []}}, "mouseover": {"state": {"target": [], "time": []}, "edge": {"target": [], "time": []}}, "mouseout": {"state": {"target": [], "time": []}, "edge": {"target": [], "time": []}}}, "displayed_time": "15.80", "trialTime": 17504, "trial_type": "mouselab-mdp", "trial_index": 28, "time_elapsed": 825656, "internal_node_id": "0.0-6.0-1.0-19.0"}}, {"uniqueid": "w58795616:a20402600", "current_trial": 29, "dateTime": 1693389731176, "trialdata": {"revealed_states": [], "clicked_states": [], "num_clicks_accrued": [0, 0, 0, 0, 0, 0, 0, 0, 0, 0, 0, 0, 0], "stateRewards": ["", -1, -4, -3, 1, -45, -67, -24, 14, 32, 22, 22, -1, 1, -5, -7, 72, 84, -79, -5, 19, -40, -2, -1, -2, 8, -3, 84, -25, -28, 11, 64, -66, 77], "withholdReward": false, "trial_id": "mdp_trial_21", "block": "test", "trialIndex": 22, "score": -31, "costs": 0, "simulationMode": [null, null, null, null, null], "rewards": [-1, -4, -3, 1, -24], "path": ["0", "0", "1", "2", "3", "4", "7"], "rt": [1568, 303, 160, 59, 296], "actions": ["up", "up", "up", "right", "down"], "actionTimes": [3406, 4224, 4897, 5465, 6281], "queries": {"click": {"state": {"target": [], "time": []}, "edge": {"target": [], "time": []}}, "mouseover": {"state": {"target": [], "time": []}, "edge": {"target": [], "time": []}}, "mouseout": {"state": {"target": [], "time": []}, "edge": {"target": [], "time": []}}}, "displayed_time": "15.84", "trialTime": 19531, "trial_type": "mouselab-mdp", "trial_index": 29, "time_elapsed": 845460, "internal_node_id": "0.0-6.0-1.0-20.0"}}, {"uniqueid": "w58795616:a20402600", "current_trial": 30, "dateTime": 1693389751004, "trialdata": {"revealed_states": [], "clicked_states": [], "num_clicks_accrued": [0, 0, 0, 0, 0, 0, 0, 0, 0, 0, 0, 0, 0], "stateRewards": ["", 2, -3, -8, 14, -7, -51, 73, 2, 36, 36, -43, -1, 3, -4, 1, 6, 87, -65, 15, 61, -42, -83, -1, 3, -2, -7, 30, -48, 35, 13, 26, 60, 78], "withholdReward": false, "trial_id": "mdp_trial_22", "block": "test", "trialIndex": 23, "score": 29, "costs": 0, "simulationMode": [null, null, null, null, null], "rewards": [2, -3, -8, 2, 36], "path": ["0", "0", "1", "2", "3", "8", "9"], "rt": [1258, 277, 232, 70, 1156], "actions": ["up", "up", "up", "left", "up"], "actionTimes": [2953, 3736, 4474, 5063, 6716], "queries": {"click": {"state": {"target": [], "time": []}, "edge": {"target": [], "time": []}}, "mouseover": {"state": {"target": [], "time": []}, "edge": {"target": [], "time": []}}, "mouseout": {"state": {"target": [], "time": []}, "edge": {"target": [], "time": []}}}, "displayed_time": "15.70", "trialTime": 19555, "trial_type": "mouselab-mdp", "trial_index": 30, "time_elapsed": 865289, "internal_node_id": "0.0-6.0-1.0-21.0"}}, {"uniqueid": "w58795616:a20402600", "current_trial": 31, "dateTime": 1693389769586, "trialdata": {"revealed_states": [], "clicked_states": [], "num_clicks_accrued": [0, 0, 0, 0, 0, 0, 0, 0, 0, 0, 0, 0, 0], "stateRewards": ["", -2, 4, -5, -12, 85, -24, -18, -15, -78, -22, 26, -1, -1, 2, 14, -45, 52, -23, 7, -33, 24, -6, -2, -4, 5, -7, -16, 36, -39, 5, 71, -87, -23], "withholdReward": false, "trial_id": "mdp_trial_23", "block": "test", "trialIndex": 24, "score": -96, "costs": 0, "simulationMode": [null, null, null, null, null], "rewards": [-2, 4, -5, -15, -78], "path": ["0", "0", "1", "2", "3", "8", "9"], "rt": [1252, 181, 147, 217, 74], "actions": ["up", "up", "up", "left", "up"], "actionTimes": [3220, 3915, 4582, 5319, 5908], "queries": {"click": {"state": {"target": [], "time": []}, "edge": {"target": [], "time": []}}, "mouseover": {"state": {"target": [], "time": []}, "edge": {"target": [], "time": []}}, "mouseout": {"state": {"target": [], "time": []}, "edge": {"target": [], "time": []}}}, "displayed_time": "15.97", "trialTime": 18314, "trial_type": "mouselab-mdp", "trial_index": 31, "time_elapsed": 883870, "internal_node_id": "0.0-6.0-1.0-22.0"}}, {"uniqueid": "w58795616:a20402600", "current_trial": 32, "dateTime": 1693389788690, "trialdata": {"revealed_states": [], "clicked_states": [], "num_clicks_accrued": [0, 0, 0, 0, 0, 0, 0, 0, 0, 0, 0, 0, 0], "stateRewards": ["", 2, -1, -1, 7, 11, -40, -22, -2, 69, 37, 8, -2, 4, -8, -12, -2, -72, -3, -12, 17, 63, 12, 1, 3, -7, 6, 25, 61, 61, -9, 28, -17, 27], "withholdReward": false, "trial_id": "mdp_trial_24", "block": "test", "trialIndex": 25, "score": 35, "costs": 0, "simulationMode": [null, null, null, null, null], "rewards": [2, -1, -1, -2, 37], "path": ["0", "0", "1", "2", "3", "8", "10"], "rt": [1635, 113, 147, 30, 182], "actions": ["up", "up", "up", "left", "down"], "actionTimes": [3647, 4274, 4941, 5489, 6175], "queries": {"click": {"state": {"target": [], "time": []}, "edge": {"target": [], "time": []}}, "mouseover": {"state": {"target": [], "time": []}, "edge": {"target": [], "time": []}}, "mouseout": {"state": {"target": [], "time": []}, "edge": {"target": [], "time": []}}}, "displayed_time": "16.02", "trialTime": 18814, "trial_type": "mouselab-mdp", "trial_index": 32, "time_elapsed": 902974, "internal_node_id": "0.0-6.0-1.0-23.0"}}, {"uniqueid": "w58795616:a20402600", "current_trial": 33, "dateTime": 1693389806299, "trialdata": {"revealed_states": [], "clicked_states": [], "num_clicks_accrued": [0, 0, 0, 0, 0, 0, 0, 0, 0, 0, 0, 0, 0], "stateRewards": ["", 2, 3, -3, 4, 72, -28, 34, -12, 57, -64, -15, 2, 1, -4, -15, 2, 49, 31, -1, -42, -58, 31, -2, 1, -2, -13, -75, -19, -22, -6, 61, 10, -56], "withholdReward": false, "trial_id": "mdp_trial_25", "block": "test", "trialIndex": 26, "score": -65, "costs": 0, "simulationMode": [null, null, null, null, null], "rewards": [-2, 1, -2, -6, -56], "path": ["0", "0", "23", "24", "25", "30", "33"], "rt": [1278, 116, 161, 127, 147], "actions": ["left", "left", "left", "down", "left"], "actionTimes": [2913, 3544, 4221, 4855, 5508], "queries": {"click": {"state": {"target": [], "time": []}, "edge": {"target": [], "time": []}}, "mouseover": {"state": {"target": [], "time": []}, "edge": {"target": [], "time": []}}, "mouseout": {"state": {"target": [], "time": []}, "edge": {"target": [], "time": []}}}, "displayed_time": "15.64", "trialTime": 17310, "trial_type": "mouselab-mdp", "trial_index": 33, "time_elapsed": 920583, "internal_node_id": "0.0-6.0-1.0-24.0"}}, {"uniqueid": "w58795616:a20402600", "current_trial": 34, "dateTime": 1693389830069, "trialdata": {"revealed_states": [], "clicked_states": [], "num_clicks_accrued": [0, 0, 0, 0, 0, 0, 0, 0, 0, 0, 0, 0, 0], "stateRewards": ["", -1, 2, -6, 6, 43, 78, 78, -2, 55, -29, -17, -2, -4, 1, -15, 13, 7, -79, 8, -28, -68, 36, -1, -3, 3, -16, 84, -18, 87, 10, 32, 13, -81], "withholdReward": false, "trial_id": "mdp_trial_26", "block": "test", "trialIndex": 27, "score": -36, "costs": 0, "simulationMode": [null, null, null, null, null], "rewards": [-1, 2, -6, -2, -29], "path": ["0", "0", "1", "2", "3", "8", "10"], "rt": [1128, 70, 91, 112, 103], "actions": ["up", "up", "up", "left", "down"], "actionTimes": [2713, 3302, 3907, 4528, 5153], "queries": {"click": {"state": {"target": [], "time": []}, "edge": {"target": [], "time": []}}, "mouseover": {"state": {"target": [], "time": []}, "edge": {"target": [], "time": []}}, "mouseout": {"state": {"target": [], "time": []}, "edge": {"target": [], "time": []}}}, "displayed_time": "15.59", "trialTime": 23493, "trial_type": "mouselab-mdp", "trial_index": 34, "time_elapsed": 944354, "internal_node_id": "0.0-6.0-1.0-25.0"}}, {"uniqueid": "w58795616:a20402600", "current_trial": 35, "dateTime": 1693389847869, "trialdata": {"revealed_states": [], "clicked_states": [], "num_clicks_accrued": [0, 0, 0, 0, 0, 0, 0, 0, 0, 0, 0, 0, 0], "stateRewards": ["", -2, 3, -5, -7, 66, 43, -60, -4, -70, -75, 4, -1, 2, 2, -13, 54, 11, -40, -1, 77, 32, 15, -2, 3, -8, -9, -35, 83, -27, 6, -74, -34, 44], "withholdReward": false, "trial_id": "mdp_trial_27", "block": "test", "trialIndex": 28, "score": 43, "costs": 0, "simulationMode": [null, null, null, null, null], "rewards": [-2, 3, -8, 6, 44], "path": ["0", "0", "23", "24", "25", "30", "33"], "rt": [1165, 150, 175, 220, 104], "actions": ["left", "left", "left", "down", "left"], "actionTimes": [2930, 3597, 4290, 5017, 5636], "queries": {"click": {"state": {"target": [], "time": []}, "edge": {"target": [], "time": []}}, "mouseover": {"state": {"target": [], "time": []}, "edge": {"target": [], "time": []}}, "mouseout": {"state": {"target": ["0", "23"], "time": [6405, 6434]}, "edge": {"target": [], "time": []}}}, "displayed_time": "15.77", "trialTime": 17490, "trial_type": "mouselab-mdp", "trial_index": 35, "time_elapsed": 962153, "internal_node_id": "0.0-6.0-1.0-26.0"}}, {"uniqueid": "w58795616:a20402600", "current_trial": 36, "dateTime": 1693389867696, "trialdata": {"revealed_states": [], "clicked_states": [], "num_clicks_accrued": [0, 0, 0, 0, 0, 0, 0, 0, 0, 0, 0, 0, 0], "stateRewards": ["", -1, -3, -6, -2, -7, 80, -45, -3, -38, -72, 76, 2, 1, 7, 4, -62, 14, -74, 14, -87, -21, -88, -2, 1, -7, -10, 66, 56, -76, 10, -29, -72, -70], "withholdReward": false, "trial_id": "mdp_trial_28", "block": "test", "trialIndex": 29, "score": -94, "costs": 0, "simulationMode": [null, null, null, null, null], "rewards": [-2, 1, -7, -10, -76], "path": ["0", "0", "23", "24", "25", "26", "29"], "rt": [1379, 150, 202, 425, 659], "actions": ["left", "left", "left", "up", "left"], "actionTimes": [5331, 5985, 6705, 7643, 8812], "queries": {"click": {"state": {"target": [], "time": []}, "edge": {"target": [], "time": []}}, "mouseover": {"state": {"target": [], "time": []}, "edge": {"target": [], "time": []}}, "mouseout": {"state": {"target": ["33", "30", "24", "1", "18", "0"], "time": [2999, 3085, 3133, 3166, 3350, 3733]}, "edge": {"target": [], "time": []}}}, "displayed_time": "17.95", "trialTime": 19460, "trial_type": "mouselab-mdp", "trial_index": 36, "time_elapsed": 981980, "internal_node_id": "0.0-6.0-1.0-27.0"}}, {"uniqueid": "w58795616:a20402600", "current_trial": 37, "dateTime": 1693389885614, "trialdata": {"revealed_states": [], "clicked_states": [], "num_clicks_accrued": [0, 0, 0, 0, 0, 0, 0, 0, 0, 0, 0, 0, 0], "stateRewards": ["", -2, 3, -1, -9, 44, 48, -37, -3, 71, -39, 87, -1, 3, -4, 4, -21, 59, -15, -8, -1, 28, -38, 2, 4, 4, 8, -85, -72, -63, 14, 58, 63, -46], "withholdReward": false, "trial_id": "mdp_trial_29", "block": "test", "trialIndex": 30, "score": -42, "costs": 0, "simulationMode": [null, null, null, null, null], "rewards": [-2, 3, -1, -3, -39], "path": ["0", "0", "1", "2", "3", "8", "10"], "rt": [1190, 1095, 76, 105, 78], "actions": ["up", "up", "up", "left", "down"], "actionTimes": [3137, 4752, 5330, 5943, 6533], "queries": {"click": {"state": {"target": [], "time": []}, "edge": {"target": [], "time": []}}, "mouseover": {"state": {"target": [], "time": []}, "edge": {"target": [], "time": []}}, "mouseout": {"state": {"target": ["0"], "time": [1776]}, "edge": {"target": [], "time": []}}}, "displayed_time": "15.95", "trialTime": 17635, "trial_type": "mouselab-mdp", "trial_index": 37, "time_elapsed": 999898, "internal_node_id": "0.0-6.0-1.0-28.0"}}, {"uniqueid": "w58795616:a20402600", "current_trial": 38, "dateTime": 1693389908389, "trialdata": {"revealed_states": [], "clicked_states": [], "num_clicks_accrued": [0, 0, 0, 0, 0, 0, 0, 0, 0, 0, 0, 0, 0], "stateRewards": ["", -1, -3, -7, -7, -76, 30, -49, 11, -70, 56, 2, 1, 4, -3, -14, -59, -83, -25, -9, -21, -67, -73, -2, 4, 4, -9, -11, -32, 60, 9, -87, 22, -64], "withholdReward": false, "trial_id": "mdp_trial_30", "block": "test", "trialIndex": 31, "score": 57, "costs": 0, "simulationMode": [null, null, null, null, null], "rewards": [-2, 4, 4, -9, 60], "path": ["0", "0", "23", "24", "25", "26", "29"], "rt": [1040, 225, 135, 797, 51], "actions": ["left", "left", "left", "up", "left"], "actionTimes": [2570, 3302, 3943, 5255, 5809], "queries": {"click": {"state": {"target": [], "time": []}, "edge": {"target": [], "time": []}}, "mouseover": {"state": {"target": [], "time": []}, "edge": {"target": [], "time": []}}, "mouseout": {"state": {"target": ["0"], "time": [1337]}, "edge": {"target": [], "time": []}}}, "displayed_time": "15.53", "trialTime": 22466, "trial_type": "mouselab-mdp", "trial_index": 38, "time_elapsed": 1022673, "internal_node_id": "0.0-6.0-1.0-29.0"}}, {"uniqueid": "w58795616:a20402600", "current_trial": 39, "dateTime": 1693389926136, "trialdata": {"revealed_states": [], "clicked_states": [], "num_clicks_accrued": [0, 0, 0, 0, 0, 0, 0, 0, 0, 0, 0, 0, 0], "stateRewards": ["", -2, 4, -3, -13, 63, -36, 62, 11, 78, 34, -51, 2, -2, 8, -6, -40, -18, 31, 9, 64, 39, 79, 1, 4, -4, 15, -12, 76, 73, -10, -77, 86, -4], "withholdReward": false, "trial_id": "mdp_trial_31", "block": "test", "trialIndex": 32, "score": -41, "costs": 0, "simulationMode": [null, null, null, null, null], "rewards": [-2, 4, -3, 11, -51], "path": ["0", "0", "1", "2", "3", "8", "11"], "rt": [1096, 116, 106, 116, 139], "actions": ["up", "up", "up", "left", "left"], "actionTimes": [2934, 3561, 4183, 4809, 5467], "queries": {"click": {"state": {"target": [], "time": []}, "edge": {"target": [], "time": []}}, "mouseover": {"state": {"target": [], "time": []}, "edge": {"target": [], "time": []}}, "mouseout": {"state": {"target": ["0"], "time": [1663]}, "edge": {"target": [], "time": []}}}, "displayed_time": "15.84", "trialTime": 17452, "trial_type": "mouselab-mdp", "trial_index": 39, "time_elapsed": 1040419, "internal_node_id": "0.0-6.0-1.0-30.0"}}, {"uniqueid": "w58795616:a20402600", "current_trial": 40, "dateTime": 1693389945914, "trialdata": {"revealed_states": [], "clicked_states": [], "num_clicks_accrued": [0, 0, 0, 0, 0, 0, 0, 0, 0, 0, 0, 0, 0], "stateRewards": ["", 1, 2, -8, 9, 18, -83, -11, 6, -64, -48, 17, -2, -2, -5, -3, -24, -3, -86, -2, 48, -41, -22, -2, 4, 7, 8, 81, 13, -48, 10, 61, 19, 57], "withholdReward": false, "trial_id": "mdp_trial_32", "block": "test", "trialIndex": 33, "score": -98, "costs": 0, "simulationMode": [null, null, null, null, null], "rewards": [-2, -2, -5, -3, -86], "path": ["0", "0", "12", "13", "14", "15", "18"], "rt": [808, 173, 110, 917, 449], "actions": ["right", "right", "right", "up", "left"], "actionTimes": [2166, 2844, 3464, 4888, 5837], "queries": {"click": {"state": {"target": [], "time": []}, "edge": {"target": [], "time": []}}, "mouseover": {"state": {"target": [], "time": []}, "edge": {"target": [], "time": []}}, "mouseout": {"state": {"target": ["0"], "time": [1148]}, "edge": {"target": [], "time": []}}}, "displayed_time": "15.36", "trialTime": 19462, "trial_type": "mouselab-mdp", "trial_index": 40, "time_elapsed": 1060197, "internal_node_id": "0.0-6.0-1.0-31.0"}}, {"uniqueid": "w58795616:a20402600", "current_trial": 41, "dateTime": 1693389964454, "trialdata": {"revealed_states": [], "clicked_states": [], "num_clicks_accrued": [0, 0, 0, 0, 0, 0, 0, 0, 0, 0, 0, 0, 0], "stateRewards": ["", -2, 2, -5, 1, 42, -63, -58, -6, 2, 16, 81, -2, 4, 7, -10, 33, 3, -33, -2, -52, -84, -27, 2, -3, -3, 15, -74, -14, -5, -5, -84, 79, -31], "withholdReward": false, "trial_id": "mdp_trial_33", "block": "test", "trialIndex": 34, "score": -40, "costs": 0, "simulationMode": [null, null, null, null, null], "rewards": [2, -3, -3, -5, -31], "path": ["0", "0", "23", "24", "25", "30", "33"], "rt": [2007, 142, 189, 134, 251], "actions": ["left", "left", "left", "down", "left"], "actionTimes": [3697, 4359, 5059, 5701, 6468], "queries": {"click": {"state": {"target": [], "time": []}, "edge": {"target": [], "time": []}}, "mouseover": {"state": {"target": [], "time": []}, "edge": {"target": [], "time": []}}, "mouseout": {"state": {"target": ["0"], "time": [1492]}, "edge": {"target": [], "time": []}}}, "displayed_time": "15.69", "trialTime": 18238, "trial_type": "mouselab-mdp", "trial_index": 41, "time_elapsed": 1078739, "internal_node_id": "0.0-6.0-1.0-32.0"}}, {"uniqueid": "w58795616:a20402600", "current_trial": 42, "dateTime": 1693389987328, "trialdata": {"revealed_states": [], "clicked_states": [], "num_clicks_accrued": [0, 0, 0, 0, 0, 0, 0, 0, 0, 0, 0, 0, 0], "stateRewards": ["", -1, 2, -2, 5, 80, -61, -27, 12, 44, -26, -75, -2, -4, 1, -16, 42, -49, -50, 4, -44, 2, 80, -2, -2, 5, -2, 59, 10, 24, 7, -48, -86, -44], "withholdReward": false, "trial_id": "mdp_trial_34", "block": "test", "trialIndex": 35, "score": 23, "costs": 0, "simulationMode": [null, null, null, null, null], "rewards": [-2, -2, 5, -2, 24], "path": ["0", "0", "23", "24", "25", "26", "29"], "rt": [1698, 131, 122, 130, 85], "actions": ["left", "left", "left", "up", "left"], "actionTimes": [3665, 4314, 4954, 5595, 6202], "queries": {"click": {"state": {"target": [], "time": []}, "edge": {"target": [], "time": []}}, "mouseover": {"state": {"target": [], "time": []}, "edge": {"target": [], "time": []}}, "mouseout": {"state": {"target": ["0"], "time": [null]}, "edge": {"target": [], "time": []}}}, "displayed_time": "15.97", "trialTime": 22480, "trial_type": "mouselab-mdp", "trial_index": 42, "time_elapsed": 1101612, "internal_node_id": "0.0-6.0-1.0-33.0"}}, {"uniqueid": "w58795616:a20402600", "current_trial": 43, "dateTime": 1693390006719, "trialdata": {"revealed_states": [], "clicked_states": [], "num_clicks_accrued": [0, 0, 0, 0, 0, 0, 0, 0, 0, 0, 0, 0, 0], "stateRewards": ["", 2, -4, 1, -12, -59, -53, -74, 16, -88, -66, 66, 1, -2, 8, -9, -14, 22, 25, -1, -39, 47, -14, -1, -1, -2, 1, -4, 52, -26, 15, -7, 46, 43], "withholdReward": false, "trial_id": "mdp_trial_35", "block": "test", "trialIndex": 36, "score": -66, "costs": 0, "simulationMode": [null, null, null, null, null], "rewards": [2, -4, 1, -12, -53], "path": ["0", "0", "1", "2", "3", "4", "6"], "rt": [1759, 140, 144, 312, 182], "actions": ["up", "up", "up", "right", "right"], "actionTimes": [4005, 4652, 5305, 6124, 6810], "queries": {"click": {"state": {"target": [], "time": []}, "edge": {"target": [], "time": []}}, "mouseover": {"state": {"target": [], "time": []}, "edge": {"target": [], "time": []}}, "mouseout": {"state": {"target": [], "time": []}, "edge": {"target": [], "time": []}}}, "displayed_time": "16.25", "trialTime": 19069, "trial_type": "mouselab-mdp", "trial_index": 43, "time_elapsed": 1121002, "internal_node_id": "0.0-6.0-1.0-34.0"}}, {"uniqueid": "w58795616:a20402600", "current_trial": 44, "dateTime": 1693390026537, "trialdata": {"revealed_states": [], "clicked_states": [], "num_clicks_accrued": [0, 0, 0, 0, 0, 0, 0, 0, 0, 0, 0, 0, 0], "stateRewards": ["", -2, 2, 8, -6, -25, 3, 87, 2, -62, -2, 74, -2, -1, 2, -1, 79, 49, -37, -14, 5, 67, -9, -1, 2, -2, 5, 15, 38, 32, -14, -38, -38, 30], "withholdReward": false, "trial_id": "mdp_trial_36", "block": "test", "trialIndex": 37, "score": 15, "costs": 0, "simulationMode": [null, null, null, null, null], "rewards": [-1, 2, -2, -14, 30], "path": ["0", "0", "23", "24", "25", "30", "33"], "rt": [1210, 171, 220, 453, 255], "actions": ["left", "left", "left", "down", "left"], "actionTimes": [3150, 3837, 4570, 5535, 6303], "queries": {"click": {"state": {"target": [], "time": []}, "edge": {"target": [], "time": []}}, "mouseover": {"state": {"target": [], "time": []}, "edge": {"target": [], "time": []}}, "mouseout": {"state": {"target": [], "time": []}, "edge": {"target": [], "time": []}}}, "displayed_time": "15.94", "trialTime": 19513, "trial_type": "mouselab-mdp", "trial_index": 44, "time_elapsed": 1140821, "internal_node_id": "0.0-6.0-1.0-35.0"}}, {"uniqueid": "w58795616:a20402600", "current_trial": 45, "dateTime": 1693390054351, "trialdata": {"revealed_states": [], "clicked_states": [], "num_clicks_accrued": [0, 0, 0, 0, 0, 0, 0, 0, 0, 0, 0, 0, 0], "stateRewards": ["", 1, 2, -3, -6, 50, -7, 7, -7, -80, 21, -1, 2, 2, 4, -1, 33, 84, 1, 14, -53, 81, 6, -2, -2, -3, -9, -87, -38, -59, -5, -74, -3, -71], "withholdReward": false, "trial_id": "mdp_trial_37", "block": "test", "trialIndex": 38, "score": -83, "costs": 0, "simulationMode": [null, null, null, null, null], "rewards": [-2, -2, -3, -5, -71], "path": ["0", "0", "23", "24", "25", "30", "33"], "rt": [945, 567, 179, 239, 108], "actions": ["left", "left", "left", "down", "left"], "actionTimes": [3439, 4513, 5208, 5968, 6586], "queries": {"click": {"state": {"target": [], "time": []}, "edge": {"target": [], "time": []}}, "mouseover": {"state": {"target": [], "time": []}, "edge": {"target": [], "time": []}}, "mouseout": {"state": {"target": [], "time": []}, "edge": {"target": [], "time": []}}}, "displayed_time": "16.50", "trialTime": 27512, "trial_type": "mouselab-mdp", "trial_index": 45, "time_elapsed": 1168635, "internal_node_id": "0.0-6.0-1.0-36.0"}}, {"uniqueid": "w58795616:a20402600", "current_trial": 46, "dateTime": 1693390073210, "trialdata": {"revealed_states": [], "clicked_states": [], "num_clicks_accrued": [0, 0, 0, 0, 0, 0, 0, 0, 0, 0, 0, 0, 0], "stateRewards": ["", 2, -1, -1, -9, -81, -30, 55, -6, 78, 25, 62, 2, 4, -1, 9, -85, 1, -19, 1, -60, 12, -34, 1, 4, -1, -13, -24, -16, -83, -8, 16, 43, 9], "withholdReward": false, "trial_id": "mdp_trial_38", "block": "test", "trialIndex": 39, "score": -39, "costs": 0, "simulationMode": [null, null, null, null, null], "rewards": [2, -1, -1, -9, -30], "path": ["0", "0", "1", "2", "3", "4", "6"], "rt": [1155, 93, 140, 51, 85], "actions": ["up", "up", "up", "right", "right"], "actionTimes": [3456, 4055, 4709, 5280, 5897], "queries": {"click": {"state": {"target": [], "time": []}, "edge": {"target": [], "time": []}}, "mouseover": {"state": {"target": [], "time": []}, "edge": {"target": [], "time": []}}, "mouseout": {"state": {"target": [], "time": []}, "edge": {"target": [], "time": []}}}, "displayed_time": "16.30", "trialTime": 18494, "trial_type": "mouselab-mdp", "trial_index": 46, "time_elapsed": 1187495, "internal_node_id": "0.0-6.0-1.0-37.0"}}, {"uniqueid": "w58795616:a20402600", "current_trial": 47, "dateTime": 1693390091885, "trialdata": {"revealed_states": [], "clicked_states": [], "num_clicks_accrued": [0, 0, 0, 0, 0, 0, 0, 0, 0, 0, 0, 0, 0], "stateRewards": ["", -2, 2, 5, -14, -56, 64, 84, -5, 52, 39, 85, -2, 1, 7, 8, 21, 29, -78, -9, -10, -69, 10, -2, -1, -7, 15, 72, 20, 41, -2, 52, 80, 22], "withholdReward": false, "trial_id": "mdp_trial_39", "block": "test", "trialIndex": 40, "score": 10, "costs": 0, "simulationMode": [null, null, null, null, null], "rewards": [-2, -1, -7, -2, 22], "path": ["0", "0", "23", "24", "25", "30", "33"], "rt": [1048, 153, 154, 194, 159], "actions": ["left", "left", "left", "down", "left"], "actionTimes": [2998, 3667, 4335, 5041, 5706], "queries": {"click": {"state": {"target": [], "time": []}, "edge": {"target": [], "time": []}}, "mouseover": {"state": {"target": [], "time": []}, "edge": {"target": [], "time": []}}, "mouseout": {"state": {"target": [], "time": []}, "edge": {"target": [], "time": []}}}, "displayed_time": "15.95", "trialTime": 18358, "trial_type": "mouselab-mdp", "trial_index": 47, "time_elapsed": 1206169, "internal_node_id": "0.0-6.0-1.0-38.0"}}, {"uniqueid": "w58795616:a20402600", "current_trial": 48, "dateTime": 1693390117420, "trialdata": {"revealed_states": [], "clicked_states": [], "num_clicks_accrued": [0, 0, 0, 0, 0, 0, 0, 0, 0, 0, 0, 0, 0], "stateRewards": ["", -2, -3, 1, -14, 48, -49, 67, -1, -35, -48, 3, -2, 1, -4, -5, 86, -84, 39, 1, 48, 41, -42, -1, -4, 2, -7, 18, -86, 17, 7, -9, 57, -69], "withholdReward": false, "trial_id": "mdp_trial_40", "block": "test", "trialIndex": 41, "score": -65, "costs": 0, "simulationMode": [null, null, null, null, null], "rewards": [-1, -4, 2, 7, -69], "path": ["0", "0", "23", "24", "25", "30", "33"], "rt": [927, 155, 137, 91, 122], "actions": ["left", "left", "left", "down", "left"], "actionTimes": [2835, 3521, 4169, 4775, 5404], "queries": {"click": {"state": {"target": [], "time": []}, "edge": {"target": [], "time": []}}, "mouseover": {"state": {"target": [], "time": []}, "edge": {"target": [], "time": []}}, "mouseout": {"state": {"target": [], "time": []}, "edge": {"target": [], "time": []}}}, "displayed_time": "15.91", "trialTime": 25229, "trial_type": "mouselab-mdp", "trial_index": 48, "time_elapsed": 1231704, "internal_node_id": "0.0-6.0-1.0-39.0"}}, {"uniqueid": "w58795616:a20402600", "current_trial": 49, "dateTime": 1693390167088, "trialdata": {"rt": 49652, "response": {"Q0": "$-2 to $2", "Q1": "$-16 to $16", "Q2": "$-16 to $16", "Q3": "The cost for clicking on nodes varied between nodes.", "Q4": "Slightly motivated"}, "question_order": [0, 1, 2, 3, 4], "trial_id": "final_quiz_control", "trial_type": "survey-multi-choice", "trial_index": 49, "time_elapsed": 1281373, "internal_node_id": "0.0-6.0-2.0"}}, {"uniqueid": "w58795616:a20402600", "current_trial": 50, "dateTime": 1693390244433, "trialdata": {"rt": 77326, "response": {"Q0": "to follow the pattern that brought me the most positive amounts and then choose those mostly.", "Q1": "no I don't think i did. I was trying to figure out which directions gave me more and which lost me more.", "Q2": "very difficult"}, "trial_id": "self_report_control", "trial_type": "survey-text", "trial_index": 50, "time_elapsed": 1358718, "internal_node_id": "0.0-6.0-3.0"}}, {"uniqueid": "w58795616:a20402600", "current_trial": 51, "dateTime": 1693390292651, "trialdata": {"rt": 48206, "response": {"gender": "female", "age": "33", "colorblind": "0", "effort": "0"}, "trial_type": "survey-html-form", "trial_index": 51, "time_elapsed": 1406936, "internal_node_id": "0.0-6.0-4.0"}}, {"uniqueid": "w58795616:a20402600", "current_trial": 52, "dateTime": 1693390348195, "trialdata": {"rt": 55536, "response": {"Q0": "yes, i did not know where to reveal a node before clicking on it", "Q1": "no i have never participate in the Web of Cash HIT game.", "Q2": "none."}, "trial_type": "survey-text", "trial_index": 52, "time_elapsed": 1462480, "internal_node_id": "0.0-6.0-5.0"}}, {"uniqueid": "w58795616:a20402600", "current_trial": 53, "dateTime": 1693390407252, "trialdata": {"rt": 59041, "stimulus": "<h1>Completion Code Instructions (1/2)</h1>\n<br><br><br><br>\nYou have reached the end of the experiment! The completion code consists of two parts: (1) a code with 2 characters (2) a code with 6 characters. On this page, you will receive the second part of the code. The first part of the completion code will be on the next page.\n<br><br>\nThe second part of your completion code is: <b>EWEK22</b>\n<br><br>\nPlease note this down. Then, press 'Finish HIT' in order to find the first part of your completion code. Once the data has been saved, you will receive this code either in this window or in the original browser window where you started the experiment.\n", "response": 0, "trial_type": "html-button-response", "trial_index": 53, "time_elapsed": 1521537, "internal_node_id": "0.0-6.0-6.0"}}, {"uniqueid": "w58795616:a20402600", "current_trial": 54, "dateTime": 1693390408257, "trialdata": {"success": true, "trial_type": "fullscreen", "trial_index": 54, "time_elapsed": 1522542, "internal_node_id": "0.0-7.0"}}], "questiondata": {"params": {"CODE": "C6DMOQA6", "MIN_TIME": 14, "inspectCost": 1, "startTime": "Wed Aug 30 2023 11:48:03 GMT+0200 (South Africa Standard Time)", "bonusRate": 0.002, "variance": "1_2_4_8_44", "branching": "31123"}, "final_score": -640}, "eventdata": [{"eventtype": "initialized", "value": null, "timestamp": 1693388883073, "interval": 0}, {"eventtype": "window_resize", "value": [1032, 600], "timestamp": 1693388883073, "interval": 0}, {"eventtype": "window_resize", "value": [1032, 600], "timestamp": 1693388883565, "interval": 492}, {"eventtype": "focus", "value": "off", "timestamp": 1693388896280, "interval": 12715}, {"eventtype": "focus", "value": "on", "timestamp": 1693388904138, "interval": 7858}, {"eventtype": "window_resize", "value": [1280, 720], "timestamp": 1693388910327, "interval": 6189}, {"eventtype": "window_resize", "value": [1422, 800], "timestamp": 1693389431893, "interval": 521566}, {"eventtype": "window_resize", "value": [1600, 900], "timestamp": 1693389433616, "interval": 1723}, {"eventtype": "window_resize", "value": [1290, 750], "timestamp": 1693390407550, "interval": 973934}], "useragent": "Mozilla/5.0 (Windows NT 10.0; Win64; x64) AppleWebKit/537.36 (KHTML, like Gecko) Chrome/116.0.0.0 Safari/537.36", "mode": "live", "id": "w58795616:a20402600", "status": "user data saved", "Beginhit": "2023-08-30 09:47:59.304304", "Beginexp": "2023-08-30 09:48:30.848805", "Endhit": "2023-08-30 10:13:29.1428", "psiturkStatus": 3, "browser": "<redacted>", "platform": "windows", "language": "en-US"}