{"condition": 1, "counterbalance": 0, "assignmentId": "a51456676", "workerId": "w11616808", "hitId": "h10437072", "currenttrial": 10, "bonus": 0, "data": [{"uniqueid": "w11616808:a51456676", "current_trial": 0, "dateTime": 1691484137015, "trialdata": {"success": true, "trial_type": "fullscreen", "trial_index": 0, "time_elapsed": 1523, "internal_node_id": "0.0-0.0"}}, {"uniqueid": "w11616808:a51456676", "current_trial": 1, "dateTime": 1691484137582, "trialdata": {"view_history": [{"page_index": 0, "viewing_time": 564}], "rt": 564, "trial_id": "exp_instructions_misaligned", "trial_type": "instructions", "trial_index": 1, "time_elapsed": 2090, "internal_node_id": "0.0-1.0"}}, {"uniqueid": "w11616808:a51456676", "current_trial": 2, "dateTime": 1691484139554, "trialdata": {"success": true, "trial_type": "fullscreen", "trial_index": 2, "time_elapsed": 4062, "internal_node_id": "0.0-2.0-0.0"}}, {"uniqueid": "w11616808:a51456676", "current_trial": 3, "dateTime": 1691484148123, "trialdata": {"view_history": [{"page_index": 0, "viewing_time": 1269}, {"page_index": 1, "viewing_time": 1099}, {"page_index": 2, "viewing_time": 1154}, {"page_index": 3, "viewing_time": 1554}, {"page_index": 2, "viewing_time": 527}, {"page_index": 1, "viewing_time": 1763}, {"page_index": 2, "viewing_time": 456}, {"page_index": 3, "viewing_time": 746}], "rt": 8568, "trial_id": "mouselab_instructions_1_misaligned", "trial_type": "instructions", "trial_index": 3, "time_elapsed": 12631, "internal_node_id": "0.0-2.0-1.0"}}, {"uniqueid": "w11616808:a51456676", "current_trial": 4, "dateTime": 1691484154924, "trialdata": {"revealed_states": [], "clicked_states": ["12"], "num_clicks_accrued": [0, 0, 0, 0, 0, 0, 0, 0, 0, 0, 0, 0, 0], "stateRewards": ["", 10, -10, -10, -10, -10, 10, 10, 10, -10, -10, 10, -10, -10, 10, 10, -10, -10, 10, -10, 10, 10, -10, 10, -10, 10, -10, -10, -10, -10, -10, 10, -10, 10], "withholdReward": false, "trial_id": "practice_1", "block": "test", "trialIndex": 0, "score": -7, "costs": -0.5, "simulationMode": [null, null, null, null, null], "rewards": [-10, -10, 10, 10, -10], "path": ["0", "0", "12", "13", "14", "15", "16"], "rt": [1914, 83, 18, 31, 1025], "actions": ["right", "right", "right", "up", "up"], "actionTimes": [2443, 3042, 3578, 4122, 5649], "queries": {"click": {"state": {"target": ["12"], "time": [1159]}, "edge": {"target": [], "time": []}}, "mouseover": {"state": {"target": ["0", "12", "13"], "time": [693, 1077, 1576]}, "edge": {"target": [], "time": []}}, "mouseout": {"state": {"target": ["0", "12", "13"], "time": [728, 1278, 5638]}, "edge": {"target": [], "time": []}}}, "displayed_time": "6.17", "trialTime": 6418, "trial_type": "mouselab-mdp", "trial_index": 4, "time_elapsed": 19432, "internal_node_id": "0.0-2.0-2.0-0.0"}}, {"uniqueid": "w11616808:a51456676", "current_trial": 5, "dateTime": 1691484159252, "trialdata": {"revealed_states": [], "clicked_states": [], "num_clicks_accrued": [0, 0, 0, 0, 0, 0, 0, 0, 0, 0, 0, 0, 0], "stateRewards": ["", 10, 10, 10, 10, 10, 10, -10, 10, -10, 10, -10, -10, 10, 10, -10, -10, 10, -10, 10, -10, -10, -10, -10, 10, 10, -10, -10, 10, -10, 10, -10, 10, -10], "withholdReward": false, "trial_id": "practice_2", "block": "test", "trialIndex": 1, "score": -6.5, "costs": 0, "simulationMode": [null, null, null, null, null], "rewards": [-10, 10, 10, -10, -10], "path": ["0", "0", "12", "13", "14", "15", "16"], "rt": [448, 111, 13, 103, 177], "actions": ["right", "right", "right", "up", "up"], "actionTimes": [1014, 1647, 2166, 2790, 3478], "queries": {"click": {"state": {"target": [], "time": []}, "edge": {"target": [], "time": []}}, "mouseover": {"state": {"target": [], "time": []}, "edge": {"target": [], "time": []}}, "mouseout": {"state": {"target": [], "time": []}, "edge": {"target": [], "time": []}}}, "displayed_time": "3.99", "trialTime": 4095, "trial_type": "mouselab-mdp", "trial_index": 5, "time_elapsed": 23760, "internal_node_id": "0.0-2.0-2.0-1.0"}}, {"uniqueid": "w11616808:a51456676", "current_trial": 6, "dateTime": 1691484162483, "trialdata": {"view_history": [{"page_index": 0, "viewing_time": 2461}, {"page_index": 1, "viewing_time": 768}], "rt": 3229, "trial_id": "mouselab_instructions_2_misaligned", "trial_type": "instructions", "trial_index": 6, "time_elapsed": 26991, "internal_node_id": "0.0-2.0-3.0"}}, {"uniqueid": "w11616808:a51456676", "current_trial": 7, "dateTime": 1691484180485, "trialdata": {"rt": 18001, "response": {"Q0": "The cost for clicking on nodes may vary between nodes.", "Q1": "The better I perform the higher my bonus will be.", "Q2": "No, the amount of cash at each node of the web may be different each time.", "Q3": "To get the highest total score.", "Q4": "Only before moving the spider.", "Q5": "3 seconds"}, "question_order": [0, 1, 2, 3, 4, 5], "correct": {"Q0": "The cost for clicking on nodes may vary between nodes.", "Q1": "The better I perform the higher my bonus will be.", "Q2": "No, the amount of cash at each node of the web may be different each time.", "Q3": "To get the highest total score.", "Q4": "Only before moving the spider.", "Q5": "3 seconds"}, "trial_id": "mouselab_quiz_misaligned", "trial_type": "survey-multi-choice", "trial_index": 7, "time_elapsed": 44993, "internal_node_id": "0.0-2.0-4.0"}}, {"uniqueid": "w11616808:a51456676", "current_trial": 8, "dateTime": 1691484181146, "trialdata": {"rt": 657, "stimulus": "\n<h1> Get ready to start the game! </h1>\n\nThank you for reading the instructions. Get ready start with the 40 rounds of this game.\n<br><br>\nIf you need to take a break, feel free to take one after the end of a round, before continuing to the next one.\n<br><br>\nRemember, the more money the spider gets, the bigger your bonus will be!\n<br><br>\n<div style='text-align: center;'>Press <code>space</code> to begin.</div>\n\n<br><br>\n(If, at any point, the <code>space</code> key does not take you to the next page, click once on the text and try again.)", "response": " ", "trial_id": "mdp_ready", "trial_type": "html-keyboard-response", "trial_index": 8, "time_elapsed": 45654, "internal_node_id": "0.0-4.0-0.0"}}, {"uniqueid": "w11616808:a51456676", "current_trial": 9, "dateTime": 1691484196764, "trialdata": {"revealed_states": [], "clicked_states": ["12", "18"], "num_clicks_accrued": [0, 0, 0, 0, 0, 0, 0, 0, 0, 0, 0, 0, 0], "stateRewards": ["", 2, -1, -3, 16, -3, -16, -62, -1, 13, -26, 43, -1, 4, 3, -9, -54, -37, -3, -12, -71, -68, -57, 1, -3, 2, -9, 2, -2, -9, -11, 84, -52, 55], "withholdReward": false, "trial_id": "mdp_trial_1", "block": "test", "trialIndex": 2, "score": -75.9, "costs": -1.9, "simulationMode": [null, null, null, null, null, null], "rewards": [-1, 4, 3, -12, -68], "path": ["0", "0", "12", "13", "14", "19", "21"], "rt": [2225, 215, 161, 115, 181, 68], "actions": ["right", "right", "right", "right", "down", "down"], "actionTimes": [3027, 3244, 3937, 4577, 5273, 5857], "queries": {"click": {"state": {"target": ["12", "18"], "time": [1227, 1683]}, "edge": {"target": [], "time": []}}, "mouseover": {"state": {"target": ["12", "18"], "time": [1159, 1607]}, "edge": {"target": [], "time": []}}, "mouseout": {"state": {"target": ["3", "2", "1", "12", "18", "13"], "time": [493, 507, 557, 1280, 1872, 6588]}, "edge": {"target": [], "time": []}}}, "displayed_time": "14.80", "trialTime": 15345, "trial_type": "mouselab-mdp", "trial_index": 9, "time_elapsed": 61271, "internal_node_id": "0.0-4.0-1.0-0.0"}}], "questiondata": {"params": {"CODE": "C6DMOQA6", "MIN_TIME": 14, "inspectCost": 1, "startTime": "Tue Aug 08 2023 10:42:14 GMT+0200 (Central European Summer Time)", "bonusRate": 0.002, "variance": "1_2_4_8_44", "branching": "31123"}}, "eventdata": [{"eventtype": "initialized", "value": null, "timestamp": 1691484134463, "interval": 0}, {"eventtype": "window_resize", "value": [1024, 740], "timestamp": 1691484134463, "interval": 0}, {"eventtype": "window_resize", "value": [1024, 740], "timestamp": 1691484134783, "interval": 320}, {"eventtype": "window_resize", "value": [1440, 900], "timestamp": 1691484136263, "interval": 1480}, {"eventtype": "focus", "value": "off", "timestamp": 1691484173272, "interval": 37009}, {"eventtype": "focus", "value": "on", "timestamp": 1691484178486, "interval": 5214}], "useragent": "Mozilla/5.0 (Macintosh; Intel Mac OS X 10_15_7) AppleWebKit/537.36 (KHTML, like Gecko) Chrome/115.0.0.0 Safari/537.36", "mode": "debug", "id": "w11616808:a51456676", "status": "user data saved", "Beginhit": "2023-08-08 08:42:13.903643", "Beginexp": "2023-08-08 08:42:17.161757", "Endhit": null, "psiturkStatus": 2, "browser": "<redacted>", "platform": "macos", "language": "en-US", "excludeReason": "dataincomplete"}