{"condition": 1, "counterbalance": 0, "assignmentId": "a83083941", "workerId": "w12322810", "hitId": "h56570636", "currenttrial": 68, "bonus": 0, "data": [{"uniqueid": "w12322810:a83083941", "current_trial": 0, "dateTime": 1693481662024, "trialdata": {"success": true, "trial_type": "fullscreen", "trial_index": 0, "time_elapsed": 49967, "internal_node_id": "0.0-0.0"}}, {"uniqueid": "w12322810:a83083941", "current_trial": 1, "dateTime": 1693481695274, "trialdata": {"view_history": [{"page_index": 0, "viewing_time": 33248}], "rt": 33248, "trial_id": "exp_instructions_misaligned", "trial_type": "instructions", "trial_index": 1, "time_elapsed": 83218, "internal_node_id": "0.0-1.0"}}, {"uniqueid": "w12322810:a83083941", "current_trial": 2, "dateTime": 1693481865352, "trialdata": {"view_history": [{"page_index": 0, "viewing_time": 58249}, {"page_index": 1, "viewing_time": 66556}, {"page_index": 2, "viewing_time": 18675}, {"page_index": 3, "viewing_time": 26595}], "rt": 170075, "trial_id": "mouselab_instructions_1_misaligned", "trial_type": "instructions", "trial_index": 2, "time_elapsed": 253296, "internal_node_id": "0.0-2.0-1.0"}}, {"uniqueid": "w12322810:a83083941", "current_trial": 3, "dateTime": 1693481894116, "trialdata": {"revealed_states": [], "clicked_states": ["16", "15", "14", "19", "21", "22"], "num_clicks_accrued": [0, 0, 0, 0, 0, 0, 0, 0, 0, 0, 0, 0, 0], "stateRewards": ["", -10, -10, -10, 10, -10, -10, 10, -10, -10, 10, -10, -10, 10, 10, -10, -10, 10, 10, 10, -10, 10, -10, 10, -10, -10, 10, 10, -10, 10, -10, -10, -10, -10], "withholdReward": false, "trial_id": "practice_1", "block": "test", "trialIndex": 0, "score": 30.5, "costs": -3, "simulationMode": [null, null, null, null, null], "rewards": [-10, 10, 10, 10, 10], "path": ["0", "0", "12", "13", "14", "19", "21"], "rt": [16229, 411, 210, 170, 108], "actions": ["right", "right", "right", "down", "down"], "actionTimes": [18562, 19481, 20214, 20911, 21543], "queries": {"click": {"state": {"target": ["16", "15", "14", "19", "21", "22"], "time": [5467, 8468, 9544, 11236, 12708, 15054]}, "edge": {"target": [], "time": []}}, "mouseover": {"state": {"target": ["12", "13", "14", "15", "16", "15", "14", "19", "21", "22", "19"], "time": [3972, 4028, 4221, 5097, 5222, 6458, 8968, 10481, 11639, 13925, 16333]}, "edge": {"target": [], "time": []}}, "mouseout": {"state": {"target": ["12", "0", "12", "13", "14", "15", "16", "15", "14", "19", "21", "22", "19"], "time": [729, 3943, 4006, 4166, 5069, 5138, 6328, 8858, 10274, 11588, 13455, 15476, 16409]}, "edge": {"target": [], "time": []}}}, "displayed_time": "22.07", "trialTime": 28284, "trial_type": "mouselab-mdp", "trial_index": 3, "time_elapsed": 282060, "internal_node_id": "0.0-2.0-2.0-0.0"}}, {"uniqueid": "w12322810:a83083941", "current_trial": 4, "dateTime": 1693481912160, "trialdata": {"revealed_states": [], "clicked_states": ["12", "23", "1", "16", "21"], "num_clicks_accrued": [0, 0, 0, 0, 0, 0, 0, 0, 0, 0, 0, 0, 0], "stateRewards": ["", -10, 10, 10, -10, 10, 10, 10, 10, -10, -10, 10, 10, -10, 10, 10, 10, 10, 10, -10, 10, -10, 10, 10, 10, 10, 10, 10, -10, 10, -10, 10, -10, -10], "withholdReward": false, "trial_id": "practice_2", "block": "test", "trialIndex": 1, "score": 31, "costs": -2.5, "simulationMode": [null, null, null, null, null], "rewards": [10, -10, 10, 10, 10], "path": ["0", "0", "12", "13", "14", "15", "16"], "rt": [10646, 93, 45, 26, 690], "actions": ["right", "right", "right", "up", "up"], "actionTimes": [13189, 13810, 14380, 14926, 16126], "queries": {"click": {"state": {"target": ["12", "23", "1", "16", "21"], "time": [5196, 6735, 8504, 9740, 11116]}, "edge": {"target": [], "time": []}}, "mouseover": {"state": {"target": ["12", "13", "12", "13", "23", "1", "1", "18", "15", "16", "15", "14", "19", "21", "20"], "time": [3482, 4143, 4670, 5568, 6517, 7297, 8288, 8902, 8954, 9275, 10385, 10500, 10591, 10665, 11910]}, "edge": {"target": [], "time": []}}, "mouseout": {"state": {"target": ["20", "0", "12", "13", "12", "13", "12", "23", "1", "1", "1", "18", "15", "16", "15", "14", "19", "21", "20", "20"], "time": [1358, 2920, 4107, 4642, 5518, 6322, 6434, 6859, 8024, 8624, 8851, 8924, 8980, 10313, 10449, 10547, 10620, 11859, 11930, 17211]}, "edge": {"target": [], "time": []}}}, "displayed_time": "16.64", "trialTime": 17825, "trial_type": "mouselab-mdp", "trial_index": 4, "time_elapsed": 300104, "internal_node_id": "0.0-2.0-2.0-1.0"}}, {"uniqueid": "w12322810:a83083941", "current_trial": 5, "dateTime": 1693481950384, "trialdata": {"view_history": [{"page_index": 0, "viewing_time": 30226}, {"page_index": 1, "viewing_time": 7998}], "rt": 38224, "trial_id": "mouselab_instructions_2_misaligned", "trial_type": "instructions", "trial_index": 5, "time_elapsed": 338328, "internal_node_id": "0.0-2.0-3.0"}}, {"uniqueid": "w12322810:a83083941", "current_trial": 6, "dateTime": 1693482016129, "trialdata": {"rt": 65742, "response": {"Q0": "The cost for clicking on nodes may vary between nodes.", "Q1": "The better I perform the higher my bonus will be.", "Q2": "No, the amount of cash at each node of the web may be different each time.", "Q3": "To get the highest total score.", "Q4": "Any time during the round.", "Q5": "3 seconds"}, "question_order": [0, 1, 2, 3, 4, 5], "correct": {"Q0": "The cost for clicking on nodes may vary between nodes.", "Q1": "The better I perform the higher my bonus will be.", "Q2": "No, the amount of cash at each node of the web may be different each time.", "Q3": "To get the highest total score.", "Q4": "Only before moving the spider.", "Q5": "3 seconds"}, "trial_id": "mouselab_quiz_misaligned", "trial_type": "survey-multi-choice", "trial_index": 6, "time_elapsed": 404073, "internal_node_id": "0.0-2.0-4.0"}}, {"uniqueid": "w12322810:a83083941", "current_trial": 7, "dateTime": 1693482024328, "trialdata": {"success": true, "trial_type": "fullscreen", "trial_index": 7, "time_elapsed": 412271, "internal_node_id": "0.0-2.1-0.1-0.1"}}, {"uniqueid": "w12322810:a83083941", "current_trial": 8, "dateTime": 1693482045998, "trialdata": {"view_history": [{"page_index": 0, "viewing_time": 5270}, {"page_index": 1, "viewing_time": 1981}, {"page_index": 2, "viewing_time": 11952}, {"page_index": 3, "viewing_time": 2466}], "rt": 21669, "trial_id": "mouselab_instructions_1_misaligned", "trial_type": "instructions", "trial_index": 8, "time_elapsed": 433942, "internal_node_id": "0.0-2.1-1.1"}}, {"uniqueid": "w12322810:a83083941", "current_trial": 9, "dateTime": 1693482056804, "trialdata": {"revealed_states": [], "clicked_states": [], "num_clicks_accrued": [0, 0, 0, 0, 0, 0, 0, 0, 0, 0, 0, 0, 0], "stateRewards": ["", -10, -10, -10, 10, -10, -10, 10, -10, -10, 10, -10, -10, 10, 10, -10, -10, 10, 10, 10, -10, 10, -10, 10, -10, -10, 10, 10, -10, 10, -10, -10, -10, -10], "withholdReward": false, "trial_id": "practice_1", "block": "test", "trialIndex": 2, "score": 33.5, "costs": 0, "simulationMode": [null, null, null, null, null], "rewards": [-10, 10, 10, 10, 10], "path": ["0", "0", "12", "13", "14", "19", "21"], "rt": [2859, 61, 572, 45, 56], "actions": ["right", "right", "right", "down", "down"], "actionTimes": [6024, 6608, 7688, 8256, 8829], "queries": {"click": {"state": {"target": [], "time": []}, "edge": {"target": [], "time": []}}, "mouseover": {"state": {"target": ["12", "13", "14"], "time": [4788, 4918, 5085]}, "edge": {"target": [], "time": []}}, "mouseout": {"state": {"target": ["12", "0", "12", "13", "14", "22"], "time": [932, 1015, 4863, 5037, 9981, 10064]}, "edge": {"target": [], "time": []}}}, "displayed_time": "9.35", "trialTime": 10578, "trial_type": "mouselab-mdp", "trial_index": 9, "time_elapsed": 444748, "internal_node_id": "0.0-2.1-2.1-0.1"}}, {"uniqueid": "w12322810:a83083941", "current_trial": 10, "dateTime": 1693482063030, "trialdata": {"revealed_states": [], "clicked_states": [], "num_clicks_accrued": [0, 0, 0, 0, 0, 0, 0, 0, 0, 0, 0, 0, 0], "stateRewards": ["", -10, 10, 10, -10, 10, 10, 10, 10, -10, -10, 10, 10, -10, 10, 10, 10, 10, 10, -10, 10, -10, 10, 10, 10, 10, 10, 10, -10, 10, -10, 10, -10, -10], "withholdReward": false, "trial_id": "practice_2", "block": "test", "trialIndex": 3, "score": -6.5, "costs": 0, "simulationMode": [null, null, null, null, null], "rewards": [10, -10, 10, -10, -10], "path": ["0", "0", "12", "13", "14", "19", "21"], "rt": [259, 455, 147, 90, 19], "actions": ["right", "right", "right", "down", "down"], "actionTimes": [1758, 2732, 3398, 4000, 4541], "queries": {"click": {"state": {"target": [], "time": []}, "edge": {"target": [], "time": []}}, "mouseover": {"state": {"target": ["12"], "time": [1731]}, "edge": {"target": [], "time": []}}, "mouseout": {"state": {"target": ["22", "14", "14", "13", "23", "0", "12", "14", "20", "19"], "time": [59, 135, 857, 871, 941, 1718, 1761, 1782, 5434, 5483]}, "edge": {"target": [], "time": []}}}, "displayed_time": "5.07", "trialTime": 6022, "trial_type": "mouselab-mdp", "trial_index": 10, "time_elapsed": 450974, "internal_node_id": "0.0-2.1-2.1-1.1"}}, {"uniqueid": "w12322810:a83083941", "current_trial": 11, "dateTime": 1693482084139, "trialdata": {"view_history": [{"page_index": 0, "viewing_time": 19128}, {"page_index": 1, "viewing_time": 1978}], "rt": 21106, "trial_id": "mouselab_instructions_2_misaligned", "trial_type": "instructions", "trial_index": 11, "time_elapsed": 472083, "internal_node_id": "0.0-2.1-3.1"}}, {"uniqueid": "w12322810:a83083941", "current_trial": 12, "dateTime": 1693482113718, "trialdata": {"rt": 29577, "response": {"Q0": "The cost for clicking on nodes may vary between nodes.", "Q1": "The better I perform the higher my bonus will be.", "Q2": "No, the amount of cash at each node of the web may be different each time.", "Q3": "To get the highest total score.", "Q4": "Only after moving the spider.", "Q5": "3 seconds"}, "question_order": [0, 1, 2, 3, 4, 5], "correct": {"Q0": "The cost for clicking on nodes may vary between nodes.", "Q1": "The better I perform the higher my bonus will be.", "Q2": "No, the amount of cash at each node of the web may be different each time.", "Q3": "To get the highest total score.", "Q4": "Only before moving the spider.", "Q5": "3 seconds"}, "trial_id": "mouselab_quiz_misaligned", "trial_type": "survey-multi-choice", "trial_index": 12, "time_elapsed": 501661, "internal_node_id": "0.0-2.1-4.1"}}, {"uniqueid": "w12322810:a83083941", "current_trial": 13, "dateTime": 1693482124862, "trialdata": {"success": true, "trial_type": "fullscreen", "trial_index": 13, "time_elapsed": 512806, "internal_node_id": "0.0-2.2-0.2-0.2"}}, {"uniqueid": "w12322810:a83083941", "current_trial": 14, "dateTime": 1693482141898, "trialdata": {"view_history": [{"page_index": 0, "viewing_time": 12007}, {"page_index": 1, "viewing_time": 2149}, {"page_index": 2, "viewing_time": 2013}, {"page_index": 3, "viewing_time": 864}], "rt": 17033, "trial_id": "mouselab_instructions_1_misaligned", "trial_type": "instructions", "trial_index": 14, "time_elapsed": 529842, "internal_node_id": "0.0-2.2-1.2"}}, {"uniqueid": "w12322810:a83083941", "current_trial": 15, "dateTime": 1693482149163, "trialdata": {"revealed_states": [], "clicked_states": [], "num_clicks_accrued": [0, 0, 0, 0, 0, 0, 0, 0, 0, 0, 0, 0, 0], "stateRewards": ["", -10, -10, -10, 10, -10, -10, 10, -10, -10, 10, -10, -10, 10, 10, -10, -10, 10, 10, 10, -10, 10, -10, 10, -10, -10, 10, 10, -10, 10, -10, -10, -10, -10], "withholdReward": false, "trial_id": "practice_1", "block": "test", "trialIndex": 4, "score": 33.5, "costs": 0, "simulationMode": [null, null, null, null, null], "rewards": [-10, 10, 10, 10, 10], "path": ["0", "0", "12", "13", "14", "19", "21"], "rt": [536, 361, 156, 76, 99], "actions": ["right", "right", "right", "down", "down"], "actionTimes": [2733, 3613, 4285, 4883, 5492], "queries": {"click": {"state": {"target": [], "time": []}, "edge": {"target": [], "time": []}}, "mouseover": {"state": {"target": ["12", "14"], "time": [2546, 2594]}, "edge": {"target": [], "time": []}}, "mouseout": {"state": {"target": ["12", "0", "0", "12", "14", "19"], "time": [760, 1136, 2525, 2564, 2609, 6129]}, "edge": {"target": [], "time": []}}}, "displayed_time": "6.00", "trialTime": 7038, "trial_type": "mouselab-mdp", "trial_index": 15, "time_elapsed": 537107, "internal_node_id": "0.0-2.2-2.2-0.2"}}, {"uniqueid": "w12322810:a83083941", "current_trial": 16, "dateTime": 1693482154444, "trialdata": {"revealed_states": [], "clicked_states": [], "num_clicks_accrued": [0, 0, 0, 0, 0, 0, 0, 0, 0, 0, 0, 0, 0], "stateRewards": ["", -10, 10, 10, -10, 10, 10, 10, 10, -10, -10, 10, 10, -10, 10, 10, 10, 10, 10, -10, 10, -10, 10, 10, 10, 10, 10, 10, -10, 10, -10, 10, -10, -10], "withholdReward": false, "trial_id": "practice_2", "block": "test", "trialIndex": 5, "score": -6.5, "costs": 0, "simulationMode": [null, null, null, null, null], "rewards": [10, -10, 10, -10, -10], "path": ["0", "0", "12", "13", "14", "19", "21"], "rt": [156, 120, 133, 16, 20], "actions": ["right", "right", "right", "down", "down"], "actionTimes": [1431, 2079, 2721, 3265, 3797], "queries": {"click": {"state": {"target": [], "time": []}, "edge": {"target": [], "time": []}}, "mouseover": {"state": {"target": [], "time": []}, "edge": {"target": [], "time": []}}, "mouseout": {"state": {"target": ["0", "14", "19"], "time": [1909, 1982, 4574]}, "edge": {"target": [], "time": []}}}, "displayed_time": "4.31", "trialTime": 5077, "trial_type": "mouselab-mdp", "trial_index": 16, "time_elapsed": 542388, "internal_node_id": "0.0-2.2-2.2-1.2"}}, {"uniqueid": "w12322810:a83083941", "current_trial": 17, "dateTime": 1693482158164, "trialdata": {"view_history": [{"page_index": 0, "viewing_time": 2003}, {"page_index": 1, "viewing_time": 1715}], "rt": 3718, "trial_id": "mouselab_instructions_2_misaligned", "trial_type": "instructions", "trial_index": 17, "time_elapsed": 546108, "internal_node_id": "0.0-2.2-3.2"}}, {"uniqueid": "w12322810:a83083941", "current_trial": 18, "dateTime": 1693482311838, "trialdata": {"rt": 153671, "response": {"Q0": "The cost for clicking on nodes may vary between nodes.", "Q1": "The better I perform the higher my bonus will be.", "Q2": "No, the amount of cash at each node of the web may be different each time.", "Q3": "To get the highest total score.", "Q4": "Only before moving the spider.", "Q5": "3 seconds"}, "question_order": [0, 1, 2, 3, 4, 5], "correct": {"Q0": "The cost for clicking on nodes may vary between nodes.", "Q1": "The better I perform the higher my bonus will be.", "Q2": "No, the amount of cash at each node of the web may be different each time.", "Q3": "To get the highest total score.", "Q4": "Only before moving the spider.", "Q5": "3 seconds"}, "trial_id": "mouselab_quiz_misaligned", "trial_type": "survey-multi-choice", "trial_index": 18, "time_elapsed": 699781, "internal_node_id": "0.0-2.2-4.2"}}, {"uniqueid": "w12322810:a83083941", "current_trial": 19, "dateTime": 1693482319762, "trialdata": {"rt": 7921, "response": {"Q0": "No"}, "question_order": [0], "trial_id": "repeat_check", "trial_type": "survey-multi-choice", "trial_index": 19, "time_elapsed": 707706, "internal_node_id": "0.0-4.0-0.0"}}, {"uniqueid": "w12322810:a83083941", "current_trial": 20, "dateTime": 1693482333457, "trialdata": {"rt": 13694, "stimulus": "\n<h1> Get ready to start the game! </h1>\n\nThank you for reading the instructions. Get ready start with the 40 rounds of this game.\n<br><br>\nIf you need to take a break, feel free to take one after the end of a round, before continuing to the next one.\n<br><br>\nRemember, the more money the spider gets, the bigger your bonus will be!\n<br><br>\n<div style='text-align: center;'>Press <code>space</code> to begin.</div>\n\n<br><br>\n(If, at any point, the <code>space</code> key does not take you to the next page, click once on the text and try again.)", "response": " ", "trial_id": "mdp_ready", "trial_type": "html-keyboard-response", "trial_index": 20, "time_elapsed": 721401, "internal_node_id": "0.0-6.0-0.0"}}, {"uniqueid": "w12322810:a83083941", "current_trial": 21, "dateTime": 1693482351814, "trialdata": {"revealed_states": [], "clicked_states": [], "num_clicks_accrued": [0, 0, 0, 0, 0, 0, 0, 0, 0, 0, 0, 0, 0], "stateRewards": ["", -1, 2, -6, 6, -82, -19, -39, -16, -83, 11, -33, -2, -2, 4, -6, -82, -1, -19, -6, -10, -67, -41, -2, 1, -7, 16, -23, -78, -52, 14, 31, -71, 74], "withholdReward": false, "trial_id": "mdp_trial_1", "block": "test", "trialIndex": 6, "score": -73, "costs": 0, "simulationMode": [null, null, null, null, null], "rewards": [-2, -2, 4, -6, -67], "path": ["0", "0", "12", "13", "14", "19", "21"], "rt": [2592, 305, 26, 434, 37], "actions": ["right", "right", "right", "down", "down"], "actionTimes": [4166, 4978, 5515, 6459, 7024], "queries": {"click": {"state": {"target": [], "time": []}, "edge": {"target": [], "time": []}}, "mouseover": {"state": {"target": ["12", "15", "13", "14"], "time": [1717, 3036, 3355, 3738]}, "edge": {"target": [], "time": []}}, "mouseout": {"state": {"target": ["13", "12", "0", "12", "15", "13", "14"], "time": [967, 1071, 1689, 1735, 3079, 3703, 8877]}, "edge": {"target": [], "time": []}}}, "displayed_time": "15.82", "trialTime": 18125, "trial_type": "mouselab-mdp", "trial_index": 21, "time_elapsed": 739758, "internal_node_id": "0.0-6.0-1.0-0.0"}}, {"uniqueid": "w12322810:a83083941", "current_trial": 22, "dateTime": 1693482368898, "trialdata": {"revealed_states": [], "clicked_states": ["9", "5", "21"], "num_clicks_accrued": [0, 0, 0, 0, 0, 0, 0, 0, 0, 0, 0, 0, 0], "stateRewards": ["", 2, 4, 7, -6, -76, -81, 2, 5, -66, -3, 36, -2, -4, 6, -2, -69, 4, -49, -6, 67, 38, -67, 2, 1, 1, 6, -68, -21, 52, -16, -16, 6, -70], "withholdReward": false, "trial_id": "mdp_trial_2", "block": "test", "trialIndex": 7, "score": 25.55, "costs": -6.449999999999999, "simulationMode": [null, null, null, null, null], "rewards": [-2, -4, 6, -6, 38], "path": ["0", "0", "12", "13", "14", "19", "21"], "rt": [10805, 25, 144, 64, 148], "actions": ["right", "right", "right", "down", "down"], "actionTimes": [12153, 12696, 13354, 13951, 14625], "queries": {"click": {"state": {"target": ["9", "5", "21"], "time": [2554, 5439, 8593]}, "edge": {"target": [], "time": []}}, "mouseover": {"state": {"target": ["1", "8", "9", "9", "5", "21", "21", "19", "14", "15", "16"], "time": [1455, 1531, 1599, 2072, 2979, 6831, 7062, 9414, 9457, 9555, 9828]}, "edge": {"target": [], "time": []}}, "mouseout": {"state": {"target": ["2", "3", "1", "0", "0", "1", "8", "9", "9", "5", "21", "21", "19", "14", "15", "16", "15", "14", "22"], "time": [64, 489, 746, 843, 1426, 1483, 1552, 1662, 2838, 5545, 6875, 9360, 9435, 9530, 9756, 15634, 15677, 15697, 15753]}, "edge": {"target": [], "time": []}}}, "displayed_time": "15.99", "trialTime": 16849, "trial_type": "mouselab-mdp", "trial_index": 22, "time_elapsed": 756842, "internal_node_id": "0.0-6.0-1.0-1.0"}}, {"uniqueid": "w12322810:a83083941", "current_trial": 23, "dateTime": 1693482385432, "trialdata": {"revealed_states": [], "clicked_states": ["21", "16", "5"], "num_clicks_accrued": [0, 0, 0, 0, 0, 0, 0, 0, 0, 0, 0, 0, 0], "stateRewards": ["", -2, 1, -5, 2, -68, 80, 33, 10, 67, -59, 20, -1, -3, 3, 14, 74, -2, 24, -16, 63, 80, 46, -1, 4, 6, 12, 83, -38, -43, -4, 43, 14, -79], "withholdReward": false, "trial_id": "mdp_trial_3", "block": "test", "trialIndex": 8, "score": 80.55, "costs": -6.449999999999999, "simulationMode": [null, null, null, null, null, null], "rewards": [-1, -3, 3, 14, 74], "path": ["0", "0", "12", "13", "14", "15", "16"], "rt": [8248, 196, 67, 102, 119, 159], "actions": ["right", "right", "right", "right", "up", "up"], "actionTimes": [9361, 9559, 10154, 10767, 11410, 12090], "queries": {"click": {"state": {"target": ["21", "16", "5"], "time": [1942, 4764, 7651]}, "edge": {"target": [], "time": []}}, "mouseover": {"state": {"target": ["22", "21", "21", "15", "16", "1", "28", "8", "9", "5", "9"], "time": [1301, 1336, 1726, 2378, 2518, 5426, 5812, 5887, 6110, 6523, 8968]}, "edge": {"target": [], "time": []}}, "mouseout": {"state": {"target": ["0", "22", "21", "21", "15", "16", "1", "28", "8", "9", "5", "9"], "time": [1238, 1314, 1361, 2305, 2406, 5381, 5454, 5838, 5955, 6336, 8277, 9790]}, "edge": {"target": [], "time": []}}}, "displayed_time": "15.66", "trialTime": 16332, "trial_type": "mouselab-mdp", "trial_index": 23, "time_elapsed": 773375, "internal_node_id": "0.0-6.0-1.0-2.0"}}, {"uniqueid": "w12322810:a83083941", "current_trial": 24, "dateTime": 1693482402381, "trialdata": {"revealed_states": [], "clicked_states": ["16", "21"], "num_clicks_accrued": [0, 0, 0, 0, 0, 0, 0, 0, 0, 0, 0, 0, 0], "stateRewards": ["", 1, 1, -2, 7, -31, -6, 76, 1, -36, -16, -53, 2, 1, 7, 13, -47, -10, 47, -7, 72, 46, -56, -2, -2, -2, 11, -80, 44, 38, 16, 67, 85, -78], "withholdReward": false, "trial_id": "mdp_trial_4", "block": "test", "trialIndex": 9, "score": 44.7, "costs": -4.3, "simulationMode": [null, null, null, null, null], "rewards": [2, 1, 7, -7, 46], "path": ["0", "0", "12", "13", "14", "19", "21"], "rt": [7300, 101, 153, 48, 43], "actions": ["right", "right", "right", "down", "down"], "actionTimes": [8560, 9186, 9854, 10419, 10986], "queries": {"click": {"state": {"target": ["16", "21"], "time": [2118, 5251]}, "edge": {"target": [], "time": []}}, "mouseover": {"state": {"target": ["12", "15", "16", "16", "20", "21", "32", "31", "2", "5"], "time": [1416, 1554, 1667, 1916, 2482, 3150, 6224, 7119, 7166, 7292]}, "edge": {"target": [], "time": []}}, "mouseout": {"state": {"target": ["18", "12", "0", "12", "15", "16", "16", "16", "20", "21", "32", "31", "2", "5", "6", "7", "0", "11", "32", "0", "18", "13", "22"], "time": [623, 644, 1388, 1443, 1644, 1797, 2218, 2382, 3012, 5796, 7118, 7139, 7195, 9083, 10529, 12902, 12930, 13304, 14603, 14646, 14735, 15299, 15645]}, "edge": {"target": [], "time": []}}}, "displayed_time": "15.88", "trialTime": 16724, "trial_type": "mouselab-mdp", "trial_index": 24, "time_elapsed": 790325, "internal_node_id": "0.0-6.0-1.0-3.0"}}, {"uniqueid": "w12322810:a83083941", "current_trial": 25, "dateTime": 1693482419067, "trialdata": {"revealed_states": [], "clicked_states": ["21", "16"], "num_clicks_accrued": [0, 0, 0, 0, 0, 0, 0, 0, 0, 0, 0, 0, 0], "stateRewards": ["", 1, 4, -8, -5, -15, -7, 21, 13, -30, 40, -65, 1, 1, 5, -14, 35, 27, -38, -11, 36, -58, -47, -2, 4, -3, 13, -16, -49, 22, 15, -56, -44, -10], "withholdReward": false, "trial_id": "mdp_trial_5", "block": "test", "trialIndex": 10, "score": 23.7, "costs": -4.3, "simulationMode": [null, null, null, null, null], "rewards": [1, 1, 5, -14, 35], "path": ["0", "0", "12", "13", "14", "15", "16"], "rt": [7086, 123, 75, 88, 136], "actions": ["right", "right", "right", "up", "up"], "actionTimes": [7912, 8560, 9156, 9748, 10410], "queries": {"click": {"state": {"target": ["21", "16"], "time": [1309, 4495]}, "edge": {"target": [], "time": []}}, "mouseover": {"state": {"target": ["0", "22", "21", "19", "15", "16", "4", "5"], "time": [965, 1028, 1090, 1695, 1741, 1795, 5918, 6107]}, "edge": {"target": [], "time": []}}, "mouseout": {"state": {"target": ["0", "0", "22", "21", "19", "15", "16", "16", "4", "5", "6"], "time": [638, 978, 1055, 1694, 1716, 1773, 5251, 5874, 6059, 14062, 14555]}, "edge": {"target": [], "time": []}}}, "displayed_time": "15.54", "trialTime": 16466, "trial_type": "mouselab-mdp", "trial_index": 25, "time_elapsed": 807011, "internal_node_id": "0.0-6.0-1.0-4.0"}}, {"uniqueid": "w12322810:a83083941", "current_trial": 26, "dateTime": 1693482437222, "trialdata": {"revealed_states": [], "clicked_states": ["21", "16"], "num_clicks_accrued": [0, 0, 0, 0, 0, 0, 0, 0, 0, 0, 0, 0, 0], "stateRewards": ["", -1, -2, -8, 8, -27, -82, 19, -14, -62, 4, 1, -2, 2, 6, 10, 73, -51, -2, 2, 73, -48, 54, -1, 2, -4, 11, -25, 47, 86, 15, 33, 43, -42], "withholdReward": false, "trial_id": "mdp_trial_6", "block": "test", "trialIndex": 11, "score": 84.7, "costs": -4.3, "simulationMode": [null, null, null, null, null], "rewards": [-2, 2, 6, 10, 73], "path": ["0", "0", "12", "13", "14", "15", "16"], "rt": [7597, 106, 102, 19, 24], "actions": ["right", "right", "right", "up", "up"], "actionTimes": [10467, 11087, 11703, 12250, 12773], "queries": {"click": {"state": {"target": ["21", "16"], "time": [4163, 7336]}, "edge": {"target": [], "time": []}}, "mouseover": {"state": {"target": ["21", "21", "19", "16", "16", "5"], "time": [3226, 3753, 4619, 4714, 5607, 9040]}, "edge": {"target": [], "time": []}}, "mouseout": {"state": {"target": ["22", "31", "0", "21", "21", "19", "16", "16", "5", "4", "7", "12"], "time": [872, 1002, 2983, 3254, 4597, 4642, 5424, 8055, 14100, 14128, 14149, 14183]}, "edge": {"target": [], "time": []}}}, "displayed_time": "17.32", "trialTime": 17950, "trial_type": "mouselab-mdp", "trial_index": 26, "time_elapsed": 825166, "internal_node_id": "0.0-6.0-1.0-5.0"}}, {"uniqueid": "w12322810:a83083941", "current_trial": 27, "dateTime": 1693482454762, "trialdata": {"revealed_states": [], "clicked_states": ["16"], "num_clicks_accrued": [0, 0, 0, 0, 0, 0, 0, 0, 0, 0, 0, 0, 0], "stateRewards": ["", 2, 3, 6, -5, -74, -53, 17, -12, 46, 44, 18, -2, 4, 1, -8, 22, -23, -49, 9, -45, 55, 81, 1, -1, -7, -16, -83, -71, -45, 2, 51, 82, 61], "withholdReward": false, "trial_id": "mdp_trial_7", "block": "test", "trialIndex": 12, "score": 14.85, "costs": -2.15, "simulationMode": [null, null, null, null, null], "rewards": [-2, 4, 1, -8, 22], "path": ["0", "0", "12", "13", "14", "15", "16"], "rt": [4230, 111, 88, 149, 144], "actions": ["right", "right", "right", "up", "up"], "actionTimes": [6441, 7059, 7670, 8344, 9013], "queries": {"click": {"state": {"target": ["16"], "time": [2952]}, "edge": {"target": [], "time": []}}, "mouseover": {"state": {"target": ["12", "18", "16", "15", "14", "19", "21"], "time": [2382, 2431, 2862, 3502, 3526, 3551, 4044]}, "edge": {"target": [], "time": []}}, "mouseout": {"state": {"target": ["12", "0", "12", "18", "16", "16", "15", "14", "19", "21", "19", "14", "15", "15", "13"], "time": [1820, 2008, 2404, 2448, 2984, 3501, 3524, 3551, 3578, 12487, 12549, 12674, 12875, 16542, 16562]}, "edge": {"target": [], "time": []}}}, "displayed_time": "16.60", "trialTime": 17308, "trial_type": "mouselab-mdp", "trial_index": 27, "time_elapsed": 842706, "internal_node_id": "0.0-6.0-1.0-6.0"}}, {"uniqueid": "w12322810:a83083941", "current_trial": 28, "dateTime": 1693482473247, "trialdata": {"revealed_states": [], "clicked_states": ["17"], "num_clicks_accrued": [0, 0, 0, 0, 0, 0, 0, 0, 0, 0, 0, 0, 0], "stateRewards": ["", -1, 3, 8, 10, -86, 61, -36, 10, 17, -60, 24, -1, -3, 3, 11, 50, 60, 33, -3, -20, 58, -6, 1, -4, -4, 13, -70, -71, 43, 14, 52, 82, -11], "withholdReward": false, "trial_id": "mdp_trial_8", "block": "test", "trialIndex": 13, "score": 67.85, "costs": -2.15, "simulationMode": [null, null, null, null, null], "rewards": [-1, -3, 3, 11, 60], "path": ["0", "0", "12", "13", "14", "15", "17"], "rt": [4292, 111, 102, 120, 25], "actions": ["right", "right", "right", "up", "right"], "actionTimes": [6478, 7098, 7726, 8368, 8917], "queries": {"click": {"state": {"target": ["17"], "time": [3266]}, "edge": {"target": [], "time": []}}, "mouseover": {"state": {"target": ["12", "15", "17", "17", "17", "18"], "time": [2327, 2375, 2632, 2827, 3152, 4673]}, "edge": {"target": [], "time": []}}, "mouseout": {"state": {"target": ["15", "13", "12", "0", "0", "12", "13", "12", "23", "23", "12", "0", "12", "15", "17", "17", "17", "17", "18", "15", "15", "15", "13", "22"], "time": [577, 611, 750, 847, 1229, 1257, 1576, 1591, 1618, 1653, 1757, 2306, 2349, 2409, 2660, 2854, 3957, 4242, 6822, 11840, 12909, 14687, 15090, 15118]}, "edge": {"target": [], "time": []}}}, "displayed_time": "16.57", "trialTime": 18272, "trial_type": "mouselab-mdp", "trial_index": 28, "time_elapsed": 861191, "internal_node_id": "0.0-6.0-1.0-7.0"}}, {"uniqueid": "w12322810:a83083941", "current_trial": 29, "dateTime": 1693482488994, "trialdata": {"revealed_states": [], "clicked_states": ["17"], "num_clicks_accrued": [0, 0, 0, 0, 0, 0, 0, 0, 0, 0, 0, 0, 0], "stateRewards": ["", 1, 1, 4, 11, 83, -66, 18, -16, -23, 5, 25, 1, -3, 1, -12, 18, 24, -86, -11, -64, 36, 40, 2, 1, -6, 13, 55, 29, 72, -2, 81, -72, -41], "withholdReward": false, "trial_id": "mdp_trial_9", "block": "test", "trialIndex": 14, "score": 8.85, "costs": -2.15, "simulationMode": [null, null, null, null, null], "rewards": [1, -3, 1, -12, 24], "path": ["0", "0", "12", "13", "14", "15", "17"], "rt": [4272, 126, 114, 91, 123], "actions": ["right", "right", "right", "up", "right"], "actionTimes": [4962, 5607, 6233, 6834, 7472], "queries": {"click": {"state": {"target": ["17"], "time": [1618]}, "edge": {"target": [], "time": []}}, "mouseover": {"state": {"target": ["12", "18", "15", "17", "15", "18", "18"], "time": [872, 923, 1187, 1264, 2164, 2219, 2519]}, "edge": {"target": [], "time": []}}, "mouseout": {"state": {"target": ["0", "12", "18", "15", "17", "15", "18", "18", "18"], "time": [861, 894, 944, 1242, 2163, 2185, 2241, 14554, 14825]}, "edge": {"target": [], "time": []}}}, "displayed_time": "15.03", "trialTime": 15538, "trial_type": "mouselab-mdp", "trial_index": 29, "time_elapsed": 876938, "internal_node_id": "0.0-6.0-1.0-8.0"}}, {"uniqueid": "w12322810:a83083941", "current_trial": 30, "dateTime": 1693482505607, "trialdata": {"revealed_states": [], "clicked_states": ["18"], "num_clicks_accrued": [0, 0, 0, 0, 0, 0, 0, 0, 0, 0, 0, 0, 0], "stateRewards": ["", 1, 2, 3, 16, 63, -25, 16, -4, -14, 82, -66, -1, -3, -3, -11, -14, 19, 46, 3, -34, -82, 66, -2, -3, 4, -5, -63, 77, -37, -1, -45, -41, 84], "withholdReward": false, "trial_id": "mdp_trial_10", "block": "test", "trialIndex": 15, "score": 25.85, "costs": -2.15, "simulationMode": [null, null, null, null, null], "rewards": [-1, -3, -3, -11, 46], "path": ["0", "0", "12", "13", "14", "15", "18"], "rt": [3773, 30, 152, 93, 20], "actions": ["right", "right", "right", "up", "left"], "actionTimes": [4571, 5125, 5786, 6388, 6935], "queries": {"click": {"state": {"target": ["18"], "time": [1381]}, "edge": {"target": [], "time": []}}, "mouseover": {"state": {"target": ["12", "15", "18", "16"], "time": [943, 1039, 1269, 2359]}, "edge": {"target": [], "time": []}}, "mouseout": {"state": {"target": ["12", "12", "15", "18", "16", "15"], "time": [464, 964, 1185, 2003, 7512, 7942]}, "edge": {"target": [], "time": []}}}, "displayed_time": "15.30", "trialTime": 16386, "trial_type": "mouselab-mdp", "trial_index": 30, "time_elapsed": 893551, "internal_node_id": "0.0-6.0-1.0-9.0"}}, {"uniqueid": "w12322810:a83083941", "current_trial": 31, "dateTime": 1693482525259, "trialdata": {"revealed_states": [], "clicked_states": ["16", "17", "18", "21"], "num_clicks_accrued": [0, 0, 0, 0, 0, 0, 0, 0, 0, 0, 0, 0, 0], "stateRewards": ["", 2, -1, 8, -2, -16, 69, -39, -7, -13, -27, -86, 2, -2, 2, 13, -34, -16, -20, -5, 19, 81, 32, -2, -1, 2, -14, 20, 80, 58, 4, 70, 12, 73], "withholdReward": false, "trial_id": "mdp_trial_11", "block": "test", "trialIndex": 16, "score": 69.4, "costs": -8.6, "simulationMode": [null, null, null, null, null], "rewards": [2, -2, 2, -5, 81], "path": ["0", "0", "12", "13", "14", "19", "21"], "rt": [13679, 464, 161, 49, 141], "actions": ["right", "right", "right", "down", "down"], "actionTimes": [15134, 16127, 16813, 17378, 18041], "queries": {"click": {"state": {"target": ["16", "17", "18", "21"], "time": [2214, 5544, 8736, 11896]}, "edge": {"target": [], "time": []}}, "mouseover": {"state": {"target": ["18", "15", "16", "18", "17", "15", "18", "21", "20"], "time": [1710, 1891, 2032, 2738, 4017, 7375, 7902, 10328, 12975]}, "edge": {"target": [], "time": []}}, "mouseout": {"state": {"target": ["15", "13", "12", "24", "23", "0", "18", "15", "16", "18", "17", "15", "16", "18", "21", "21"], "time": [759, 787, 800, 995, 1099, 1231, 1759, 1911, 2714, 2816, 6199, 7662, 7879, 9291, 12348, 12601]}, "edge": {"target": [], "time": []}}}, "displayed_time": "18.57", "trialTime": 19425, "trial_type": "mouselab-mdp", "trial_index": 31, "time_elapsed": 913203, "internal_node_id": "0.0-6.0-1.0-10.0"}}, {"uniqueid": "w12322810:a83083941", "current_trial": 32, "dateTime": 1693482542172, "trialdata": {"revealed_states": [], "clicked_states": ["22"], "num_clicks_accrued": [0, 0, 0, 0, 0, 0, 0, 0, 0, 0, 0, 0, 0], "stateRewards": ["", 2, 4, 7, 7, -79, -2, -21, -5, -53, 47, -21, 1, -3, -1, 7, 83, 7, 84, -7, 80, -37, 69, 2, -4, 5, 2, 4, -20, -30, 7, 71, 44, -81], "withholdReward": false, "trial_id": "mdp_trial_12", "block": "test", "trialIndex": 17, "score": 56.85, "costs": -2.15, "simulationMode": [null, null, null, null, null], "rewards": [1, -3, -1, -7, 69], "path": ["0", "0", "12", "13", "14", "19", "22"], "rt": [4076, 36, 116, 63, 171], "actions": ["right", "right", "right", "down", "left"], "actionTimes": [5501, 6048, 6677, 7253, 7943], "queries": {"click": {"state": {"target": ["22"], "time": [2284]}, "edge": {"target": [], "time": []}}, "mouseover": {"state": {"target": ["12", "22", "21", "22", "21", "21"], "time": [1548, 1603, 1651, 2137, 2714, 3402]}, "edge": {"target": [], "time": []}}, "mouseout": {"state": {"target": ["20", "0", "23", "23", "0", "12", "22", "21", "22", "21", "21"], "time": [248, 728, 748, 894, 978, 1560, 1614, 1867, 2616, 2737, 16374]}, "edge": {"target": [], "time": []}}}, "displayed_time": "15.76", "trialTime": 16702, "trial_type": "mouselab-mdp", "trial_index": 32, "time_elapsed": 930115, "internal_node_id": "0.0-6.0-1.0-11.0"}}, {"uniqueid": "w12322810:a83083941", "current_trial": 33, "dateTime": 1693482558947, "trialdata": {"revealed_states": [], "clicked_states": [], "num_clicks_accrued": [0, 0, 0, 0, 0, 0, 0, 0, 0, 0, 0, 0, 0], "stateRewards": ["", 1, 4, 7, -16, -84, -6, -46, -12, -7, -49, -26, -1, 2, -4, 2, 22, 37, -64, 1, 88, -13, -10, 1, -4, -2, 5, 2, -10, -34, 9, 66, 55, 38], "withholdReward": false, "trial_id": "mdp_trial_13", "block": "test", "trialIndex": 18, "score": -15, "costs": 0, "simulationMode": [null, null, null, null, null], "rewards": [-1, 2, -4, 1, -13], "path": ["0", "0", "12", "13", "14", "19", "21"], "rt": [243, 1783, 83, 110, 154], "actions": ["right", "right", "right", "down", "down"], "actionTimes": [1360, 3679, 4272, 4906, 5575], "queries": {"click": {"state": {"target": [], "time": []}, "edge": {"target": [], "time": []}}, "mouseover": {"state": {"target": ["12"], "time": [1301]}, "edge": {"target": [], "time": []}}, "mouseout": {"state": {"target": ["21", "22", "0", "0", "12", "19", "22", "19", "21"], "time": [516, 545, 593, 1288, 1331, 3100, 5444, 6163, 6204]}, "edge": {"target": [], "time": []}}}, "displayed_time": "15.33", "trialTime": 16537, "trial_type": "mouselab-mdp", "trial_index": 33, "time_elapsed": 946890, "internal_node_id": "0.0-6.0-1.0-12.0"}}, {"uniqueid": "w12322810:a83083941", "current_trial": 34, "dateTime": 1693482574980, "trialdata": {"revealed_states": [], "clicked_states": ["21", "20", "22"], "num_clicks_accrued": [0, 0, 0, 0, 0, 0, 0, 0, 0, 0, 0, 0, 0], "stateRewards": ["", 1, -2, -8, -3, 31, -84, -55, -14, 15, -58, 17, -2, -3, 7, 7, -12, 48, 67, 4, -44, -68, 46, 2, 3, -5, -7, 76, 27, 5, 11, 57, 52, 59], "withholdReward": false, "trial_id": "mdp_trial_14", "block": "test", "trialIndex": 19, "score": 45.55, "costs": -6.449999999999999, "simulationMode": [null, null, null, null, null], "rewards": [-2, -3, 7, 4, 46], "path": ["0", "0", "12", "13", "14", "19", "22"], "rt": [10099, 443, 160, 110, 137], "actions": ["right", "right", "right", "down", "left"], "actionTimes": [10910, 11872, 12553, 13183, 13839], "queries": {"click": {"state": {"target": ["21", "20", "22"], "time": [1376, 4473, 7640]}, "edge": {"target": [], "time": []}}, "mouseover": {"state": {"target": ["21", "20", "22", "22", "14", "15", "17"], "time": [1210, 2354, 4904, 5123, 8288, 8434, 8996]}, "edge": {"target": [], "time": []}}, "mouseout": {"state": {"target": ["0", "21", "20", "22", "22", "14", "15", "17", "22"], "time": [933, 1497, 4849, 4929, 8182, 8379, 8973, 14157, 14856]}, "edge": {"target": [], "time": []}}}, "displayed_time": "15.54", "trialTime": 15806, "trial_type": "mouselab-mdp", "trial_index": 34, "time_elapsed": 962924, "internal_node_id": "0.0-6.0-1.0-13.0"}}, {"uniqueid": "w12322810:a83083941", "current_trial": 35, "dateTime": 1693482591965, "trialdata": {"revealed_states": [], "clicked_states": ["16", "17"], "num_clicks_accrued": [0, 0, 0, 0, 0, 0, 0, 0, 0, 0, 0, 0, 0], "stateRewards": ["", 2, 3, -3, 4, 72, -28, 34, -12, 57, -64, -15, 2, 1, -4, -15, 2, 49, 31, -1, -42, -58, 31, -2, 1, -2, -13, -75, -19, -22, -6, 61, 10, -56], "withholdReward": false, "trial_id": "mdp_trial_15", "block": "test", "trialIndex": 20, "score": 28.7, "costs": -4.3, "simulationMode": [null, null, null, null, null], "rewards": [2, 1, -4, -15, 49], "path": ["0", "0", "12", "13", "14", "15", "17"], "rt": [8264, 44, 70, 106, 51], "actions": ["right", "right", "right", "up", "right"], "actionTimes": [9540, 10094, 10681, 11300, 11862], "queries": {"click": {"state": {"target": ["16", "17"], "time": [2320, 6305]}, "edge": {"target": [], "time": []}}, "mouseover": {"state": {"target": ["12", "13", "14", "15", "16", "17", "14", "22", "14", "17", "15", "18", "18"], "time": [1533, 1558, 1583, 2023, 2148, 2780, 3457, 3511, 3656, 4378, 7070, 7097, 7552]}, "edge": {"target": [], "time": []}}, "mouseout": {"state": {"target": ["0", "0", "12", "13", "14", "15", "16", "16", "17", "14", "22", "14", "17", "15", "18", "18", "15", "17", "19"], "time": [690, 1517, 1557, 1582, 1611, 2072, 2423, 2757, 3106, 3482, 3561, 3867, 7040, 7095, 7125, 10248, 10304, 10327, 15225]}, "edge": {"target": [], "time": []}}}, "displayed_time": "15.76", "trialTime": 16763, "trial_type": "mouselab-mdp", "trial_index": 35, "time_elapsed": 979909, "internal_node_id": "0.0-6.0-1.0-14.0"}}, {"uniqueid": "w12322810:a83083941", "current_trial": 36, "dateTime": 1693482609024, "trialdata": {"revealed_states": [], "clicked_states": ["21"], "num_clicks_accrued": [0, 0, 0, 0, 0, 0, 0, 0, 0, 0, 0, 0, 0], "stateRewards": ["", -2, 3, -5, -7, 66, 43, -60, -4, -70, -75, 4, -1, 2, 2, -13, 54, 11, -40, -1, 77, 32, 15, -2, 3, -8, -9, -35, 83, -27, 6, -74, -34, 44], "withholdReward": false, "trial_id": "mdp_trial_16", "block": "test", "trialIndex": 21, "score": 31.85, "costs": -2.15, "simulationMode": [null, null, null, null, null], "rewards": [-1, 2, 2, -1, 32], "path": ["0", "0", "12", "13", "14", "19", "21"], "rt": [3992, 52, 489, 102, 66], "actions": ["right", "right", "right", "down", "down"], "actionTimes": [5229, 5801, 6814, 7426, 8026], "queries": {"click": {"state": {"target": ["21"], "time": [1955]}, "edge": {"target": [], "time": []}}, "mouseover": {"state": {"target": ["12", "13", "21", "22"], "time": [1524, 1573, 1761, 2916]}, "edge": {"target": [], "time": []}}, "mouseout": {"state": {"target": ["0", "12", "13", "21"], "time": [1503, 1552, 1643, 2677]}, "edge": {"target": [], "time": []}}}, "displayed_time": "15.68", "trialTime": 16830, "trial_type": "mouselab-mdp", "trial_index": 36, "time_elapsed": 996967, "internal_node_id": "0.0-6.0-1.0-15.0"}}, {"uniqueid": "w12322810:a83083941", "current_trial": 37, "dateTime": 1693482625410, "trialdata": {"revealed_states": [], "clicked_states": [], "num_clicks_accrued": [0, 0, 0, 0, 0, 0, 0, 0, 0, 0, 0, 0, 0], "stateRewards": ["", 1, 2, -8, 9, 18, -83, -11, 6, -64, -48, 17, -2, -2, -5, -3, -24, -3, -86, -2, 48, -41, -22, -2, 4, 7, 8, 81, 13, -48, 10, 61, 19, 57], "withholdReward": false, "trial_id": "mdp_trial_17", "block": "test", "trialIndex": 22, "score": -15, "costs": 0, "simulationMode": [null, null, null, null, null], "rewards": [-2, -2, -5, -3, -3], "path": ["0", "0", "12", "13", "14", "15", "17"], "rt": [120, 83, 171, 104, 104], "actions": ["right", "right", "right", "up", "right"], "actionTimes": [1205, 1805, 2497, 3115, 3727], "queries": {"click": {"state": {"target": [], "time": []}, "edge": {"target": [], "time": []}}, "mouseover": {"state": {"target": [], "time": []}, "edge": {"target": [], "time": []}}, "mouseout": {"state": {"target": ["22", "22", "12", "14", "14", "15", "16", "20", "20", "20", "20", "20", "19"], "time": [3, 641, 760, 1576, 2323, 2391, 4151, 4271, 13266, 13308, 13982, 14309, 14342]}, "edge": {"target": [], "time": []}}}, "displayed_time": "15.38", "trialTime": 16174, "trial_type": "mouselab-mdp", "trial_index": 37, "time_elapsed": 1013354, "internal_node_id": "0.0-6.0-1.0-16.0"}}, {"uniqueid": "w12322810:a83083941", "current_trial": 38, "dateTime": 1693482642037, "trialdata": {"revealed_states": [], "clicked_states": ["21", "22"], "num_clicks_accrued": [0, 0, 0, 0, 0, 0, 0, 0, 0, 0, 0, 0, 0], "stateRewards": ["", 2, -1, 5, 8, 75, -35, -77, 1, -9, -81, -58, 1, 2, -7, 5, 77, -16, 19, 16, -10, -18, 40, -2, 3, 7, -5, 64, 1, -62, 10, 27, 10, 65], "withholdReward": false, "trial_id": "mdp_trial_18", "block": "test", "trialIndex": 23, "score": 47.7, "costs": -4.3, "simulationMode": [null, null, null, null, null], "rewards": [1, 2, -7, 16, 40], "path": ["0", "0", "12", "13", "14", "19", "22"], "rt": [6815, 19, 149, 114, 97], "actions": ["right", "right", "right", "down", "left"], "actionTimes": [7800, 8336, 8992, 9619, 10230], "queries": {"click": {"state": {"target": ["21", "22"], "time": [1471, 4637]}, "edge": {"target": [], "time": []}}, "mouseover": {"state": {"target": ["21", "22", "19", "20", "20"], "time": [1355, 3031, 5121, 5175, 5603]}, "edge": {"target": [], "time": []}}, "mouseout": {"state": {"target": ["21", "0", "21", "22", "19", "20", "20", "19", "22"], "time": [438, 1097, 2655, 5120, 5150, 5226, 16111, 16139, 16209]}, "edge": {"target": [], "time": []}}}, "displayed_time": "15.57", "trialTime": 16424, "trial_type": "mouselab-mdp", "trial_index": 38, "time_elapsed": 1029981, "internal_node_id": "0.0-6.0-1.0-17.0"}}, {"uniqueid": "w12322810:a83083941", "current_trial": 39, "dateTime": 1693482659296, "trialdata": {"revealed_states": [], "clicked_states": ["21"], "num_clicks_accrued": [0, 0, 0, 0, 0, 0, 0, 0, 0, 0, 0, 0, 0], "stateRewards": ["", 2, 3, 8, 11, 25, -80, 6, -4, -56, 84, -23, -2, -4, -3, 4, -51, -9, -61, -15, -64, 67, -35, 1, -1, -7, -6, 83, 59, -15, 12, -79, 56, 41], "withholdReward": false, "trial_id": "mdp_trial_19", "block": "test", "trialIndex": 24, "score": 40.85, "costs": -2.15, "simulationMode": [null, null, null, null, null], "rewards": [-2, -4, -3, -15, 67], "path": ["0", "0", "12", "13", "14", "19", "21"], "rt": [3709, 162, 89, 86, 158], "actions": ["right", "right", "right", "down", "down"], "actionTimes": [4881, 5565, 6174, 6788, 7478], "queries": {"click": {"state": {"target": ["21"], "time": [1662]}, "edge": {"target": [], "time": []}}, "mouseover": {"state": {"target": ["21", "20"], "time": [1397, 3247]}, "edge": {"target": [], "time": []}}, "mouseout": {"state": {"target": ["22", "0", "21", "21"], "time": [626, 1286, 2279, 3077]}, "edge": {"target": [], "time": []}}}, "displayed_time": "15.46", "trialTime": 17052, "trial_type": "mouselab-mdp", "trial_index": 39, "time_elapsed": 1047239, "internal_node_id": "0.0-6.0-1.0-18.0"}}, {"uniqueid": "w12322810:a83083941", "current_trial": 40, "dateTime": 1693482678385, "trialdata": {"revealed_states": [], "clicked_states": ["21", "22"], "num_clicks_accrued": [0, 0, 0, 0, 0, 0, 0, 0, 0, 0, 0, 0, 0], "stateRewards": ["", -1, 2, -6, 6, 43, 78, 78, -2, 55, -29, -17, -2, -4, 1, -15, 13, 7, -79, 8, -28, -68, 36, -1, -3, 3, -16, 84, -18, 87, 10, 32, 13, -81], "withholdReward": false, "trial_id": "mdp_trial_20", "block": "test", "trialIndex": 25, "score": 34.7, "costs": -4.3, "simulationMode": [null, null, null, null, null], "rewards": [-2, -4, 1, 8, 36], "path": ["0", "0", "12", "13", "14", "19", "22"], "rt": [8411, 30, 205, 109, 118], "actions": ["right", "right", "right", "down", "left"], "actionTimes": [12487, 13031, 13751, 14375, 15003], "queries": {"click": {"state": {"target": ["21", "22"], "time": [4846, 8122]}, "edge": {"target": [], "time": []}}, "mouseover": {"state": {"target": ["21", "22", "19", "20"], "time": [4579, 6731, 9103, 9278]}, "edge": {"target": [], "time": []}}, "mouseout": {"state": {"target": ["20", "13", "12", "0", "0", "21", "22", "19", "20", "20"], "time": [697, 760, 808, 940, 4385, 6295, 9051, 9181, 17830, 17919]}, "edge": {"target": [], "time": []}}}, "displayed_time": "18.57", "trialTime": 18859, "trial_type": "mouselab-mdp", "trial_index": 40, "time_elapsed": 1066329, "internal_node_id": "0.0-6.0-1.0-19.0"}}, {"uniqueid": "w12322810:a83083941", "current_trial": 41, "dateTime": 1693482694826, "trialdata": {"revealed_states": [], "clicked_states": [], "num_clicks_accrued": [0, 0, 0, 0, 0, 0, 0, 0, 0, 0, 0, 0, 0], "stateRewards": ["", -2, -4, 4, -11, -63, -60, -7, 2, -14, 81, -43, -1, -1, -5, 7, 10, 69, 40, 8, -83, 52, 60, 1, 2, 5, -5, 16, 64, 14, -3, 29, 7, -51], "withholdReward": false, "trial_id": "mdp_trial_21", "block": "test", "trialIndex": 26, "score": 53, "costs": 0, "simulationMode": [null, null, null, null, null], "rewards": [-1, -1, -5, 8, 52], "path": ["0", "0", "12", "13", "14", "19", "21"], "rt": [444, 22, 115, 235, 29], "actions": ["right", "right", "right", "down", "down"], "actionTimes": [1469, 2001, 2627, 3391, 3949], "queries": {"click": {"state": {"target": [], "time": []}, "edge": {"target": [], "time": []}}, "mouseover": {"state": {"target": ["12"], "time": [1288]}, "edge": {"target": [], "time": []}}, "mouseout": {"state": {"target": ["22", "0", "12", "20", "20", "21", "21"], "time": [2, 1273, 1317, 3211, 8101, 8586, 15669]}, "edge": {"target": [], "time": []}}}, "displayed_time": "15.26", "trialTime": 16230, "trial_type": "mouselab-mdp", "trial_index": 41, "time_elapsed": 1082770, "internal_node_id": "0.0-6.0-1.0-20.0"}}, {"uniqueid": "w12322810:a83083941", "current_trial": 42, "dateTime": 1693482711851, "trialdata": {"revealed_states": [], "clicked_states": ["21", "20"], "num_clicks_accrued": [0, 0, 0, 0, 0, 0, 0, 0, 0, 0, 0, 0, 0], "stateRewards": ["", 1, -3, -6, -5, 47, 80, -29, 11, -71, 10, -29, -2, 3, -6, 12, 2, -78, -6, 8, 34, -16, -5, -1, 3, 3, -13, 84, -36, -62, -3, -27, 66, 15], "withholdReward": false, "trial_id": "mdp_trial_22", "block": "test", "trialIndex": 27, "score": 32.7, "costs": -4.3, "simulationMode": [null, null, null, null, null], "rewards": [-2, 3, -6, 8, 34], "path": ["0", "0", "12", "13", "14", "19", "20"], "rt": [6837, 20, 179, 196, 150], "actions": ["right", "right", "right", "down", "right"], "actionTimes": [8957, 9502, 10192, 10905, 11581], "queries": {"click": {"state": {"target": ["21", "20"], "time": [2660, 5821]}, "edge": {"target": [], "time": []}}, "mouseover": {"state": {"target": ["0", "22", "21", "21", "20", "22"], "time": [2250, 2326, 2364, 2541, 3688, 8040]}, "edge": {"target": [], "time": []}}, "mouseout": {"state": {"target": ["20", "19", "21", "22", "0", "0", "22", "21", "21", "20", "21", "22"], "time": [152, 256, 1680, 1749, 1819, 2266, 2341, 2389, 3566, 6889, 7475, 9202]}, "edge": {"target": [], "time": []}}}, "displayed_time": "16.51", "trialTime": 16787, "trial_type": "mouselab-mdp", "trial_index": 42, "time_elapsed": 1099795, "internal_node_id": "0.0-6.0-1.0-21.0"}}, {"uniqueid": "w12322810:a83083941", "current_trial": 43, "dateTime": 1693482728677, "trialdata": {"revealed_states": [], "clicked_states": ["21", "16"], "num_clicks_accrued": [0, 0, 0, 0, 0, 0, 0, 0, 0, 0, 0, 0, 0], "stateRewards": ["", -2, 1, -7, -8, -37, -76, -87, 11, 30, -63, 80, -1, 4, 2, -1, 42, 17, 52, -3, -75, -80, -68, 2, -3, -5, -15, -48, 82, 24, -7, 5, -22, -71], "withholdReward": false, "trial_id": "mdp_trial_23", "block": "test", "trialIndex": 28, "score": 41.7, "costs": -4.3, "simulationMode": [null, null, null, null, null], "rewards": [-1, 4, 2, -1, 42], "path": ["0", "0", "12", "13", "14", "15", "16"], "rt": [7207, 108, 147, 136, 21], "actions": ["right", "right", "right", "up", "up"], "actionTimes": [8286, 8906, 9561, 10218, 10761], "queries": {"click": {"state": {"target": ["21", "16"], "time": [1831, 5006]}, "edge": {"target": [], "time": []}}, "mouseover": {"state": {"target": ["12", "19", "21", "15", "16", "15", "14", "15", "16", "17", "17"], "time": [1219, 1275, 1628, 2295, 2554, 2947, 3001, 3188, 3244, 5946, 6159]}, "edge": {"target": [], "time": []}}, "mouseout": {"state": {"target": ["12", "19", "21", "15", "16", "15", "14", "15", "16", "17", "17", "14", "22"], "time": [1233, 1489, 2214, 2325, 2921, 2972, 3166, 3213, 5109, 5974, 15170, 15204, 15239]}, "edge": {"target": [], "time": []}}}, "displayed_time": "15.62", "trialTime": 16624, "trial_type": "mouselab-mdp", "trial_index": 43, "time_elapsed": 1116621, "internal_node_id": "0.0-6.0-1.0-22.0"}}, {"uniqueid": "w12322810:a83083941", "current_trial": 44, "dateTime": 1693482745307, "trialdata": {"revealed_states": [], "clicked_states": ["16"], "num_clicks_accrued": [0, 0, 0, 0, 0, 0, 0, 0, 0, 0, 0, 0, 0], "stateRewards": ["", 1, 4, 5, -5, 58, -80, 75, 6, 25, -39, 46, 2, -2, 4, 2, 59, 31, -22, -12, -61, 15, 72, 1, -2, -7, 8, 77, 76, -23, -7, 71, -15, -3], "withholdReward": false, "trial_id": "mdp_trial_24", "block": "test", "trialIndex": 29, "score": 62.85, "costs": -2.15, "simulationMode": [null, null, null, null, null], "rewards": [2, -2, 4, 2, 59], "path": ["0", "0", "12", "13", "14", "15", "16"], "rt": [3824, 80, 96, 109, 151], "actions": ["right", "right", "right", "up", "up"], "actionTimes": [5055, 5652, 6259, 6885, 7552], "queries": {"click": {"state": {"target": ["16"], "time": [1906]}, "edge": {"target": [], "time": []}}, "mouseover": {"state": {"target": ["12", "18", "16", "15", "14", "19", "20", "21", "21"], "time": [1369, 1410, 1757, 2414, 3034, 3136, 3474, 4181, 4257]}, "edge": {"target": [], "time": []}}, "mouseout": {"state": {"target": ["12", "18", "16", "16", "15", "14", "19", "20", "21", "21", "23"], "time": [1382, 1445, 2079, 2413, 2439, 3111, 3167, 4158, 4233, 13190, 13515]}, "edge": {"target": [], "time": []}}}, "displayed_time": "15.54", "trialTime": 16425, "trial_type": "mouselab-mdp", "trial_index": 44, "time_elapsed": 1133251, "internal_node_id": "0.0-6.0-1.0-23.0"}}, {"uniqueid": "w12322810:a83083941", "current_trial": 45, "dateTime": 1693482764348, "trialdata": {"revealed_states": [], "clicked_states": ["16", "17", "18", "21"], "num_clicks_accrued": [0, 0, 0, 0, 0, 0, 0, 0, 0, 0, 0, 0, 0], "stateRewards": ["", 1, -4, -6, -1, -21, 17, -72, 10, 77, 67, -46, -1, 4, -2, 14, -66, -49, -45, -15, -52, 23, -67, 2, -2, -2, 15, -3, 45, -64, 5, -44, 83, 61], "withholdReward": false, "trial_id": "mdp_trial_25", "block": "test", "trialIndex": 30, "score": 0.3999999999999986, "costs": -8.6, "simulationMode": [null, null, null, null, null], "rewards": [-1, 4, -2, -15, 23], "path": ["0", "0", "12", "13", "14", "19", "21"], "rt": [13488, 52, 102, 27, 133], "actions": ["right", "right", "right", "down", "down"], "actionTimes": [14631, 15204, 15825, 16379, 17027], "queries": {"click": {"state": {"target": ["16", "17", "18", "21"], "time": [1856, 5098, 8256, 11429]}, "edge": {"target": [], "time": []}}, "mouseover": {"state": {"target": ["18", "16", "15", "17", "15", "18", "18", "13", "21", "20"], "time": [1281, 1551, 2347, 3446, 5640, 5668, 6000, 8890, 8966, 12221]}, "edge": {"target": [], "time": []}}, "mouseout": {"state": {"target": ["12", "0", "18", "16", "15", "17", "15", "18", "18", "13", "21", "20"], "time": [509, 1219, 1308, 2325, 2373, 5616, 5666, 5697, 8865, 8914, 12072, 18392]}, "edge": {"target": [], "time": []}}}, "displayed_time": "17.53", "trialTime": 18809, "trial_type": "mouselab-mdp", "trial_index": 45, "time_elapsed": 1152292, "internal_node_id": "0.0-6.0-1.0-24.0"}}, {"uniqueid": "w12322810:a83083941", "current_trial": 46, "dateTime": 1693482780994, "trialdata": {"revealed_states": [], "clicked_states": ["22"], "num_clicks_accrued": [0, 0, 0, 0, 0, 0, 0, 0, 0, 0, 0, 0, 0], "stateRewards": ["", -1, 1, -5, -6, -78, 47, -13, 12, 48, -88, 20, 2, -3, -2, 13, -20, 37, -57, 14, -38, 30, 31, -2, -2, 8, 2, -23, 78, 28, 12, -74, -88, 8], "withholdReward": false, "trial_id": "mdp_trial_26", "block": "test", "trialIndex": 31, "score": 39.85, "costs": -2.15, "simulationMode": [null, null, null, null, null], "rewards": [2, -3, -2, 14, 31], "path": ["0", "0", "12", "13", "14", "19", "22"], "rt": [4349, 34, 140, 25, 170], "actions": ["right", "right", "right", "down", "left"], "actionTimes": [5474, 6027, 6691, 7229, 7906], "queries": {"click": {"state": {"target": ["22"], "time": [2159]}, "edge": {"target": [], "time": []}}, "mouseover": {"state": {"target": ["0", "22", "22", "21"], "time": [1220, 1303, 1685, 3221]}, "edge": {"target": [], "time": []}}, "mouseout": {"state": {"target": ["0", "0", "22", "22", "22", "21"], "time": [977, 1241, 1316, 2264, 2495, 9602]}, "edge": {"target": [], "time": []}}}, "displayed_time": "15.62", "trialTime": 16422, "trial_type": "mouselab-mdp", "trial_index": 46, "time_elapsed": 1168938, "internal_node_id": "0.0-6.0-1.0-25.0"}}, {"uniqueid": "w12322810:a83083941", "current_trial": 47, "dateTime": 1693482808183, "trialdata": {"revealed_states": [], "clicked_states": ["21"], "num_clicks_accrued": [0, 0, 0, 0, 0, 0, 0, 0, 0, 0, 0, 0, 0], "stateRewards": ["", 1, -1, 8, -3, 38, 85, -20, -4, 8, 23, 73, 2, -4, 6, -13, 44, 7, -28, -11, -77, 45, -69, 1, -1, -7, -11, 75, -51, -87, 7, 36, -53, -26], "withholdReward": false, "trial_id": "mdp_trial_27", "block": "test", "trialIndex": 32, "score": 35.85, "costs": -2.15, "simulationMode": [null, null, null, null, null], "rewards": [2, -4, 6, -11, 45], "path": ["0", "0", "12", "13", "14", "19", "21"], "rt": [3735, 18, 98, 185, 163], "actions": ["right", "right", "right", "down", "down"], "actionTimes": [4505, 5044, 5652, 6346, 7036], "queries": {"click": {"state": {"target": ["21"], "time": [1339]}, "edge": {"target": [], "time": []}}, "mouseover": {"state": {"target": ["12", "22", "21", "20"], "time": [891, 945, 1268, 3095]}, "edge": {"target": [], "time": []}}, "mouseout": {"state": {"target": ["22", "22", "0", "0", "12", "22", "21", "20"], "time": [123, 295, 385, 878, 920, 1122, 1489, 26572]}, "edge": {"target": [], "time": []}}}, "displayed_time": "14.94", "trialTime": 26978, "trial_type": "mouselab-mdp", "trial_index": 47, "time_elapsed": 1196127, "internal_node_id": "0.0-6.0-1.0-26.0"}}, {"uniqueid": "w12322810:a83083941", "current_trial": 48, "dateTime": 1693482824538, "trialdata": {"revealed_states": [], "clicked_states": ["21"], "num_clicks_accrued": [0, 0, 0, 0, 0, 0, 0, 0, 0, 0, 0, 0, 0], "stateRewards": ["", -2, 4, -3, -13, 63, -36, 62, 11, 78, 34, -51, 2, -2, 8, -6, -40, -18, 31, 9, 64, 39, 79, 1, 4, -4, 15, -12, 76, 73, -10, -77, 86, -4], "withholdReward": false, "trial_id": "mdp_trial_28", "block": "test", "trialIndex": 33, "score": 53.85, "costs": -2.15, "simulationMode": [null, null, null, null, null], "rewards": [2, -2, 8, 9, 39], "path": ["0", "0", "12", "13", "14", "19", "21"], "rt": [4183, 106, 76, 211, 46], "actions": ["right", "right", "right", "down", "down"], "actionTimes": [5352, 5979, 6576, 7309, 7875], "queries": {"click": {"state": {"target": ["21"], "time": [2186]}, "edge": {"target": [], "time": []}}, "mouseover": {"state": {"target": ["22", "21", "21", "20", "20", "19", "22"], "time": [1343, 1620, 1961, 2701, 3532, 3858, 4215]}, "edge": {"target": [], "time": []}}, "mouseout": {"state": {"target": ["19", "22", "0", "22", "21", "21", "20", "20", "19", "22"], "time": [668, 718, 1287, 1356, 1711, 2629, 2745, 3857, 3882, 14760]}, "edge": {"target": [], "time": []}}}, "displayed_time": "15.46", "trialTime": 16117, "trial_type": "mouselab-mdp", "trial_index": 48, "time_elapsed": 1212482, "internal_node_id": "0.0-6.0-1.0-27.0"}}, {"uniqueid": "w12322810:a83083941", "current_trial": 49, "dateTime": 1693482840474, "trialdata": {"revealed_states": [], "clicked_states": ["21"], "num_clicks_accrued": [0, 0, 0, 0, 0, 0, 0, 0, 0, 0, 0, 0, 0], "stateRewards": ["", -1, -3, 1, -4, -48, -63, -49, -2, -84, -19, 65, 2, -2, -2, -12, -4, 59, 9, 6, 75, 69, -13, -1, -3, -3, -2, -37, -68, -36, 13, 32, 18, -14], "withholdReward": false, "trial_id": "mdp_trial_29", "block": "test", "trialIndex": 34, "score": 70.85, "costs": -2.15, "simulationMode": [null, null, null, null, null], "rewards": [2, -2, -2, 6, 69], "path": ["0", "0", "12", "13", "14", "19", "21"], "rt": [3877, 61, 27, 168, 57], "actions": ["right", "right", "right", "down", "down"], "actionTimes": [4786, 5361, 5897, 6586, 7160], "queries": {"click": {"state": {"target": ["21"], "time": [1517]}, "edge": {"target": [], "time": []}}, "mouseover": {"state": {"target": ["0", "21", "22"], "time": [1036, 1431, 2687]}, "edge": {"target": [], "time": []}}, "mouseout": {"state": {"target": ["0", "0", "21", "22", "19", "17", "15", "20"], "time": [660, 1057, 2404, 12953, 12972, 13515, 13528, 13765]}, "edge": {"target": [], "time": []}}}, "displayed_time": "15.29", "trialTime": 15711, "trial_type": "mouselab-mdp", "trial_index": 49, "time_elapsed": 1228418, "internal_node_id": "0.0-6.0-1.0-28.0"}}, {"uniqueid": "w12322810:a83083941", "current_trial": 50, "dateTime": 1693482856897, "trialdata": {"revealed_states": [], "clicked_states": ["21"], "num_clicks_accrued": [0, 0, 0, 0, 0, 0, 0, 0, 0, 0, 0, 0, 0], "stateRewards": ["", -1, 3, 1, -11, -22, -36, 19, -5, -70, -52, 50, -2, -4, 4, -2, -41, -83, 29, -2, 22, 10, -6, -2, 3, -2, 14, 54, 44, 77, -9, -65, -37, -40], "withholdReward": false, "trial_id": "mdp_trial_30", "block": "test", "trialIndex": 35, "score": 3.8499999999999996, "costs": -2.15, "simulationMode": [null, null, null, null, null], "rewards": [-2, -4, 4, -2, 10], "path": ["0", "0", "12", "13", "14", "19", "21"], "rt": [4868, 124, 154, 160, 19], "actions": ["right", "right", "right", "down", "down"], "actionTimes": [5711, 6360, 7035, 7710, 8247], "queries": {"click": {"state": {"target": ["21"], "time": [1381]}, "edge": {"target": [], "time": []}}, "mouseover": {"state": {"target": ["21", "22"], "time": [1206, 3177]}, "edge": {"target": [], "time": []}}, "mouseout": {"state": {"target": ["0", "21", "22"], "time": [997, 1885, 9561]}, "edge": {"target": [], "time": []}}}, "displayed_time": "15.33", "trialTime": 16193, "trial_type": "mouselab-mdp", "trial_index": 50, "time_elapsed": 1244841, "internal_node_id": "0.0-6.0-1.0-29.0"}}, {"uniqueid": "w12322810:a83083941", "current_trial": 51, "dateTime": 1693482873406, "trialdata": {"revealed_states": [], "clicked_states": ["21", "22"], "num_clicks_accrued": [0, 0, 0, 0, 0, 0, 0, 0, 0, 0, 0, 0, 0], "stateRewards": ["", 1, -2, 4, 7, -43, -83, -60, -5, -86, -80, 83, -1, -2, 6, 11, -15, 21, 13, 9, 29, -49, 11, -1, 4, -6, -11, 87, 40, 63, -8, -39, -11, 62], "withholdReward": false, "trial_id": "mdp_trial_31", "block": "test", "trialIndex": 36, "score": 18.7, "costs": -4.3, "simulationMode": [null, null, null, null, null], "rewards": [-1, -2, 6, 9, 11], "path": ["0", "0", "12", "13", "14", "19", "22"], "rt": [7576, 155, 167, 79, 345], "actions": ["right", "right", "right", "down", "left"], "actionTimes": [8482, 9156, 9846, 10437, 11293], "queries": {"click": {"state": {"target": ["21", "22"], "time": [1405, 4614]}, "edge": {"target": [], "time": []}}, "mouseover": {"state": {"target": ["21", "22", "19", "20"], "time": [1270, 3742, 5039, 5189]}, "edge": {"target": [], "time": []}}, "mouseout": {"state": {"target": ["22", "0", "21", "21", "22", "19", "20", "19"], "time": [193, 993, 1899, 2658, 4994, 5113, 12076, 13249]}, "edge": {"target": [], "time": []}}}, "displayed_time": "15.60", "trialTime": 16281, "trial_type": "mouselab-mdp", "trial_index": 51, "time_elapsed": 1261350, "internal_node_id": "0.0-6.0-1.0-30.0"}}, {"uniqueid": "w12322810:a83083941", "current_trial": 52, "dateTime": 1693482889803, "trialdata": {"revealed_states": [], "clicked_states": ["22", "21", "20"], "num_clicks_accrued": [0, 0, 0, 0, 0, 0, 0, 0, 0, 0, 0, 0, 0], "stateRewards": ["", -2, 1, -3, -16, -39, -52, 30, -7, -41, -59, 11, 2, 1, 8, 2, -11, -26, -42, -13, 87, -59, -48, -1, -1, -1, 16, -79, 31, 50, -1, -84, 34, -82], "withholdReward": false, "trial_id": "mdp_trial_32", "block": "test", "trialIndex": 37, "score": 78.55, "costs": -6.449999999999999, "simulationMode": [null, null, null, null, null], "rewards": [2, 1, 8, -13, 87], "path": ["0", "0", "12", "13", "14", "19", "20"], "rt": [10493, 405, 128, 142, 108], "actions": ["right", "right", "right", "down", "right"], "actionTimes": [11456, 12392, 13033, 13682, 14308], "queries": {"click": {"state": {"target": ["22", "21", "20"], "time": [1922, 5135, 8352]}, "edge": {"target": [], "time": []}}, "mouseover": {"state": {"target": ["0", "22", "22", "21", "20", "14", "15", "15", "16"], "time": [1060, 1121, 1788, 2725, 6841, 8992, 9142, 9537, 9825]}, "edge": {"target": [], "time": []}}, "mouseout": {"state": {"target": ["22", "12", "0", "0", "22", "22", "21", "20", "14", "15", "15", "16", "22"], "time": [545, 601, 649, 1072, 1156, 2306, 5236, 8893, 9067, 9190, 9753, 11842, 16045]}, "edge": {"target": [], "time": []}}}, "displayed_time": "15.27", "trialTime": 16161, "trial_type": "mouselab-mdp", "trial_index": 52, "time_elapsed": 1277747, "internal_node_id": "0.0-6.0-1.0-31.0"}}, {"uniqueid": "w12322810:a83083941", "current_trial": 53, "dateTime": 1693482905901, "trialdata": {"revealed_states": [], "clicked_states": ["22", "21"], "num_clicks_accrued": [0, 0, 0, 0, 0, 0, 0, 0, 0, 0, 0, 0, 0], "stateRewards": ["", -1, -1, 4, -16, -75, 81, -51, -7, -84, 73, -30, -2, 1, -3, -16, -77, 33, 14, 1, 45, 87, -66, 2, 2, -5, -7, -19, -17, 79, -3, 8, 49, 47], "withholdReward": false, "trial_id": "mdp_trial_33", "block": "test", "trialIndex": 38, "score": 79.7, "costs": -4.3, "simulationMode": [null, null, null, null, null], "rewards": [-2, 1, -3, 1, 87], "path": ["0", "0", "12", "13", "14", "19", "21"], "rt": [6893, 109, 136, 76, 20], "actions": ["right", "right", "right", "down", "down"], "actionTimes": [7835, 8460, 9108, 9708, 10247], "queries": {"click": {"state": {"target": ["22", "21"], "time": [1540, 4696]}, "edge": {"target": [], "time": []}}, "mouseover": {"state": {"target": ["22", "22", "21", "21", "20"], "time": [1113, 1397, 2167, 2499, 5261]}, "edge": {"target": [], "time": []}}, "mouseout": {"state": {"target": ["0", "22", "22", "21", "21", "20"], "time": [1050, 1147, 2141, 2191, 5141, 11237]}, "edge": {"target": [], "time": []}}}, "displayed_time": "15.46", "trialTime": 15889, "trial_type": "mouselab-mdp", "trial_index": 53, "time_elapsed": 1293845, "internal_node_id": "0.0-6.0-1.0-32.0"}}, {"uniqueid": "w12322810:a83083941", "current_trial": 54, "dateTime": 1693482922462, "trialdata": {"revealed_states": [], "clicked_states": ["22", "21"], "num_clicks_accrued": [0, 0, 0, 0, 0, 0, 0, 0, 0, 0, 0, 0, 0], "stateRewards": ["", 1, 2, 2, -15, -84, 28, -26, 13, 31, 86, 30, -2, 1, -1, -8, 66, -40, -1, -10, -32, 57, -17, 1, 2, -2, 9, -23, 77, 85, 12, -32, -62, -35], "withholdReward": false, "trial_id": "mdp_trial_34", "block": "test", "trialIndex": 39, "score": 40.7, "costs": -4.3, "simulationMode": [null, null, null, null, null], "rewards": [-2, 1, -1, -10, 57], "path": ["0", "0", "12", "13", "14", "19", "21"], "rt": [6815, 151, 21, 179, 21], "actions": ["right", "right", "right", "down", "down"], "actionTimes": [8389, 9050, 9594, 10289, 10836], "queries": {"click": {"state": {"target": ["22", "21"], "time": [1963, 5135]}, "edge": {"target": [], "time": []}}, "mouseover": {"state": {"target": ["22", "21", "20"], "time": [1802, 3643, 6035]}, "edge": {"target": [], "time": []}}, "mouseout": {"state": {"target": ["0", "22", "21", "20"], "time": [1725, 2672, 5235, 14843]}, "edge": {"target": [], "time": []}}}, "displayed_time": "16.02", "trialTime": 16348, "trial_type": "mouselab-mdp", "trial_index": 54, "time_elapsed": 1310406, "internal_node_id": "0.0-6.0-1.0-33.0"}}, {"uniqueid": "w12322810:a83083941", "current_trial": 55, "dateTime": 1693482939013, "trialdata": {"revealed_states": [], "clicked_states": ["21"], "num_clicks_accrued": [0, 0, 0, 0, 0, 0, 0, 0, 0, 0, 0, 0, 0], "stateRewards": ["", 2, 3, -3, 12, -43, 81, -82, -15, 58, -7, -75, -1, -1, 3, -5, 50, -25, -8, 4, 66, 65, -66, 2, -4, 2, -1, -10, 10, 37, 11, 88, -37, 8], "withholdReward": false, "trial_id": "mdp_trial_35", "block": "test", "trialIndex": 40, "score": 67.85, "costs": -2.15, "simulationMode": [null, null, null, null, null], "rewards": [-1, -1, 3, 4, 65], "path": ["0", "0", "12", "13", "14", "19", "21"], "rt": [3773, 26, 70, 276, 102], "actions": ["right", "right", "right", "down", "down"], "actionTimes": [4627, 5164, 5765, 6554, 7178], "queries": {"click": {"state": {"target": ["21"], "time": [1403]}, "edge": {"target": [], "time": []}}, "mouseover": {"state": {"target": ["22", "21", "22"], "time": [1052, 1226, 3512]}, "edge": {"target": [], "time": []}}, "mouseout": {"state": {"target": ["0", "22", "21", "22"], "time": [969, 1086, 2887, 14614]}, "edge": {"target": [], "time": []}}}, "displayed_time": "15.15", "trialTime": 16323, "trial_type": "mouselab-mdp", "trial_index": 55, "time_elapsed": 1326957, "internal_node_id": "0.0-6.0-1.0-34.0"}}, {"uniqueid": "w12322810:a83083941", "current_trial": 56, "dateTime": 1693482955078, "trialdata": {"revealed_states": [], "clicked_states": ["21"], "num_clicks_accrued": [0, 0, 0, 0, 0, 0, 0, 0, 0, 0, 0, 0, 0], "stateRewards": ["", 2, -1, -1, -9, -81, -30, 55, -6, 78, 25, 62, 2, 4, -1, 9, -85, 1, -19, 1, -60, 12, -34, 1, 4, -1, -13, -24, -16, -83, -8, 16, 43, 9], "withholdReward": false, "trial_id": "mdp_trial_36", "block": "test", "trialIndex": 41, "score": 15.85, "costs": -2.15, "simulationMode": [null, null, null, null, null], "rewards": [2, 4, -1, 1, 12], "path": ["0", "0", "12", "13", "14", "19", "21"], "rt": [4339, 147, 123, 95, 47], "actions": ["right", "right", "right", "down", "down"], "actionTimes": [5365, 6034, 6667, 7288, 7856], "queries": {"click": {"state": {"target": ["21"], "time": [2055]}, "edge": {"target": [], "time": []}}, "mouseover": {"state": {"target": ["21", "22"], "time": [1700, 3369]}, "edge": {"target": [], "time": []}}, "mouseout": {"state": {"target": ["0", "21", "22", "19"], "time": [1380, 3083, 12839, 14415]}, "edge": {"target": [], "time": []}}}, "displayed_time": "15.34", "trialTime": 15849, "trial_type": "mouselab-mdp", "trial_index": 56, "time_elapsed": 1343022, "internal_node_id": "0.0-6.0-1.0-35.0"}}, {"uniqueid": "w12322810:a83083941", "current_trial": 57, "dateTime": 1693482971564, "trialdata": {"revealed_states": [], "clicked_states": ["21", "22"], "num_clicks_accrued": [0, 0, 0, 0, 0, 0, 0, 0, 0, 0, 0, 0, 0], "stateRewards": ["", 1, -3, -2, 14, 49, -40, -39, 2, 26, -61, 73, 1, -4, -8, 12, 79, 29, -65, -13, 55, -26, 27, -1, 3, 3, 9, -17, -60, -18, -8, 35, -88, 69], "withholdReward": false, "trial_id": "mdp_trial_37", "block": "test", "trialIndex": 42, "score": -1.3000000000000007, "costs": -4.3, "simulationMode": [null, null, null, null, null], "rewards": [1, -4, -8, -13, 27], "path": ["0", "0", "12", "13", "14", "19", "22"], "rt": [7179, 406, 74, 76, 49], "actions": ["right", "right", "right", "down", "left"], "actionTimes": [8073, 9000, 9593, 10184, 10763], "queries": {"click": {"state": {"target": ["21", "22"], "time": [1635, 4795]}, "edge": {"target": [], "time": []}}, "mouseover": {"state": {"target": ["12", "19", "21", "22", "19", "20"], "time": [1016, 1078, 1259, 3018, 5301, 5329]}, "edge": {"target": [], "time": []}}, "mouseout": {"state": {"target": ["0", "12", "19", "21", "22", "19", "20"], "time": [725, 1030, 1189, 2373, 5274, 5327, 11731]}, "edge": {"target": [], "time": []}}}, "displayed_time": "15.45", "trialTime": 16241, "trial_type": "mouselab-mdp", "trial_index": 57, "time_elapsed": 1359508, "internal_node_id": "0.0-6.0-1.0-36.0"}}, {"uniqueid": "w12322810:a83083941", "current_trial": 58, "dateTime": 1693482988431, "trialdata": {"revealed_states": [], "clicked_states": ["21"], "num_clicks_accrued": [0, 0, 0, 0, 0, 0, 0, 0, 0, 0, 0, 0, 0], "stateRewards": ["", -1, -4, -6, -15, 21, -67, -63, 9, 51, 69, -14, -1, 3, 8, -8, 39, 72, 63, 15, 19, 47, 15, 1, 4, 5, 16, -18, 34, 35, -14, -80, 40, 1], "withholdReward": false, "trial_id": "mdp_trial_38", "block": "test", "trialIndex": 43, "score": 69.85, "costs": -2.15, "simulationMode": [null, null, null, null, null], "rewards": [-1, 3, 8, 15, 47], "path": ["0", "0", "12", "13", "14", "19", "21"], "rt": [3685, 30, 140, 138, 130], "actions": ["right", "right", "right", "down", "down"], "actionTimes": [4503, 5054, 5709, 6366, 7013], "queries": {"click": {"state": {"target": ["21"], "time": [1324]}, "edge": {"target": [], "time": []}}, "mouseover": {"state": {"target": ["22", "21", "22"], "time": [1023, 1060, 2392]}, "edge": {"target": [], "time": []}}, "mouseout": {"state": {"target": ["0", "22", "21", "22"], "time": [961, 1037, 2136, 8092]}, "edge": {"target": [], "time": []}}}, "displayed_time": "15.31", "trialTime": 16636, "trial_type": "mouselab-mdp", "trial_index": 58, "time_elapsed": 1376375, "internal_node_id": "0.0-6.0-1.0-37.0"}}, {"uniqueid": "w12322810:a83083941", "current_trial": 59, "dateTime": 1693483004959, "trialdata": {"revealed_states": [], "clicked_states": ["21"], "num_clicks_accrued": [0, 0, 0, 0, 0, 0, 0, 0, 0, 0, 0, 0, 0], "stateRewards": ["", -2, 2, 8, -6, -25, 3, 87, 2, -62, -2, 74, -2, -1, 2, -1, 79, 49, -37, -14, 5, 67, -9, -1, 2, -2, 5, 15, 38, 32, -14, -38, -38, 30], "withholdReward": false, "trial_id": "mdp_trial_39", "block": "test", "trialIndex": 44, "score": 49.85, "costs": -2.15, "simulationMode": [null, null, null, null, null], "rewards": [-2, -1, 2, -14, 67], "path": ["0", "0", "12", "13", "14", "19", "21"], "rt": [3755, 215, 154, 32, 56], "actions": ["right", "right", "right", "down", "down"], "actionTimes": [4798, 5521, 6180, 6717, 7301], "queries": {"click": {"state": {"target": ["21"], "time": [1547]}, "edge": {"target": [], "time": []}}, "mouseover": {"state": {"target": ["21", "22"], "time": [1392, 3006]}, "edge": {"target": [], "time": []}}, "mouseout": {"state": {"target": ["21", "19", "13", "12", "21", "21", "22"], "time": [225, 572, 627, 692, 2439, 2907, 11524]}, "edge": {"target": [], "time": []}}}, "displayed_time": "15.55", "trialTime": 16317, "trial_type": "mouselab-mdp", "trial_index": 59, "time_elapsed": 1392902, "internal_node_id": "0.0-6.0-1.0-38.0"}}, {"uniqueid": "w12322810:a83083941", "current_trial": 60, "dateTime": 1693483022081, "trialdata": {"revealed_states": [], "clicked_states": ["21"], "num_clicks_accrued": [0, 0, 0, 0, 0, 0, 0, 0, 0, 0, 0, 0, 0], "stateRewards": ["", -1, -3, -3, 1, -38, 2, -53, -2, -1, -81, 70, -1, 1, -5, -9, 46, 15, 35, -1, -22, 38, 59, -2, 4, -8, 13, 1, -83, -43, 4, 76, 13, 48], "withholdReward": false, "trial_id": "mdp_trial_40", "block": "test", "trialIndex": 45, "score": 29.85, "costs": -2.15, "simulationMode": [null, null, null, null, null], "rewards": [-1, 1, -5, -1, 38], "path": ["0", "0", "12", "13", "14", "19", "21"], "rt": [3813, 67, 119, 88, 25], "actions": ["right", "right", "right", "down", "down"], "actionTimes": [4819, 5408, 6053, 6665, 7212], "queries": {"click": {"state": {"target": ["21"], "time": [1634]}, "edge": {"target": [], "time": []}}, "mouseover": {"state": {"target": ["22", "21", "22"], "time": [1198, 1379, 3043]}, "edge": {"target": [], "time": []}}, "mouseout": {"state": {"target": ["0", "22", "21", "22", "13", "13", "0", "12", "22"], "time": [1135, 1233, 2719, 10247, 10496, 10774, 11511, 11760, 11809]}, "edge": {"target": [], "time": []}}}, "displayed_time": "15.55", "trialTime": 16878, "trial_type": "mouselab-mdp", "trial_index": 60, "time_elapsed": 1410025, "internal_node_id": "0.0-6.0-1.0-39.0"}}, {"uniqueid": "w12322810:a83083941", "current_trial": 61, "dateTime": 1693483089773, "trialdata": {"rt": 67690, "response": {"Q0": "$-2 to $2", "Q1": "$-4 to $4", "Q2": "$-16 to $16", "Q3": "The cost for clicking on nodes varied between nodes.", "Q4": "Very motivated"}, "question_order": [0, 1, 2, 3, 4], "trial_id": "final_quiz_control", "trial_type": "survey-multi-choice", "trial_index": 61, "time_elapsed": 1477717, "internal_node_id": "0.0-6.0-2.0"}}, {"uniqueid": "w12322810:a83083941", "current_trial": 62, "dateTime": 1693483141810, "trialdata": {"rt": 52031, "response": {"Q0": "I inspected the furthest nodes and when i found a green node i would go there.", "Q1": "No. I always used the same strategy.", "Q2": "No difficulties."}, "trial_id": "self_report_control", "trial_type": "survey-text", "trial_index": 62, "time_elapsed": 1529754, "internal_node_id": "0.0-6.0-3.0"}}, {"uniqueid": "w12322810:a83083941", "current_trial": 63, "dateTime": 1693483190699, "trialdata": {"rt": 48887, "response": {"Q0": "Strongly disagree", "Q1": "Strongly disagree", "Q2": "Strongly disagree", "Q3": "Strongly disagree", "Q4": "Strongly disagree", "Q5": "Strongly disagree", "Q6": "Strongly disagree"}, "question_order": [0, 1, 2, 3, 4, 5, 6], "trial_id": "self_report_2", "trial_type": "survey-multi-choice", "trial_index": 63, "time_elapsed": 1578643, "internal_node_id": "0.0-6.0-4.0"}}, {"uniqueid": "w12322810:a83083941", "current_trial": 64, "dateTime": 1693483208338, "trialdata": {"rt": 17636, "response": {"gender": "male", "age": "31", "colorblind": "0", "effort": "0"}, "trial_type": "survey-html-form", "trial_index": 64, "time_elapsed": 1596282, "internal_node_id": "0.0-6.0-5.0"}}, {"uniqueid": "w12322810:a83083941", "current_trial": 65, "dateTime": 1693483230944, "trialdata": {"rt": 22603, "response": {"Q0": "No.", "Q1": "This study was new for me.", "Q2": ""}, "trial_type": "survey-text", "trial_index": 65, "time_elapsed": 1618888, "internal_node_id": "0.0-6.0-6.0"}}, {"uniqueid": "w12322810:a83083941", "current_trial": 66, "dateTime": 1693483245493, "trialdata": {"rt": 14547, "stimulus": "<h1>Completion Code Instructions (1/2)</h1>\n<br><br><br><br>\nYou have reached the end of the experiment! The completion code consists of two parts: (1) a code with 2 characters (2) a code with 6 characters. On this page, you will receive the second part of the code. The first part of the completion code will be on the next page.\n<br><br>\nThe second part of your completion code is: <b>EWEK22</b>\n<br><br>\nPlease note this down. Then, press 'Finish HIT' in order to find the first part of your completion code. Once the data has been saved, you will receive this code either in this window or in the original browser window where you started the experiment.\n", "response": 0, "trial_type": "html-button-response", "trial_index": 66, "time_elapsed": 1633437, "internal_node_id": "0.0-6.0-7.0"}}, {"uniqueid": "w12322810:a83083941", "current_trial": 67, "dateTime": 1693483246499, "trialdata": {"success": true, "trial_type": "fullscreen", "trial_index": 67, "time_elapsed": 1634443, "internal_node_id": "0.0-7.0"}}], "questiondata": {"params": {"CODE": "C6DMOQA6", "MIN_TIME": 14, "inspectCost": 1, "startTime": "Thu Aug 31 2023 14:33:30 GMT+0300 (Eastern European Summer Time)", "bonusRate": 0.002, "variance": "1_2_4_8_44", "branching": "31123"}, "final_score": 1473.7}, "eventdata": [{"eventtype": "initialized", "value": null, "timestamp": 1693481610523, "interval": 0}, {"eventtype": "window_resize", "value": [1024, 768], "timestamp": 1693481610523, "interval": 0}, {"eventtype": "focus", "value": "on", "timestamp": 1693481610667, "interval": 144}, {"eventtype": "window_resize", "value": [1024, 768], "timestamp": 1693481610868, "interval": 201}, {"eventtype": "focus", "value": "off", "timestamp": 1693481614948, "interval": 4080}, {"eventtype": "focus", "value": "on", "timestamp": 1693481659772, "interval": 44824}, {"eventtype": "window_resize", "value": [1920, 1080], "timestamp": 1693481661427, "interval": 1655}, {"eventtype": "focus", "value": "off", "timestamp": 1693482021514, "interval": 360087}, {"eventtype": "focus", "value": "on", "timestamp": 1693482021515, "interval": 1}, {"eventtype": "focus", "value": "off", "timestamp": 1693482117388, "interval": 95873}, {"eventtype": "focus", "value": "on", "timestamp": 1693482117388, "interval": 0}, {"eventtype": "window_resize", "value": [1024, 768], "timestamp": 1693482117603, "interval": 215}, {"eventtype": "focus", "value": "off", "timestamp": 1693482121334, "interval": 3731}, {"eventtype": "focus", "value": "on", "timestamp": 1693482121442, "interval": 108}, {"eventtype": "window_resize", "value": [1920, 1080], "timestamp": 1693482124260, "interval": 2818}, {"eventtype": "window_resize", "value": [1024, 768], "timestamp": 1693482127500, "interval": 3240}, {"eventtype": "focus", "value": "off", "timestamp": 1693482130279, "interval": 2779}, {"eventtype": "focus", "value": "on", "timestamp": 1693482130279, "interval": 0}, {"eventtype": "focus", "value": "off", "timestamp": 1693482132477, "interval": 2198}, {"eventtype": "focus", "value": "on", "timestamp": 1693482133798, "interval": 1321}, {"eventtype": "window_resize", "value": [1920, 976], "timestamp": 1693482140073, "interval": 6275}, {"eventtype": "focus", "value": "off", "timestamp": 1693482687974, "interval": 547901}, {"eventtype": "focus", "value": "on", "timestamp": 1693482693066, "interval": 5092}, {"eventtype": "focus", "value": "off", "timestamp": 1693482774653, "interval": 81587}, {"eventtype": "focus", "value": "on", "timestamp": 1693482778425, "interval": 3772}, {"eventtype": "focus", "value": "off", "timestamp": 1693482980979, "interval": 202554}, {"eventtype": "focus", "value": "on", "timestamp": 1693482982965, "interval": 1986}, {"eventtype": "focus", "value": "off", "timestamp": 1693482983871, "interval": 906}, {"eventtype": "focus", "value": "on", "timestamp": 1693482986287, "interval": 2416}, {"eventtype": "focus", "value": "off", "timestamp": 1693483018061, "interval": 31774}, {"eventtype": "focus", "value": "on", "timestamp": 1693483020414, "interval": 2353}], "useragent": "Mozilla/5.0 (Windows NT 10.0; Win64; x64; rv:109.0) Gecko/20100101 Firefox/117.0", "mode": "live", "id": "w12322810:a83083941", "status": "user data saved", "Beginhit": "2023-08-31 11:33:27.562688", "Beginexp": "2023-08-31 11:34:21.025442", "Endhit": "2023-08-31 12:00:46.055456", "psiturkStatus": 3, "browser": "<redacted>", "platform": "windows", "language": "en-US"}