{"condition": 0, "counterbalance": 0, "assignmentId": "a77542389", "workerId": "w48515896", "hitId": "h93292694", "currenttrial": 6, "bonus": 0, "data": [{"uniqueid": "w48515896:a77542389", "current_trial": 0, "dateTime": 1693580989350, "trialdata": {"success": true, "trial_type": "fullscreen", "trial_index": 0, "time_elapsed": 22547, "internal_node_id": "0.0-0.0"}}, {"uniqueid": "w48515896:a77542389", "current_trial": 1, "dateTime": 1693581016112, "trialdata": {"view_history": [{"page_index": 0, "viewing_time": 26733}], "rt": 26736, "trial_id": "exp_instructions_control", "trial_type": "instructions", "trial_index": 1, "time_elapsed": 49314, "internal_node_id": "0.0-1.0"}}, {"uniqueid": "w48515896:a77542389", "current_trial": 2, "dateTime": 1693581187351, "trialdata": {"view_history": [{"page_index": 0, "viewing_time": 68380}, {"page_index": 1, "viewing_time": 67458}, {"page_index": 2, "viewing_time": 10790}, {"page_index": 3, "viewing_time": 24603}], "rt": 171232, "trial_id": "mouselab_instructions_1_control", "trial_type": "instructions", "trial_index": 2, "time_elapsed": 220553, "internal_node_id": "0.0-2.0-1.0"}}, {"uniqueid": "w48515896:a77542389", "current_trial": 3, "dateTime": 1693581216688, "trialdata": {"revealed_states": [], "clicked_states": [], "num_clicks_accrued": [0, 0, 0, 0, 0, 0, 0, 0, 0, 0, 0, 0, 0], "stateRewards": ["", -10, -10, -10, -10, 10, 10, 10, -10, -10, 10, -10, 10, 10, -10, 10, 10, -10, -10, -10, -10, -10, 10, -10, 10, -10, -10, -10, 10, -10, 10, 10, 10, -10], "withholdReward": false, "trial_id": "practice_1", "block": "test", "trialIndex": 0, "score": 33.5, "costs": 0, "simulationMode": [null, null, null, null, null], "rewards": [10, 10, -10, 10, 10], "path": ["0", "0", "12", "13", "14", "15", "16"], "rt": [2737, 416, 862, 928, 396], "actions": ["right", "right", "right", "up", "up"], "actionTimes": [16271, 17380, 18847, 20301, 21220], "queries": {"click": {"state": {"target": [], "time": []}, "edge": {"target": [], "time": []}}, "mouseover": {"state": {"target": [], "time": []}, "edge": {"target": [], "time": []}}, "mouseout": {"state": {"target": ["0"], "time": [929]}, "edge": {"target": [], "time": []}}}, "displayed_time": "21.81", "trialTime": 26374, "trial_type": "mouselab-mdp", "trial_index": 3, "time_elapsed": 249889, "internal_node_id": "0.0-2.0-2.0-0.0"}}, {"uniqueid": "w48515896:a77542389", "current_trial": 4, "dateTime": 1693581243889, "trialdata": {"revealed_states": [], "clicked_states": [], "num_clicks_accrued": [0, 0, 0, 0, 0, 0, 0, 0, 0, 0, 0, 0, 0], "stateRewards": ["", 10, 10, 10, -10, -10, -10, 10, 10, 10, 10, -10, 10, 10, 10, -10, 10, -10, 10, -10, -10, 10, 10, 10, 10, 10, -10, -10, 10, 10, -10, -10, 10, -10], "withholdReward": false, "trial_id": "practice_2", "block": "test", "trialIndex": 1, "score": 13.5, "costs": 0, "simulationMode": [null, null, null, null, null], "rewards": [10, 10, 10, -10, -10], "path": ["0", "0", "23", "24", "25", "26", "27"], "rt": [6244, 126, 4468, 1003, 199], "actions": ["left", "left", "left", "up", "up"], "actionTimes": [11638, 12415, 18361, 19939, 20687], "queries": {"click": {"state": {"target": [], "time": []}, "edge": {"target": [], "time": []}}, "mouseover": {"state": {"target": [], "time": []}, "edge": {"target": [], "time": []}}, "mouseout": {"state": {"target": [], "time": []}, "edge": {"target": [], "time": []}}}, "displayed_time": "21.44", "trialTime": 25504, "trial_type": "mouselab-mdp", "trial_index": 4, "time_elapsed": 277090, "internal_node_id": "0.0-2.0-2.0-1.0"}}, {"uniqueid": "w48515896:a77542389", "current_trial": 5, "dateTime": 1693581353713, "trialdata": {"view_history": [{"page_index": 0, "viewing_time": 36414}, {"page_index": 1, "viewing_time": 8640}, {"page_index": 0, "viewing_time": 48851}, {"page_index": 1, "viewing_time": 15832}], "rt": 109739, "trial_id": "mouselab_instructions_2_control", "trial_type": "instructions", "trial_index": 5, "time_elapsed": 386914, "internal_node_id": "0.0-2.0-3.0"}}], "questiondata": {"params": {"CODE": "C6DMOQA6", "MIN_TIME": 14, "inspectCost": 1, "startTime": "Fri Sep 01 2023 17:09:08 GMT+0200 (South Africa Standard Time)", "bonusRate": 0.002, "variance": "1_2_4_8_44", "branching": "31123"}}, "eventdata": [{"eventtype": "initialized", "value": null, "timestamp": 1693580945336, "interval": 0}, {"eventtype": "window_resize", "value": [1024, 658], "timestamp": 1693580945336, "interval": 0}, {"eventtype": "window_resize", "value": [1024, 658], "timestamp": 1693580947742, "interval": 2406}, {"eventtype": "focus", "value": "off", "timestamp": 1693580978120, "interval": 30378}, {"eventtype": "focus", "value": "on", "timestamp": 1693580981699, "interval": 3579}, {"eventtype": "window_resize", "value": [1366, 768], "timestamp": 1693580989527, "interval": 7828}], "useragent": "Mozilla/5.0 (Windows NT 10.0; Win64; x64) AppleWebKit/537.36 (KHTML, like Gecko) Chrome/115.0.0.0 Safari/537.36 Edg/115.0.1901.203", "mode": "live", "id": "w48515896:a77542389", "status": "user data saved", "Beginhit": "2023-09-01 15:05:10.750873", "Beginexp": "2023-09-01 15:07:04.574099", "Endhit": null, "psiturkStatus": 2, "browser": "<redacted>", "platform": "windows", "language": "en-US", "excludeReason": "quizfail"}