{"condition": 1, "counterbalance": 0, "assignmentId": "a25059818", "workerId": "w49138022", "hitId": "h52473589", "currenttrial": 56, "bonus": 0, "data": [{"uniqueid": "w49138022:a25059818", "current_trial": 0, "dateTime": 1691485129708, "trialdata": {"success": true, "trial_type": "fullscreen", "trial_index": 0, "time_elapsed": 20171, "internal_node_id": "0.0-0.0"}}, {"uniqueid": "w49138022:a25059818", "current_trial": 1, "dateTime": 1691485180503, "trialdata": {"view_history": [{"page_index": 0, "viewing_time": 50788}], "rt": 50790, "trial_id": "exp_instructions_misaligned", "trial_type": "instructions", "trial_index": 1, "time_elapsed": 70967, "internal_node_id": "0.0-1.0"}}, {"uniqueid": "w49138022:a25059818", "current_trial": 2, "dateTime": 1691485184677, "trialdata": {"success": true, "trial_type": "fullscreen", "trial_index": 2, "time_elapsed": 75141, "internal_node_id": "0.0-2.0-0.0"}}, {"uniqueid": "w49138022:a25059818", "current_trial": 3, "dateTime": 1691485394943, "trialdata": {"view_history": [{"page_index": 0, "viewing_time": 70493}, {"page_index": 1, "viewing_time": 63219}, {"page_index": 2, "viewing_time": 25503}, {"page_index": 3, "viewing_time": 51047}], "rt": 210263, "trial_id": "mouselab_instructions_1_misaligned", "trial_type": "instructions", "trial_index": 3, "time_elapsed": 285407, "internal_node_id": "0.0-2.0-1.0"}}, {"uniqueid": "w49138022:a25059818", "current_trial": 4, "dateTime": 1691485412731, "trialdata": {"revealed_states": [], "clicked_states": [], "num_clicks_accrued": [0, 0, 0, 0, 0, 0, 0, 0, 0, 0, 0, 0, 0], "stateRewards": ["", -10, -10, 10, 10, 10, 10, 10, -10, 10, -10, -10, -10, 10, -10, 10, -10, 10, 10, -10, -10, 10, 10, -10, -10, 10, 10, 10, -10, -10, -10, 10, -10, -10], "withholdReward": false, "trial_id": "practice_1", "block": "test", "trialIndex": 0, "score": 13.5, "costs": 0, "simulationMode": [null, null, null, null, null], "rewards": [-10, 10, -10, 10, 10], "path": ["0", "0", "12", "13", "14", "15", "18"], "rt": [842, 266, 329, 117, 130], "actions": ["right", "right", "right", "up", "left"], "actionTimes": [4534, 5316, 6145, 6783, 7412], "queries": {"click": {"state": {"target": [], "time": []}, "edge": {"target": [], "time": []}}, "mouseover": {"state": {"target": [], "time": []}, "edge": {"target": [], "time": []}}, "mouseout": {"state": {"target": ["0"], "time": [13448]}, "edge": {"target": [], "time": []}}}, "displayed_time": "7.92", "trialTime": 17253, "trial_type": "mouselab-mdp", "trial_index": 4, "time_elapsed": 303194, "internal_node_id": "0.0-2.0-2.0-0.0"}}, {"uniqueid": "w49138022:a25059818", "current_trial": 5, "dateTime": 1691485421175, "trialdata": {"revealed_states": [], "clicked_states": [], "num_clicks_accrued": [0, 0, 0, 0, 0, 0, 0, 0, 0, 0, 0, 0, 0], "stateRewards": ["", 10, 10, -10, 10, 10, 10, 10, 10, -10, 10, -10, -10, 10, -10, 10, 10, 10, -10, -10, -10, 10, 10, 10, -10, -10, -10, -10, 10, -10, 10, -10, 10, -10], "withholdReward": false, "trial_id": "practice_2", "block": "test", "trialIndex": 1, "score": -6.5, "costs": 0, "simulationMode": [null, null, null, null, null], "rewards": [-10, 10, -10, -10, 10], "path": ["0", "0", "12", "13", "14", "19", "22"], "rt": [603, 159, 251, 104, 187], "actions": ["right", "right", "right", "down", "left"], "actionTimes": [3165, 3842, 4605, 5205, 5891], "queries": {"click": {"state": {"target": [], "time": []}, "edge": {"target": [], "time": []}}, "mouseover": {"state": {"target": [], "time": []}, "edge": {"target": [], "time": []}}, "mouseout": {"state": {"target": ["0"], "time": [7365]}, "edge": {"target": [], "time": []}}}, "displayed_time": "6.40", "trialTime": 8265, "trial_type": "mouselab-mdp", "trial_index": 5, "time_elapsed": 311638, "internal_node_id": "0.0-2.0-2.0-1.0"}}, {"uniqueid": "w49138022:a25059818", "current_trial": 6, "dateTime": 1691485466897, "trialdata": {"view_history": [{"page_index": 0, "viewing_time": 36642}, {"page_index": 1, "viewing_time": 9075}], "rt": 45718, "trial_id": "mouselab_instructions_2_misaligned", "trial_type": "instructions", "trial_index": 6, "time_elapsed": 357361, "internal_node_id": "0.0-2.0-3.0"}}, {"uniqueid": "w49138022:a25059818", "current_trial": 7, "dateTime": 1691485502650, "trialdata": {"rt": 35749, "response": {"Q0": "The cost for clicking on nodes may vary between nodes.", "Q1": "The better I perform the higher my bonus will be.", "Q2": "No, the amount of cash at each node of the web may be different each time.", "Q3": "To get the highest total score.", "Q4": "Only before moving the spider.", "Q5": "3 seconds"}, "question_order": [0, 1, 2, 3, 4, 5], "correct": {"Q0": "The cost for clicking on nodes may vary between nodes.", "Q1": "The better I perform the higher my bonus will be.", "Q2": "No, the amount of cash at each node of the web may be different each time.", "Q3": "To get the highest total score.", "Q4": "Only before moving the spider.", "Q5": "3 seconds"}, "trial_id": "mouselab_quiz_misaligned", "trial_type": "survey-multi-choice", "trial_index": 7, "time_elapsed": 393114, "internal_node_id": "0.0-2.0-4.0"}}, {"uniqueid": "w49138022:a25059818", "current_trial": 8, "dateTime": 1691485526310, "trialdata": {"rt": 23652, "stimulus": "\n<h1> Get ready to start the game! </h1>\n\nThank you for reading the instructions. Get ready start with the 40 rounds of this game.\n<br><br>\nIf you need to take a break, feel free to take one after the end of a round, before continuing to the next one.\n<br><br>\nRemember, the more money the spider gets, the bigger your bonus will be!\n<br><br>\n<div style='text-align: center;'>Press <code>space</code> to begin.</div>\n\n<br><br>\n(If, at any point, the <code>space</code> key does not take you to the next page, click once on the text and try again.)", "response": " ", "trial_id": "mdp_ready", "trial_type": "html-keyboard-response", "trial_index": 8, "time_elapsed": 416774, "internal_node_id": "0.0-4.0-0.0"}}, {"uniqueid": "w49138022:a25059818", "current_trial": 9, "dateTime": 1691485568398, "trialdata": {"revealed_states": [], "clicked_states": ["16", "22", "21", "20", "31", "32", "33", "10", "7"], "num_clicks_accrued": [0, 0, 0, 0, 0, 0, 0, 0, 0, 0, 0, 0, 0], "stateRewards": ["", -1, -4, -1, -5, -28, -23, -15, -15, -38, 59, -87, 2, 2, -5, 9, -55, -39, -71, -6, 85, -85, -11, -1, -2, 5, -10, 1, 25, 41, -4, 69, -35, 86], "withholdReward": false, "trial_id": "mdp_trial_1", "block": "test", "trialIndex": 2, "score": -2.349999999999998, "costs": -19.349999999999998, "simulationMode": [null, null, null, null, null], "rewards": [-1, -2, 5, -10, 25], "path": ["0", "0", "23", "24", "25", "26", "28"], "rt": [32750, 461, 146, 277, 240], "actions": ["left", "left", "left", "up", "right"], "actionTimes": [35258, 36237, 36888, 37669, 38431], "queries": {"click": {"state": {"target": ["16", "22", "21", "20", "31", "32", "33", "10", "7"], "time": [3957, 7008, 10105, 12913, 16134, 19179, 22482, 25437, 28465]}, "edge": {"target": [], "time": []}}, "mouseover": {"state": {"target": ["12", "18", "16", "17", "15", "18", "13", "22", "22", "13", "14", "19", "21", "20", "19", "23", "24", "31", "32", "33", "33", "26", "28", "10", "28", "2", "7", "28", "28", "0"], "time": [3027, 3325, 3610, 4396, 5080, 5245, 6014, 6529, 6712, 7680, 7880, 7963, 8213, 10646, 13481, 13561, 13727, 14095, 16912, 20262, 21594, 23162, 23429, 25126, 26359, 26643, 26926, 29342, 29642, 32142]}, "edge": {"target": [], "time": []}}, "mouseout": {"state": {"target": ["1", "0", "12", "18", "16", "17", "15", "18", "13", "22", "22", "13", "14", "19", "21", "20", "19", "23", "24", "31", "32", "33", "33", "26", "28", "10", "28", "10", "2", "7", "28", "28", "0", "18", "15"], "time": [1710, 2944, 3294, 3359, 4312, 5046, 5144, 5997, 6030, 6546, 7629, 7762, 7929, 8112, 10579, 13478, 13495, 13595, 13995, 16728, 19962, 21195, 23062, 23246, 25060, 26159, 26526, 26593, 26680, 29193, 29410, 32011, 39790, 39807, 39824]}, "edge": {"target": [], "time": []}}}, "displayed_time": "38.95", "trialTime": 41903, "trial_type": "mouselab-mdp", "trial_index": 9, "time_elapsed": 458861, "internal_node_id": "0.0-4.0-1.0-0.0"}}, {"uniqueid": "w49138022:a25059818", "current_trial": 10, "dateTime": 1691485648774, "trialdata": {"revealed_states": [], "clicked_states": [], "num_clicks_accrued": [0, 0, 0, 0, 0, 0, 0, 0, 0, 0, 0, 0, 0], "stateRewards": ["", -1, -4, 8, 8, -68, 47, 24, -7, -61, 49, -69, -1, -1, 8, -7, 42, 1, -45, -11, 10, -63, -6, 1, 4, 6, -16, 79, -37, -58, -12, 81, 18, -53], "withholdReward": false, "trial_id": "mdp_trial_2", "block": "test", "trialIndex": 3, "score": -46, "costs": 0, "simulationMode": [null, null, null, null, null], "rewards": [-1, -1, 8, -7, -45], "path": ["0", "0", "12", "13", "14", "15", "18"], "rt": [736, 309, 162, 143, 141], "actions": ["right", "right", "right", "up", "left"], "actionTimes": [3174, 3998, 4665, 5313, 5963], "queries": {"click": {"state": {"target": [], "time": []}, "edge": {"target": [], "time": []}}, "mouseover": {"state": {"target": [], "time": []}, "edge": {"target": [], "time": []}}, "mouseout": {"state": {"target": ["16", "18", "0"], "time": [1502, 1584, 7351]}, "edge": {"target": [], "time": []}}}, "displayed_time": "16.44", "trialTime": 80191, "trial_type": "mouselab-mdp", "trial_index": 10, "time_elapsed": 539237, "internal_node_id": "0.0-4.0-1.0-1.0"}}, {"uniqueid": "w49138022:a25059818", "current_trial": 11, "dateTime": 1691485666215, "trialdata": {"revealed_states": [], "clicked_states": [], "num_clicks_accrued": [0, 0, 0, 0, 0, 0, 0, 0, 0, 0, 0, 0, 0], "stateRewards": ["", -1, -2, -8, 8, -27, -82, 19, -14, -62, 4, 1, -2, 2, 6, 10, 73, -51, -2, 2, 73, -48, 54, -1, 2, -4, 11, -25, 47, 86, 15, 33, 43, -42], "withholdReward": false, "trial_id": "mdp_trial_3", "block": "test", "trialIndex": 4, "score": 45, "costs": 0, "simulationMode": [null, null, null, null, null], "rewards": [-1, 2, -4, 15, 33], "path": ["0", "0", "23", "24", "25", "30", "31"], "rt": [519, 74, 121, 94, 129], "actions": ["left", "left", "left", "down", "right"], "actionTimes": [2413, 2994, 3610, 4199, 4831], "queries": {"click": {"state": {"target": [], "time": []}, "edge": {"target": [], "time": []}}, "mouseover": {"state": {"target": [], "time": []}, "edge": {"target": [], "time": []}}, "mouseout": {"state": {"target": ["0"], "time": [6066]}, "edge": {"target": [], "time": []}}}, "displayed_time": "15.90", "trialTime": 17261, "trial_type": "mouselab-mdp", "trial_index": 11, "time_elapsed": 556678, "internal_node_id": "0.0-4.0-1.0-2.0"}}, {"uniqueid": "w49138022:a25059818", "current_trial": 12, "dateTime": 1691485685239, "trialdata": {"revealed_states": [], "clicked_states": [], "num_clicks_accrued": [0, 0, 0, 0, 0, 0, 0, 0, 0, 0, 0, 0, 0], "stateRewards": ["", -1, -3, -6, 14, 41, 18, 63, -14, 80, 21, 17, -2, -4, -2, -5, 13, 70, 8, -4, -64, -10, -20, 2, -1, 4, -1, -17, -55, 42, -7, 47, 54, 15], "withholdReward": false, "trial_id": "mdp_trial_4", "block": "test", "trialIndex": 5, "score": 57, "costs": 0, "simulationMode": [null, null, null, null, null], "rewards": [-2, -4, -2, -5, 70], "path": ["0", "0", "12", "13", "14", "15", "17"], "rt": [508, 154, 110, 786, 32], "actions": ["right", "right", "right", "up", "right"], "actionTimes": [3555, 4211, 4837, 6139, 6668], "queries": {"click": {"state": {"target": [], "time": []}, "edge": {"target": [], "time": []}}, "mouseover": {"state": {"target": [], "time": []}, "edge": {"target": [], "time": []}}, "mouseout": {"state": {"target": ["0"], "time": [7749]}, "edge": {"target": [], "time": []}}}, "displayed_time": "17.05", "trialTime": 18838, "trial_type": "mouselab-mdp", "trial_index": 12, "time_elapsed": 575702, "internal_node_id": "0.0-4.0-1.0-3.0"}}, {"uniqueid": "w49138022:a25059818", "current_trial": 13, "dateTime": 1691485701688, "trialdata": {"revealed_states": [], "clicked_states": [], "num_clicks_accrued": [0, 0, 0, 0, 0, 0, 0, 0, 0, 0, 0, 0, 0], "stateRewards": ["", -1, 2, -6, 6, -82, -19, -39, -16, -83, 11, -33, -2, -2, 4, -6, -82, -1, -19, -6, -10, -67, -41, -2, 1, -7, 16, -23, -78, -52, 14, 31, -71, 74], "withholdReward": false, "trial_id": "mdp_trial_5", "block": "test", "trialIndex": 6, "score": -44, "costs": 0, "simulationMode": [null, null, null, null, null], "rewards": [-2, 1, -7, 16, -52], "path": ["0", "0", "23", "24", "25", "26", "29"], "rt": [728, 121, 68, 30, 8], "actions": ["left", "left", "left", "up", "left"], "actionTimes": [1897, 2523, 3106, 3647, 4176], "queries": {"click": {"state": {"target": [], "time": []}, "edge": {"target": [], "time": []}}, "mouseover": {"state": {"target": [], "time": []}, "edge": {"target": [], "time": []}}, "mouseout": {"state": {"target": ["0"], "time": [5332]}, "edge": {"target": [], "time": []}}}, "displayed_time": "15.18", "trialTime": 16252, "trial_type": "mouselab-mdp", "trial_index": 13, "time_elapsed": 592151, "internal_node_id": "0.0-4.0-1.0-4.0"}}, {"uniqueid": "w49138022:a25059818", "current_trial": 14, "dateTime": 1691485719592, "trialdata": {"revealed_states": [], "clicked_states": [], "num_clicks_accrued": [0, 0, 0, 0, 0, 0, 0, 0, 0, 0, 0, 0, 0], "stateRewards": ["", 2, -1, -1, -9, -81, -30, 55, -6, 78, 25, 62, 2, 4, -1, 9, -85, 1, -19, 1, -60, 12, -34, 1, 4, -1, -13, -24, -16, -83, -8, 16, 43, 9], "withholdReward": false, "trial_id": "mdp_trial_6", "block": "test", "trialIndex": 7, "score": -39, "costs": 0, "simulationMode": [null, null, null, null, null], "rewards": [2, -1, -1, -9, -30], "path": ["0", "0", "1", "2", "3", "4", "6"], "rt": [1367, 69, 35, 100, 201], "actions": ["up", "up", "up", "right", "right"], "actionTimes": [2859, 3432, 3983, 4579, 5281], "queries": {"click": {"state": {"target": [], "time": []}, "edge": {"target": [], "time": []}}, "mouseover": {"state": {"target": [], "time": []}, "edge": {"target": [], "time": []}}, "mouseout": {"state": {"target": ["0"], "time": [7077]}, "edge": {"target": [], "time": []}}}, "displayed_time": "15.50", "trialTime": 17702, "trial_type": "mouselab-mdp", "trial_index": 14, "time_elapsed": 610055, "internal_node_id": "0.0-4.0-1.0-5.0"}}, {"uniqueid": "w49138022:a25059818", "current_trial": 15, "dateTime": 1691485740127, "trialdata": {"revealed_states": [], "clicked_states": [], "num_clicks_accrued": [0, 0, 0, 0, 0, 0, 0, 0, 0, 0, 0, 0, 0], "stateRewards": ["", 1, 4, 7, -16, -84, -6, -46, -12, -7, -49, -26, -1, 2, -4, 2, 22, 37, -64, 1, 88, -13, -10, 1, -4, -2, 5, 2, -10, -34, 9, 66, 55, 38], "withholdReward": false, "trial_id": "mdp_trial_7", "block": "test", "trialIndex": 8, "score": -12, "costs": 0, "simulationMode": [null, null, null, null, null], "rewards": [-1, 2, -4, 1, -10], "path": ["0", "0", "12", "13", "14", "19", "22"], "rt": [418, 100, 796, 177, 160], "actions": ["right", "right", "right", "down", "left"], "actionTimes": [1741, 2345, 3657, 4354, 5025], "queries": {"click": {"state": {"target": [], "time": []}, "edge": {"target": [], "time": []}}, "mouseover": {"state": {"target": [], "time": []}, "edge": {"target": [], "time": []}}, "mouseout": {"state": {"target": ["0"], "time": [6362]}, "edge": {"target": [], "time": []}}}, "displayed_time": "15.33", "trialTime": 20336, "trial_type": "mouselab-mdp", "trial_index": 15, "time_elapsed": 630590, "internal_node_id": "0.0-4.0-1.0-6.0"}}, {"uniqueid": "w49138022:a25059818", "current_trial": 16, "dateTime": 1691485758137, "trialdata": {"revealed_states": [], "clicked_states": [], "num_clicks_accrued": [0, 0, 0, 0, 0, 0, 0, 0, 0, 0, 0, 0, 0], "stateRewards": ["", -1, 3, 1, -7, 56, 76, 57, 3, 11, -9, 14, 1, -2, 2, 8, -77, -3, 79, -5, 88, 24, -66, -2, -1, 7, -7, -30, 14, -76, 11, -36, 28, -6], "withholdReward": false, "trial_id": "mdp_trial_8", "block": "test", "trialIndex": 9, "score": -21, "costs": 0, "simulationMode": [null, null, null, null, null], "rewards": [-2, -1, 7, 11, -36], "path": ["0", "0", "23", "24", "25", "30", "31"], "rt": [916, 610, 64, 254, 93], "actions": ["left", "left", "left", "down", "right"], "actionTimes": [2438, 3586, 4158, 4913, 5503], "queries": {"click": {"state": {"target": [], "time": []}, "edge": {"target": [], "time": []}}, "mouseover": {"state": {"target": [], "time": []}, "edge": {"target": [], "time": []}}, "mouseout": {"state": {"target": ["0"], "time": [7127]}, "edge": {"target": [], "time": []}}}, "displayed_time": "15.53", "trialTime": 17808, "trial_type": "mouselab-mdp", "trial_index": 16, "time_elapsed": 648601, "internal_node_id": "0.0-4.0-1.0-7.0"}}, {"uniqueid": "w49138022:a25059818", "current_trial": 17, "dateTime": 1691485805976, "trialdata": {"revealed_states": [], "clicked_states": [], "num_clicks_accrued": [0, 0, 0, 0, 0, 0, 0, 0, 0, 0, 0, 0, 0], "stateRewards": ["", 1, -3, 4, 13, -72, 52, 5, 5, -58, 5, 14, 2, 1, 3, -14, -86, -4, 73, 6, -58, -50, 49, 2, -3, -4, 2, 33, -41, 42, -11, 81, 45, 53], "withholdReward": false, "trial_id": "mdp_trial_9", "block": "test", "trialIndex": 10, "score": 12, "costs": 0, "simulationMode": [null, null, null, null, null], "rewards": [1, -3, 4, 5, 5], "path": ["0", "0", "1", "2", "3", "8", "10"], "rt": [928, 492, 35, 14, 35], "actions": ["up", "up", "up", "left", "down"], "actionTimes": [5208, 6210, 6753, 7280, 7816], "queries": {"click": {"state": {"target": [], "time": []}, "edge": {"target": [], "time": []}}, "mouseover": {"state": {"target": [], "time": []}, "edge": {"target": [], "time": []}}, "mouseout": {"state": {"target": ["0"], "time": [8716]}, "edge": {"target": [], "time": []}}}, "displayed_time": "18.28", "trialTime": 47636, "trial_type": "mouselab-mdp", "trial_index": 17, "time_elapsed": 696439, "internal_node_id": "0.0-4.0-1.0-8.0"}}, {"uniqueid": "w49138022:a25059818", "current_trial": 18, "dateTime": 1691485826997, "trialdata": {"revealed_states": [], "clicked_states": [], "num_clicks_accrued": [0, 0, 0, 0, 0, 0, 0, 0, 0, 0, 0, 0, 0], "stateRewards": ["", 1, 1, -5, 10, -31, 73, 14, -8, -23, 63, -70, -1, 2, 8, 7, 25, -59, 27, -10, -40, -71, -15, -2, 3, -8, -5, -19, 77, -34, 7, 67, 63, 19], "withholdReward": false, "trial_id": "mdp_trial_10", "block": "test", "trialIndex": 11, "score": -46, "costs": 0, "simulationMode": [null, null, null, null, null], "rewards": [-2, 3, -8, -5, -34], "path": ["0", "0", "23", "24", "25", "26", "29"], "rt": [1137, 131, 55, 40, 104], "actions": ["left", "left", "left", "up", "left"], "actionTimes": [2694, 3341, 3897, 4466, 5077], "queries": {"click": {"state": {"target": [], "time": []}, "edge": {"target": [], "time": []}}, "mouseover": {"state": {"target": [], "time": []}, "edge": {"target": [], "time": []}}, "mouseout": {"state": {"target": ["0"], "time": [20439]}, "edge": {"target": [], "time": []}}}, "displayed_time": "15.57", "trialTime": 20817, "trial_type": "mouselab-mdp", "trial_index": 18, "time_elapsed": 717461, "internal_node_id": "0.0-4.0-1.0-9.0"}}, {"uniqueid": "w49138022:a25059818", "current_trial": 19, "dateTime": 1691485850782, "trialdata": {"revealed_states": [], "clicked_states": [], "num_clicks_accrued": [0, 0, 0, 0, 0, 0, 0, 0, 0, 0, 0, 0, 0], "stateRewards": ["", -2, 1, -3, -16, -39, -52, 30, -7, -41, -59, 11, 2, 1, 8, 2, -11, -26, -42, -13, 87, -59, -48, -1, -1, -1, 16, -79, 31, 50, -1, -84, 34, -82], "withholdReward": false, "trial_id": "mdp_trial_11", "block": "test", "trialIndex": 12, "score": -72, "costs": 0, "simulationMode": [null, null, null, null, null], "rewards": [-2, 1, -3, -16, -52], "path": ["0", "0", "1", "2", "3", "4", "6"], "rt": [743, 410, 88, 31, 114], "actions": ["up", "up", "up", "right", "right"], "actionTimes": [1983, 2891, 3499, 4056, 4706], "queries": {"click": {"state": {"target": [], "time": []}, "edge": {"target": [], "time": []}}, "mouseover": {"state": {"target": [], "time": []}, "edge": {"target": [], "time": []}}, "mouseout": {"state": {"target": [], "time": []}, "edge": {"target": [], "time": []}}}, "displayed_time": "15.25", "trialTime": 23588, "trial_type": "mouselab-mdp", "trial_index": 19, "time_elapsed": 741245, "internal_node_id": "0.0-4.0-1.0-10.0"}}, {"uniqueid": "w49138022:a25059818", "current_trial": 20, "dateTime": 1691485868815, "trialdata": {"revealed_states": [], "clicked_states": [], "num_clicks_accrued": [0, 0, 0, 0, 0, 0, 0, 0, 0, 0, 0, 0, 0], "stateRewards": ["", -2, -3, -3, 9, 79, 67, 22, -15, -56, 27, -85, -2, 4, -4, -15, -20, -32, 60, 15, 71, 57, 17, 1, 2, -8, 15, -37, -81, 82, 15, 21, -3, 2], "withholdReward": false, "trial_id": "mdp_trial_12", "block": "test", "trialIndex": 13, "score": -27, "costs": 0, "simulationMode": [null, null, null, null, null], "rewards": [1, 2, -8, 15, -37], "path": ["0", "0", "23", "24", "25", "26", "27"], "rt": [648, 44, 40, 150, 438], "actions": ["left", "left", "left", "up", "up"], "actionTimes": [1866, 2411, 2973, 3633, 4572], "queries": {"click": {"state": {"target": [], "time": []}, "edge": {"target": [], "time": []}}, "mouseover": {"state": {"target": [], "time": []}, "edge": {"target": [], "time": []}}, "mouseout": {"state": {"target": ["0"], "time": [5567]}, "edge": {"target": [], "time": []}}}, "displayed_time": "15.23", "trialTime": 17829, "trial_type": "mouselab-mdp", "trial_index": 20, "time_elapsed": 759278, "internal_node_id": "0.0-4.0-1.0-11.0"}}, {"uniqueid": "w49138022:a25059818", "current_trial": 21, "dateTime": 1691485885454, "trialdata": {"revealed_states": [], "clicked_states": [], "num_clicks_accrued": [0, 0, 0, 0, 0, 0, 0, 0, 0, 0, 0, 0, 0], "stateRewards": ["", 2, 3, 6, -12, -29, 12, 87, 4, 35, -30, 67, 2, 3, -5, -9, 44, 69, -8, 1, 45, -8, 28, -2, -1, -8, 11, -12, -5, 81, 9, 87, 82, 88], "withholdReward": false, "trial_id": "mdp_trial_13", "block": "test", "trialIndex": 14, "score": -30, "costs": 0, "simulationMode": [null, null, null, null, null], "rewards": [2, 3, 6, -12, -29], "path": ["0", "0", "1", "2", "3", "4", "5"], "rt": [515, 392, 9, 19, 21], "actions": ["up", "up", "up", "right", "up"], "actionTimes": [2031, 2944, 3469, 4013, 4548], "queries": {"click": {"state": {"target": [], "time": []}, "edge": {"target": [], "time": []}}, "mouseover": {"state": {"target": [], "time": []}, "edge": {"target": [], "time": []}}, "mouseout": {"state": {"target": ["0"], "time": [14709]}, "edge": {"target": [], "time": []}}}, "displayed_time": "15.52", "trialTime": 16412, "trial_type": "mouselab-mdp", "trial_index": 21, "time_elapsed": 775917, "internal_node_id": "0.0-4.0-1.0-12.0"}}, {"uniqueid": "w49138022:a25059818", "current_trial": 22, "dateTime": 1691485903824, "trialdata": {"revealed_states": [], "clicked_states": [], "num_clicks_accrued": [0, 0, 0, 0, 0, 0, 0, 0, 0, 0, 0, 0, 0], "stateRewards": ["", -2, -4, -2, 10, -8, -15, -47, 7, -84, 53, 5, -1, 2, -7, 3, 83, 31, 47, -1, 30, -8, 69, 2, -4, -1, 8, -7, 12, -8, -8, -13, 30, -84], "withholdReward": false, "trial_id": "mdp_trial_14", "block": "test", "trialIndex": 15, "score": 23, "costs": 0, "simulationMode": [null, null, null, null, null], "rewards": [-1, 2, -7, -1, 30], "path": ["0", "0", "12", "13", "14", "19", "20"], "rt": [387, 144, 15, 57, 131], "actions": ["right", "right", "right", "down", "right"], "actionTimes": [1555, 2206, 2727, 3286, 3925], "queries": {"click": {"state": {"target": [], "time": []}, "edge": {"target": [], "time": []}}, "mouseover": {"state": {"target": [], "time": []}, "edge": {"target": [], "time": []}}, "mouseout": {"state": {"target": [], "time": []}, "edge": {"target": [], "time": []}}}, "displayed_time": "15.18", "trialTime": 18150, "trial_type": "mouselab-mdp", "trial_index": 22, "time_elapsed": 794287, "internal_node_id": "0.0-4.0-1.0-13.0"}}, {"uniqueid": "w49138022:a25059818", "current_trial": 23, "dateTime": 1691485922205, "trialdata": {"revealed_states": [], "clicked_states": [], "num_clicks_accrued": [0, 0, 0, 0, 0, 0, 0, 0, 0, 0, 0, 0, 0], "stateRewards": ["", 1, 3, -2, 15, 51, 15, -19, 11, 67, -45, -73, 2, 4, -2, -13, 36, 9, -28, 10, -30, 31, 16, 1, 2, -1, -16, 14, -22, 36, -1, 88, -5, 45], "withholdReward": false, "trial_id": "mdp_trial_15", "block": "test", "trialIndex": 16, "score": 45, "costs": 0, "simulationMode": [null, null, null, null, null], "rewards": [2, 4, -2, 10, 31], "path": ["0", "0", "12", "13", "14", "19", "21"], "rt": [649, 42, 2, 75, 27], "actions": ["right", "right", "right", "down", "down"], "actionTimes": [2574, 3114, 3625, 4216, 4755], "queries": {"click": {"state": {"target": [], "time": []}, "edge": {"target": [], "time": []}}, "mouseover": {"state": {"target": [], "time": []}, "edge": {"target": [], "time": []}}, "mouseout": {"state": {"target": ["0", "0"], "time": [1188, 17306]}, "edge": {"target": [], "time": []}}}, "displayed_time": "15.94", "trialTime": 18160, "trial_type": "mouselab-mdp", "trial_index": 23, "time_elapsed": 812668, "internal_node_id": "0.0-4.0-1.0-14.0"}}, {"uniqueid": "w49138022:a25059818", "current_trial": 24, "dateTime": 1691485944440, "trialdata": {"revealed_states": [], "clicked_states": [], "num_clicks_accrued": [0, 0, 0, 0, 0, 0, 0, 0, 0, 0, 0, 0, 0], "stateRewards": ["", -2, 2, -4, -4, -59, 88, 62, -3, 69, -15, -34, 1, -2, -5, 7, -54, -20, 78, -16, -74, -53, -21, 2, -4, 2, 13, -8, -44, 26, 9, 72, 4, 17], "withholdReward": false, "trial_id": "mdp_trial_16", "block": "test", "trialIndex": 17, "score": -96, "costs": 0, "simulationMode": [null, null, null, null, null], "rewards": [1, -2, -5, -16, -74], "path": ["0", "0", "12", "13", "14", "19", "20"], "rt": [580, 459, 67, 41, 153], "actions": ["right", "right", "right", "down", "right"], "actionTimes": [1819, 2796, 3367, 3906, 4569], "queries": {"click": {"state": {"target": [], "time": []}, "edge": {"target": [], "time": []}}, "mouseover": {"state": {"target": [], "time": []}, "edge": {"target": [], "time": []}}, "mouseout": {"state": {"target": ["0"], "time": [1101]}, "edge": {"target": [], "time": []}}}, "displayed_time": "15.24", "trialTime": 22005, "trial_type": "mouselab-mdp", "trial_index": 24, "time_elapsed": 834903, "internal_node_id": "0.0-4.0-1.0-15.0"}}, {"uniqueid": "w49138022:a25059818", "current_trial": 25, "dateTime": 1691485968510, "trialdata": {"revealed_states": [], "clicked_states": [], "num_clicks_accrued": [0, 0, 0, 0, 0, 0, 0, 0, 0, 0, 0, 0, 0], "stateRewards": ["", 2, -2, -3, 10, -4, -1, -11, -8, -9, -36, -78, 2, 1, 7, -7, 44, -1, -31, -1, 26, 47, 83, 2, -4, -4, -6, -52, -76, -81, -1, -59, 45, 67], "withholdReward": false, "trial_id": "mdp_trial_17", "block": "test", "trialIndex": 18, "score": 3, "costs": 0, "simulationMode": [null, null, null, null, null], "rewards": [2, -2, -3, 10, -4], "path": ["0", "0", "1", "2", "3", "4", "5"], "rt": [653, 365, 163, 16, 696], "actions": ["up", "up", "up", "right", "up"], "actionTimes": [1838, 2718, 3380, 3914, 5112], "queries": {"click": {"state": {"target": [], "time": []}, "edge": {"target": [], "time": []}}, "mouseover": {"state": {"target": [], "time": []}, "edge": {"target": [], "time": []}}, "mouseout": {"state": {"target": ["0", "0", "0"], "time": [1043, 18479, 19966]}, "edge": {"target": [], "time": []}}}, "displayed_time": "15.20", "trialTime": 23842, "trial_type": "mouselab-mdp", "trial_index": 25, "time_elapsed": 858973, "internal_node_id": "0.0-4.0-1.0-16.0"}}, {"uniqueid": "w49138022:a25059818", "current_trial": 26, "dateTime": 1691485995969, "trialdata": {"revealed_states": [], "clicked_states": [], "num_clicks_accrued": [0, 0, 0, 0, 0, 0, 0, 0, 0, 0, 0, 0, 0], "stateRewards": ["", 1, -2, -8, -13, 4, 34, -84, -4, -49, 88, -70, -1, 3, -4, 10, -77, 13, -34, 15, -21, -16, 27, 1, -2, 8, -8, -6, 38, -26, 6, -15, 66, -3], "withholdReward": false, "trial_id": "mdp_trial_18", "block": "test", "trialIndex": 19, "score": -3, "costs": 0, "simulationMode": [null, null, null, null, null], "rewards": [-1, 3, -4, 15, -16], "path": ["0", "0", "12", "13", "14", "19", "21"], "rt": [837, 114, 59, 368, 57], "actions": ["right", "right", "right", "down", "down"], "actionTimes": [2118, 2771, 3348, 4217, 4773], "queries": {"click": {"state": {"target": [], "time": []}, "edge": {"target": [], "time": []}}, "mouseover": {"state": {"target": [], "time": []}, "edge": {"target": [], "time": []}}, "mouseout": {"state": {"target": ["0"], "time": [1140]}, "edge": {"target": [], "time": []}}}, "displayed_time": "15.28", "trialTime": 27223, "trial_type": "mouselab-mdp", "trial_index": 26, "time_elapsed": 886432, "internal_node_id": "0.0-4.0-1.0-17.0"}}, {"uniqueid": "w49138022:a25059818", "current_trial": 27, "dateTime": 1691486017344, "trialdata": {"revealed_states": [], "clicked_states": [], "num_clicks_accrued": [0, 0, 0, 0, 0, 0, 0, 0, 0, 0, 0, 0, 0], "stateRewards": ["", 2, -3, -2, 14, -4, 85, 46, 15, -28, 41, 31, -1, -1, -1, 5, 62, 79, 57, 12, -73, -64, 86, -1, 1, -3, -5, 68, 11, -32, 8, -80, -21, -56], "withholdReward": false, "trial_id": "mdp_trial_19", "block": "test", "trialIndex": 20, "score": 95, "costs": 0, "simulationMode": [null, null, null, null, null], "rewards": [-1, -1, -1, 12, 86], "path": ["0", "0", "12", "13", "14", "19", "22"], "rt": [1369, 76, 632, 148, 97], "actions": ["right", "right", "right", "down", "left"], "actionTimes": [3522, 4102, 5244, 5890, 6489], "queries": {"click": {"state": {"target": [], "time": []}, "edge": {"target": [], "time": []}}, "mouseover": {"state": {"target": [], "time": []}, "edge": {"target": [], "time": []}}, "mouseout": {"state": {"target": ["0"], "time": [2013]}, "edge": {"target": [], "time": []}}}, "displayed_time": "16.17", "trialTime": 21142, "trial_type": "mouselab-mdp", "trial_index": 27, "time_elapsed": 907807, "internal_node_id": "0.0-4.0-1.0-18.0"}}, {"uniqueid": "w49138022:a25059818", "current_trial": 28, "dateTime": 1691486036280, "trialdata": {"revealed_states": [], "clicked_states": [], "num_clicks_accrued": [0, 0, 0, 0, 0, 0, 0, 0, 0, 0, 0, 0, 0], "stateRewards": ["", -1, -3, 1, 13, -64, -29, 12, -4, -33, 50, 56, 2, -3, 4, 11, -64, -58, -55, 12, 47, 38, -25, -2, 2, 5, -15, 85, 7, 84, 10, 8, 57, 26], "withholdReward": false, "trial_id": "mdp_trial_20", "block": "test", "trialIndex": 21, "score": -10, "costs": 0, "simulationMode": [null, null, null, null, null], "rewards": [2, -3, 4, 12, -25], "path": ["0", "0", "12", "13", "14", "19", "22"], "rt": [411, 111, 115, 3, 483], "actions": ["right", "right", "right", "down", "left"], "actionTimes": [1534, 2161, 2778, 3306, 4316], "queries": {"click": {"state": {"target": [], "time": []}, "edge": {"target": [], "time": []}}, "mouseover": {"state": {"target": [], "time": []}, "edge": {"target": [], "time": []}}, "mouseout": {"state": {"target": ["0"], "time": [959]}, "edge": {"target": [], "time": []}}}, "displayed_time": "15.13", "trialTime": 18698, "trial_type": "mouselab-mdp", "trial_index": 28, "time_elapsed": 926744, "internal_node_id": "0.0-4.0-1.0-19.0"}}, {"uniqueid": "w49138022:a25059818", "current_trial": 29, "dateTime": 1691486068481, "trialdata": {"revealed_states": [], "clicked_states": [], "num_clicks_accrued": [0, 0, 0, 0, 0, 0, 0, 0, 0, 0, 0, 0, 0], "stateRewards": ["", -1, 1, 8, -8, -49, 62, -78, 16, 28, -81, 78, -2, -3, -1, -4, 67, 49, -2, -13, -16, -39, 83, 1, -4, 4, -5, -20, 7, 84, 7, -32, -59, 19], "withholdReward": false, "trial_id": "mdp_trial_21", "block": "test", "trialIndex": 22, "score": -58, "costs": 0, "simulationMode": [null, null, null, null, null], "rewards": [-2, -3, -1, -13, -39], "path": ["0", "0", "12", "13", "14", "19", "21"], "rt": [748, 140, 135, 3, 592], "actions": ["right", "right", "right", "down", "down"], "actionTimes": [1562, 2205, 2853, 3354, 4477], "queries": {"click": {"state": {"target": [], "time": []}, "edge": {"target": [], "time": []}}, "mouseover": {"state": {"target": [], "time": []}, "edge": {"target": [], "time": []}}, "mouseout": {"state": {"target": ["0"], "time": [658]}, "edge": {"target": [], "time": []}}}, "displayed_time": "14.82", "trialTime": 31964, "trial_type": "mouselab-mdp", "trial_index": 29, "time_elapsed": 958945, "internal_node_id": "0.0-4.0-1.0-20.0"}}, {"uniqueid": "w49138022:a25059818", "current_trial": 30, "dateTime": 1691486094721, "trialdata": {"revealed_states": [], "clicked_states": [], "num_clicks_accrued": [0, 0, 0, 0, 0, 0, 0, 0, 0, 0, 0, 0, 0], "stateRewards": ["", 1, -1, -7, -7, -22, 15, -13, 13, 26, -32, 38, -1, 1, -7, -4, 16, -62, 86, 12, -54, 56, 64, -2, -1, 6, 14, -57, 37, 62, -6, -25, 50, -70], "withholdReward": false, "trial_id": "mdp_trial_22", "block": "test", "trialIndex": 23, "score": -49, "costs": 0, "simulationMode": [null, null, null, null, null], "rewards": [-1, 1, -7, 12, -54], "path": ["0", "0", "12", "13", "14", "19", "20"], "rt": [871, 123, 134, 91, 372], "actions": ["right", "right", "right", "down", "right"], "actionTimes": [2071, 2691, 3335, 3926, 4803], "queries": {"click": {"state": {"target": [], "time": []}, "edge": {"target": [], "time": []}}, "mouseover": {"state": {"target": [], "time": []}, "edge": {"target": [], "time": []}}, "mouseout": {"state": {"target": ["0"], "time": [1016]}, "edge": {"target": [], "time": []}}}, "displayed_time": "15.21", "trialTime": 26003, "trial_type": "mouselab-mdp", "trial_index": 30, "time_elapsed": 985184, "internal_node_id": "0.0-4.0-1.0-21.0"}}, {"uniqueid": "w49138022:a25059818", "current_trial": 31, "dateTime": 1691486114769, "trialdata": {"revealed_states": [], "clicked_states": [], "num_clicks_accrued": [0, 0, 0, 0, 0, 0, 0, 0, 0, 0, 0, 0, 0], "stateRewards": ["", -1, 2, -2, 5, 80, -61, -27, 12, 44, -26, -75, -2, -4, 1, -16, 42, -49, -50, 4, -44, 2, 80, -2, -2, 5, -2, 59, 10, 24, 7, -48, -86, -44], "withholdReward": false, "trial_id": "mdp_trial_23", "block": "test", "trialIndex": 24, "score": -64, "costs": 0, "simulationMode": [null, null, null, null, null], "rewards": [-1, 2, -2, 12, -75], "path": ["0", "0", "1", "2", "3", "8", "11"], "rt": [989, 470, 131, 3, 17], "actions": ["up", "up", "up", "left", "left"], "actionTimes": [1711, 2687, 3346, 3852, 4399], "queries": {"click": {"state": {"target": [], "time": []}, "edge": {"target": [], "time": []}}, "mouseover": {"state": {"target": [], "time": []}, "edge": {"target": [], "time": []}}, "mouseout": {"state": {"target": ["0"], "time": [569]}, "edge": {"target": [], "time": []}}}, "displayed_time": "14.73", "trialTime": 19803, "trial_type": "mouselab-mdp", "trial_index": 31, "time_elapsed": 1005232, "internal_node_id": "0.0-4.0-1.0-22.0"}}, {"uniqueid": "w49138022:a25059818", "current_trial": 32, "dateTime": 1691486134434, "trialdata": {"revealed_states": [], "clicked_states": [], "num_clicks_accrued": [0, 0, 0, 0, 0, 0, 0, 0, 0, 0, 0, 0, 0], "stateRewards": ["", -2, -4, 2, 10, -17, 18, 73, 11, -32, 23, -13, -2, -4, 7, 12, -25, 66, -23, 15, 40, -76, -9, 1, 2, -7, -5, -20, 24, 3, -5, 16, -73, 70], "withholdReward": false, "trial_id": "mdp_trial_24", "block": "test", "trialIndex": 25, "score": 30, "costs": 0, "simulationMode": [null, null, null, null, null], "rewards": [-2, -4, 2, 11, 23], "path": ["0", "0", "1", "2", "3", "8", "10"], "rt": [1287, 273, 124, 1012, 79], "actions": ["up", "up", "up", "left", "down"], "actionTimes": [3060, 3860, 4500, 6022, 6617], "queries": {"click": {"state": {"target": [], "time": []}, "edge": {"target": [], "time": []}}, "mouseover": {"state": {"target": [], "time": []}, "edge": {"target": [], "time": []}}, "mouseout": {"state": {"target": ["0"], "time": [1610]}, "edge": {"target": [], "time": []}}}, "displayed_time": "15.78", "trialTime": 19423, "trial_type": "mouselab-mdp", "trial_index": 32, "time_elapsed": 1024897, "internal_node_id": "0.0-4.0-1.0-23.0"}}, {"uniqueid": "w49138022:a25059818", "current_trial": 33, "dateTime": 1691486152141, "trialdata": {"revealed_states": [], "clicked_states": [], "num_clicks_accrued": [0, 0, 0, 0, 0, 0, 0, 0, 0, 0, 0, 0, 0], "stateRewards": ["", -2, 4, -3, -13, 63, -36, 62, 11, 78, 34, -51, 2, -2, 8, -6, -40, -18, 31, 9, 64, 39, 79, 1, 4, -4, 15, -12, 76, 73, -10, -77, 86, -4], "withholdReward": false, "trial_id": "mdp_trial_25", "block": "test", "trialIndex": 26, "score": 44, "costs": 0, "simulationMode": [null, null, null, null, null], "rewards": [-2, 4, -3, 11, 34], "path": ["0", "0", "1", "2", "3", "8", "10"], "rt": [2006, 26, 105, 120, 27], "actions": ["up", "up", "up", "left", "down"], "actionTimes": [2644, 3182, 3796, 4413, 4955], "queries": {"click": {"state": {"target": [], "time": []}, "edge": {"target": [], "time": []}}, "mouseover": {"state": {"target": [], "time": []}, "edge": {"target": [], "time": []}}, "mouseout": {"state": {"target": ["0"], "time": [479]}, "edge": {"target": [], "time": []}}}, "displayed_time": "14.64", "trialTime": 17449, "trial_type": "mouselab-mdp", "trial_index": 33, "time_elapsed": 1042604, "internal_node_id": "0.0-4.0-1.0-24.0"}}, {"uniqueid": "w49138022:a25059818", "current_trial": 34, "dateTime": 1691486169306, "trialdata": {"revealed_states": [], "clicked_states": [], "num_clicks_accrued": [0, 0, 0, 0, 0, 0, 0, 0, 0, 0, 0, 0, 0], "stateRewards": ["", 2, -3, 5, -14, -63, -9, -24, -11, -54, -43, 68, 2, -2, -4, 7, -64, 30, 47, 12, -74, 11, 86, 1, -3, 3, 10, -71, -42, -52, -1, -29, -16, 69], "withholdReward": false, "trial_id": "mdp_trial_26", "block": "test", "trialIndex": 27, "score": -61, "costs": 0, "simulationMode": [null, null, null, null, null], "rewards": [2, -3, 5, -11, -54], "path": ["0", "0", "1", "2", "3", "8", "9"], "rt": [1107, 16, 63, 35, 119], "actions": ["up", "up", "up", "left", "up"], "actionTimes": [2227, 2777, 3357, 3896, 4546], "queries": {"click": {"state": {"target": [], "time": []}, "edge": {"target": [], "time": []}}, "mouseover": {"state": {"target": [], "time": []}, "edge": {"target": [], "time": []}}, "mouseout": {"state": {"target": ["0"], "time": [946]}, "edge": {"target": [], "time": []}}}, "displayed_time": "15.13", "trialTime": 16903, "trial_type": "mouselab-mdp", "trial_index": 34, "time_elapsed": 1059770, "internal_node_id": "0.0-4.0-1.0-25.0"}}, {"uniqueid": "w49138022:a25059818", "current_trial": 35, "dateTime": 1691486188205, "trialdata": {"revealed_states": [], "clicked_states": [], "num_clicks_accrued": [0, 0, 0, 0, 0, 0, 0, 0, 0, 0, 0, 0, 0], "stateRewards": ["", 2, 1, -3, 7, 46, 11, -36, 16, 71, 5, 1, 2, -2, -8, -3, -4, 6, 55, 7, 68, -54, 2, 1, 1, 6, -6, 42, -4, -84, -11, -65, 63, 25], "withholdReward": false, "trial_id": "mdp_trial_27", "block": "test", "trialIndex": 28, "score": 53, "costs": 0, "simulationMode": [null, null, null, null, null], "rewards": [2, 1, -3, 7, 46], "path": ["0", "0", "1", "2", "3", "4", "5"], "rt": [1206, 438, 180, 30, 39], "actions": ["up", "up", "up", "right", "up"], "actionTimes": [2444, 3402, 4101, 4647, 5201], "queries": {"click": {"state": {"target": [], "time": []}, "edge": {"target": [], "time": []}}, "mouseover": {"state": {"target": [], "time": []}, "edge": {"target": [], "time": []}}, "mouseout": {"state": {"target": ["0", "0"], "time": [1087, 18363]}, "edge": {"target": [], "time": []}}}, "displayed_time": "15.25", "trialTime": 18638, "trial_type": "mouselab-mdp", "trial_index": 35, "time_elapsed": 1078668, "internal_node_id": "0.0-4.0-1.0-26.0"}}, {"uniqueid": "w49138022:a25059818", "current_trial": 36, "dateTime": 1691486211965, "trialdata": {"revealed_states": [], "clicked_states": [], "num_clicks_accrued": [0, 0, 0, 0, 0, 0, 0, 0, 0, 0, 0, 0, 0], "stateRewards": ["", 1, -3, -4, -11, -56, 61, -47, -16, -28, -9, 69, -2, -3, -4, -8, 40, -86, 59, -4, 80, 27, 54, -1, 3, -1, 8, 67, 23, 50, 6, 83, -43, -29], "withholdReward": false, "trial_id": "mdp_trial_28", "block": "test", "trialIndex": 29, "score": 44, "costs": 0, "simulationMode": [null, null, null, null, null], "rewards": [1, -3, -4, -11, 61], "path": ["0", "0", "1", "2", "3", "4", "6"], "rt": [682, 424, 139, 546, 175], "actions": ["up", "up", "up", "right", "right"], "actionTimes": [3084, 4024, 4670, 5743, 6443], "queries": {"click": {"state": {"target": [], "time": []}, "edge": {"target": [], "time": []}}, "mouseover": {"state": {"target": [], "time": []}, "edge": {"target": [], "time": []}}, "mouseout": {"state": {"target": ["1"], "time": [1663]}, "edge": {"target": [], "time": []}}}, "displayed_time": "16.41", "trialTime": 23482, "trial_type": "mouselab-mdp", "trial_index": 36, "time_elapsed": 1102428, "internal_node_id": "0.0-4.0-1.0-27.0"}}, {"uniqueid": "w49138022:a25059818", "current_trial": 37, "dateTime": 1691486228038, "trialdata": {"revealed_states": [], "clicked_states": [], "num_clicks_accrued": [0, 0, 0, 0, 0, 0, 0, 0, 0, 0, 0, 0, 0], "stateRewards": ["", -2, 2, 3, -7, 76, 63, 21, 15, 35, -8, -44, 1, 1, -2, -12, 23, 24, 76, -9, 46, 66, -49, -2, -1, 7, 12, 40, -71, -45, -6, 38, -49, 46], "withholdReward": false, "trial_id": "mdp_trial_29", "block": "test", "trialIndex": 30, "score": 17, "costs": 0, "simulationMode": [null, null, null, null, null], "rewards": [-2, 2, 3, -7, 21], "path": ["0", "0", "1", "2", "3", "4", "7"], "rt": [1216, 80, 145, 56, 160], "actions": ["up", "up", "up", "right", "down"], "actionTimes": [1843, 2443, 3092, 3670, 4339], "queries": {"click": {"state": {"target": [], "time": []}, "edge": {"target": [], "time": []}}, "mouseover": {"state": {"target": [], "time": []}, "edge": {"target": [], "time": []}}, "mouseout": {"state": {"target": [], "time": []}, "edge": {"target": [], "time": []}}}, "displayed_time": "14.63", "trialTime": 15806, "trial_type": "mouselab-mdp", "trial_index": 37, "time_elapsed": 1118501, "internal_node_id": "0.0-4.0-1.0-28.0"}}, {"uniqueid": "w49138022:a25059818", "current_trial": 38, "dateTime": 1691486245908, "trialdata": {"revealed_states": [], "clicked_states": [], "num_clicks_accrued": [0, 0, 0, 0, 0, 0, 0, 0, 0, 0, 0, 0, 0], "stateRewards": ["", -2, 4, -7, -3, -76, 39, -28, 10, 14, 12, 60, 2, -3, 6, -10, 88, -34, -41, -3, 72, -13, -56, 1, 3, 2, 8, -51, 23, -57, 1, 14, -46, -16], "withholdReward": false, "trial_id": "mdp_trial_30", "block": "test", "trialIndex": 31, "score": -46, "costs": 0, "simulationMode": [null, null, null, null, null], "rewards": [2, -3, 6, -10, -41], "path": ["0", "0", "12", "13", "14", "15", "18"], "rt": [1215, 93, 162, 169, 85], "actions": ["right", "right", "right", "up", "left"], "actionTimes": [1981, 2574, 3255, 3929, 4533], "queries": {"click": {"state": {"target": [], "time": []}, "edge": {"target": [], "time": []}}, "mouseover": {"state": {"target": [], "time": []}, "edge": {"target": [], "time": []}}, "mouseout": {"state": {"target": [], "time": []}, "edge": {"target": [], "time": []}}}, "displayed_time": "14.77", "trialTime": 17624, "trial_type": "mouselab-mdp", "trial_index": 38, "time_elapsed": 1136371, "internal_node_id": "0.0-4.0-1.0-29.0"}}, {"uniqueid": "w49138022:a25059818", "current_trial": 39, "dateTime": 1691486273947, "trialdata": {"revealed_states": [], "clicked_states": [], "num_clicks_accrued": [0, 0, 0, 0, 0, 0, 0, 0, 0, 0, 0, 0, 0], "stateRewards": ["", -2, -1, -4, -15, -14, -67, 32, -3, -59, 63, 31, 2, -1, -7, -15, 71, -66, -27, -3, -54, -39, 72, 2, 1, 1, -13, 77, -40, 35, -9, 35, 75, 57], "withholdReward": false, "trial_id": "mdp_trial_31", "block": "test", "trialIndex": 32, "score": 50, "costs": 0, "simulationMode": [null, null, null, null, null], "rewards": [2, -1, -7, -15, 71], "path": ["0", "0", "12", "13", "14", "15", "16"], "rt": [1007, 533, 72, 55, 647], "actions": ["right", "right", "right", "up", "up"], "actionTimes": [2058, 3101, 3687, 4240, 5397], "queries": {"click": {"state": {"target": [], "time": []}, "edge": {"target": [], "time": []}}, "mouseover": {"state": {"target": [], "time": []}, "edge": {"target": [], "time": []}}, "mouseout": {"state": {"target": [], "time": []}, "edge": {"target": [], "time": []}}}, "displayed_time": "15.05", "trialTime": 27783, "trial_type": "mouselab-mdp", "trial_index": 39, "time_elapsed": 1164410, "internal_node_id": "0.0-4.0-1.0-30.0"}}, {"uniqueid": "w49138022:a25059818", "current_trial": 40, "dateTime": 1691486292706, "trialdata": {"revealed_states": [], "clicked_states": [], "num_clicks_accrued": [0, 0, 0, 0, 0, 0, 0, 0, 0, 0, 0, 0, 0], "stateRewards": ["", 2, 3, -1, 6, 44, -4, -59, -14, -3, 64, 16, 1, -3, 3, 6, 3, 49, 19, 3, -49, -14, -86, 1, 2, -3, -8, -33, 14, 32, -13, -77, -47, -67], "withholdReward": false, "trial_id": "mdp_trial_32", "block": "test", "trialIndex": 33, "score": 56, "costs": 0, "simulationMode": [null, null, null, null, null], "rewards": [1, -3, 3, 6, 49], "path": ["0", "0", "12", "13", "14", "15", "17"], "rt": [729, 408, 130, 21, 1057], "actions": ["right", "right", "right", "up", "right"], "actionTimes": [1263, 2174, 2816, 3371, 4938], "queries": {"click": {"state": {"target": [], "time": []}, "edge": {"target": [], "time": []}}, "mouseover": {"state": {"target": [], "time": []}, "edge": {"target": [], "time": []}}, "mouseout": {"state": {"target": [], "time": []}, "edge": {"target": [], "time": []}}}, "displayed_time": "14.54", "trialTime": 18475, "trial_type": "mouselab-mdp", "trial_index": 40, "time_elapsed": 1183169, "internal_node_id": "0.0-4.0-1.0-31.0"}}, {"uniqueid": "w49138022:a25059818", "current_trial": 41, "dateTime": 1691486315136, "trialdata": {"revealed_states": [], "clicked_states": [], "num_clicks_accrued": [0, 0, 0, 0, 0, 0, 0, 0, 0, 0, 0, 0, 0], "stateRewards": ["", 2, -4, -8, -15, 71, -43, -41, 7, -17, 20, 67, -1, -1, -4, 6, 37, -24, -47, 9, 34, 57, 45, 1, 2, -4, -5, -23, 88, -5, 13, -40, 43, 44], "withholdReward": false, "trial_id": "mdp_trial_33", "block": "test", "trialIndex": 34, "score": 37, "costs": 0, "simulationMode": [null, null, null, null, null], "rewards": [-1, -1, -4, 9, 34], "path": ["0", "0", "12", "13", "14", "19", "20"], "rt": [473, 10, 82, 119, 200], "actions": ["right", "right", "right", "down", "right"], "actionTimes": [1590, 2131, 2736, 3359, 4077], "queries": {"click": {"state": {"target": [], "time": []}, "edge": {"target": [], "time": []}}, "mouseover": {"state": {"target": [], "time": []}, "edge": {"target": [], "time": []}}, "mouseout": {"state": {"target": [], "time": []}, "edge": {"target": [], "time": []}}}, "displayed_time": "15.13", "trialTime": 22146, "trial_type": "mouselab-mdp", "trial_index": 41, "time_elapsed": 1205600, "internal_node_id": "0.0-4.0-1.0-32.0"}}, {"uniqueid": "w49138022:a25059818", "current_trial": 42, "dateTime": 1691486331604, "trialdata": {"revealed_states": [], "clicked_states": [], "num_clicks_accrued": [0, 0, 0, 0, 0, 0, 0, 0, 0, 0, 0, 0, 0], "stateRewards": ["", -2, -3, -6, -7, 9, 16, 65, 5, -41, 20, -25, -1, -4, 1, -11, -49, -4, 71, 1, 39, -62, 52, -2, -3, 7, -9, -28, -70, 84, 8, 24, -58, 82], "withholdReward": false, "trial_id": "mdp_trial_34", "block": "test", "trialIndex": 35, "score": -65, "costs": 0, "simulationMode": [null, null, null, null, null], "rewards": [-1, -4, 1, 1, -62], "path": ["0", "0", "12", "13", "14", "19", "21"], "rt": [974, 43, 72, 53, 138], "actions": ["right", "right", "right", "down", "down"], "actionTimes": [2462, 3016, 3608, 4178, 4841], "queries": {"click": {"state": {"target": [], "time": []}, "edge": {"target": [], "time": []}}, "mouseover": {"state": {"target": [], "time": []}, "edge": {"target": [], "time": []}}, "mouseout": {"state": {"target": ["0"], "time": [6101]}, "edge": {"target": [], "time": []}}}, "displayed_time": "15.49", "trialTime": 16212, "trial_type": "mouselab-mdp", "trial_index": 42, "time_elapsed": 1222067, "internal_node_id": "0.0-4.0-1.0-33.0"}}, {"uniqueid": "w49138022:a25059818", "current_trial": 43, "dateTime": 1691486348631, "trialdata": {"revealed_states": [], "clicked_states": [], "num_clicks_accrued": [0, 0, 0, 0, 0, 0, 0, 0, 0, 0, 0, 0, 0], "stateRewards": ["", -1, 3, -4, -14, 78, 67, 2, 13, -32, 28, 39, -2, 1, -4, -4, -4, -42, -86, 11, 64, -29, -32, -1, -4, 2, -7, 5, 68, -61, 2, -21, 85, 50], "withholdReward": false, "trial_id": "mdp_trial_35", "block": "test", "trialIndex": 36, "score": -26, "costs": 0, "simulationMode": [null, null, null, null, null], "rewards": [-2, 1, -4, 11, -32], "path": ["0", "0", "12", "13", "14", "19", "22"], "rt": [720, 128, 10, 55, 138], "actions": ["right", "right", "right", "down", "left"], "actionTimes": [1621, 2264, 2775, 3354, 4002], "queries": {"click": {"state": {"target": [], "time": []}, "edge": {"target": [], "time": []}}, "mouseover": {"state": {"target": [], "time": []}, "edge": {"target": [], "time": []}}, "mouseout": {"state": {"target": [], "time": []}, "edge": {"target": [], "time": []}}}, "displayed_time": "14.91", "trialTime": 16751, "trial_type": "mouselab-mdp", "trial_index": 43, "time_elapsed": 1239095, "internal_node_id": "0.0-4.0-1.0-34.0"}}, {"uniqueid": "w49138022:a25059818", "current_trial": 44, "dateTime": 1691486373285, "trialdata": {"revealed_states": [], "clicked_states": [], "num_clicks_accrued": [0, 0, 0, 0, 0, 0, 0, 0, 0, 0, 0, 0, 0], "stateRewards": ["", 1, -2, -2, 10, -31, -77, 35, 9, -47, 8, 48, -2, 1, -4, -3, -26, -50, 43, -11, 76, -38, 17, 1, -1, 6, 10, 15, -9, 12, -8, 85, 11, -55], "withholdReward": false, "trial_id": "mdp_trial_36", "block": "test", "trialIndex": 37, "score": 83, "costs": 0, "simulationMode": [null, null, null, null, null], "rewards": [1, -1, 6, -8, 85], "path": ["0", "0", "23", "24", "25", "30", "31"], "rt": [1006, 6, 3, 60, 75], "actions": ["left", "left", "left", "down", "right"], "actionTimes": [1786, 2293, 2825, 3399, 3980], "queries": {"click": {"state": {"target": [], "time": []}, "edge": {"target": [], "time": []}}, "mouseover": {"state": {"target": [], "time": []}, "edge": {"target": [], "time": []}}, "mouseout": {"state": {"target": [], "time": []}, "edge": {"target": [], "time": []}}}, "displayed_time": "14.79", "trialTime": 24379, "trial_type": "mouselab-mdp", "trial_index": 44, "time_elapsed": 1263748, "internal_node_id": "0.0-4.0-1.0-35.0"}}, {"uniqueid": "w49138022:a25059818", "current_trial": 45, "dateTime": 1691486393670, "trialdata": {"revealed_states": [], "clicked_states": [], "num_clicks_accrued": [0, 0, 0, 0, 0, 0, 0, 0, 0, 0, 0, 0, 0], "stateRewards": ["", -1, -3, 1, -4, -48, -63, -49, -2, -84, -19, 65, 2, -2, -2, -12, -4, 59, 9, 6, 75, 69, -13, -1, -3, -3, -2, -37, -68, -36, 13, 32, 18, -14], "withholdReward": false, "trial_id": "mdp_trial_37", "block": "test", "trialIndex": 38, "score": 24, "costs": 0, "simulationMode": [null, null, null, null, null], "rewards": [-1, -3, -3, 13, 18], "path": ["0", "0", "23", "24", "25", "30", "32"], "rt": [588, 427, 370, 210, 237], "actions": ["left", "left", "left", "down", "down"], "actionTimes": [1104, 2030, 2904, 3628, 4370], "queries": {"click": {"state": {"target": [], "time": []}, "edge": {"target": [], "time": []}}, "mouseover": {"state": {"target": [], "time": []}, "edge": {"target": [], "time": []}}, "mouseout": {"state": {"target": ["0"], "time": [19335]}, "edge": {"target": [], "time": []}}}, "displayed_time": "14.52", "trialTime": 20077, "trial_type": "mouselab-mdp", "trial_index": 45, "time_elapsed": 1284133, "internal_node_id": "0.0-4.0-1.0-36.0"}}, {"uniqueid": "w49138022:a25059818", "current_trial": 46, "dateTime": 1691486410058, "trialdata": {"revealed_states": [], "clicked_states": [], "num_clicks_accrued": [0, 0, 0, 0, 0, 0, 0, 0, 0, 0, 0, 0, 0], "stateRewards": ["", 1, 1, -3, 2, 22, -25, -11, -5, 50, 49, 3, 1, -1, 8, 14, -85, -30, 57, -6, -39, -16, 59, -2, -1, 5, 5, 59, -16, 8, 4, 67, 56, -9], "withholdReward": false, "trial_id": "mdp_trial_38", "block": "test", "trialIndex": 39, "score": -3, "costs": 0, "simulationMode": [null, null, null, null, null], "rewards": [-2, -1, 5, 4, -9], "path": ["0", "0", "23", "24", "25", "30", "33"], "rt": [1218, 220, 55, 262, 119], "actions": ["left", "left", "left", "down", "left"], "actionTimes": [1874, 2607, 3174, 3944, 4589], "queries": {"click": {"state": {"target": [], "time": []}, "edge": {"target": [], "time": []}}, "mouseover": {"state": {"target": ["0"], "time": [1099]}, "edge": {"target": [], "time": []}}, "mouseout": {"state": {"target": [], "time": []}, "edge": {"target": [], "time": []}}}, "displayed_time": "14.66", "trialTime": 16067, "trial_type": "mouselab-mdp", "trial_index": 46, "time_elapsed": 1300521, "internal_node_id": "0.0-4.0-1.0-37.0"}}, {"uniqueid": "w49138022:a25059818", "current_trial": 47, "dateTime": 1691486427352, "trialdata": {"revealed_states": [], "clicked_states": [], "num_clicks_accrued": [0, 0, 0, 0, 0, 0, 0, 0, 0, 0, 0, 0, 0], "stateRewards": ["", 1, -2, -8, -3, 31, -84, -55, -14, 15, -58, 17, -2, -3, 7, 7, -12, 48, 67, 4, -44, -68, 46, 2, 3, -5, -7, 76, 27, 5, 11, 57, 52, 59], "withholdReward": false, "trial_id": "mdp_trial_39", "block": "test", "trialIndex": 40, "score": -2, "costs": 0, "simulationMode": [null, null, null, null, null], "rewards": [2, 3, -5, -7, 5], "path": ["0", "0", "23", "24", "25", "26", "29"], "rt": [954, 376, 149, 39, 3], "actions": ["left", "left", "left", "up", "left"], "actionTimes": [2199, 3087, 3742, 4283, 4800], "queries": {"click": {"state": {"target": [], "time": []}, "edge": {"target": [], "time": []}}, "mouseover": {"state": {"target": [], "time": []}, "edge": {"target": [], "time": []}}, "mouseout": {"state": {"target": [], "time": []}, "edge": {"target": [], "time": []}}}, "displayed_time": "15.25", "trialTime": 17004, "trial_type": "mouselab-mdp", "trial_index": 47, "time_elapsed": 1317816, "internal_node_id": "0.0-4.0-1.0-38.0"}}, {"uniqueid": "w49138022:a25059818", "current_trial": 48, "dateTime": 1691486445916, "trialdata": {"revealed_states": [], "clicked_states": [], "num_clicks_accrued": [0, 0, 0, 0, 0, 0, 0, 0, 0, 0, 0, 0, 0], "stateRewards": ["", -1, 4, 3, 12, -27, 34, -33, 3, -63, 1, 6, 2, 2, -6, -11, -77, -85, 68, -6, 51, 81, -60, -2, -2, 1, 15, 20, 15, 68, -10, -14, 6, -4], "withholdReward": false, "trial_id": "mdp_trial_40", "block": "test", "trialIndex": 41, "score": 32, "costs": 0, "simulationMode": [null, null, null, null, null], "rewards": [-2, -2, 1, 15, 20], "path": ["0", "0", "23", "24", "25", "26", "27"], "rt": [776, 76, 20, 46, 35], "actions": ["left", "left", "left", "up", "up"], "actionTimes": [1329, 1911, 2441, 2998, 3560], "queries": {"click": {"state": {"target": [], "time": []}, "edge": {"target": [], "time": []}}, "mouseover": {"state": {"target": [], "time": []}, "edge": {"target": [], "time": []}}, "mouseout": {"state": {"target": [], "time": []}, "edge": {"target": [], "time": []}}}, "displayed_time": "14.56", "trialTime": 18261, "trial_type": "mouselab-mdp", "trial_index": 48, "time_elapsed": 1336379, "internal_node_id": "0.0-4.0-1.0-39.0"}}, {"uniqueid": "w49138022:a25059818", "current_trial": 49, "dateTime": 1691486514327, "trialdata": {"rt": 68406, "response": {"Q0": "$-88 to $88", "Q1": "$-4 to $4", "Q2": "$-32 to $32", "Q3": "The cost for clicking on nodes varied between nodes.", "Q4": "Neither motivated nor unmotivated"}, "question_order": [0, 1, 2, 3, 4], "trial_id": "final_quiz_control", "trial_type": "survey-multi-choice", "trial_index": 49, "time_elapsed": 1404790, "internal_node_id": "0.0-4.0-2.0"}}, {"uniqueid": "w49138022:a25059818", "current_trial": 50, "dateTime": 1691486709666, "trialdata": {"rt": 195326, "response": {"Q0": "I tried to explore the nodes in a clockwise pattern, seeing at the start that all of them may be negative value, decided to better just explore blindly instead of spending for a not so bad outcome", "Q1": "No, given there was not a clear pattern, strategy proved to give random results", "Q2": "Very difficult given the strategy I chose,  would need to explore using all tools in a more responsible manner"}, "trial_id": "self_report_control", "trial_type": "survey-text", "trial_index": 50, "time_elapsed": 1600130, "internal_node_id": "0.0-4.0-3.0"}}, {"uniqueid": "w49138022:a25059818", "current_trial": 51, "dateTime": 1691486757693, "trialdata": {"rt": 48028, "response": {"Q0": "Strongly disagree", "Q1": "Neither disagree nor agree", "Q2": "Neither disagree nor agree", "Q3": "Neither disagree nor agree", "Q4": "Neither disagree nor agree", "Q5": "Neither disagree nor agree", "Q6": "Neither disagree nor agree"}, "question_order": [0, 1, 2, 3, 4, 5, 6], "trial_id": "self_report_2", "trial_type": "survey-multi-choice", "trial_index": 51, "time_elapsed": 1648157, "internal_node_id": "0.0-4.0-4.0"}}, {"uniqueid": "w49138022:a25059818", "current_trial": 52, "dateTime": 1691486797135, "trialdata": {"rt": 39421, "response": {"gender": "female", "age": "27", "colorblind": "0", "effort": "1"}, "trial_type": "survey-html-form", "trial_index": 52, "time_elapsed": 1687585, "internal_node_id": "0.0-4.0-5.0"}}, {"uniqueid": "w49138022:a25059818", "current_trial": 53, "dateTime": 1691486881031, "trialdata": {"rt": 83877, "response": {"Q0": "Concepts, what here is a level or what the values popping up mean, it was a lot of info for a simple task, which only turned it into a difficult one,.", "Q1": "No", "Q2": "No"}, "trial_type": "survey-text", "trial_index": 53, "time_elapsed": 1771495, "internal_node_id": "0.0-4.0-6.0"}}, {"uniqueid": "w49138022:a25059818", "current_trial": 54, "dateTime": 1691486884934, "trialdata": {"rt": 3870, "stimulus": "Press 'Finish HIT' in order to reach the completion code. Once the data has been saved, you will receive the code either in this window or in the original browser window where you started the experiment.\n", "response": 0, "trial_type": "html-button-response", "trial_index": 54, "time_elapsed": 1775398, "internal_node_id": "0.0-5.0"}}, {"uniqueid": "w49138022:a25059818", "current_trial": 55, "dateTime": 1691486885944, "trialdata": {"success": true, "trial_type": "fullscreen", "trial_index": 55, "time_elapsed": 1776407, "internal_node_id": "0.0-6.0"}}], "questiondata": {"params": {"CODE": "C6DMOQA6", "MIN_TIME": 14, "inspectCost": 1, "startTime": "Tue Aug 08 2023 10:58:28 GMT+0200 (hora de verano de Europa central)", "bonusRate": 0.002, "variance": "1_2_4_8_44", "branching": "31123"}, "final_score": -72.35}, "eventdata": [{"eventtype": "initialized", "value": null, "timestamp": 1691485108450, "interval": 0}, {"eventtype": "window_resize", "value": [1280, 622], "timestamp": 1691485108450, "interval": 0}, {"eventtype": "window_resize", "value": [1280, 622], "timestamp": 1691485108782, "interval": 332}, {"eventtype": "window_resize", "value": [1280, 720], "timestamp": 1691485128963, "interval": 20181}, {"eventtype": "focus", "value": "off", "timestamp": 1691486761397, "interval": 1632434}, {"eventtype": "focus", "value": "on", "timestamp": 1691486769252, "interval": 7855}, {"eventtype": "window_resize", "value": [1280, 622], "timestamp": 1691486885194, "interval": 115942}], "useragent": "Mozilla/5.0 (Windows NT 10.0; Win64; x64) AppleWebKit/537.36 (KHTML, like Gecko) Chrome/115.0.0.0 Safari/537.36", "mode": "live", "id": "w49138022:a25059818", "status": "user data saved", "Beginhit": "2023-08-08 08:58:27.076655", "Beginexp": "2023-08-08 08:58:49.848458", "Endhit": "2023-08-08 09:28:06.83874", "psiturkStatus": 3, "browser": "<redacted>", "platform": "windows", "language": "es-419"}