{"condition": 1, "counterbalance": 0, "assignmentId": "a75590697", "workerId": "w25701305", "hitId": "h60528932", "currenttrial": 56, "bonus": 0, "data": [{"uniqueid": "w25701305:a75590697", "current_trial": 0, "dateTime": 1693564653741, "trialdata": {"success": true, "trial_type": "fullscreen", "trial_index": 0, "time_elapsed": 6358, "internal_node_id": "0.0-0.0"}}, {"uniqueid": "w25701305:a75590697", "current_trial": 1, "dateTime": 1693564682229, "trialdata": {"view_history": [{"page_index": 0, "viewing_time": 28459}], "rt": 28460, "trial_id": "exp_instructions_misaligned", "trial_type": "instructions", "trial_index": 1, "time_elapsed": 34847, "internal_node_id": "0.0-1.0"}}, {"uniqueid": "w25701305:a75590697", "current_trial": 2, "dateTime": 1693564937431, "trialdata": {"view_history": [{"page_index": 0, "viewing_time": 141435}, {"page_index": 1, "viewing_time": 63164}, {"page_index": 2, "viewing_time": 18688}, {"page_index": 3, "viewing_time": 31913}], "rt": 255200, "trial_id": "mouselab_instructions_1_misaligned", "trial_type": "instructions", "trial_index": 2, "time_elapsed": 290049, "internal_node_id": "0.0-2.0-1.0"}}, {"uniqueid": "w25701305:a75590697", "current_trial": 3, "dateTime": 1693565008743, "trialdata": {"revealed_states": [], "clicked_states": ["24", "7", "1", "12", "33", "23", "2", "13"], "num_clicks_accrued": [0, 0, 0, 0, 0, 0, 0, 0, 0, 0, 0, 0, 0], "stateRewards": ["", -10, -10, 10, 10, 10, 10, 10, 10, 10, -10, 10, -10, -10, 10, -10, 10, -10, 10, 10, 10, 10, 10, -10, -10, 10, 10, 10, -10, -10, 10, -10, -10, -10], "withholdReward": false, "trial_id": "practice_1", "block": "test", "trialIndex": 0, "score": -10.5, "costs": -4, "simulationMode": [null, null, null, null, null], "rewards": [-10, -10, 10, -10, 10], "path": ["0", "0", "12", "13", "14", "15", "16"], "rt": [46373, 2698, 1401, 1345, 6603], "actions": ["right", "right", "right", "up", "up"], "actionTimes": [48734, 51948, 53870, 55736, 62867], "queries": {"click": {"state": {"target": ["24", "7", "1", "12", "33", "23", "2", "13"], "time": [5441, 11533, 15494, 21282, 29013, 32702, 38886, 43858]}, "edge": {"target": [], "time": []}}, "mouseover": {"state": {"target": ["23", "24", "1", "2", "7", "1", "12", "0", "23", "31", "30", "33", "30", "23", "10", "2", "1", "0", "13"], "time": [4306, 4990, 10569, 10703, 10834, 15064, 18618, 23589, 27154, 27594, 27648, 28418, 30188, 31548, 37744, 38424, 40389, 40773, 42837]}, "edge": {"target": [], "time": []}}, "mouseout": {"state": {"target": ["0", "23", "24", "1", "2", "7", "7", "1", "12", "0", "23", "31", "30", "33", "30", "23", "10", "2", "1", "0", "13", "15"], "time": [4279, 4408, 7023, 10636, 10721, 11663, 14448, 18245, 23523, 24140, 27551, 27611, 27741, 30181, 30212, 35795, 38306, 40338, 40439, 42724, 43992, 68148]}, "edge": {"target": [], "time": []}}}, "displayed_time": "63.38", "trialTime": 70667, "trial_type": "mouselab-mdp", "trial_index": 3, "time_elapsed": 361360, "internal_node_id": "0.0-2.0-2.0-0.0"}}, {"uniqueid": "w25701305:a75590697", "current_trial": 4, "dateTime": 1693565055133, "trialdata": {"revealed_states": [], "clicked_states": [], "num_clicks_accrued": [0, 0, 0, 0, 0, 0, 0, 0, 0, 0, 0, 0, 0], "stateRewards": ["", 10, -10, -10, -10, 10, -10, -10, 10, -10, 10, 10, 10, 10, -10, -10, -10, -10, 10, -10, -10, 10, 10, 10, -10, -10, -10, -10, -10, -10, -10, 10, -10, -10], "withholdReward": false, "trial_id": "practice_2", "block": "test", "trialIndex": 1, "score": 13.5, "costs": 0, "simulationMode": [null, null, null, null, null], "rewards": [10, -10, -10, 10, 10], "path": ["0", "0", "1", "2", "3", "8", "10"], "rt": [6152, 2294, 14635, 2520, 11691], "actions": ["up", "up", "up", "left", "down"], "actionTimes": [8634, 11447, 26605, 29643, 41854], "queries": {"click": {"state": {"target": [], "time": []}, "edge": {"target": [], "time": []}}, "mouseover": {"state": {"target": ["18", "15", "17", "15", "17"], "time": [3807, 3831, 7603, 7703, 8083]}, "edge": {"target": [], "time": []}}, "mouseout": {"state": {"target": ["19", "22", "0", "18", "15", "17", "15", "17", "16", "7", "2", "10", "11", "16"], "time": [1407, 1442, 1728, 3826, 3840, 7627, 8036, 13031, 32961, 33312, 33345, 33745, 35643, 37258]}, "edge": {"target": [], "time": []}}}, "displayed_time": "42.37", "trialTime": 45943, "trial_type": "mouselab-mdp", "trial_index": 4, "time_elapsed": 407750, "internal_node_id": "0.0-2.0-2.0-1.0"}}, {"uniqueid": "w25701305:a75590697", "current_trial": 5, "dateTime": 1693565087966, "trialdata": {"view_history": [{"page_index": 0, "viewing_time": 26453}, {"page_index": 1, "viewing_time": 6372}], "rt": 32825, "trial_id": "mouselab_instructions_2_misaligned", "trial_type": "instructions", "trial_index": 5, "time_elapsed": 440584, "internal_node_id": "0.0-2.0-3.0"}}, {"uniqueid": "w25701305:a75590697", "current_trial": 6, "dateTime": 1693565130920, "trialdata": {"rt": 42949, "response": {"Q0": "The cost for clicking on nodes may vary between nodes.", "Q1": "The better I perform the higher my bonus will be.", "Q2": "No, the amount of cash at each node of the web may be different each time.", "Q3": "To get the highest total score.", "Q4": "Only before moving the spider.", "Q5": "3 seconds"}, "question_order": [0, 1, 2, 3, 4, 5], "correct": {"Q0": "The cost for clicking on nodes may vary between nodes.", "Q1": "The better I perform the higher my bonus will be.", "Q2": "No, the amount of cash at each node of the web may be different each time.", "Q3": "To get the highest total score.", "Q4": "Only before moving the spider.", "Q5": "3 seconds"}, "trial_id": "mouselab_quiz_misaligned", "trial_type": "survey-multi-choice", "trial_index": 6, "time_elapsed": 483538, "internal_node_id": "0.0-2.0-4.0"}}, {"uniqueid": "w25701305:a75590697", "current_trial": 7, "dateTime": 1693565139762, "trialdata": {"rt": 8833, "response": {"Q0": "Not sure"}, "question_order": [0], "trial_id": "repeat_check", "trial_type": "survey-multi-choice", "trial_index": 7, "time_elapsed": 492380, "internal_node_id": "0.0-4.0-0.0"}}, {"uniqueid": "w25701305:a75590697", "current_trial": 8, "dateTime": 1693565150611, "trialdata": {"rt": 10841, "stimulus": "\n<h1> Get ready to start the game! </h1>\n\nThank you for reading the instructions. Get ready start with the 40 rounds of this game.\n<br><br>\nIf you need to take a break, feel free to take one after the end of a round, before continuing to the next one.\n<br><br>\nRemember, the more money the spider gets, the bigger your bonus will be!\n<br><br>\n<div style='text-align: center;'>Press <code>space</code> to begin.</div>\n\n<br><br>\n(If, at any point, the <code>space</code> key does not take you to the next page, click once on the text and try again.)", "response": " ", "trial_id": "mdp_ready", "trial_type": "html-keyboard-response", "trial_index": 8, "time_elapsed": 503229, "internal_node_id": "0.0-6.0-0.0"}}, {"uniqueid": "w25701305:a75590697", "current_trial": 9, "dateTime": 1693565181816, "trialdata": {"revealed_states": [], "clicked_states": [], "num_clicks_accrued": [0, 0, 0, 0, 0, 0, 0, 0, 0, 0, 0, 0, 0], "stateRewards": ["", 1, -4, -6, -1, -21, 17, -72, 10, 77, 67, -46, -1, 4, -2, 14, -66, -49, -45, -15, -52, 23, -67, 2, -2, -2, 15, -3, 45, -64, 5, -44, 83, 61], "withholdReward": false, "trial_id": "mdp_trial_1", "block": "test", "trialIndex": 2, "score": -41, "costs": 0, "simulationMode": [null, null, null, null, null], "rewards": [2, -2, -2, 5, -44], "path": ["0", "0", "23", "24", "25", "30", "31"], "rt": [2293, 2752, 1909, 769, 7113], "actions": ["left", "left", "left", "down", "right"], "actionTimes": [5812, 9086, 11504, 12795, 20426], "queries": {"click": {"state": {"target": [], "time": []}, "edge": {"target": [], "time": []}}, "mouseover": {"state": {"target": [], "time": []}, "edge": {"target": [], "time": []}}, "mouseout": {"state": {"target": ["0", "0", "18"], "time": [2935, 7251, 7299]}, "edge": {"target": [], "time": []}}}, "displayed_time": "20.94", "trialTime": 30828, "trial_type": "mouselab-mdp", "trial_index": 9, "time_elapsed": 534432, "internal_node_id": "0.0-6.0-1.0-0.0"}}, {"uniqueid": "w25701305:a75590697", "current_trial": 10, "dateTime": 1693565206412, "trialdata": {"revealed_states": [], "clicked_states": ["22"], "num_clicks_accrued": [0, 0, 0, 0, 0, 0, 0, 0, 0, 0, 0, 0, 0], "stateRewards": ["", -1, 3, -4, -14, 78, 67, 2, 13, -32, 28, 39, -2, 1, -4, -4, -4, -42, -86, 11, 64, -29, -32, -1, -4, 2, -7, 5, 68, -61, 2, -21, 85, 50], "withholdReward": false, "trial_id": "mdp_trial_2", "block": "test", "trialIndex": 3, "score": -53.15, "costs": -2.15, "simulationMode": [null, null, null, null, null], "rewards": [-2, 1, -4, -4, -42], "path": ["0", "0", "12", "13", "14", "15", "17"], "rt": [4787, 995, 455, 1479, 156], "actions": ["right", "right", "right", "up", "right"], "actionTimes": [7700, 9231, 10208, 12205, 12873], "queries": {"click": {"state": {"target": ["22"], "time": [4717]}, "edge": {"target": [], "time": []}}, "mouseover": {"state": {"target": ["22", "19", "22", "14"], "time": [3392, 4091, 4258, 6302]}, "edge": {"target": [], "time": []}}, "mouseout": {"state": {"target": ["12", "0", "22", "19", "22", "14"], "time": [2045, 3328, 3411, 4191, 6252, 6336]}, "edge": {"target": [], "time": []}}}, "displayed_time": "16.93", "trialTime": 24242, "trial_type": "mouselab-mdp", "trial_index": 10, "time_elapsed": 559029, "internal_node_id": "0.0-6.0-1.0-1.0"}}, {"uniqueid": "w25701305:a75590697", "current_trial": 11, "dateTime": 1693565242861, "trialdata": {"revealed_states": [], "clicked_states": ["1", "10"], "num_clicks_accrued": [0, 0, 0, 0, 0, 0, 0, 0, 0, 0, 0, 0, 0], "stateRewards": ["", -1, 2, -6, 6, 43, 78, 78, -2, 55, -29, -17, -2, -4, 1, -15, 13, 7, -79, 8, -28, -68, 36, -1, -3, 3, -16, 84, -18, 87, 10, 32, 13, -81], "withholdReward": false, "trial_id": "mdp_trial_3", "block": "test", "trialIndex": 4, "score": 77.1, "costs": -1.9, "simulationMode": [null, null, null, null, null, null], "rewards": [-1, 2, -6, 6, 78], "path": ["0", "0", "1", "2", "3", "4", "7"], "rt": [5521, 1445, 2641, 3471, 649, 12569], "actions": ["up", "up", "up", "up", "right", "down"], "actionTimes": [7461, 8911, 12067, 16063, 17237, 30321], "queries": {"click": {"state": {"target": ["1", "10"], "time": [2915, 5932]}, "edge": {"target": [], "time": []}}, "mouseover": {"state": {"target": ["1", "10"], "time": [2354, 4811]}, "edge": {"target": [], "time": []}}, "mouseout": {"state": {"target": ["0", "1", "10", "17", "20", "19"], "time": [1252, 4561, 23471, 23580, 35590, 35606]}, "edge": {"target": [], "time": []}}}, "displayed_time": "30.84", "trialTime": 36022, "trial_type": "mouselab-mdp", "trial_index": 11, "time_elapsed": 595478, "internal_node_id": "0.0-6.0-1.0-2.0"}}, {"uniqueid": "w25701305:a75590697", "current_trial": 12, "dateTime": 1693565263372, "trialdata": {"revealed_states": [], "clicked_states": ["24"], "num_clicks_accrued": [0, 0, 0, 0, 0, 0, 0, 0, 0, 0, 0, 0, 0], "stateRewards": ["", -1, -3, 3, 5, 56, 39, 50, -1, -80, 33, -46, 1, -2, -6, -8, 87, 48, 54, -11, -20, -64, -54, -2, 3, -7, -3, 12, 88, 35, -16, -46, -70, -3], "withholdReward": false, "trial_id": "mdp_trial_4", "block": "test", "trialIndex": 5, "score": -72.35, "costs": -0.35, "simulationMode": [null, null, null, null, null], "rewards": [1, -2, -6, -11, -54], "path": ["0", "0", "12", "13", "14", "19", "22"], "rt": [3238, 371, 1441, 614, 2286], "actions": ["right", "right", "right", "down", "left"], "actionTimes": [5432, 6322, 8271, 9393, 12196], "queries": {"click": {"state": {"target": ["24"], "time": [4187]}, "edge": {"target": [], "time": []}}, "mouseover": {"state": {"target": ["0", "23", "24"], "time": [2936, 3419, 3919]}, "edge": {"target": [], "time": []}}, "mouseout": {"state": {"target": ["0", "0", "23", "24", "15", "17"], "time": [1719, 2960, 3502, 18770, 18837, 18860]}, "edge": {"target": [], "time": []}}}, "displayed_time": "16.20", "trialTime": 20157, "trial_type": "mouselab-mdp", "trial_index": 12, "time_elapsed": 615989, "internal_node_id": "0.0-6.0-1.0-3.0"}}, {"uniqueid": "w25701305:a75590697", "current_trial": 13, "dateTime": 1693565283125, "trialdata": {"revealed_states": [], "clicked_states": ["12"], "num_clicks_accrued": [0, 0, 0, 0, 0, 0, 0, 0, 0, 0, 0, 0, 0], "stateRewards": ["", -1, 3, 8, 9, -53, 20, -84, 2, -28, -62, -31, -1, -2, -7, 2, 51, 58, 45, -4, -17, -41, 36, 2, -2, -7, -15, 29, -54, -37, -16, -43, 65, -17], "withholdReward": false, "trial_id": "mdp_trial_5", "block": "test", "trialIndex": 6, "score": 37.25, "costs": 0.25, "simulationMode": [null, null, null, null, null], "rewards": [-1, -2, -7, 2, 45], "path": ["0", "0", "12", "13", "14", "15", "18"], "rt": [3112, 1644, 1647, 374, 2113], "actions": ["right", "right", "right", "up", "left"], "actionTimes": [5308, 7469, 9638, 10540, 13170], "queries": {"click": {"state": {"target": ["12"], "time": [4165]}, "edge": {"target": [], "time": []}}, "mouseover": {"state": {"target": ["12"], "time": [3745]}, "edge": {"target": [], "time": []}}, "mouseout": {"state": {"target": ["1", "0", "12", "13"], "time": [916, 1544, 17766, 17783]}, "edge": {"target": [], "time": []}}}, "displayed_time": "16.21", "trialTime": 19437, "trial_type": "mouselab-mdp", "trial_index": 13, "time_elapsed": 635741, "internal_node_id": "0.0-6.0-1.0-4.0"}}, {"uniqueid": "w25701305:a75590697", "current_trial": 14, "dateTime": 1693565303915, "trialdata": {"revealed_states": [], "clicked_states": [], "num_clicks_accrued": [0, 0, 0, 0, 0, 0, 0, 0, 0, 0, 0, 0, 0], "stateRewards": ["", 1, 2, -3, 6, -88, 74, -45, 7, -46, 40, -77, 1, -4, 4, 3, 22, -25, -59, 8, -83, 19, -60, -1, -1, -1, -8, 26, -29, 64, -7, -88, -51, -55], "withholdReward": false, "trial_id": "mdp_trial_6", "block": "test", "trialIndex": 7, "score": 53, "costs": 0, "simulationMode": [null, null, null, null, null], "rewards": [-1, -1, -1, -8, 64], "path": ["0", "0", "23", "24", "25", "26", "29"], "rt": [1814, 965, 1022, 1523, 1516], "actions": ["left", "left", "left", "up", "left"], "actionTimes": [3955, 5445, 6999, 9032, 11073], "queries": {"click": {"state": {"target": [], "time": []}, "edge": {"target": [], "time": []}}, "mouseover": {"state": {"target": [], "time": []}, "edge": {"target": [], "time": []}}, "mouseout": {"state": {"target": ["14", "13", "12", "23", "0"], "time": [1034, 1062, 1096, 1496, 18881]}, "edge": {"target": [], "time": []}}}, "displayed_time": "16.15", "trialTime": 20431, "trial_type": "mouselab-mdp", "trial_index": 14, "time_elapsed": 656532, "internal_node_id": "0.0-6.0-1.0-5.0"}}, {"uniqueid": "w25701305:a75590697", "current_trial": 15, "dateTime": 1693565325550, "trialdata": {"revealed_states": [], "clicked_states": ["1"], "num_clicks_accrued": [0, 0, 0, 0, 0, 0, 0, 0, 0, 0, 0, 0, 0], "stateRewards": ["", 2, -3, -2, 14, -4, 85, 46, 15, -28, 41, 31, -1, -1, -1, 5, 62, 79, 57, 12, -73, -64, 86, -1, 1, -3, -5, 68, 11, -32, 8, -80, -21, -56], "withholdReward": false, "trial_id": "mdp_trial_7", "block": "test", "trialIndex": 8, "score": 57.25, "costs": 0.25, "simulationMode": [null, null, null, null, null], "rewards": [2, -3, -2, 14, 46], "path": ["0", "0", "1", "2", "3", "4", "7"], "rt": [3508, 1751, 1364, 1901, 672], "actions": ["up", "up", "up", "right", "down"], "actionTimes": [5433, 7716, 9605, 12028, 13230], "queries": {"click": {"state": {"target": ["1"], "time": [4474]}, "edge": {"target": [], "time": []}}, "mouseover": {"state": {"target": ["1"], "time": [4162]}, "edge": {"target": [], "time": []}}, "mouseout": {"state": {"target": ["0", "1", "18", "17"], "time": [3627, 19162, 19294, 19577]}, "edge": {"target": [], "time": []}}}, "displayed_time": "15.93", "trialTime": 21202, "trial_type": "mouselab-mdp", "trial_index": 15, "time_elapsed": 678167, "internal_node_id": "0.0-6.0-1.0-6.0"}}, {"uniqueid": "w25701305:a75590697", "current_trial": 16, "dateTime": 1693565345167, "trialdata": {"revealed_states": [], "clicked_states": ["12"], "num_clicks_accrued": [0, 0, 0, 0, 0, 0, 0, 0, 0, 0, 0, 0, 0], "stateRewards": ["", -1, -4, -6, -15, 21, -67, -63, 9, 51, 69, -14, -1, 3, 8, -8, 39, 72, 63, 15, 19, 47, 15, 1, 4, 5, 16, -18, 34, 35, -14, -80, 40, 1], "withholdReward": false, "trial_id": "mdp_trial_8", "block": "test", "trialIndex": 9, "score": 40.25, "costs": 0.25, "simulationMode": [null, null, null, null, null], "rewards": [-1, 3, 8, 15, 15], "path": ["0", "0", "12", "13", "14", "19", "22"], "rt": [3114, 1121, 987, 2060, 1167], "actions": ["right", "right", "right", "down", "left"], "actionTimes": [5606, 7243, 8740, 11313, 12999], "queries": {"click": {"state": {"target": ["12"], "time": [4384]}, "edge": {"target": [], "time": []}}, "mouseover": {"state": {"target": ["12"], "time": [4064]}, "edge": {"target": [], "time": []}}, "mouseout": {"state": {"target": ["17", "15", "18", "12", "12", "15", "14"], "time": [627, 1458, 1493, 1577, 17430, 17493, 18728]}, "edge": {"target": [], "time": []}}}, "displayed_time": "16.50", "trialTime": 19254, "trial_type": "mouselab-mdp", "trial_index": 16, "time_elapsed": 697784, "internal_node_id": "0.0-6.0-1.0-7.0"}}, {"uniqueid": "w25701305:a75590697", "current_trial": 17, "dateTime": 1693565363570, "trialdata": {"revealed_states": [], "clicked_states": ["23"], "num_clicks_accrued": [0, 0, 0, 0, 0, 0, 0, 0, 0, 0, 0, 0, 0], "stateRewards": ["", 1, 1, 1, -3, -7, -1, -41, -10, 20, -72, -63, 1, -4, -2, 2, -66, 30, -84, -2, 49, 23, 71, -1, -4, 4, -12, 67, 5, 18, -16, 88, 56, -5], "withholdReward": false, "trial_id": "mdp_trial_9", "block": "test", "trialIndex": 10, "score": 13.25, "costs": 0.25, "simulationMode": [null, null, null, null, null], "rewards": [1, 1, 1, -10, 20], "path": ["0", "0", "1", "2", "3", "8", "9"], "rt": [3285, 1665, 1291, 513, 945], "actions": ["up", "up", "up", "left", "up"], "actionTimes": [4774, 6960, 8774, 9805, 11268], "queries": {"click": {"state": {"target": ["23"], "time": [2591]}, "edge": {"target": [], "time": []}}, "mouseover": {"state": {"target": ["23"], "time": [2282]}, "edge": {"target": [], "time": []}}, "mouseout": {"state": {"target": ["0", "23", "0"], "time": [977, 17678, 17714]}, "edge": {"target": [], "time": []}}}, "displayed_time": "15.49", "trialTime": 18043, "trial_type": "mouselab-mdp", "trial_index": 17, "time_elapsed": 716186, "internal_node_id": "0.0-6.0-1.0-8.0"}}, {"uniqueid": "w25701305:a75590697", "current_trial": 18, "dateTime": 1693565382943, "trialdata": {"revealed_states": [], "clicked_states": ["24", "14"], "num_clicks_accrued": [0, 0, 0, 0, 0, 0, 0, 0, 0, 0, 0, 0, 0], "stateRewards": ["", 1, 3, 3, -10, 52, 68, 59, 12, 7, 49, 21, -2, -3, -4, -2, -2, 63, 63, -4, 44, 43, -76, -2, -3, -6, 13, 48, 36, 12, -5, -36, -33, -11], "withholdReward": false, "trial_id": "mdp_trial_10", "block": "test", "trialIndex": 11, "score": 54.7, "costs": -1.2999999999999998, "simulationMode": [null, null, null, null, null], "rewards": [1, 3, 3, -10, 59], "path": ["0", "0", "1", "2", "3", "4", "7"], "rt": [5975, 1330, 2405, 739, 1295], "actions": ["up", "up", "up", "right", "down"], "actionTimes": [7804, 9648, 12573, 13829, 15634], "queries": {"click": {"state": {"target": ["24", "14"], "time": [3838, 6048]}, "edge": {"target": [], "time": []}}, "mouseover": {"state": {"target": ["23", "24", "23", "13", "14"], "time": [3170, 3604, 4597, 5267, 5684]}, "edge": {"target": [], "time": []}}, "mouseout": {"state": {"target": ["12", "0", "23", "24", "23", "13"], "time": [974, 3120, 3252, 4464, 4768, 5291]}, "edge": {"target": [], "time": []}}}, "displayed_time": "16.15", "trialTime": 18978, "trial_type": "mouselab-mdp", "trial_index": 18, "time_elapsed": 735560, "internal_node_id": "0.0-6.0-1.0-9.0"}}, {"uniqueid": "w25701305:a75590697", "current_trial": 19, "dateTime": 1693565402344, "trialdata": {"revealed_states": [], "clicked_states": ["30", "24"], "num_clicks_accrued": [0, 0, 0, 0, 0, 0, 0, 0, 0, 0, 0, 0, 0], "stateRewards": ["", 2, -1, 8, -2, -16, 69, -39, -7, -13, -27, -86, 2, -2, 2, 13, -34, -16, -20, -5, 19, 81, 32, -2, -1, 2, -14, 20, 80, 58, 4, 70, 12, 73], "withholdReward": false, "trial_id": "mdp_trial_11", "block": "test", "trialIndex": 12, "score": -6.9, "costs": -1.9, "simulationMode": [null, null, null, null, null], "rewards": [2, -2, 2, 13, -20], "path": ["0", "0", "12", "13", "14", "15", "18"], "rt": [5842, 719, 700, 711, 639], "actions": ["right", "right", "right", "up", "left"], "actionTimes": [7739, 8982, 10197, 11427, 12585], "queries": {"click": {"state": {"target": ["30", "24"], "time": [3399, 5725]}, "edge": {"target": [], "time": []}}, "mouseover": {"state": {"target": ["31", "30", "30", "25", "28", "24"], "time": [2302, 2469, 3089, 4413, 4684, 5278]}, "edge": {"target": [], "time": []}}, "mouseout": {"state": {"target": ["14", "13", "12", "0", "31", "30", "30", "25", "28", "24"], "time": [968, 1001, 1037, 2151, 2385, 2586, 3527, 4534, 5062, 5852]}, "edge": {"target": [], "time": []}}}, "displayed_time": "15.90", "trialTime": 19030, "trial_type": "mouselab-mdp", "trial_index": 19, "time_elapsed": 754961, "internal_node_id": "0.0-6.0-1.0-10.0"}}, {"uniqueid": "w25701305:a75590697", "current_trial": 20, "dateTime": 1693565421423, "trialdata": {"revealed_states": [], "clicked_states": [], "num_clicks_accrued": [0, 0, 0, 0, 0, 0, 0, 0, 0, 0, 0, 0, 0], "stateRewards": ["", 1, 2, 7, 13, 88, -71, 27, 3, 60, 5, -53, -2, 2, -6, -1, -30, 79, 47, -4, -14, 46, 68, 1, 1, 8, 10, -14, 86, 48, -11, -67, -44, 5], "withholdReward": false, "trial_id": "mdp_trial_12", "block": "test", "trialIndex": 13, "score": -45, "costs": 0, "simulationMode": [null, null, null, null, null], "rewards": [1, 1, 8, -11, -44], "path": ["0", "0", "23", "24", "25", "30", "32"], "rt": [1284, 786, 472, 585, 1943], "actions": ["left", "left", "left", "down", "down"], "actionTimes": [3208, 4510, 5499, 6606, 9068], "queries": {"click": {"state": {"target": [], "time": []}, "edge": {"target": [], "time": []}}, "mouseover": {"state": {"target": [], "time": []}, "edge": {"target": [], "time": []}}, "mouseout": {"state": {"target": ["24", "23"], "time": [876, 1060]}, "edge": {"target": [], "time": []}}}, "displayed_time": "15.93", "trialTime": 18704, "trial_type": "mouselab-mdp", "trial_index": 20, "time_elapsed": 774040, "internal_node_id": "0.0-6.0-1.0-11.0"}}, {"uniqueid": "w25701305:a75590697", "current_trial": 21, "dateTime": 1693565440472, "trialdata": {"revealed_states": [], "clicked_states": ["7", "10"], "num_clicks_accrued": [0, 0, 0, 0, 0, 0, 0, 0, 0, 0, 0, 0, 0], "stateRewards": ["", 2, 4, 4, -8, -36, -33, 38, 16, -51, 57, 57, 1, 3, 4, -6, 45, 68, 87, 1, 63, 24, -55, -2, 2, -6, -13, -63, -50, 8, 2, 80, 6, 60], "withholdReward": false, "trial_id": "mdp_trial_13", "block": "test", "trialIndex": 14, "score": 78.7, "costs": -4.3, "simulationMode": [null, null, null, null, null, null], "rewards": [2, 4, 4, 16, 57], "path": ["0", "0", "1", "2", "3", "8", "10"], "rt": [6028, 818, 843, 1063, 46, 1604], "actions": ["up", "up", "up", "up", "left", "down"], "actionTimes": [6982, 7809, 9192, 10773, 11338, 13477], "queries": {"click": {"state": {"target": ["7", "10"], "time": [2281, 5121]}, "edge": {"target": [], "time": []}}, "mouseover": {"state": {"target": ["1", "7", "7", "2", "10", "2", "10"], "time": [1598, 1686, 1985, 4294, 4344, 4553, 4857]}, "edge": {"target": [], "time": []}}, "mouseout": {"state": {"target": ["0", "1", "7", "7", "2", "10", "2"], "time": [1574, 1616, 1718, 4260, 4311, 4498, 4704]}, "edge": {"target": [], "time": []}}}, "displayed_time": "14.97", "trialTime": 18642, "trial_type": "mouselab-mdp", "trial_index": 21, "time_elapsed": 793088, "internal_node_id": "0.0-6.0-1.0-12.0"}}, {"uniqueid": "w25701305:a75590697", "current_trial": 22, "dateTime": 1693565459179, "trialdata": {"revealed_states": [], "clicked_states": [], "num_clicks_accrued": [0, 0, 0, 0, 0, 0, 0, 0, 0, 0, 0, 0, 0], "stateRewards": ["", -2, -1, 3, -3, 71, -58, -21, 7, -10, -75, -37, 2, 4, -1, -12, -79, -29, -48, 3, -41, -10, -30, -1, -2, 1, -15, 13, 66, 22, -1, -42, -86, -55], "withholdReward": false, "trial_id": "mdp_trial_14", "block": "test", "trialIndex": 15, "score": -33, "costs": 0, "simulationMode": [null, null, null, null, null], "rewards": [2, 4, -1, 3, -41], "path": ["0", "0", "12", "13", "14", "19", "20"], "rt": [1660, 323, 969, 694, 1193], "actions": ["right", "right", "right", "down", "right"], "actionTimes": [3841, 4681, 6193, 7396, 9111], "queries": {"click": {"state": {"target": [], "time": []}, "edge": {"target": [], "time": []}}, "mouseover": {"state": {"target": [], "time": []}, "edge": {"target": [], "time": []}}, "mouseout": {"state": {"target": ["10", "1"], "time": [1240, 1558]}, "edge": {"target": [], "time": []}}}, "displayed_time": "16.20", "trialTime": 18328, "trial_type": "mouselab-mdp", "trial_index": 22, "time_elapsed": 811795, "internal_node_id": "0.0-6.0-1.0-13.0"}}, {"uniqueid": "w25701305:a75590697", "current_trial": 23, "dateTime": 1693565476263, "trialdata": {"revealed_states": [], "clicked_states": ["15", "13"], "num_clicks_accrued": [0, 0, 0, 0, 0, 0, 0, 0, 0, 0, 0, 0, 0], "stateRewards": ["", 2, 1, -3, 7, 46, 11, -36, 16, 71, 5, 1, 2, -2, -8, -3, -4, 6, 55, 7, 68, -54, 2, 1, 1, 6, -6, 42, -4, -84, -11, -65, 63, 25], "withholdReward": false, "trial_id": "mdp_trial_15", "block": "test", "trialIndex": 16, "score": -56.9, "costs": -1.9, "simulationMode": [null, null, null, null, null], "rewards": [2, -2, -8, 7, -54], "path": ["0", "0", "12", "13", "14", "19", "21"], "rt": [5168, 593, 410, 822, 650], "actions": ["right", "right", "right", "down", "down"], "actionTimes": [6367, 7483, 8410, 9772, 10930], "queries": {"click": {"state": {"target": ["15", "13"], "time": [2845, 4574]}, "edge": {"target": [], "time": []}}, "mouseover": {"state": {"target": ["18", "17", "15", "13"], "time": [1774, 2290, 2491, 4189]}, "edge": {"target": [], "time": []}}, "mouseout": {"state": {"target": ["0", "18", "17", "15", "13"], "time": [911, 1796, 2358, 3986, 16477]}, "edge": {"target": [], "time": []}}}, "displayed_time": "15.21", "trialTime": 16663, "trial_type": "mouselab-mdp", "trial_index": 23, "time_elapsed": 828880, "internal_node_id": "0.0-6.0-1.0-14.0"}}, {"uniqueid": "w25701305:a75590697", "current_trial": 24, "dateTime": 1693565494427, "trialdata": {"revealed_states": [], "clicked_states": ["26", "24"], "num_clicks_accrued": [0, 0, 0, 0, 0, 0, 0, 0, 0, 0, 0, 0, 0], "stateRewards": ["", -1, 1, -1, 2, 19, 85, -18, 2, -3, -26, 36, 2, 4, 7, -9, -18, 70, 72, -5, 35, -20, -28, 1, -2, -4, -3, -59, -11, -63, -2, -72, 59, -69], "withholdReward": false, "trial_id": "mdp_trial_16", "block": "test", "trialIndex": 17, "score": -3.9, "costs": -1.9, "simulationMode": [null, null, null, null, null], "rewards": [-1, 1, -1, 2, -3], "path": ["0", "0", "1", "2", "3", "8", "9"], "rt": [5193, 444, 892, 1143, 797], "actions": ["up", "up", "up", "left", "up"], "actionTimes": [7148, 8118, 9531, 11196, 12516], "queries": {"click": {"state": {"target": ["26", "24"], "time": [3591, 5489]}, "edge": {"target": [], "time": []}}, "mouseover": {"state": {"target": ["23", "24", "26", "24"], "time": [2493, 2520, 3228, 4434]}, "edge": {"target": [], "time": []}}, "mouseout": {"state": {"target": ["12", "0", "0", "23", "24", "26"], "time": [843, 1043, 2460, 2510, 2538, 4310]}, "edge": {"target": [], "time": []}}}, "displayed_time": "15.96", "trialTime": 17730, "trial_type": "mouselab-mdp", "trial_index": 24, "time_elapsed": 847044, "internal_node_id": "0.0-6.0-1.0-15.0"}}, {"uniqueid": "w25701305:a75590697", "current_trial": 25, "dateTime": 1693565512244, "trialdata": {"revealed_states": [], "clicked_states": [], "num_clicks_accrued": [0, 0, 0, 0, 0, 0, 0, 0, 0, 0, 0, 0, 0], "stateRewards": ["", 1, 1, 5, 6, -29, -7, 3, -16, 9, -46, 65, -1, 4, -1, -16, -63, -77, -87, 8, 80, -50, 43, -1, -1, -5, 5, -38, -71, -62, 9, 81, -50, -52], "withholdReward": false, "trial_id": "mdp_trial_17", "block": "test", "trialIndex": 18, "score": -55, "costs": 0, "simulationMode": [null, null, null, null, null], "rewards": [1, 1, 5, -16, -46], "path": ["0", "0", "1", "2", "3", "8", "10"], "rt": [1422, 668, 535, 504, 3070], "actions": ["up", "up", "up", "left", "down"], "actionTimes": [2587, 3779, 4827, 5849, 9447], "queries": {"click": {"state": {"target": [], "time": []}, "edge": {"target": [], "time": []}}, "mouseover": {"state": {"target": [], "time": []}, "edge": {"target": [], "time": []}}, "mouseout": {"state": {"target": ["24", "23"], "time": [561, 593]}, "edge": {"target": [], "time": []}}}, "displayed_time": "15.17", "trialTime": 17415, "trial_type": "mouselab-mdp", "trial_index": 25, "time_elapsed": 864861, "internal_node_id": "0.0-6.0-1.0-16.0"}}, {"uniqueid": "w25701305:a75590697", "current_trial": 26, "dateTime": 1693565530797, "trialdata": {"revealed_states": [], "clicked_states": [], "num_clicks_accrued": [0, 0, 0, 0, 0, 0, 0, 0, 0, 0, 0, 0, 0], "stateRewards": ["", 1, -3, 4, 13, -72, 52, 5, 5, -58, 5, 14, 2, 1, 3, -14, -86, -4, 73, 6, -58, -50, 49, 2, -3, -4, 2, 33, -41, 42, -11, 81, 45, 53], "withholdReward": false, "trial_id": "mdp_trial_18", "block": "test", "trialIndex": 19, "score": 39, "costs": 0, "simulationMode": [null, null, null, null, null], "rewards": [2, -3, -4, 2, 42], "path": ["0", "0", "23", "24", "25", "26", "29"], "rt": [5708, 363, 655, 351, 195], "actions": ["left", "left", "left", "up", "left"], "actionTimes": [6975, 7850, 9023, 9886, 10595], "queries": {"click": {"state": {"target": [], "time": []}, "edge": {"target": [], "time": []}}, "mouseover": {"state": {"target": ["23", "24", "31", "23"], "time": [3610, 3959, 4543, 6108]}, "edge": {"target": [], "time": []}}, "mouseout": {"state": {"target": ["0", "23", "24", "31", "23", "0"], "time": [970, 3775, 4444, 6057, 6158, 17523]}, "edge": {"target": [], "time": []}}}, "displayed_time": "15.28", "trialTime": 18139, "trial_type": "mouselab-mdp", "trial_index": 26, "time_elapsed": 883415, "internal_node_id": "0.0-6.0-1.0-17.0"}}, {"uniqueid": "w25701305:a75590697", "current_trial": 27, "dateTime": 1693565549605, "trialdata": {"revealed_states": [], "clicked_states": ["31", "25"], "num_clicks_accrued": [0, 0, 0, 0, 0, 0, 0, 0, 0, 0, 0, 0, 0], "stateRewards": ["", 2, -3, -4, -1, 25, -16, 16, 10, -71, -20, -55, 1, 3, -4, -9, 1, 32, 11, -6, 32, -50, -41, -1, 4, 4, -8, 7, -81, 70, 2, -52, 45, -10], "withholdReward": false, "trial_id": "mdp_trial_19", "block": "test", "trialIndex": 20, "score": 15.9, "costs": -3.0999999999999996, "simulationMode": [null, null, null, null, null], "rewards": [2, -3, -4, -1, 25], "path": ["0", "0", "1", "2", "3", "4", "5"], "rt": [6880, 722, 1482, 842, 1117], "actions": ["up", "up", "up", "right", "up"], "actionTimes": [8824, 10060, 12052, 13410, 15051], "queries": {"click": {"state": {"target": ["31", "25"], "time": [2769, 5927]}, "edge": {"target": [], "time": []}}, "mouseover": {"state": {"target": ["23", "31", "30", "33", "25"], "time": [2247, 2361, 3703, 3805, 5528]}, "edge": {"target": [], "time": []}}, "mouseout": {"state": {"target": ["0", "23", "31", "31", "30", "33"], "time": [2226, 2269, 2898, 3566, 3771, 5237]}, "edge": {"target": [], "time": []}}}, "displayed_time": "15.95", "trialTime": 18429, "trial_type": "mouselab-mdp", "trial_index": 27, "time_elapsed": 902222, "internal_node_id": "0.0-6.0-1.0-18.0"}}, {"uniqueid": "w25701305:a75590697", "current_trial": 28, "dateTime": 1693565568957, "trialdata": {"revealed_states": [], "clicked_states": ["13"], "num_clicks_accrued": [0, 0, 0, 0, 0, 0, 0, 0, 0, 0, 0, 0, 0], "stateRewards": ["", -1, 1, -2, 5, 73, 15, 61, 8, 7, 38, 76, 2, 2, -4, -6, -6, -26, 43, -5, -45, -85, -35, -2, 1, -4, 15, -10, 69, 72, -11, 84, -49, -38], "withholdReward": false, "trial_id": "mdp_trial_20", "block": "test", "trialIndex": 21, "score": 78.65, "costs": -0.35, "simulationMode": [null, null, null, null, null], "rewards": [-2, 1, -4, 15, 69], "path": ["0", "0", "23", "24", "25", "26", "28"], "rt": [2121, 820, 368, 365, 616], "actions": ["left", "left", "left", "up", "right"], "actionTimes": [4415, 5768, 6667, 7565, 8692], "queries": {"click": {"state": {"target": ["13"], "time": [3348]}, "edge": {"target": [], "time": []}}, "mouseover": {"state": {"target": ["12", "13"], "time": [2940, 2990]}, "edge": {"target": [], "time": []}}, "mouseout": {"state": {"target": ["25", "0", "12"], "time": [1281, 2928, 2973]}, "edge": {"target": [], "time": []}}}, "displayed_time": "16.31", "trialTime": 18900, "trial_type": "mouselab-mdp", "trial_index": 28, "time_elapsed": 921573, "internal_node_id": "0.0-6.0-1.0-19.0"}}, {"uniqueid": "w25701305:a75590697", "current_trial": 29, "dateTime": 1693565592822, "trialdata": {"revealed_states": [], "clicked_states": ["15", "20", "7"], "num_clicks_accrued": [0, 0, 0, 0, 0, 0, 0, 0, 0, 0, 0, 0, 0], "stateRewards": ["", -1, 4, -6, -5, -22, -38, -38, -2, -56, 88, 14, -1, -1, -7, -6, 61, -60, 21, 11, 57, 31, -30, -2, -2, 6, -9, -44, -70, -44, -15, 34, 16, -78], "withholdReward": false, "trial_id": "mdp_trial_21", "block": "test", "trialIndex": 22, "score": 3.1500000000000004, "costs": -5.85, "simulationMode": [null, null, null, null, null], "rewards": [-1, 4, -6, -2, 14], "path": ["0", "0", "1", "2", "3", "8", "11"], "rt": [10741, 1081, 736, 466, 1165], "actions": ["up", "up", "up", "left", "left"], "actionTimes": [12168, 13762, 15013, 15990, 17676], "queries": {"click": {"state": {"target": ["15", "20", "7"], "time": [3375, 4898, 8392]}, "edge": {"target": [], "time": []}}, "mouseover": {"state": {"target": ["15", "14", "20", "14", "7", "12"], "time": [2983, 4242, 4521, 5737, 6052, 10236]}, "edge": {"target": [], "time": []}}, "mouseout": {"state": {"target": ["13", "12", "15", "14", "20", "14", "7"], "time": [579, 740, 4187, 4308, 5734, 5751, 10146]}, "edge": {"target": [], "time": []}}}, "displayed_time": "18.19", "trialTime": 23428, "trial_type": "mouselab-mdp", "trial_index": 29, "time_elapsed": 945438, "internal_node_id": "0.0-6.0-1.0-20.0"}}, {"uniqueid": "w25701305:a75590697", "current_trial": 30, "dateTime": 1693565612138, "trialdata": {"revealed_states": [], "clicked_states": ["33", "28", "18"], "num_clicks_accrued": [0, 0, 0, 0, 0, 0, 0, 0, 0, 0, 0, 0, 0], "stateRewards": ["", -2, -4, 6, 14, -34, 49, 36, -8, -3, 32, -4, 1, -2, 1, -8, -20, -71, -57, -7, -86, -62, -16, -2, -3, -5, 11, 23, -21, 53, 5, -5, 85, 73], "withholdReward": false, "trial_id": "mdp_trial_22", "block": "test", "trialIndex": 23, "score": -26.45, "costs": -6.449999999999999, "simulationMode": [null, null, null, null, null, null], "rewards": [-2, -4, 6, 14, -34], "path": ["0", "0", "1", "2", "3", "4", "5"], "rt": [9759, 1415, 574, 491, 125, 195], "actions": ["up", "up", "up", "up", "right", "up"], "actionTimes": [11980, 13407, 14500, 15508, 16156, 16876], "queries": {"click": {"state": {"target": ["33", "28", "18"], "time": [3560, 7115, 9936]}, "edge": {"target": [], "time": []}}, "mouseover": {"state": {"target": ["0", "31", "30", "33", "29", "27", "28", "12", "13", "14", "18"], "time": [2610, 2663, 3175, 3249, 4577, 6185, 6806, 8120, 8169, 8552, 9551]}, "edge": {"target": [], "time": []}}, "mouseout": {"state": {"target": ["12", "0", "31", "30", "33", "29", "27", "28", "12", "13", "14"], "time": [944, 2631, 2693, 3195, 3683, 6036, 6372, 8069, 8153, 8189, 9501]}, "edge": {"target": [], "time": []}}}, "displayed_time": "17.40", "trialTime": 18904, "trial_type": "mouselab-mdp", "trial_index": 30, "time_elapsed": 964754, "internal_node_id": "0.0-6.0-1.0-21.0"}}, {"uniqueid": "w25701305:a75590697", "current_trial": 31, "dateTime": 1693565630553, "trialdata": {"revealed_states": [], "clicked_states": [], "num_clicks_accrued": [0, 0, 0, 0, 0, 0, 0, 0, 0, 0, 0, 0, 0], "stateRewards": ["", 1, 4, -8, -13, -13, -87, -77, -10, -44, 54, 42, 2, -3, -4, 12, -9, -80, 52, 9, 84, -2, -65, 1, -4, -5, -6, 8, 80, 32, 13, -59, -5, -13], "withholdReward": false, "trial_id": "mdp_trial_23", "block": "test", "trialIndex": 24, "score": 2, "costs": 0, "simulationMode": [null, null, null, null, null], "rewards": [2, -3, -4, 9, -2], "path": ["0", "0", "12", "13", "14", "19", "21"], "rt": [1614, 361, 462, 107, 481], "actions": ["right", "right", "right", "down", "down"], "actionTimes": [2980, 3862, 4846, 5474, 6481], "queries": {"click": {"state": {"target": [], "time": []}, "edge": {"target": [], "time": []}}, "mouseover": {"state": {"target": [], "time": []}, "edge": {"target": [], "time": []}}, "mouseout": {"state": {"target": ["18", "0"], "time": [589, 16470]}, "edge": {"target": [], "time": []}}}, "displayed_time": "15.38", "trialTime": 17979, "trial_type": "mouselab-mdp", "trial_index": 31, "time_elapsed": 983169, "internal_node_id": "0.0-6.0-1.0-22.0"}}, {"uniqueid": "w25701305:a75590697", "current_trial": 32, "dateTime": 1693565649367, "trialdata": {"revealed_states": [], "clicked_states": ["24", "19", "17"], "num_clicks_accrued": [0, 0, 0, 0, 0, 0, 0, 0, 0, 0, 0, 0, 0], "stateRewards": ["", -1, -1, 4, -16, -75, 81, -51, -7, -84, 73, -30, -2, 1, -3, -16, -77, 33, 14, 1, 45, 87, -66, 2, 2, -5, -7, -19, -17, 79, -3, 8, 49, 47], "withholdReward": false, "trial_id": "mdp_trial_24", "block": "test", "trialIndex": 25, "score": 63.95, "costs": -4.05, "simulationMode": [null, null, null, null, null, null], "rewards": [-1, -1, 4, -7, 73], "path": ["0", "0", "1", "2", "3", "8", "10"], "rt": [5915, 2077, 207, 572, 562, 794], "actions": ["up", "up", "up", "up", "left", "down"], "actionTimes": [8058, 10139, 10870, 11968, 13042, 14352], "queries": {"click": {"state": {"target": ["24", "19", "17"], "time": [3424, 5204, 6269]}, "edge": {"target": [], "time": []}}, "mouseover": {"state": {"target": ["23", "24", "23", "14", "19", "17"], "time": [2622, 3172, 4282, 4750, 4866, 5828]}, "edge": {"target": [], "time": []}}, "mouseout": {"state": {"target": ["0", "0", "23", "24", "23", "14", "19", "17"], "time": [367, 2522, 2784, 4266, 4300, 4833, 5768, 17888]}, "edge": {"target": [], "time": []}}}, "displayed_time": "16.15", "trialTime": 18381, "trial_type": "mouselab-mdp", "trial_index": 32, "time_elapsed": 1001984, "internal_node_id": "0.0-6.0-1.0-23.0"}}, {"uniqueid": "w25701305:a75590697", "current_trial": 33, "dateTime": 1693565675173, "trialdata": {"revealed_states": [], "clicked_states": ["28", "32", "20"], "num_clicks_accrued": [0, 0, 0, 0, 0, 0, 0, 0, 0, 0, 0, 0, 0], "stateRewards": ["", 1, 2, -3, -5, 66, -50, -47, -5, 1, 28, -27, 1, 1, -1, -6, 37, -25, 56, 1, -82, -66, -40, -1, -4, -7, 15, -61, -23, 26, 10, 14, -56, 29], "withholdReward": false, "trial_id": "mdp_trial_25", "block": "test", "trialIndex": 26, "score": 44.55, "costs": -6.449999999999999, "simulationMode": [null, null, null, null, null], "rewards": [1, 1, -1, -6, 56], "path": ["0", "0", "12", "13", "14", "15", "18"], "rt": [12944, 451, 414, 575, 622], "actions": ["right", "right", "right", "up", "left"], "actionTimes": [14327, 15289, 16218, 17313, 18463], "queries": {"click": {"state": {"target": ["28", "32", "20"], "time": [2636, 6213, 9758]}, "edge": {"target": [], "time": []}}, "mouseover": {"state": {"target": ["23", "28", "32", "22", "19", "20", "20"], "time": [2028, 2182, 4046, 6975, 7742, 7828, 8194]}, "edge": {"target": [], "time": []}}, "mouseout": {"state": {"target": ["12", "0", "23", "28", "32", "22", "19", "20", "20", "20"], "time": [633, 2001, 2040, 3533, 6892, 7009, 7793, 7862, 9887, 10888]}, "edge": {"target": [], "time": []}}}, "displayed_time": "18.98", "trialTime": 25367, "trial_type": "mouselab-mdp", "trial_index": 33, "time_elapsed": 1027789, "internal_node_id": "0.0-6.0-1.0-24.0"}}, {"uniqueid": "w25701305:a75590697", "current_trial": 34, "dateTime": 1693565702680, "trialdata": {"revealed_states": [], "clicked_states": ["17", "27", "31", "6"], "num_clicks_accrued": [0, 0, 0, 0, 0, 0, 0, 0, 0, 0, 0, 0, 0], "stateRewards": ["", 2, -1, -1, -9, -81, -30, 55, -6, 78, 25, 62, 2, 4, -1, 9, -85, 1, -19, 1, -60, 12, -34, 1, 4, -1, -13, -24, -16, -83, -8, 16, 43, 9], "withholdReward": false, "trial_id": "mdp_trial_26", "block": "test", "trialIndex": 27, "score": 3.4000000000000004, "costs": -8.6, "simulationMode": [null, null, null, null, null], "rewards": [1, 4, -1, -8, 16], "path": ["0", "0", "23", "24", "25", "30", "31"], "rt": [16755, 438, 448, 578, 537], "actions": ["left", "left", "left", "down", "right"], "actionTimes": [18268, 19220, 20179, 21287, 22346], "queries": {"click": {"state": {"target": ["17", "27", "31", "6"], "time": [3670, 7453, 11378, 14758]}, "edge": {"target": [], "time": []}}, "mouseover": {"state": {"target": ["0", "18", "15", "17", "10", "29", "26", "27", "25", "30", "32", "31", "31", "2", "3", "4", "6"], "time": [2794, 2863, 2918, 3245, 4259, 4348, 4926, 5940, 9770, 9872, 10338, 10538, 11071, 12152, 12785, 12901, 13564]}, "edge": {"target": [], "time": []}}, "mouseout": {"state": {"target": ["0", "0", "18", "15", "17", "10", "29", "26", "27", "25", "30", "32", "31", "31", "2", "3", "4", "6", "4", "2"], "time": [2199, 2814, 2886, 3013, 3798, 4288, 4780, 5804, 8863, 9820, 10237, 10451, 10754, 11510, 12668, 12819, 13417, 14888, 24257, 24343]}, "edge": {"target": [], "time": []}}}, "displayed_time": "22.86", "trialTime": 27064, "trial_type": "mouselab-mdp", "trial_index": 34, "time_elapsed": 1055297, "internal_node_id": "0.0-6.0-1.0-25.0"}}, {"uniqueid": "w25701305:a75590697", "current_trial": 35, "dateTime": 1693565725873, "trialdata": {"revealed_states": [], "clicked_states": ["9", "32", "10", "6"], "num_clicks_accrued": [0, 0, 0, 0, 0, 0, 0, 0, 0, 0, 0, 0, 0], "stateRewards": ["", -2, 1, -3, -16, -39, -52, 30, -7, -41, -59, 11, 2, 1, 8, 2, -11, -26, -42, -13, 87, -59, -48, -1, -1, -1, 16, -79, 31, 50, -1, -84, 34, -82], "withholdReward": false, "trial_id": "mdp_trial_27", "block": "test", "trialIndex": 28, "score": 21.4, "costs": -8.6, "simulationMode": [null, null, null, null, null], "rewards": [-1, -1, -1, -1, 34], "path": ["0", "0", "23", "24", "25", "30", "32"], "rt": [15207, 181, 374, 449, 325], "actions": ["left", "left", "left", "down", "down"], "actionTimes": [16453, 17153, 18044, 19018, 19872], "queries": {"click": {"state": {"target": ["9", "32", "10", "6"], "time": [2214, 5802, 9493, 13390]}, "edge": {"target": [], "time": []}}, "mouseover": {"state": {"target": ["1", "2", "3", "9", "8", "28", "24", "32", "13", "18", "3", "10", "3", "4", "6", "7"], "time": [1518, 1550, 1601, 1833, 3138, 3192, 3215, 4362, 6894, 6934, 7568, 8333, 11738, 11761, 12466, 14528]}, "edge": {"target": [], "time": []}}, "mouseout": {"state": {"target": ["0", "1", "2", "3", "9", "8", "28", "24", "32", "13", "18", "3", "10", "3", "4", "6", "7"], "time": [709, 1541, 1571, 1632, 3118, 3172, 3208, 3244, 6327, 6914, 7015, 8230, 9622, 11758, 11804, 14468, 21897]}, "edge": {"target": [], "time": []}}}, "displayed_time": "20.38", "trialTime": 22787, "trial_type": "mouselab-mdp", "trial_index": 35, "time_elapsed": 1078490, "internal_node_id": "0.0-6.0-1.0-26.0"}}, {"uniqueid": "w25701305:a75590697", "current_trial": 36, "dateTime": 1693565744565, "trialdata": {"revealed_states": [], "clicked_states": ["5"], "num_clicks_accrued": [0, 0, 0, 0, 0, 0, 0, 0, 0, 0, 0, 0, 0], "stateRewards": ["", -2, -4, -2, 10, -8, -15, -47, 7, -84, 53, 5, -1, 2, -7, 3, 83, 31, 47, -1, 30, -8, 69, 2, -4, -1, 8, -7, 12, -8, -8, -13, 30, -84], "withholdReward": false, "trial_id": "mdp_trial_28", "block": "test", "trialIndex": 29, "score": -87.15, "costs": -2.15, "simulationMode": [null, null, null, null, null, null], "rewards": [-2, -4, -2, 7, -84], "path": ["0", "0", "1", "2", "3", "8", "9"], "rt": [3227, 999, 244, 614, 438, 1128], "actions": ["up", "up", "up", "up", "left", "up"], "actionTimes": [4699, 5702, 6458, 7596, 8564, 10203], "queries": {"click": {"state": {"target": ["5"], "time": [2841]}, "edge": {"target": [], "time": []}}, "mouseover": {"state": {"target": ["7", "6", "5", "3"], "time": [2148, 2267, 2486, 4096]}, "edge": {"target": [], "time": []}}, "mouseout": {"state": {"target": ["0", "7", "6", "5", "5", "3", "2", "1"], "time": [2068, 2167, 2351, 2971, 4046, 4163, 16552, 16575]}, "edge": {"target": [], "time": []}}}, "displayed_time": "15.48", "trialTime": 18236, "trial_type": "mouselab-mdp", "trial_index": 36, "time_elapsed": 1097182, "internal_node_id": "0.0-6.0-1.0-27.0"}}, {"uniqueid": "w25701305:a75590697", "current_trial": 37, "dateTime": 1693565763261, "trialdata": {"revealed_states": [], "clicked_states": ["10", "22"], "num_clicks_accrued": [0, 0, 0, 0, 0, 0, 0, 0, 0, 0, 0, 0, 0], "stateRewards": ["", 1, -2, -2, 10, -31, -77, 35, 9, -47, 8, 48, -2, 1, -4, -3, -26, -50, 43, -11, 76, -38, 17, 1, -1, 6, 10, 15, -9, 12, -8, 85, 11, -55], "withholdReward": false, "trial_id": "mdp_trial_29", "block": "test", "trialIndex": 30, "score": -3.3000000000000007, "costs": -4.3, "simulationMode": [null, null, null, null, null], "rewards": [-2, 1, -4, -11, 17], "path": ["0", "0", "12", "13", "14", "19", "22"], "rt": [9269, 334, 523, 97, 338], "actions": ["right", "right", "right", "down", "left"], "actionTimes": [10328, 11175, 12216, 12824, 13679], "queries": {"click": {"state": {"target": ["10", "22"], "time": [2620, 6402]}, "edge": {"target": [], "time": []}}, "mouseover": {"state": {"target": ["1", "2", "10", "2", "18", "14", "20", "19", "22"], "time": [1670, 2070, 2335, 3091, 3133, 3183, 4698, 4914, 5901]}, "edge": {"target": [], "time": []}}, "mouseout": {"state": {"target": ["0", "1", "2", "10", "2", "18", "14", "20", "19", "22"], "time": [1585, 1719, 2101, 3085, 3113, 3158, 3199, 4747, 4998, 7376]}, "edge": {"target": [], "time": []}}}, "displayed_time": "15.07", "trialTime": 18250, "trial_type": "mouselab-mdp", "trial_index": 37, "time_elapsed": 1115877, "internal_node_id": "0.0-6.0-1.0-28.0"}}, {"uniqueid": "w25701305:a75590697", "current_trial": 38, "dateTime": 1693565781235, "trialdata": {"revealed_states": [], "clicked_states": [], "num_clicks_accrued": [0, 0, 0, 0, 0, 0, 0, 0, 0, 0, 0, 0, 0], "stateRewards": ["", -2, -3, 1, -7, 39, -67, 16, 5, -20, 73, 66, -1, 4, 5, -3, 23, -68, -87, -8, 3, -3, 17, 1, -4, -2, -13, -32, 34, 61, -5, -11, -18, 12], "withholdReward": false, "trial_id": "mdp_trial_30", "block": "test", "trialIndex": 31, "score": 2, "costs": 0, "simulationMode": [null, null, null, null, null], "rewards": [1, -4, -2, -5, 12], "path": ["0", "0", "23", "24", "25", "30", "33"], "rt": [1510, 862, 673, 586, 245], "actions": ["left", "left", "left", "down", "left"], "actionTimes": [2990, 4370, 5560, 6658, 7438], "queries": {"click": {"state": {"target": [], "time": []}, "edge": {"target": [], "time": []}}, "mouseover": {"state": {"target": ["18"], "time": [2193]}, "edge": {"target": [], "time": []}}, "mouseout": {"state": {"target": ["0", "18"], "time": [2091, 2212]}, "edge": {"target": [], "time": []}}}, "displayed_time": "15.49", "trialTime": 17566, "trial_type": "mouselab-mdp", "trial_index": 38, "time_elapsed": 1133852, "internal_node_id": "0.0-6.0-1.0-29.0"}}, {"uniqueid": "w25701305:a75590697", "current_trial": 39, "dateTime": 1693565800247, "trialdata": {"revealed_states": [], "clicked_states": [], "num_clicks_accrued": [0, 0, 0, 0, 0, 0, 0, 0, 0, 0, 0, 0, 0], "stateRewards": ["", 1, -3, -2, 14, 49, -40, -39, 2, 26, -61, 73, 1, -4, -8, 12, 79, 29, -65, -13, 55, -26, 27, -1, 3, 3, 9, -17, -60, -18, -8, 35, -88, 69], "withholdReward": false, "trial_id": "mdp_trial_31", "block": "test", "trialIndex": 32, "score": -46, "costs": 0, "simulationMode": [null, null, null, null, null], "rewards": [-1, 3, 3, 9, -60], "path": ["0", "0", "23", "24", "25", "26", "28"], "rt": [1431, 279, 852, 134, 2101], "actions": ["left", "left", "left", "up", "right"], "actionTimes": [3709, 4498, 5872, 6528, 9153], "queries": {"click": {"state": {"target": [], "time": []}, "edge": {"target": [], "time": []}}, "mouseover": {"state": {"target": [], "time": []}, "edge": {"target": [], "time": []}}, "mouseout": {"state": {"target": ["14", "12", "0"], "time": [804, 1154, 1258]}, "edge": {"target": [], "time": []}}}, "displayed_time": "16.29", "trialTime": 18542, "trial_type": "mouselab-mdp", "trial_index": 39, "time_elapsed": 1152863, "internal_node_id": "0.0-6.0-1.0-30.0"}}, {"uniqueid": "w25701305:a75590697", "current_trial": 40, "dateTime": 1693565823510, "trialdata": {"revealed_states": [], "clicked_states": ["17"], "num_clicks_accrued": [0, 0, 0, 0, 0, 0, 0, 0, 0, 0, 0, 0, 0], "stateRewards": ["", 2, 2, 3, -15, 23, -14, 73, -7, -32, -20, -6, 1, 1, -5, -12, 73, 6, -84, 11, -81, -57, 13, -2, -1, -4, -8, -52, -58, 49, 13, 5, -41, -41], "withholdReward": false, "trial_id": "mdp_trial_32", "block": "test", "trialIndex": 33, "score": -24.15, "costs": -2.15, "simulationMode": [null, null, null, null, null], "rewards": [2, 2, 3, -15, -14], "path": ["0", "0", "1", "2", "3", "4", "6"], "rt": [9212, 460, 359, 676, 832], "actions": ["up", "up", "up", "right", "right"], "actionTimes": [10566, 11548, 12415, 13630, 15002], "queries": {"click": {"state": {"target": ["17"], "time": [2640]}, "edge": {"target": [], "time": []}}, "mouseover": {"state": {"target": ["12", "18", "15", "17", "13", "12", "0", "25", "30", "33"], "time": [1870, 1916, 2234, 2382, 4596, 6162, 6202, 6513, 8077, 8560]}, "edge": {"target": [], "time": []}}, "mouseout": {"state": {"target": ["0", "12", "18", "15", "17", "13", "12", "0", "25", "30", "33", "22", "19", "19", "12", "23"], "time": [1851, 1891, 1950, 2298, 4545, 4632, 6195, 6224, 7991, 8211, 16156, 16268, 16302, 20481, 20532, 20898]}, "edge": {"target": [], "time": []}}}, "displayed_time": "15.53", "trialTime": 22820, "trial_type": "mouselab-mdp", "trial_index": 40, "time_elapsed": 1176127, "internal_node_id": "0.0-6.0-1.0-31.0"}}, {"uniqueid": "w25701305:a75590697", "current_trial": 41, "dateTime": 1693565841100, "trialdata": {"revealed_states": [], "clicked_states": ["18", "31"], "num_clicks_accrued": [0, 0, 0, 0, 0, 0, 0, 0, 0, 0, 0, 0, 0], "stateRewards": ["", -1, 2, 5, -6, 13, -64, -47, 8, -79, -80, -33, 1, 2, -2, -16, 56, -71, -10, 3, 29, 44, 85, -1, 4, 5, 4, -36, -56, 19, 8, 52, -13, -2], "withholdReward": false, "trial_id": "mdp_trial_33", "block": "test", "trialIndex": 34, "score": -51.3, "costs": -4.3, "simulationMode": [null, null, null, null, null], "rewards": [-1, 2, 5, -6, -47], "path": ["0", "0", "1", "2", "3", "4", "7"], "rt": [8376, 938, 281, 318, 1244], "actions": ["up", "up", "up", "right", "down"], "actionTimes": [9511, 10974, 11766, 12609, 14379], "queries": {"click": {"state": {"target": ["18", "31"], "time": [2520, 6290]}, "edge": {"target": [], "time": []}}, "mouseover": {"state": {"target": ["18", "13", "12", "31", "30", "31", "1", "2"], "time": [2260, 3722, 4140, 4204, 4686, 4987, 7117, 7952]}, "edge": {"target": [], "time": []}}, "mouseout": {"state": {"target": ["0", "18", "18", "13", "12", "31", "30", "31", "1", "2", "7", "16"], "time": [1645, 2650, 3688, 4137, 4155, 4237, 4903, 7020, 7770, 15331, 15366, 15396]}, "edge": {"target": [], "time": []}}}, "displayed_time": "15.14", "trialTime": 17142, "trial_type": "mouselab-mdp", "trial_index": 41, "time_elapsed": 1193716, "internal_node_id": "0.0-6.0-1.0-32.0"}}, {"uniqueid": "w25701305:a75590697", "current_trial": 42, "dateTime": 1693565859434, "trialdata": {"revealed_states": [], "clicked_states": [], "num_clicks_accrued": [0, 0, 0, 0, 0, 0, 0, 0, 0, 0, 0, 0, 0], "stateRewards": ["", -1, 3, 8, 10, -86, 61, -36, 10, 17, -60, 24, -1, -3, 3, 11, 50, 60, 33, -3, -20, 58, -6, 1, -4, -4, 13, -70, -71, 43, 14, 52, 82, -11], "withholdReward": false, "trial_id": "mdp_trial_34", "block": "test", "trialIndex": 35, "score": -10, "costs": 0, "simulationMode": [null, null, null, null, null], "rewards": [-1, -3, 3, -3, -6], "path": ["0", "0", "12", "13", "14", "19", "22"], "rt": [2016, 308, 670, 4762, 820], "actions": ["right", "right", "right", "down", "left"], "actionTimes": [3458, 4306, 5490, 10775, 12119], "queries": {"click": {"state": {"target": [], "time": []}, "edge": {"target": [], "time": []}}, "mouseover": {"state": {"target": ["0", "23"], "time": [2126, 2157]}, "edge": {"target": [], "time": []}}, "mouseout": {"state": {"target": ["13", "12", "0", "0", "23", "23", "19", "20", "22"], "time": [424, 449, 840, 2148, 2208, 7835, 8169, 8190, 16564]}, "edge": {"target": [], "time": []}}}, "displayed_time": "15.44", "trialTime": 17857, "trial_type": "mouselab-mdp", "trial_index": 42, "time_elapsed": 1212050, "internal_node_id": "0.0-6.0-1.0-33.0"}}, {"uniqueid": "w25701305:a75590697", "current_trial": 43, "dateTime": 1693565881341, "trialdata": {"revealed_states": [], "clicked_states": ["33"], "num_clicks_accrued": [0, 0, 0, 0, 0, 0, 0, 0, 0, 0, 0, 0, 0], "stateRewards": ["", 2, 3, 8, 11, 25, -80, 6, -4, -56, 84, -23, -2, -4, -3, 4, -51, -9, -61, -15, -64, 67, -35, 1, -1, -7, -6, 83, 59, -15, 12, -79, 56, 41], "withholdReward": false, "trial_id": "mdp_trial_35", "block": "test", "trialIndex": 36, "score": 43.85, "costs": -2.15, "simulationMode": [null, null, null, null, null], "rewards": [1, -1, -7, 12, 41], "path": ["0", "0", "23", "24", "25", "30", "33"], "rt": [6810, 1063, 2929, 234, 601], "actions": ["left", "left", "left", "down", "left"], "actionTimes": [8984, 10554, 14417, 15172, 16287], "queries": {"click": {"state": {"target": ["33"], "time": [3458]}, "edge": {"target": [], "time": []}}, "mouseover": {"state": {"target": ["30", "33", "27"], "time": [2822, 3235, 7352]}, "edge": {"target": [], "time": []}}, "mouseout": {"state": {"target": ["0", "30", "33", "27", "26", "31"], "time": [2768, 3163, 7336, 18555, 18589, 18637]}, "edge": {"target": [], "time": []}}}, "displayed_time": "17.03", "trialTime": 21426, "trial_type": "mouselab-mdp", "trial_index": 43, "time_elapsed": 1233957, "internal_node_id": "0.0-6.0-1.0-34.0"}}, {"uniqueid": "w25701305:a75590697", "current_trial": 44, "dateTime": 1693565901020, "trialdata": {"revealed_states": [], "clicked_states": ["16", "11"], "num_clicks_accrued": [0, 0, 0, 0, 0, 0, 0, 0, 0, 0, 0, 0, 0], "stateRewards": ["", -2, 2, 3, -7, -31, -33, 29, -8, -57, 50, -83, -1, -1, 5, 13, -23, -62, 25, 5, -66, -85, 14, 1, -2, -1, 16, 71, 33, -19, -14, 5, -43, 79], "withholdReward": false, "trial_id": "mdp_trial_36", "block": "test", "trialIndex": 37, "score": -39.3, "costs": -4.3, "simulationMode": [null, null, null, null, null], "rewards": [-2, 2, 3, -7, -31], "path": ["0", "0", "1", "2", "3", "4", "5"], "rt": [8606, 798, 234, 498, 645], "actions": ["up", "up", "up", "right", "up"], "actionTimes": [9948, 11286, 12033, 13043, 14205], "queries": {"click": {"state": {"target": ["16", "11"], "time": [2579, 6809]}, "edge": {"target": [], "time": []}}, "mouseover": {"state": {"target": ["18", "16", "6", "8", "11"], "time": [1886, 2310, 4809, 6303, 6488]}, "edge": {"target": [], "time": []}}, "mouseout": {"state": {"target": ["0", "18", "16", "6", "8", "11", "28"], "time": [1849, 1913, 2709, 5970, 6455, 17543, 17594]}, "edge": {"target": [], "time": []}}}, "displayed_time": "15.35", "trialTime": 19251, "trial_type": "mouselab-mdp", "trial_index": 44, "time_elapsed": 1253637, "internal_node_id": "0.0-6.0-1.0-35.0"}}, {"uniqueid": "w25701305:a75590697", "current_trial": 45, "dateTime": 1693565918204, "trialdata": {"revealed_states": [], "clicked_states": [], "num_clicks_accrued": [0, 0, 0, 0, 0, 0, 0, 0, 0, 0, 0, 0, 0], "stateRewards": ["", 2, -1, -3, 16, -3, -16, -62, -1, 13, -26, 43, -1, 4, 3, -9, -54, -37, -3, -12, -71, -68, -57, 1, -3, 2, -9, 2, -2, -9, -11, 84, -52, 55], "withholdReward": false, "trial_id": "mdp_trial_37", "block": "test", "trialIndex": 38, "score": -63, "costs": 0, "simulationMode": [null, null, null, null, null], "rewards": [1, -3, 2, -11, -52], "path": ["0", "0", "23", "24", "25", "30", "32"], "rt": [1349, 867, 1115, 157, 188], "actions": ["left", "left", "left", "down", "down"], "actionTimes": [2389, 3770, 6069, 6743, 7456], "queries": {"click": {"state": {"target": [], "time": []}, "edge": {"target": [], "time": []}}, "mouseover": {"state": {"target": ["23", "28"], "time": [1775, 1838]}, "edge": {"target": [], "time": []}}, "mouseout": {"state": {"target": ["0", "23", "28", "12", "0"], "time": [1739, 1799, 8617, 15695, 15746]}, "edge": {"target": [], "time": []}}}, "displayed_time": "15.05", "trialTime": 16717, "trial_type": "mouselab-mdp", "trial_index": 45, "time_elapsed": 1270820, "internal_node_id": "0.0-6.0-1.0-36.0"}}, {"uniqueid": "w25701305:a75590697", "current_trial": 46, "dateTime": 1693565939751, "trialdata": {"revealed_states": [], "clicked_states": ["1", "6", "17"], "num_clicks_accrued": [0, 0, 0, 0, 0, 0, 0, 0, 0, 0, 0, 0, 0], "stateRewards": ["", -1, -3, -5, -14, -13, -47, 79, 8, -60, -64, 41, -1, 2, 3, 13, -46, 61, -79, -11, -64, -65, 23, 1, -2, 6, -14, 46, 32, 21, 7, 75, -66, 15], "withholdReward": false, "trial_id": "mdp_trial_38", "block": "test", "trialIndex": 39, "score": 73.95, "costs": -4.05, "simulationMode": [null, null, null, null, null], "rewards": [-1, 2, 3, 13, 61], "path": ["0", "0", "12", "13", "14", "15", "17"], "rt": [11612, 250, 206, 170, 48], "actions": ["right", "right", "right", "up", "right"], "actionTimes": [12976, 13751, 14472, 15153, 15716], "queries": {"click": {"state": {"target": ["1", "6", "17"], "time": [3616, 5470, 9021]}, "edge": {"target": [], "time": []}}, "mouseover": {"state": {"target": ["1", "2", "7", "6", "4", "6", "16", "15", "17", "19", "0", "26", "28"], "time": [3197, 4289, 4422, 4639, 4991, 5193, 7255, 7710, 8170, 11482, 11548, 12170, 12447]}, "edge": {"target": [], "time": []}}, "mouseout": {"state": {"target": ["1", "2", "7", "6", "4", "6", "16", "15", "17", "19", "0", "26", "28", "25", "24", "14"], "time": [4061, 4330, 4440, 4656, 5126, 7237, 7319, 8103, 10055, 11498, 12038, 12387, 17677, 18177, 18195, 19889]}, "edge": {"target": [], "time": []}}}, "displayed_time": "16.25", "trialTime": 21037, "trial_type": "mouselab-mdp", "trial_index": 46, "time_elapsed": 1292367, "internal_node_id": "0.0-6.0-1.0-37.0"}}, {"uniqueid": "w25701305:a75590697", "current_trial": 47, "dateTime": 1693565967450, "trialdata": {"revealed_states": [], "clicked_states": ["20", "9", "29", "33", "6"], "num_clicks_accrued": [0, 0, 0, 0, 0, 0, 0, 0, 0, 0, 0, 0, 0], "stateRewards": ["", -2, -4, -2, -13, -15, 87, -19, -6, -80, 30, 12, 1, 1, -8, 2, 55, 56, 15, 11, -68, -7, 55, -2, 3, -3, -3, 48, 62, 4, 1, -3, 69, -33], "withholdReward": false, "trial_id": "mdp_trial_39", "block": "test", "trialIndex": 40, "score": 55.25, "costs": -10.75, "simulationMode": [null, null, null, null, null], "rewards": [-2, -4, -2, -13, 87], "path": ["0", "0", "1", "2", "3", "4", "6"], "rt": [19600, 180, 215, 155, 181], "actions": ["up", "up", "up", "right", "right"], "actionTimes": [21055, 21762, 22496, 23165, 23860], "queries": {"click": {"state": {"target": ["20", "9", "29", "33", "6"], "time": [2840, 6904, 10459, 13975, 17565]}, "edge": {"target": [], "time": []}}, "mouseover": {"state": {"target": ["12", "14", "19", "19", "20", "19", "12", "28", "26", "11", "9", "11", "27", "29", "29", "33", "25", "4", "6"], "time": [1887, 1936, 2044, 2332, 2612, 3700, 3760, 4139, 4542, 5843, 5910, 7606, 7637, 7657, 8736, 12742, 14476, 14549, 14890]}, "edge": {"target": [], "time": []}}, "mouseout": {"state": {"target": ["22", "0", "12", "14", "19", "19", "20", "19", "12", "28", "26", "11", "9", "11", "27", "29", "29", "33", "25", "4", "6", "2", "24", "31"], "time": [304, 345, 1921, 1948, 2248, 2519, 3662, 3724, 3785, 4458, 5797, 5868, 7604, 7621, 7654, 7673, 11966, 14471, 14497, 14566, 25309, 25359, 25695, 25770]}, "edge": {"target": [], "time": []}}}, "displayed_time": "24.38", "trialTime": 27126, "trial_type": "mouselab-mdp", "trial_index": 47, "time_elapsed": 1320066, "internal_node_id": "0.0-6.0-1.0-38.0"}}, {"uniqueid": "w25701305:a75590697", "current_trial": 48, "dateTime": 1693565984868, "trialdata": {"revealed_states": [], "clicked_states": ["32"], "num_clicks_accrued": [0, 0, 0, 0, 0, 0, 0, 0, 0, 0, 0, 0, 0], "stateRewards": ["", -1, 4, -8, 12, 14, 69, -8, 5, -72, -14, 56, -1, -1, -1, 9, 67, 19, 11, -9, -88, -58, 3, 2, -4, -8, 4, 62, 77, -74, 5, -31, 65, 88], "withholdReward": false, "trial_id": "mdp_trial_40", "block": "test", "trialIndex": 41, "score": 57.85, "costs": -2.15, "simulationMode": [null, null, null, null, null], "rewards": [2, -4, -8, 5, 65], "path": ["0", "0", "23", "24", "25", "30", "32"], "rt": [4727, 136, 204, 43, 79], "actions": ["left", "left", "left", "down", "down"], "actionTimes": [6151, 6810, 7533, 8087, 8675], "queries": {"click": {"state": {"target": ["32"], "time": [3182]}, "edge": {"target": [], "time": []}}, "mouseover": {"state": {"target": ["23", "24", "32"], "time": [2082, 2518, 2816]}, "edge": {"target": [], "time": []}}, "mouseout": {"state": {"target": ["0", "23", "24", "32", "13", "21"], "time": [2052, 2147, 2651, 3791, 10044, 16186]}, "edge": {"target": [], "time": []}}}, "displayed_time": "15.43", "trialTime": 16925, "trial_type": "mouselab-mdp", "trial_index": 48, "time_elapsed": 1337484, "internal_node_id": "0.0-6.0-1.0-39.0"}}, {"uniqueid": "w25701305:a75590697", "current_trial": 49, "dateTime": 1693566037731, "trialdata": {"rt": 52851, "response": {"Q0": "$-2 to $2", "Q1": "$-16 to $16", "Q2": "$-32 to $32", "Q3": "The cost for clicking on nodes varied between nodes.", "Q4": "Very motivated"}, "question_order": [0, 1, 2, 3, 4], "trial_id": "final_quiz_control", "trial_type": "survey-multi-choice", "trial_index": 49, "time_elapsed": 1390349, "internal_node_id": "0.0-6.0-2.0"}}, {"uniqueid": "w25701305:a75590697", "current_trial": 50, "dateTime": 1693566137915, "trialdata": {"rt": 100174, "response": {"Q0": "I was very keen to use the inspector tool at the beginning. I laid off in the middle, to see how far I could get on instinct. But it backfired, so I went back to using the inspector towards the end", "Q1": "I realised that I needed to be willing to use the inspector and take the cost that comes with it, in order to move forward", "Q2": "It became more difficult the further in i played"}, "trial_id": "self_report_control", "trial_type": "survey-text", "trial_index": 50, "time_elapsed": 1490533, "internal_node_id": "0.0-6.0-3.0"}}, {"uniqueid": "w25701305:a75590697", "current_trial": 51, "dateTime": 1693566193954, "trialdata": {"rt": 56034, "response": {"Q0": "Disagree", "Q1": "Neither disagree nor agree", "Q2": "Strongly agree", "Q3": "Strongly agree", "Q4": "Disagree", "Q5": "Strongly agree", "Q6": "Agree"}, "question_order": [0, 1, 2, 3, 4, 5, 6], "trial_id": "self_report_2", "trial_type": "survey-multi-choice", "trial_index": 51, "time_elapsed": 1546572, "internal_node_id": "0.0-6.0-4.0"}}, {"uniqueid": "w25701305:a75590697", "current_trial": 52, "dateTime": 1693566219157, "trialdata": {"rt": 25197, "response": {"gender": "female", "age": "23", "colorblind": "0", "effort": "1"}, "trial_type": "survey-html-form", "trial_index": 52, "time_elapsed": 1571775, "internal_node_id": "0.0-6.0-5.0"}}, {"uniqueid": "w25701305:a75590697", "current_trial": 53, "dateTime": 1693566259711, "trialdata": {"rt": 40547, "response": {"Q0": "The instructions were hard to understand at first, but the practice rounds helped a lot.", "Q1": "No, I hadn't participated before", "Q2": ""}, "trial_type": "survey-text", "trial_index": 53, "time_elapsed": 1612329, "internal_node_id": "0.0-6.0-6.0"}}, {"uniqueid": "w25701305:a75590697", "current_trial": 54, "dateTime": 1693566281367, "trialdata": {"rt": 21650, "stimulus": "<h1>Completion Code Instructions (1/2)</h1>\n<br><br><br><br>\nYou have reached the end of the experiment! The completion code consists of two parts: (1) a code with 2 characters (2) a code with 6 characters. On this page, you will receive the second part of the code. The first part of the completion code will be on the next page.\n<br><br>\nThe second part of your completion code is: <b>EWEK22</b>\n<br><br>\nPlease note this down. Then, press 'Finish HIT' in order to find the first part of your completion code. Once the data has been saved, you will receive this code either in this window or in the original browser window where you started the experiment.\n", "response": 0, "trial_type": "html-button-response", "trial_index": 54, "time_elapsed": 1633985, "internal_node_id": "0.0-6.0-7.0"}}, {"uniqueid": "w25701305:a75590697", "current_trial": 55, "dateTime": 1693566282385, "trialdata": {"success": true, "trial_type": "fullscreen", "trial_index": 55, "time_elapsed": 1635003, "internal_node_id": "0.0-7.0"}}], "questiondata": {"params": {"CODE": "C6DMOQA6", "MIN_TIME": 14, "inspectCost": 1, "startTime": "Fri Sep 01 2023 12:37:24 GMT+0200 (South Africa Standard Time)", "bonusRate": 0.002, "variance": "1_2_4_8_44", "branching": "31123"}}, "eventdata": [{"eventtype": "initialized", "value": null, "timestamp": 1693564644020, "interval": 0}, {"eventtype": "window_resize", "value": [1024, 654], "timestamp": 1693564644020, "interval": 0}, {"eventtype": "window_resize", "value": [1024, 654], "timestamp": 1693564644610, "interval": 590}, {"eventtype": "window_resize", "value": [1366, 670], "timestamp": 1693564651363, "interval": 6753}, {"eventtype": "window_resize", "value": [1366, 768], "timestamp": 1693564652949, "interval": 1586}, {"eventtype": "focus", "value": "off", "timestamp": 1693564754557, "interval": 101608}, {"eventtype": "window_resize", "value": [1366, 767], "timestamp": 1693564754816, "interval": 259}, {"eventtype": "focus", "value": "on", "timestamp": 1693564757040, "interval": 2224}, {"eventtype": "window_resize", "value": [1366, 768], "timestamp": 1693564757262, "interval": 222}, {"eventtype": "focus", "value": "off", "timestamp": 1693565176899, "interval": 419637}, {"eventtype": "window_resize", "value": [1366, 767], "timestamp": 1693565177118, "interval": 219}, {"eventtype": "focus", "value": "on", "timestamp": 1693565179880, "interval": 2762}, {"eventtype": "window_resize", "value": [1366, 768], "timestamp": 1693565180102, "interval": 222}, {"eventtype": "window_resize", "value": [1366, 670], "timestamp": 1693566281845, "interval": 1101743}], "useragent": "Mozilla/5.0 (Windows NT 10.0; Win64; x64) AppleWebKit/537.36 (KHTML, like Gecko) Chrome/116.0.0.0 Safari/537.36", "mode": "live", "id": "w25701305:a75590697", "status": "user data saved", "Beginhit": "2023-09-01 10:37:20.862691", "Beginexp": "2023-09-01 10:37:33.906608", "Endhit": "2023-09-01 11:04:44.821002", "psiturkStatus": 3, "browser": "<redacted>", "platform": "windows", "language": "en-GB"}