{"condition": 1, "counterbalance": 0, "assignmentId": "a57212193", "workerId": "w26310667", "hitId": "h53628391", "currenttrial": 28, "bonus": 0, "data": [{"uniqueid": "w26310667:a57212193", "current_trial": 0, "dateTime": 1693564827777, "trialdata": {"success": true, "trial_type": "fullscreen", "trial_index": 0, "time_elapsed": 9599, "internal_node_id": "0.0-0.0"}}, {"uniqueid": "w26310667:a57212193", "current_trial": 1, "dateTime": 1693564867219, "trialdata": {"view_history": [{"page_index": 0, "viewing_time": 39420}], "rt": 39421, "trial_id": "exp_instructions_misaligned", "trial_type": "instructions", "trial_index": 1, "time_elapsed": 49042, "internal_node_id": "0.0-1.0"}}, {"uniqueid": "w26310667:a57212193", "current_trial": 2, "dateTime": 1693565249826, "trialdata": {"view_history": [{"page_index": 0, "viewing_time": 130942}, {"page_index": 1, "viewing_time": 121415}, {"page_index": 2, "viewing_time": 81819}, {"page_index": 3, "viewing_time": 48420}], "rt": 382597, "trial_id": "mouselab_instructions_1_misaligned", "trial_type": "instructions", "trial_index": 2, "time_elapsed": 431649, "internal_node_id": "0.0-2.0-1.0"}}, {"uniqueid": "w26310667:a57212193", "current_trial": 3, "dateTime": 1693565359972, "trialdata": {"revealed_states": [], "clicked_states": ["13", "12", "14", "19", "21", "1", "2", "3", "8", "23", "24", "25", "30", "32", "26", "27"], "num_clicks_accrued": [0, 0, 0, 0, 0, 0, 0, 0, 0, 0, 0, 0, 0], "stateRewards": ["", 10, -10, -10, 10, -10, -10, 10, 10, -10, -10, -10, 10, 10, -10, 10, 10, 10, -10, 10, -10, -10, -10, 10, 10, 10, -10, -10, 10, 10, -10, 10, -10, 10], "withholdReward": false, "trial_id": "practice_1", "block": "test", "trialIndex": 0, "score": 5.5, "costs": -8, "simulationMode": [null, null, null, null, null], "rewards": [10, 10, -10, 10, -10], "path": ["0", "0", "12", "13", "14", "15", "18"], "rt": [78570, 535, 3912, 3112, 1047], "actions": ["right", "right", "right", "up", "left"], "actionTimes": [80970, 82029, 86485, 90134, 91725], "queries": {"click": {"state": {"target": ["13", "12", "14", "19", "21", "1", "2", "3", "8", "23", "24", "25", "30", "32", "26", "27"], "time": [4933, 6371, 9303, 15358, 19826, 25030, 29399, 30598, 32092, 36385, 38302, 40418, 41703, 43118, 44933, 49224]}, "edge": {"target": [], "time": []}}, "mouseover": {"state": {"target": ["1", "1", "2", "13", "12", "14", "19", "13", "12", "0", "1", "2", "18", "14", "19", "21", "20", "21", "19", "14", "14", "13", "18", "1", "2", "3", "2", "3", "8", "9", "2", "1", "23", "24", "25", "30", "32", "26", "25", "30", "25", "27", "12", "13", "18", "7", "2", "1", "0", "12", "13", "12", "0", "12", "18", "15", "16", "15", "15", "15", "15", "15", "12", "0", "12"], "time": [2700, 3220, 3854, 4505, 6032, 7912, 10397, 11751, 11885, 11956, 12592, 12867, 14080, 14782, 15003, 17588, 18419, 19503, 21479, 21963, 22122, 22453, 24164, 24564, 26190, 28572, 29106, 30274, 31326, 32711, 35095, 35217, 35526, 37892, 40021, 41394, 42863, 44585, 46489, 47773, 48251, 48913, 50017, 51193, 51360, 51437, 51844, 51971, 52167, 53784, 55027, 55828, 58313, 59370, 61054, 61922, 63422, 64957, 65617, 66449, 69125, 72727, 72886, 76260, 79781]}, "edge": {"target": [], "time": []}}, "mouseout": {"state": {"target": ["22", "12", "0", "1", "1", "2", "13", "12", "13", "14", "19", "14", "13", "12", "0", "1", "2", "18", "14", "19", "21", "20", "21", "19", "14", "14", "13", "18", "1", "2", "3", "2", "3", "8", "9", "2", "1", "23", "23", "24", "25", "30", "32", "30", "25", "26", "25", "30", "25", "26", "27", "12", "13", "18", "7", "2", "1", "0", "12", "13", "12", "0", "12", "18", "15", "16", "15", "15", "15", "15", "15", "12", "0", "12", "0", "0"], "time": [429, 669, 2579, 2787, 3462, 4096, 5937, 7203, 7373, 10254, 11597, 11712, 11848, 11921, 11987, 12766, 13863, 14176, 14843, 17552, 18138, 19261, 21444, 21520, 22088, 22286, 22504, 24223, 26032, 27438, 28973, 30133, 31204, 32667, 34859, 35147, 35282, 37383, 37704, 39394, 41130, 42769, 44132, 44269, 44430, 46214, 47464, 48215, 48286, 48465, 49925, 50059, 51233, 51399, 51568, 51934, 52007, 53594, 54918, 55702, 58185, 59272, 60663, 61889, 63207, 64473, 64995, 65832, 68100, 70226, 72787, 73443, 76311, 80364, 100256, 107394]}, "edge": {"target": [], "time": []}}}, "displayed_time": "92.27", "trialTime": 108092, "trial_type": "mouselab-mdp", "trial_index": 3, "time_elapsed": 541794, "internal_node_id": "0.0-2.0-2.0-0.0"}}, {"uniqueid": "w26310667:a57212193", "current_trial": 4, "dateTime": 1693565385254, "trialdata": {"revealed_states": [], "clicked_states": [], "num_clicks_accrued": [0, 0, 0, 0, 0, 0, 0, 0, 0, 0, 0, 0, 0], "stateRewards": ["", -10, -10, -10, -10, 10, 10, 10, 10, -10, -10, 10, -10, 10, 10, 10, -10, 10, -10, -10, 10, 10, 10, 10, -10, 10, -10, -10, 10, -10, -10, -10, 10, -10], "withholdReward": false, "trial_id": "practice_2", "block": "test", "trialIndex": 1, "score": -6.5, "costs": 0, "simulationMode": [null, null, null, null, null], "rewards": [10, -10, 10, -10, -10], "path": ["0", "0", "23", "24", "25", "26", "29"], "rt": [1488, 993, 5632, 1054, 1847], "actions": ["left", "left", "left", "up", "left"], "actionTimes": [5642, 7181, 13369, 14978, 17360], "queries": {"click": {"state": {"target": [], "time": []}, "edge": {"target": [], "time": []}}, "mouseover": {"state": {"target": [], "time": []}, "edge": {"target": [], "time": []}}, "mouseout": {"state": {"target": ["0"], "time": [23258]}, "edge": {"target": [], "time": []}}}, "displayed_time": "17.89", "trialTime": 23762, "trial_type": "mouselab-mdp", "trial_index": 4, "time_elapsed": 567076, "internal_node_id": "0.0-2.0-2.0-1.0"}}, {"uniqueid": "w26310667:a57212193", "current_trial": 5, "dateTime": 1693565451385, "trialdata": {"view_history": [{"page_index": 0, "viewing_time": 57575}, {"page_index": 1, "viewing_time": 8539}], "rt": 66116, "trial_id": "mouselab_instructions_2_misaligned", "trial_type": "instructions", "trial_index": 5, "time_elapsed": 633208, "internal_node_id": "0.0-2.0-3.0"}}, {"uniqueid": "w26310667:a57212193", "current_trial": 6, "dateTime": 1693565518560, "trialdata": {"rt": 67158, "response": {"Q0": "It is less costly to inspect further nodes.", "Q1": "The better I perform the higher my bonus will be.", "Q2": "No, the structure of the web will be different each time.", "Q3": "To get the highest total score.", "Q4": "Only before moving the spider.", "Q5": "3 seconds"}, "question_order": [0, 1, 2, 3, 4, 5], "correct": {"Q0": "The cost for clicking on nodes may vary between nodes.", "Q1": "The better I perform the higher my bonus will be.", "Q2": "No, the amount of cash at each node of the web may be different each time.", "Q3": "To get the highest total score.", "Q4": "Only before moving the spider.", "Q5": "3 seconds"}, "trial_id": "mouselab_quiz_misaligned", "trial_type": "survey-multi-choice", "trial_index": 6, "time_elapsed": 700383, "internal_node_id": "0.0-2.0-4.0"}}, {"uniqueid": "w26310667:a57212193", "current_trial": 7, "dateTime": 1693565533855, "trialdata": {"success": true, "trial_type": "fullscreen", "trial_index": 7, "time_elapsed": 715678, "internal_node_id": "0.0-2.1-0.1-0.1"}}, {"uniqueid": "w26310667:a57212193", "current_trial": 8, "dateTime": 1693565677284, "trialdata": {"view_history": [{"page_index": 0, "viewing_time": 51050}, {"page_index": 1, "viewing_time": 50307}, {"page_index": 2, "viewing_time": 35535}, {"page_index": 3, "viewing_time": 6522}], "rt": 143415, "trial_id": "mouselab_instructions_1_misaligned", "trial_type": "instructions", "trial_index": 8, "time_elapsed": 859107, "internal_node_id": "0.0-2.1-1.1"}}, {"uniqueid": "w26310667:a57212193", "current_trial": 9, "dateTime": 1693565733407, "trialdata": {"revealed_states": [], "clicked_states": ["12", "13", "14", "2", "24", "23", "25", "26", "30", "32", "1"], "num_clicks_accrued": [0, 0, 0, 0, 0, 0, 0, 0, 0, 0, 0, 0, 0], "stateRewards": ["", 10, -10, -10, 10, -10, -10, 10, 10, -10, -10, -10, 10, 10, -10, 10, 10, 10, -10, 10, -10, -10, -10, 10, 10, 10, -10, -10, 10, 10, -10, 10, -10, 10], "withholdReward": false, "trial_id": "practice_1", "block": "test", "trialIndex": 2, "score": -12, "costs": -5.5, "simulationMode": [null, null, null, null, null], "rewards": [10, -10, -10, 10, -10], "path": ["0", "0", "1", "2", "3", "4", "5"], "rt": [43232, 355, 289, 79, 126], "actions": ["up", "up", "up", "right", "up"], "actionTimes": [46793, 47669, 48527, 49142, 49787], "queries": {"click": {"state": {"target": ["12", "13", "14", "2", "24", "23", "25", "26", "30", "32", "1"], "time": [8200, 9378, 10529, 18160, 22432, 25286, 27467, 29301, 32400, 36189, 45771]}, "edge": {"target": [], "time": []}}, "mouseover": {"state": {"target": ["23", "24", "23", "12", "13", "14", "19", "19", "15", "18", "23", "2", "24", "23", "23", "24", "25", "26", "27", "25", "30", "32", "23", "24", "25", "24", "23", "0", "0", "1"], "time": [4433, 4759, 5704, 7803, 8891, 10122, 11210, 12888, 13298, 15803, 16121, 17565, 20633, 23742, 24979, 27012, 27120, 28982, 30505, 31896, 32012, 33173, 38014, 38198, 38432, 39659, 39738, 40092, 41420, 45469]}, "edge": {"target": [], "time": []}}, "mouseout": {"state": {"target": ["0", "23", "24", "23", "12", "13", "14", "19", "19", "14", "15", "18", "23", "2", "24", "23", "23", "24", "25", "26", "27", "26", "25", "30", "32", "23", "24", "25", "24", "23", "0", "0"], "time": [4366, 4602, 5660, 6768, 8806, 10028, 11092, 12361, 12926, 13180, 15765, 15843, 16390, 20174, 23726, 23778, 26977, 27048, 28845, 30138, 31212, 31830, 31964, 33117, 36850, 38068, 38365, 39632, 39703, 39832, 40316, 42284]}, "edge": {"target": [], "time": []}}}, "displayed_time": "50.32", "trialTime": 54607, "trial_type": "mouselab-mdp", "trial_index": 9, "time_elapsed": 915229, "internal_node_id": "0.0-2.1-2.1-0.1"}}, {"uniqueid": "w26310667:a57212193", "current_trial": 10, "dateTime": 1693565794434, "trialdata": {"revealed_states": [], "clicked_states": ["23", "24", "12", "13", "1", "25", "2"], "num_clicks_accrued": [0, 0, 0, 0, 0, 0, 0, 0, 0, 0, 0, 0, 0], "stateRewards": ["", -10, -10, -10, -10, 10, 10, 10, 10, -10, -10, 10, -10, 10, 10, 10, -10, 10, -10, -10, 10, 10, 10, 10, -10, 10, -10, -10, 10, -10, -10, -10, 10, -10], "withholdReward": false, "trial_id": "practice_2", "block": "test", "trialIndex": 3, "score": -30, "costs": -3.5, "simulationMode": [null, null, null, null, null], "rewards": [-10, -10, -10, 10, -10], "path": ["0", "0", "1", "2", "3", "8", "9"], "rt": [27704, 2061, 832, 142, 16520], "actions": ["up", "up", "up", "left", "up"], "actionTimes": [33511, 36110, 37498, 38179, 55226], "queries": {"click": {"state": {"target": ["23", "24", "12", "13", "1", "25", "2"], "time": [7223, 8868, 12110, 15942, 19019, 23105, 27298]}, "edge": {"target": [], "time": []}}, "mouseover": {"state": {"target": ["23", "24", "25", "0", "12", "13", "14", "13", "1", "2", "25", "0", "2", "23"], "time": [6833, 8298, 9948, 11510, 11626, 12743, 13254, 15294, 17062, 20471, 22848, 26174, 26566, 30063]}, "edge": {"target": [], "time": []}}, "mouseout": {"state": {"target": ["1", "0", "23", "24", "25", "24", "0", "12", "13", "14", "13", "1", "2", "25", "0", "2", "23", "0", "19", "20", "20", "1"], "time": [1787, 6714, 8152, 9721, 11116, 11393, 11554, 12693, 13102, 14590, 16642, 19239, 22288, 23791, 26213, 29674, 30099, 51351, 51685, 51728, 52868, 54429]}, "edge": {"target": [], "time": []}}}, "displayed_time": "55.74", "trialTime": 59471, "trial_type": "mouselab-mdp", "trial_index": 10, "time_elapsed": 976256, "internal_node_id": "0.0-2.1-2.1-1.1"}}, {"uniqueid": "w26310667:a57212193", "current_trial": 11, "dateTime": 1693565816041, "trialdata": {"view_history": [{"page_index": 0, "viewing_time": 19204}, {"page_index": 1, "viewing_time": 2389}], "rt": 21594, "trial_id": "mouselab_instructions_2_misaligned", "trial_type": "instructions", "trial_index": 11, "time_elapsed": 997864, "internal_node_id": "0.0-2.1-3.1"}}, {"uniqueid": "w26310667:a57212193", "current_trial": 12, "dateTime": 1693565881557, "trialdata": {"rt": 65507, "response": {"Q0": "The cost for clicking on nodes may vary between nodes.", "Q1": "The better I perform the higher my bonus will be.", "Q2": "No, the structure of the web will be different each time.", "Q3": "To get the highest total score.", "Q4": "Only before moving the spider.", "Q5": "3 seconds"}, "question_order": [0, 1, 2, 3, 4, 5], "correct": {"Q0": "The cost for clicking on nodes may vary between nodes.", "Q1": "The better I perform the higher my bonus will be.", "Q2": "No, the amount of cash at each node of the web may be different each time.", "Q3": "To get the highest total score.", "Q4": "Only before moving the spider.", "Q5": "3 seconds"}, "trial_id": "mouselab_quiz_misaligned", "trial_type": "survey-multi-choice", "trial_index": 12, "time_elapsed": 1063379, "internal_node_id": "0.0-2.1-4.1"}}, {"uniqueid": "w26310667:a57212193", "current_trial": 13, "dateTime": 1693565899726, "trialdata": {"success": true, "trial_type": "fullscreen", "trial_index": 13, "time_elapsed": 1081549, "internal_node_id": "0.0-2.2-0.2-0.2"}}, {"uniqueid": "w26310667:a57212193", "current_trial": 14, "dateTime": 1693565956122, "trialdata": {"view_history": [{"page_index": 0, "viewing_time": 37614}, {"page_index": 1, "viewing_time": 4873}, {"page_index": 2, "viewing_time": 11871}, {"page_index": 3, "viewing_time": 2029}], "rt": 56388, "trial_id": "mouselab_instructions_1_misaligned", "trial_type": "instructions", "trial_index": 14, "time_elapsed": 1137945, "internal_node_id": "0.0-2.2-1.2"}}, {"uniqueid": "w26310667:a57212193", "current_trial": 15, "dateTime": 1693566004879, "trialdata": {"revealed_states": [], "clicked_states": ["12", "13", "14", "24"], "num_clicks_accrued": [0, 0, 0, 0, 0, 0, 0, 0, 0, 0, 0, 0, 0], "stateRewards": ["", 10, -10, -10, 10, -10, -10, 10, 10, -10, -10, -10, 10, 10, -10, 10, 10, 10, -10, 10, -10, -10, -10, 10, 10, 10, -10, -10, 10, 10, -10, 10, -10, 10], "withholdReward": false, "trial_id": "practice_1", "block": "test", "trialIndex": 4, "score": 31.5, "costs": -2, "simulationMode": [null, null, null, null, null], "rewards": [10, 10, -10, 10, 10], "path": ["0", "0", "12", "13", "14", "15", "16"], "rt": [23717, 23, 524, 3965, 6744], "actions": ["right", "right", "right", "up", "up"], "actionTimes": [26979, 27537, 28596, 33105, 40386], "queries": {"click": {"state": {"target": ["12", "13", "14", "24"], "time": [5103, 7228, 10130, 17768]}, "edge": {"target": [], "time": []}}, "mouseover": {"state": {"target": ["13", "12", "13", "14", "19", "15", "13", "12", "0", "23", "24", "24", "23", "23", "24", "23", "21", "21"], "time": [4025, 4686, 6128, 8531, 10895, 13260, 13951, 14101, 14390, 14682, 15467, 16142, 16627, 17179, 17424, 19619, 23311, 24495]}, "edge": {"target": [], "time": []}}, "mouseout": {"state": {"target": ["12", "0", "13", "12", "13", "14", "19", "14", "15", "13", "12", "0", "23", "24", "24", "23", "23", "24", "23", "21", "21"], "time": [1574, 3991, 4385, 5961, 8257, 10708, 12811, 12900, 13674, 14041, 14292, 14508, 15090, 15808, 16340, 16669, 17275, 18944, 20936, 23350, 24534]}, "edge": {"target": [], "time": []}}}, "displayed_time": "40.93", "trialTime": 47139, "trial_type": "mouselab-mdp", "trial_index": 15, "time_elapsed": 1186701, "internal_node_id": "0.0-2.2-2.2-0.2"}}, {"uniqueid": "w26310667:a57212193", "current_trial": 16, "dateTime": 1693566046060, "trialdata": {"revealed_states": [], "clicked_states": ["24", "13", "19", "14", "15", "16", "17"], "num_clicks_accrued": [0, 0, 0, 0, 0, 0, 0, 0, 0, 0, 0, 0, 0], "stateRewards": ["", -10, -10, -10, -10, 10, 10, 10, 10, -10, -10, 10, -10, 10, 10, 10, -10, 10, -10, -10, 10, 10, 10, 10, -10, 10, -10, -10, 10, -10, -10, -10, 10, -10], "withholdReward": false, "trial_id": "practice_2", "block": "test", "trialIndex": 5, "score": 30, "costs": -3.5, "simulationMode": [null, null, null, null, null], "rewards": [-10, 10, 10, 10, 10], "path": ["0", "0", "12", "13", "14", "15", "17"], "rt": [26235, 100, 4, 151, 27], "actions": ["right", "right", "right", "up", "right"], "actionTimes": [29998, 30686, 31240, 31924, 32481], "queries": {"click": {"state": {"target": ["24", "13", "19", "14", "15", "16", "17"], "time": [8812, 10937, 12880, 16449, 18084, 21897, 24361]}, "edge": {"target": [], "time": []}}, "mouseover": {"state": {"target": ["18", "23", "24", "12", "13", "19", "14", "14", "15", "15", "16", "17", "13"], "time": [7247, 7822, 8486, 9528, 9911, 12466, 15367, 16018, 17031, 17426, 21504, 23928, 25146]}, "edge": {"target": [], "time": []}}, "mouseout": {"state": {"target": ["0", "18", "23", "24", "12", "13", "19", "14", "14", "15", "15", "16", "17", "13"], "time": [6904, 7464, 8324, 9354, 9592, 12150, 15001, 15484, 17015, 17082, 18318, 23778, 25122, 25200]}, "edge": {"target": [], "time": []}}}, "displayed_time": "33.06", "trialTime": 39259, "trial_type": "mouselab-mdp", "trial_index": 16, "time_elapsed": 1227877, "internal_node_id": "0.0-2.2-2.2-1.2"}}, {"uniqueid": "w26310667:a57212193", "current_trial": 17, "dateTime": 1693566082910, "trialdata": {"view_history": [{"page_index": 0, "viewing_time": 33038}, {"page_index": 1, "viewing_time": 3796}], "rt": 36839, "trial_id": "mouselab_instructions_2_misaligned", "trial_type": "instructions", "trial_index": 17, "time_elapsed": 1264733, "internal_node_id": "0.0-2.2-3.2"}}, {"uniqueid": "w26310667:a57212193", "current_trial": 18, "dateTime": 1693566143942, "trialdata": {"rt": 61022, "response": {"Q0": "The cost for clicking on nodes may vary between nodes.", "Q1": "The better I perform the higher my bonus will be.", "Q2": "No, the structure of the web will be different each time.", "Q3": "To finish the game in the shortest amount of time.", "Q4": "Only before moving the spider.", "Q5": "3 seconds"}, "question_order": [0, 1, 2, 3, 4, 5], "correct": {"Q0": "The cost for clicking on nodes may vary between nodes.", "Q1": "The better I perform the higher my bonus will be.", "Q2": "No, the amount of cash at each node of the web may be different each time.", "Q3": "To get the highest total score.", "Q4": "Only before moving the spider.", "Q5": "3 seconds"}, "trial_id": "mouselab_quiz_misaligned", "trial_type": "survey-multi-choice", "trial_index": 18, "time_elapsed": 1325765, "internal_node_id": "0.0-2.2-4.2"}}, {"uniqueid": "w26310667:a57212193", "current_trial": 19, "dateTime": 1693566169956, "trialdata": {"success": true, "trial_type": "fullscreen", "trial_index": 19, "time_elapsed": 1351778, "internal_node_id": "0.0-2.3-0.3-0.3"}}, {"uniqueid": "w26310667:a57212193", "current_trial": 20, "dateTime": 1693566342569, "trialdata": {"view_history": [{"page_index": 0, "viewing_time": 80986}, {"page_index": 1, "viewing_time": 37901}, {"page_index": 2, "viewing_time": 11355}, {"page_index": 3, "viewing_time": 42361}], "rt": 172604, "trial_id": "mouselab_instructions_1_misaligned", "trial_type": "instructions", "trial_index": 20, "time_elapsed": 1524392, "internal_node_id": "0.0-2.3-1.3"}}, {"uniqueid": "w26310667:a57212193", "current_trial": 21, "dateTime": 1693566379547, "trialdata": {"revealed_states": [], "clicked_states": ["12", "13", "14", "19", "1", "2", "24"], "num_clicks_accrued": [0, 0, 0, 0, 0, 0, 0, 0, 0, 0, 0, 0, 0], "stateRewards": ["", 10, -10, -10, 10, -10, -10, 10, 10, -10, -10, -10, 10, 10, -10, 10, 10, 10, -10, 10, -10, -10, -10, 10, 10, 10, -10, -10, 10, 10, -10, 10, -10, 10], "withholdReward": false, "trial_id": "practice_1", "block": "test", "trialIndex": 6, "score": 30, "costs": -3.5, "simulationMode": [null, null, null, null, null], "rewards": [10, 10, -10, 10, 10], "path": ["0", "0", "12", "13", "14", "15", "16"], "rt": [23410, 13, 1786, 1191, 731], "actions": ["right", "right", "right", "up", "up"], "actionTimes": [26008, 26574, 28904, 30639, 31898], "queries": {"click": {"state": {"target": ["12", "13", "14", "19", "1", "2", "24"], "time": [3892, 5550, 9787, 10887, 15318, 16902, 21237]}, "edge": {"target": [], "time": []}}, "mouseover": {"state": {"target": ["12", "13", "15", "14", "14", "19", "14", "19", "15", "12", "0", "23", "1", "2", "3", "23", "23", "24", "23"], "time": [3361, 5054, 6604, 7477, 8687, 9167, 9466, 10663, 12131, 13615, 13817, 14058, 14535, 15972, 17658, 19902, 20395, 20904, 21825]}, "edge": {"target": [], "time": []}}, "mouseout": {"state": {"target": ["0", "12", "13", "15", "14", "14", "19", "14", "19", "14", "15", "12", "0", "23", "1", "2", "3", "2", "23", "23", "24", "23"], "time": [3304, 4671, 6064, 6816, 8406, 9123, 9412, 10007, 11964, 12016, 13484, 13668, 13941, 14435, 15535, 17557, 19228, 19478, 19941, 20752, 21769, 21925]}, "edge": {"target": [], "time": []}}}, "displayed_time": "32.44", "trialTime": 35073, "trial_type": "mouselab-mdp", "trial_index": 21, "time_elapsed": 1561369, "internal_node_id": "0.0-2.3-2.3-0.3"}}, {"uniqueid": "w26310667:a57212193", "current_trial": 22, "dateTime": 1693566408375, "trialdata": {"revealed_states": [], "clicked_states": ["1", "13", "15", "17"], "num_clicks_accrued": [0, 0, 0, 0, 0, 0, 0, 0, 0, 0, 0, 0, 0], "stateRewards": ["", -10, -10, -10, -10, 10, 10, 10, 10, -10, -10, 10, -10, 10, 10, 10, -10, 10, -10, -10, 10, 10, 10, 10, -10, 10, -10, -10, 10, -10, -10, -10, 10, -10], "withholdReward": false, "trial_id": "practice_2", "block": "test", "trialIndex": 7, "score": 31.5, "costs": -2, "simulationMode": [null, null, null, null, null], "rewards": [-10, 10, 10, 10, 10], "path": ["0", "0", "12", "13", "14", "15", "17"], "rt": [14137, 117, 315, 268, 85], "actions": ["right", "right", "right", "up", "right"], "actionTimes": [18707, 19372, 20231, 21056, 21677], "queries": {"click": {"state": {"target": ["1", "13", "15", "17"], "time": [6711, 9983, 11778, 15631]}, "edge": {"target": [], "time": []}}, "mouseover": {"state": {"target": ["1", "2", "7", "13", "15", "16", "17", "14"], "time": [6233, 7457, 8652, 9529, 10975, 13593, 15287, 17782]}, "edge": {"target": [], "time": []}}, "mouseout": {"state": {"target": ["0", "1", "2", "7", "13", "15", "16", "17", "17", "14", "19"], "time": [2539, 7321, 8586, 8690, 10205, 12542, 14954, 15863, 17606, 24352, 26345]}, "edge": {"target": [], "time": []}}}, "displayed_time": "22.23", "trialTime": 26718, "trial_type": "mouselab-mdp", "trial_index": 22, "time_elapsed": 1590196, "internal_node_id": "0.0-2.3-2.3-1.3"}}, {"uniqueid": "w26310667:a57212193", "current_trial": 23, "dateTime": 1693566427089, "trialdata": {"view_history": [{"page_index": 0, "viewing_time": 16249}, {"page_index": 1, "viewing_time": 2456}], "rt": 18706, "trial_id": "mouselab_instructions_2_misaligned", "trial_type": "instructions", "trial_index": 23, "time_elapsed": 1608912, "internal_node_id": "0.0-2.3-3.3"}}, {"uniqueid": "w26310667:a57212193", "current_trial": 24, "dateTime": 1693566499474, "trialdata": {"rt": 72369, "response": {"Q0": "The cost for clicking on nodes may vary between nodes.", "Q1": "The better I perform the higher my bonus will be.", "Q2": "No, the structure of the web will be different each time.", "Q3": "To get the highest total score.", "Q4": "Only before moving the spider.", "Q5": "3 seconds"}, "question_order": [0, 1, 2, 3, 4, 5], "correct": {"Q0": "The cost for clicking on nodes may vary between nodes.", "Q1": "The better I perform the higher my bonus will be.", "Q2": "No, the amount of cash at each node of the web may be different each time.", "Q3": "To get the highest total score.", "Q4": "Only before moving the spider.", "Q5": "3 seconds"}, "trial_id": "mouselab_quiz_misaligned", "trial_type": "survey-multi-choice", "trial_index": 24, "time_elapsed": 1681297, "internal_node_id": "0.0-2.3-4.3"}}, {"uniqueid": "w26310667:a57212193", "current_trial": 25, "dateTime": 1693566721285, "trialdata": {"rt": 221743, "response": {"Q0": "I could play the game on the practice run that I did not understand just one question on the quiz. I was already focusing on the game.", "Q1": "31", "Q2": "Male", "Q3": "No", "Q4": "I was vormitting today before I took this study."}, "trial_id": "finish_fail", "trial_type": "survey-text", "trial_index": 25, "time_elapsed": 1903108, "internal_node_id": "0.0-3.0-0.0"}}, {"uniqueid": "w26310667:a57212193", "current_trial": 26, "dateTime": 1693566730756, "trialdata": {"rt": 9447, "stimulus": "<h1>Completion Code Instructions (1/2)</h1>\n<br><br><br><br>\nYou have reached the end of the experiment! The completion code consists of two parts: (1) a code with 2 characters (2) a code with 6 characters. On this page, you will receive the second part of the code. The first part of the completion code will be on the next page.\n<br><br>\nThe second part of your completion code is: <b>AYIWIP</b>\n<br><br>\nPlease note this down. Then, press 'Finish HIT' in order to find the first part of your completion code. Once the data has been saved, you will receive this code either in this window or in the original browser window where you started the experiment.\n", "response": 0, "trial_type": "html-button-response", "trial_index": 26, "time_elapsed": 1912579, "internal_node_id": "0.0-3.0-1.0"}}, {"uniqueid": "w26310667:a57212193", "current_trial": 27, "dateTime": 1693566731793, "trialdata": {"success": true, "trial_type": "fullscreen", "trial_index": 27, "time_elapsed": 1913616, "internal_node_id": "0.0-7.0"}}], "questiondata": {"params": {"CODE": "C6DMOQA6", "MIN_TIME": 14, "inspectCost": 1, "startTime": "Fri Sep 01 2023 12:40:13 GMT+0200 (South Africa Standard Time)", "bonusRate": 0.002, "variance": "1_2_4_8_44", "branching": "31123"}}, "eventdata": [{"eventtype": "initialized", "value": null, "timestamp": 1693564811958, "interval": 0}, {"eventtype": "window_resize", "value": [1024, 654], "timestamp": 1693564811958, "interval": 0}, {"eventtype": "window_resize", "value": [1024, 654], "timestamp": 1693564812794, "interval": 836}, {"eventtype": "window_resize", "value": [1366, 768], "timestamp": 1693564827146, "interval": 14352}, {"eventtype": "focus", "value": "off", "timestamp": 1693565529997, "interval": 702851}, {"eventtype": "focus", "value": "on", "timestamp": 1693565529998, "interval": 1}, {"eventtype": "window_resize", "value": [1024, 654], "timestamp": 1693565530283, "interval": 285}, {"eventtype": "window_resize", "value": [1366, 768], "timestamp": 1693565533222, "interval": 2939}, {"eventtype": "focus", "value": "off", "timestamp": 1693565893335, "interval": 360113}, {"eventtype": "focus", "value": "on", "timestamp": 1693565893343, "interval": 8}, {"eventtype": "window_resize", "value": [1024, 654], "timestamp": 1693565893596, "interval": 253}, {"eventtype": "window_resize", "value": [1366, 768], "timestamp": 1693565899064, "interval": 5468}, {"eventtype": "focus", "value": "off", "timestamp": 1693566167305, "interval": 268241}, {"eventtype": "focus", "value": "on", "timestamp": 1693566167307, "interval": 2}, {"eventtype": "window_resize", "value": [1024, 654], "timestamp": 1693566167563, "interval": 256}, {"eventtype": "window_resize", "value": [1366, 768], "timestamp": 1693566169339, "interval": 1776}, {"eventtype": "window_resize", "value": [1024, 654], "timestamp": 1693566731125, "interval": 561786}], "useragent": "Mozilla/5.0 (Windows NT 10.0; Win64; x64) AppleWebKit/537.36 (KHTML, like Gecko) Chrome/116.0.0.0 Safari/537.36", "mode": "live", "id": "w26310667:a57212193", "status": "user data saved", "Beginhit": "2023-09-01 10:40:08.000923", "Beginexp": "2023-09-01 10:40:28.275668", "Endhit": "2023-09-01 11:12:12.191973", "psiturkStatus": 3, "browser": "<redacted>", "platform": "windows", "language": "en-US", "excludeReason": "quizfail"}