{"condition": 0, "counterbalance": 0, "assignmentId": "a43331370", "workerId": "w25545337", "hitId": "h93986928", "currenttrial": 67, "bonus": 0, "data": [{"uniqueid": "w25545337:a43331370", "current_trial": 0, "dateTime": 1691159102763, "trialdata": {"success": true, "trial_type": "fullscreen", "trial_index": 0, "time_elapsed": 5431, "internal_node_id": "0.0-0.0"}}, {"uniqueid": "w25545337:a43331370", "current_trial": 1, "dateTime": 1691159138875, "trialdata": {"view_history": [{"page_index": 0, "viewing_time": 36105}], "rt": 36106, "trial_id": "exp_instructions_control", "trial_type": "instructions", "trial_index": 1, "time_elapsed": 41543, "internal_node_id": "0.0-1.0"}}, {"uniqueid": "w25545337:a43331370", "current_trial": 2, "dateTime": 1691159143162, "trialdata": {"success": true, "trial_type": "fullscreen", "trial_index": 2, "time_elapsed": 45830, "internal_node_id": "0.0-2.0-0.0"}}, {"uniqueid": "w25545337:a43331370", "current_trial": 3, "dateTime": 1691159517906, "trialdata": {"view_history": [{"page_index": 0, "viewing_time": 162729}, {"page_index": 1, "viewing_time": 108206}, {"page_index": 2, "viewing_time": 56932}, {"page_index": 3, "viewing_time": 46873}], "rt": 374740, "trial_id": "mouselab_instructions_1_control", "trial_type": "instructions", "trial_index": 3, "time_elapsed": 420574, "internal_node_id": "0.0-2.0-1.0"}}, {"uniqueid": "w25545337:a43331370", "current_trial": 4, "dateTime": 1691159548029, "trialdata": {"revealed_states": [], "clicked_states": [], "num_clicks_accrued": [0, 0, 0, 0, 0, 0, 0, 0, 0, 0, 0, 0, 0], "stateRewards": ["", 10, 10, 10, 10, 10, 10, -10, 10, -10, -10, 10, -10, 10, -10, -10, -10, 10, 10, 10, 10, 10, -10, 10, 10, 10, -10, -10, -10, 10, -10, 10, 10, -10], "withholdReward": false, "trial_id": "practice_1", "block": "test", "trialIndex": 0, "score": -6.5, "costs": 0, "simulationMode": [null, null, null, null, null], "rewards": [-10, 10, -10, -10, 10], "path": ["0", "0", "12", "13", "14", "15", "18"], "rt": [5405, 2013, 189, 1049, 694], "actions": ["right", "right", "right", "up", "left"], "actionTimes": [11604, 14123, 14830, 16389, 17600], "queries": {"click": {"state": {"target": [], "time": []}, "edge": {"target": [], "time": []}}, "mouseover": {"state": {"target": [], "time": []}, "edge": {"target": [], "time": []}}, "mouseout": {"state": {"target": ["1", "23", "0", "0", "0", "23", "23", "0"], "time": [1794, 2467, 2833, 6075, 22716, 22765, 23048, 26633]}, "edge": {"target": [], "time": []}}}, "displayed_time": "18.10", "trialTime": 29000, "trial_type": "mouselab-mdp", "trial_index": 4, "time_elapsed": 450697, "internal_node_id": "0.0-2.0-2.0-0.0"}}, {"uniqueid": "w25545337:a43331370", "current_trial": 5, "dateTime": 1691159570048, "trialdata": {"revealed_states": [], "clicked_states": [], "num_clicks_accrued": [0, 0, 0, 0, 0, 0, 0, 0, 0, 0, 0, 0, 0], "stateRewards": ["", -10, -10, 10, -10, 10, 10, 10, 10, -10, 10, 10, -10, -10, 10, 10, -10, 10, -10, 10, 10, -10, -10, -10, -10, -10, -10, -10, 10, -10, -10, -10, -10, 10], "withholdReward": false, "trial_id": "practice_2", "block": "test", "trialIndex": 1, "score": 13.5, "costs": 0, "simulationMode": [null, null, null, null, null], "rewards": [-10, -10, 10, 10, 10], "path": ["0", "0", "1", "2", "3", "8", "10"], "rt": [6507, 905, 984, 231, 382], "actions": ["up", "up", "up", "left", "down"], "actionTimes": [9740, 11159, 12654, 13399, 14300], "queries": {"click": {"state": {"target": [], "time": []}, "edge": {"target": [], "time": []}}, "mouseover": {"state": {"target": ["0"], "time": [5656]}, "edge": {"target": [], "time": []}}, "mouseout": {"state": {"target": ["0", "0", "0"], "time": [5307, 6051, 21260]}, "edge": {"target": [], "time": []}}}, "displayed_time": "14.82", "trialTime": 21870, "trial_type": "mouselab-mdp", "trial_index": 5, "time_elapsed": 472715, "internal_node_id": "0.0-2.0-2.0-1.0"}}, {"uniqueid": "w25545337:a43331370", "current_trial": 6, "dateTime": 1691159622789, "trialdata": {"view_history": [{"page_index": 0, "viewing_time": 40727}, {"page_index": 1, "viewing_time": 12011}], "rt": 52738, "trial_id": "mouselab_instructions_2_control", "trial_type": "instructions", "trial_index": 6, "time_elapsed": 525457, "internal_node_id": "0.0-2.0-3.0"}}, {"uniqueid": "w25545337:a43331370", "current_trial": 7, "dateTime": 1691159698437, "trialdata": {"rt": 75642, "response": {"Q0": "The cost for clicking on nodes may vary between nodes.", "Q1": "The better I perform the higher my bonus will be.", "Q2": "No, the amount of cash at each node of the web may be different each time.", "Q3": "To get the highest total score.", "Q4": "Any time during the round.", "Q5": "3 seconds"}, "question_order": [0, 1, 2, 3, 4, 5], "correct": {"Q0": "The cost for clicking on nodes may vary between nodes.", "Q1": "The better I perform the higher my bonus will be.", "Q2": "No, the amount of cash at each node of the web may be different each time.", "Q3": "To get the highest total score.", "Q4": "Only before moving the spider.", "Q5": "3 seconds"}, "trial_id": "mouselab_quiz_control", "trial_type": "survey-multi-choice", "trial_index": 7, "time_elapsed": 601105, "internal_node_id": "0.0-2.0-4.0"}}, {"uniqueid": "w25545337:a43331370", "current_trial": 8, "dateTime": 1691159710132, "trialdata": {"success": true, "trial_type": "fullscreen", "trial_index": 8, "time_elapsed": 612800, "internal_node_id": "0.0-2.1-0.1"}}, {"uniqueid": "w25545337:a43331370", "current_trial": 9, "dateTime": 1691159777994, "trialdata": {"view_history": [{"page_index": 0, "viewing_time": 10304}, {"page_index": 1, "viewing_time": 53999}, {"page_index": 2, "viewing_time": 1475}, {"page_index": 3, "viewing_time": 2083}], "rt": 67860, "trial_id": "mouselab_instructions_1_control", "trial_type": "instructions", "trial_index": 9, "time_elapsed": 680662, "internal_node_id": "0.0-2.1-1.1"}}, {"uniqueid": "w25545337:a43331370", "current_trial": 10, "dateTime": 1691159792786, "trialdata": {"revealed_states": [], "clicked_states": ["15"], "num_clicks_accrued": [0, 0, 0, 0, 0, 0, 0, 0, 0, 0, 0, 0, 0], "stateRewards": ["", 10, 10, 10, 10, 10, 10, -10, 10, -10, -10, 10, -10, 10, -10, -10, -10, 10, 10, 10, 10, 10, -10, 10, 10, 10, -10, -10, -10, 10, -10, 10, 10, -10], "withholdReward": false, "trial_id": "practice_1", "block": "test", "trialIndex": 2, "score": 13, "costs": -0.5, "simulationMode": [null, null, null, null, null], "rewards": [-10, 10, -10, 10, 10], "path": ["0", "0", "12", "13", "14", "19", "21"], "rt": [3003, 318, 191, 327, 745], "actions": ["right", "right", "right", "down", "down"], "actionTimes": [6602, 7427, 8133, 8967, 10219], "queries": {"click": {"state": {"target": ["15"], "time": [5258]}, "edge": {"target": [], "time": []}}, "mouseover": {"state": {"target": ["12", "15"], "time": [4643, 4725]}, "edge": {"target": [], "time": []}}, "mouseout": {"state": {"target": ["12", "0", "12", "15"], "time": [1827, 2211, 4659, 9578]}, "edge": {"target": [], "time": []}}}, "displayed_time": "10.74", "trialTime": 14629, "trial_type": "mouselab-mdp", "trial_index": 10, "time_elapsed": 695454, "internal_node_id": "0.0-2.1-2.1-0.1"}}, {"uniqueid": "w25545337:a43331370", "current_trial": 11, "dateTime": 1691159804717, "trialdata": {"revealed_states": [], "clicked_states": ["26"], "num_clicks_accrued": [0, 0, 0, 0, 0, 0, 0, 0, 0, 0, 0, 0, 0], "stateRewards": ["", -10, -10, 10, -10, 10, 10, 10, 10, -10, 10, 10, -10, -10, 10, 10, -10, 10, -10, 10, 10, -10, -10, -10, -10, -10, -10, -10, 10, -10, -10, -10, -10, 10], "withholdReward": false, "trial_id": "practice_2", "block": "test", "trialIndex": 3, "score": -7, "costs": -0.5, "simulationMode": [null, null, null, null, null], "rewards": [-10, -10, 10, -10, 10], "path": ["0", "0", "1", "2", "3", "4", "6"], "rt": [2597, 338, 131, 642, 359], "actions": ["up", "up", "up", "right", "right"], "actionTimes": [4180, 5035, 5676, 6838, 7704], "queries": {"click": {"state": {"target": ["26"], "time": [2224]}, "edge": {"target": [], "time": []}}, "mouseover": {"state": {"target": ["23", "26"], "time": [1783, 2064]}, "edge": {"target": [], "time": []}}, "mouseout": {"state": {"target": ["7", "23", "26", "25", "30", "32"], "time": [748, 1797, 10590, 10673, 10740, 10840]}, "edge": {"target": [], "time": []}}}, "displayed_time": "8.21", "trialTime": 11776, "trial_type": "mouselab-mdp", "trial_index": 11, "time_elapsed": 707385, "internal_node_id": "0.0-2.1-2.1-1.1"}}, {"uniqueid": "w25545337:a43331370", "current_trial": 12, "dateTime": 1691159809860, "trialdata": {"view_history": [{"page_index": 0, "viewing_time": 3497}, {"page_index": 1, "viewing_time": 1644}], "rt": 5141, "trial_id": "mouselab_instructions_2_control", "trial_type": "instructions", "trial_index": 12, "time_elapsed": 712528, "internal_node_id": "0.0-2.1-3.1"}}, {"uniqueid": "w25545337:a43331370", "current_trial": 13, "dateTime": 1691159857477, "trialdata": {"rt": 47613, "response": {"Q0": "The cost for clicking on nodes may vary between nodes.", "Q1": "The better I perform the higher my bonus will be.", "Q2": "No, the amount of cash at each node of the web may be different each time.", "Q3": "To get the highest total score.", "Q4": "Only after moving the spider.", "Q5": "3 seconds"}, "question_order": [0, 1, 2, 3, 4, 5], "correct": {"Q0": "The cost for clicking on nodes may vary between nodes.", "Q1": "The better I perform the higher my bonus will be.", "Q2": "No, the amount of cash at each node of the web may be different each time.", "Q3": "To get the highest total score.", "Q4": "Only before moving the spider.", "Q5": "3 seconds"}, "trial_id": "mouselab_quiz_control", "trial_type": "survey-multi-choice", "trial_index": 13, "time_elapsed": 760145, "internal_node_id": "0.0-2.1-4.1"}}, {"uniqueid": "w25545337:a43331370", "current_trial": 14, "dateTime": 1691159880347, "trialdata": {"success": true, "trial_type": "fullscreen", "trial_index": 14, "time_elapsed": 783015, "internal_node_id": "0.0-2.2-0.2"}}, {"uniqueid": "w25545337:a43331370", "current_trial": 15, "dateTime": 1691159910767, "trialdata": {"view_history": [{"page_index": 0, "viewing_time": 2811}, {"page_index": 1, "viewing_time": 18788}, {"page_index": 0, "viewing_time": 3583}, {"page_index": 1, "viewing_time": 1854}, {"page_index": 2, "viewing_time": 1883}, {"page_index": 3, "viewing_time": 1497}], "rt": 30417, "trial_id": "mouselab_instructions_1_control", "trial_type": "instructions", "trial_index": 15, "time_elapsed": 813435, "internal_node_id": "0.0-2.2-1.2"}}, {"uniqueid": "w25545337:a43331370", "current_trial": 16, "dateTime": 1691159926750, "trialdata": {"revealed_states": [], "clicked_states": [], "num_clicks_accrued": [0, 0, 0, 0, 0, 0, 0, 0, 0, 0, 0, 0, 0], "stateRewards": ["", 10, 10, 10, 10, 10, 10, -10, 10, -10, -10, 10, -10, 10, -10, -10, -10, 10, 10, 10, 10, 10, -10, 10, 10, 10, -10, -10, -10, 10, -10, 10, 10, -10], "withholdReward": false, "trial_id": "practice_1", "block": "test", "trialIndex": 4, "score": -26.5, "costs": 0, "simulationMode": [null, null, null, null, null], "rewards": [-10, 10, -10, -10, -10], "path": ["0", "0", "12", "13", "14", "15", "16"], "rt": [423, 5672, 357, 585, 448], "actions": ["right", "right", "right", "up", "up"], "actionTimes": [2972, 9153, 10015, 11109, 12071], "queries": {"click": {"state": {"target": [], "time": []}, "edge": {"target": [], "time": []}}, "mouseover": {"state": {"target": [], "time": []}, "edge": {"target": [], "time": []}}, "mouseout": {"state": {"target": ["0", "1", "7", "4", "2", "1", "0"], "time": [4695, 5510, 5794, 14036, 14152, 14319, 14387]}, "edge": {"target": [], "time": []}}}, "displayed_time": "12.59", "trialTime": 15827, "trial_type": "mouselab-mdp", "trial_index": 16, "time_elapsed": 829417, "internal_node_id": "0.0-2.2-2.2-0.2"}}, {"uniqueid": "w25545337:a43331370", "current_trial": 17, "dateTime": 1691159937987, "trialdata": {"revealed_states": [], "clicked_states": ["3"], "num_clicks_accrued": [0, 0, 0, 0, 0, 0, 0, 0, 0, 0, 0, 0, 0], "stateRewards": ["", -10, -10, 10, -10, 10, 10, 10, 10, -10, 10, 10, -10, -10, 10, 10, -10, 10, -10, 10, 10, -10, -10, -10, -10, -10, -10, -10, 10, -10, -10, -10, -10, 10], "withholdReward": false, "trial_id": "practice_2", "block": "test", "trialIndex": 5, "score": -7, "costs": -0.5, "simulationMode": [null, null, null, null, null], "rewards": [-10, -10, 10, -10, 10], "path": ["0", "0", "1", "2", "3", "4", "6"], "rt": [2308, 373, 145, 2453, 144], "actions": ["up", "up", "up", "right", "right"], "actionTimes": [4050, 4929, 5582, 8540, 9195], "queries": {"click": {"state": {"target": ["3"], "time": [2705]}, "edge": {"target": [], "time": []}}, "mouseover": {"state": {"target": ["1", "2", "3"], "time": [2105, 2173, 2421]}, "edge": {"target": [], "time": []}}, "mouseout": {"state": {"target": ["0", "1", "2", "3", "2"], "time": [2073, 2139, 2272, 7990, 10648]}, "edge": {"target": [], "time": []}}}, "displayed_time": "9.70", "trialTime": 11087, "trial_type": "mouselab-mdp", "trial_index": 17, "time_elapsed": 840654, "internal_node_id": "0.0-2.2-2.2-1.2"}}, {"uniqueid": "w25545337:a43331370", "current_trial": 18, "dateTime": 1691159942502, "trialdata": {"view_history": [{"page_index": 0, "viewing_time": 3030}, {"page_index": 1, "viewing_time": 1484}], "rt": 4514, "trial_id": "mouselab_instructions_2_control", "trial_type": "instructions", "trial_index": 18, "time_elapsed": 845170, "internal_node_id": "0.0-2.2-3.2"}}, {"uniqueid": "w25545337:a43331370", "current_trial": 19, "dateTime": 1691159983290, "trialdata": {"rt": 40784, "response": {"Q0": "The cost for clicking on nodes may vary between nodes.", "Q1": "The better I perform the higher my bonus will be.", "Q2": "No, the amount of cash at each node of the web may be different each time.", "Q3": "To get the highest total score.", "Q4": "Only before moving the spider.", "Q5": "3 seconds"}, "question_order": [0, 1, 2, 3, 4, 5], "correct": {"Q0": "The cost for clicking on nodes may vary between nodes.", "Q1": "The better I perform the higher my bonus will be.", "Q2": "No, the amount of cash at each node of the web may be different each time.", "Q3": "To get the highest total score.", "Q4": "Only before moving the spider.", "Q5": "3 seconds"}, "trial_id": "mouselab_quiz_control", "trial_type": "survey-multi-choice", "trial_index": 19, "time_elapsed": 885958, "internal_node_id": "0.0-2.2-4.2"}}, {"uniqueid": "w25545337:a43331370", "current_trial": 20, "dateTime": 1691160017572, "trialdata": {"rt": 34275, "stimulus": "\n<h1> Get ready to start the game! </h1>\n\nThank you for reading the instructions. Get ready start with the 40 rounds of this game.\n<br><br>\nIf you need to take a break, feel free to take one after the end of a round, before continuing to the next one.\n<br><br>\nRemember, the more money the spider gets, the bigger your bonus will be!\n<br><br>\n<div style='text-align: center;'>Press <code>space</code> to begin.</div>\n\n<br><br>\n(If, at any point, the <code>space</code> key does not take you to the next page, click once on the text and try again.)", "response": " ", "trial_id": "mdp_ready", "trial_type": "html-keyboard-response", "trial_index": 20, "time_elapsed": 920240, "internal_node_id": "0.0-4.0-0.0"}}, {"uniqueid": "w25545337:a43331370", "current_trial": 21, "dateTime": 1691160041360, "trialdata": {"revealed_states": [], "clicked_states": ["1"], "num_clicks_accrued": [0, 0, 0, 0, 0, 0, 0, 0, 0, 0, 0, 0, 0], "stateRewards": ["", -2, -3, 4, 1, 33, -53, 15, 9, -12, 61, -6, -2, 4, 6, -11, 47, -43, -7, -11, 46, 23, -28, -1, -1, 3, -10, 11, 76, -76, 10, 18, -38, 87], "withholdReward": false, "trial_id": "mdp_trial_1", "block": "test", "trialIndex": 6, "score": 42.6, "costs": -1.4, "simulationMode": [null, null, null, null, null, null], "rewards": [-2, 4, 6, -11, 47], "path": ["0", "0", "12", "13", "14", "15", "16"], "rt": [1629, 802, 210, 191, 841, 532], "actions": ["right", "right", "right", "right", "up", "up"], "actionTimes": [3361, 4165, 4891, 5586, 6936, 7978], "queries": {"click": {"state": {"target": ["1"], "time": [2328]}, "edge": {"target": [], "time": []}}, "mouseover": {"state": {"target": ["1"], "time": [2163]}, "edge": {"target": [], "time": []}}, "mouseout": {"state": {"target": ["3", "2", "1", "0", "0", "1", "23"], "time": [648, 714, 1031, 1080, 1364, 10490, 10757]}, "edge": {"target": [], "time": []}}}, "displayed_time": "15.73", "trialTime": 23632, "trial_type": "mouselab-mdp", "trial_index": 21, "time_elapsed": 944027, "internal_node_id": "0.0-4.0-1.0-0.0"}}, {"uniqueid": "w25545337:a43331370", "current_trial": 22, "dateTime": 1691160061164, "trialdata": {"revealed_states": [], "clicked_states": ["27", "5"], "num_clicks_accrued": [0, 0, 0, 0, 0, 0, 0, 0, 0, 0, 0, 0, 0], "stateRewards": ["", -2, -4, -2, -13, -15, 87, -19, -6, -80, 30, 12, 1, 1, -8, 2, 55, 56, 15, 11, -68, -7, 55, -2, 3, -3, -3, 48, 62, 4, 1, -3, 69, -33], "withholdReward": false, "trial_id": "mdp_trial_2", "block": "test", "trialIndex": 7, "score": 49.2, "costs": -2.8, "simulationMode": [null, null, null, null, null], "rewards": [1, 1, -8, 2, 56], "path": ["0", "0", "12", "13", "14", "15", "17"], "rt": [5133, 3334, 145, 825, 784], "actions": ["right", "right", "right", "up", "right"], "actionTimes": [8755, 12600, 13258, 14621, 15914], "queries": {"click": {"state": {"target": ["27", "5"], "time": [4846, 6813]}, "edge": {"target": [], "time": []}}, "mouseover": {"state": {"target": ["27", "8", "3", "5", "6", "20", "21"], "time": [4602, 5351, 5384, 5784, 7400, 7499, 7966]}, "edge": {"target": [], "time": []}}, "mouseout": {"state": {"target": ["0", "27", "8", "3", "5", "6", "20", "21"], "time": [3053, 5301, 5368, 5451, 7366, 7416, 7883, 18123]}, "edge": {"target": [], "time": []}}}, "displayed_time": "17.62", "trialTime": 19647, "trial_type": "mouselab-mdp", "trial_index": 22, "time_elapsed": 963831, "internal_node_id": "0.0-4.0-1.0-1.0"}}, {"uniqueid": "w25545337:a43331370", "current_trial": 23, "dateTime": 1691160078771, "trialdata": {"revealed_states": [], "clicked_states": ["32"], "num_clicks_accrued": [0, 0, 0, 0, 0, 0, 0, 0, 0, 0, 0, 0, 0], "stateRewards": ["", 2, 3, 6, -12, -29, 12, 87, 4, 35, -30, 67, 2, 3, -5, -9, 44, 69, -8, 1, 45, -8, 28, -2, -1, -8, 11, -12, -5, 81, 9, 87, 82, 88], "withholdReward": false, "trial_id": "mdp_trial_3", "block": "test", "trialIndex": 8, "score": 78.6, "costs": -1.4, "simulationMode": [null, null, null, null, null], "rewards": [-2, -1, -8, 9, 82], "path": ["0", "0", "23", "24", "25", "30", "32"], "rt": [3773, 458, 1595, 616, 120], "actions": ["left", "left", "left", "down", "down"], "actionTimes": [5636, 6604, 8708, 9844, 10479], "queries": {"click": {"state": {"target": ["32"], "time": [2617]}, "edge": {"target": [], "time": []}}, "mouseover": {"state": {"target": ["0", "31", "32", "32", "22", "19", "21", "22", "1"], "time": [2175, 2216, 2281, 2482, 3015, 3048, 3315, 4480, 4779]}, "edge": {"target": [], "time": []}}, "mouseout": {"state": {"target": ["0", "0", "31", "32", "32", "22", "19", "21", "22", "1"], "time": [1598, 2198, 2232, 2415, 2732, 3031, 3098, 4463, 4513, 4797]}, "edge": {"target": [], "time": []}}}, "displayed_time": "15.86", "trialTime": 17465, "trial_type": "mouselab-mdp", "trial_index": 23, "time_elapsed": 981438, "internal_node_id": "0.0-4.0-1.0-2.0"}}, {"uniqueid": "w25545337:a43331370", "current_trial": 24, "dateTime": 1691160096359, "trialdata": {"revealed_states": [], "clicked_states": [], "num_clicks_accrued": [0, 0, 0, 0, 0, 0, 0, 0, 0, 0, 0, 0, 0], "stateRewards": ["", 2, -4, 7, 3, 23, -42, 4, 7, -81, -33, 7, -2, -4, 5, -1, 50, -57, -14, -13, -14, 44, 55, -2, -2, 5, -2, 33, 1, 57, -13, -7, 58, 87], "withholdReward": false, "trial_id": "mdp_trial_4", "block": "test", "trialIndex": 9, "score": -69, "costs": 0, "simulationMode": [null, null, null, null, null], "rewards": [2, -4, 7, 7, -81], "path": ["0", "0", "1", "2", "3", "8", "9"], "rt": [1386, 291, 228, 429, 549], "actions": ["up", "up", "up", "left", "up"], "actionTimes": [3442, 4250, 4986, 5920, 6988], "queries": {"click": {"state": {"target": [], "time": []}, "edge": {"target": [], "time": []}}, "mouseover": {"state": {"target": ["1", "2"], "time": [2408, 2491]}, "edge": {"target": [], "time": []}}, "mouseout": {"state": {"target": ["0", "1", "2", "2"], "time": [1508, 2442, 2508, 16796]}, "edge": {"target": [], "time": []}}}, "displayed_time": "16.06", "trialTime": 17428, "trial_type": "mouselab-mdp", "trial_index": 24, "time_elapsed": 999026, "internal_node_id": "0.0-4.0-1.0-3.0"}}, {"uniqueid": "w25545337:a43331370", "current_trial": 25, "dateTime": 1691160114186, "trialdata": {"revealed_states": [], "clicked_states": ["15"], "num_clicks_accrued": [0, 0, 0, 0, 0, 0, 0, 0, 0, 0, 0, 0, 0], "stateRewards": ["", 1, -4, -6, -1, -21, 17, -72, 10, 77, 67, -46, -1, 4, -2, 14, -66, -49, -45, -15, -52, 23, -67, 2, -2, -2, 15, -3, 45, -64, 5, -44, 83, 61], "withholdReward": false, "trial_id": "mdp_trial_5", "block": "test", "trialIndex": 10, "score": -52.4, "costs": -1.4, "simulationMode": [null, null, null, null, null], "rewards": [2, -2, -2, 15, -64], "path": ["0", "0", "23", "24", "25", "26", "29"], "rt": [3541, 65, 63, 776, 1216], "actions": ["left", "left", "left", "up", "left"], "actionTimes": [5423, 5998, 6578, 7874, 9597], "queries": {"click": {"state": {"target": ["15"], "time": [3182]}, "edge": {"target": [], "time": []}}, "mouseover": {"state": {"target": ["0", "12", "18", "15", "4", "2", "10"], "time": [2334, 2718, 2766, 2818, 3950, 4617, 4650]}, "edge": {"target": [], "time": []}}, "mouseout": {"state": {"target": ["12", "0", "12", "18", "15", "4", "2", "10", "28", "23", "0"], "time": [1234, 2351, 2734, 2801, 3583, 4616, 4632, 4666, 10860, 13907, 13940]}, "edge": {"target": [], "time": []}}}, "displayed_time": "15.88", "trialTime": 17665, "trial_type": "mouselab-mdp", "trial_index": 25, "time_elapsed": 1016854, "internal_node_id": "0.0-4.0-1.0-4.0"}}, {"uniqueid": "w25545337:a43331370", "current_trial": 26, "dateTime": 1691160133109, "trialdata": {"revealed_states": [], "clicked_states": ["5"], "num_clicks_accrued": [0, 0, 0, 0, 0, 0, 0, 0, 0, 0, 0, 0, 0], "stateRewards": ["", -2, -3, 7, -13, 60, 9, 37, -6, 37, 20, 1, 2, -2, -8, 6, -80, -31, -10, -7, 70, -65, -44, -1, 1, 7, 6, -11, 73, -85, 16, -21, 47, 34], "withholdReward": false, "trial_id": "mdp_trial_6", "block": "test", "trialIndex": 11, "score": 0.5999999999999996, "costs": -1.4, "simulationMode": [null, null, null, null, null], "rewards": [-1, 1, 7, 6, -11], "path": ["0", "0", "23", "24", "25", "26", "27"], "rt": [3940, 3190, 61, 1310, 19], "actions": ["left", "left", "left", "up", "up"], "actionTimes": [6369, 10064, 10631, 12462, 12987], "queries": {"click": {"state": {"target": ["5"], "time": [3435]}, "edge": {"target": [], "time": []}}, "mouseover": {"state": {"target": ["7", "4", "5", "8", "28", "30", "32"], "time": [2842, 2925, 3108, 3992, 4091, 4524, 4607]}, "edge": {"target": [], "time": []}}, "mouseout": {"state": {"target": ["0", "7", "4", "5", "8", "28", "30", "32"], "time": [2758, 2875, 3074, 3616, 4007, 4158, 4557, 14165]}, "edge": {"target": [], "time": []}}}, "displayed_time": "16.43", "trialTime": 18760, "trial_type": "mouselab-mdp", "trial_index": 26, "time_elapsed": 1035776, "internal_node_id": "0.0-4.0-1.0-5.0"}}, {"uniqueid": "w25545337:a43331370", "current_trial": 27, "dateTime": 1691160152550, "trialdata": {"revealed_states": [], "clicked_states": ["32"], "num_clicks_accrued": [0, 0, 0, 0, 0, 0, 0, 0, 0, 0, 0, 0, 0], "stateRewards": ["", -2, -3, 1, -7, 39, -67, 16, 5, -20, 73, 66, -1, 4, 5, -3, 23, -68, -87, -8, 3, -3, 17, 1, -4, -2, -13, -32, 34, 61, -5, -11, -18, 12], "withholdReward": false, "trial_id": "mdp_trial_7", "block": "test", "trialIndex": 12, "score": 3.5999999999999996, "costs": -1.4, "simulationMode": [null, null, null, null, null], "rewards": [-2, -3, 1, -7, 16], "path": ["0", "0", "1", "2", "3", "4", "7"], "rt": [4155, 3, 87, 962, 258], "actions": ["up", "up", "up", "right", "down"], "actionTimes": [8076, 8596, 9213, 10688, 11465], "queries": {"click": {"state": {"target": ["32"], "time": [4615]}, "edge": {"target": [], "time": []}}, "mouseover": {"state": {"target": ["31", "32", "31"], "time": [4279, 4444, 5596]}, "edge": {"target": [], "time": []}}, "mouseout": {"state": {"target": ["4", "3", "2", "1", "23", "31", "0", "31", "32", "31"], "time": [1580, 2546, 2596, 2629, 2696, 3263, 4129, 4378, 5531, 5629]}, "edge": {"target": [], "time": []}}}, "displayed_time": "17.92", "trialTime": 19291, "trial_type": "mouselab-mdp", "trial_index": 27, "time_elapsed": 1055218, "internal_node_id": "0.0-4.0-1.0-6.0"}}, {"uniqueid": "w25545337:a43331370", "current_trial": 28, "dateTime": 1691160169496, "trialdata": {"revealed_states": [], "clicked_states": ["17"], "num_clicks_accrued": [0, 0, 0, 0, 0, 0, 0, 0, 0, 0, 0, 0, 0], "stateRewards": ["", -1, -3, -6, -2, -7, 80, -45, -3, -38, -72, 76, 2, 1, 7, 4, -62, 14, -74, 14, -87, -21, -88, -2, 1, -7, -10, 66, 56, -76, 10, -29, -72, -70], "withholdReward": false, "trial_id": "mdp_trial_8", "block": "test", "trialIndex": 13, "score": 26.6, "costs": -1.4, "simulationMode": [null, null, null, null, null], "rewards": [2, 1, 7, 4, 14], "path": ["0", "0", "12", "13", "14", "15", "17"], "rt": [3651, 171, 689, 881, 441], "actions": ["right", "right", "right", "up", "right"], "actionTimes": [4874, 5557, 6758, 8148, 9107], "queries": {"click": {"state": {"target": ["17"], "time": [2784]}, "edge": {"target": [], "time": []}}, "mouseover": {"state": {"target": ["12", "13", "14", "14", "15", "17", "15"], "time": [1687, 1720, 1754, 2020, 2353, 2588, 3270]}, "edge": {"target": [], "time": []}}, "mouseout": {"state": {"target": ["0", "12", "13", "14", "14", "15", "17", "15", "18", "0"], "time": [1670, 1704, 1738, 1771, 2305, 2556, 3170, 10563, 10613, 14060]}, "edge": {"target": [], "time": []}}}, "displayed_time": "15.22", "trialTime": 16793, "trial_type": "mouselab-mdp", "trial_index": 28, "time_elapsed": 1072163, "internal_node_id": "0.0-4.0-1.0-7.0"}}, {"uniqueid": "w25545337:a43331370", "current_trial": 29, "dateTime": 1691160187811, "trialdata": {"revealed_states": [], "clicked_states": ["12"], "num_clicks_accrued": [0, 0, 0, 0, 0, 0, 0, 0, 0, 0, 0, 0, 0], "stateRewards": ["", 2, -2, -3, 10, -4, -1, -11, -8, -9, -36, -78, 2, 1, 7, -7, 44, -1, -31, -1, 26, 47, 83, 2, -4, -4, -6, -52, -76, -81, -1, -59, 45, 67], "withholdReward": false, "trial_id": "mdp_trial_9", "block": "test", "trialIndex": 14, "score": 54.6, "costs": -1.4, "simulationMode": [null, null, null, null, null], "rewards": [2, 1, 7, -1, 47], "path": ["0", "0", "12", "13", "14", "19", "21"], "rt": [5105, 705, 237, 283, 31], "actions": ["right", "right", "right", "down", "down"], "actionTimes": [6811, 8024, 8787, 9583, 10131], "queries": {"click": {"state": {"target": ["12"], "time": [3465]}, "edge": {"target": [], "time": []}}, "mouseover": {"state": {"target": ["13", "19", "19", "13", "12", "2"], "time": [2488, 2570, 2805, 3120, 3237, 5867]}, "edge": {"target": [], "time": []}}, "mouseout": {"state": {"target": ["0", "13", "19", "19", "13", "12", "2", "3", "9", "8", "10", "1"], "time": [1454, 2521, 2588, 3087, 3155, 3626, 16543, 16625, 16975, 17025, 17075, 17142]}, "edge": {"target": [], "time": []}}}, "displayed_time": "15.71", "trialTime": 18156, "trial_type": "mouselab-mdp", "trial_index": 29, "time_elapsed": 1090478, "internal_node_id": "0.0-4.0-1.0-8.0"}}, {"uniqueid": "w25545337:a43331370", "current_trial": 30, "dateTime": 1691160210036, "trialdata": {"revealed_states": [], "clicked_states": ["5"], "num_clicks_accrued": [0, 0, 0, 0, 0, 0, 0, 0, 0, 0, 0, 0, 0], "stateRewards": ["", 1, 2, -8, 9, 18, -83, -11, 6, -64, -48, 17, -2, -2, -5, -3, -24, -3, -86, -2, 48, -41, -22, -2, 4, 7, 8, 81, 13, -48, 10, 61, 19, 57], "withholdReward": false, "trial_id": "mdp_trial_10", "block": "test", "trialIndex": 15, "score": -80.4, "costs": -1.4, "simulationMode": [null, null, null, null, null], "rewards": [1, 2, -8, 9, -83], "path": ["0", "0", "1", "2", "3", "4", "6"], "rt": [2940, 284, 425, 495, 2], "actions": ["up", "up", "up", "right", "right"], "actionTimes": [4493, 5282, 6226, 7257, 7764], "queries": {"click": {"state": {"target": ["5"], "time": [2492]}, "edge": {"target": [], "time": []}}, "mouseover": {"state": {"target": ["1", "4", "5"], "time": [1966, 2049, 2182]}, "edge": {"target": [], "time": []}}, "mouseout": {"state": {"target": ["0", "1", "4", "5", "4", "7", "12"], "time": [1382, 1983, 2099, 11075, 11424, 11507, 21732]}, "edge": {"target": [], "time": []}}}, "displayed_time": "15.55", "trialTime": 22060, "trial_type": "mouselab-mdp", "trial_index": 30, "time_elapsed": 1112704, "internal_node_id": "0.0-4.0-1.0-9.0"}}, {"uniqueid": "w25545337:a43331370", "current_trial": 31, "dateTime": 1691160232376, "trialdata": {"revealed_states": [], "clicked_states": ["21"], "num_clicks_accrued": [0, 0, 0, 0, 0, 0, 0, 0, 0, 0, 0, 0, 0], "stateRewards": ["", 1, 2, -5, 14, 54, -14, -25, 16, -5, -87, 78, -1, 1, 3, -3, 52, 53, 53, -10, 73, -69, -48, 2, 3, 1, 8, -62, -7, 85, 7, 82, 52, -28], "withholdReward": false, "trial_id": "mdp_trial_11", "block": "test", "trialIndex": 16, "score": -77.4, "costs": -1.4, "simulationMode": [null, null, null, null, null], "rewards": [-1, 1, 3, -10, -69], "path": ["0", "0", "12", "13", "14", "19", "21"], "rt": [6968, 202, 80, 464, 290], "actions": ["right", "right", "right", "down", "down"], "actionTimes": [8405, 9116, 9709, 10692, 11501], "queries": {"click": {"state": {"target": ["21"], "time": [2358]}, "edge": {"target": [], "time": []}}, "mouseover": {"state": {"target": ["22", "21"], "time": [1901, 2200]}, "edge": {"target": [], "time": []}}, "mouseout": {"state": {"target": ["0", "22", "21"], "time": [1167, 1934, 3050]}, "edge": {"target": [], "time": []}}}, "displayed_time": "15.44", "trialTime": 22169, "trial_type": "mouselab-mdp", "trial_index": 31, "time_elapsed": 1135043, "internal_node_id": "0.0-4.0-1.0-10.0"}}, {"uniqueid": "w25545337:a43331370", "current_trial": 32, "dateTime": 1691160250598, "trialdata": {"revealed_states": [], "clicked_states": ["32"], "num_clicks_accrued": [0, 0, 0, 0, 0, 0, 0, 0, 0, 0, 0, 0, 0], "stateRewards": ["", -1, -3, 1, -4, -48, -63, -49, -2, -84, -19, 65, 2, -2, -2, -12, -4, 59, 9, 6, 75, 69, -13, -1, -3, -3, -2, -37, -68, -36, 13, 32, 18, -14], "withholdReward": false, "trial_id": "mdp_trial_12", "block": "test", "trialIndex": 17, "score": 58.6, "costs": -1.4, "simulationMode": [null, null, null, null, null], "rewards": [-1, -3, 1, -2, 65], "path": ["0", "0", "1", "2", "3", "8", "11"], "rt": [3058, 2386, 21, 349, 34], "actions": ["up", "up", "up", "left", "left"], "actionTimes": [5875, 8774, 9306, 10167, 10719], "queries": {"click": {"state": {"target": ["32"], "time": [4271]}, "edge": {"target": [], "time": []}}, "mouseover": {"state": {"target": ["1", "2", "3", "24", "30", "32"], "time": [3223, 3340, 3557, 3672, 3723, 4056]}, "edge": {"target": [], "time": []}}, "mouseout": {"state": {"target": ["0", "14", "19", "13", "12", "1", "2", "3", "24", "30", "32"], "time": [491, 691, 2291, 2358, 2573, 3257, 3389, 3590, 3689, 3823, 4722]}, "edge": {"target": [], "time": []}}}, "displayed_time": "16.82", "trialTime": 18053, "trial_type": "mouselab-mdp", "trial_index": 32, "time_elapsed": 1153266, "internal_node_id": "0.0-4.0-1.0-11.0"}}, {"uniqueid": "w25545337:a43331370", "current_trial": 33, "dateTime": 1691160268204, "trialdata": {"revealed_states": [], "clicked_states": ["29"], "num_clicks_accrued": [0, 0, 0, 0, 0, 0, 0, 0, 0, 0, 0, 0, 0], "stateRewards": ["", 1, 1, -5, 8, -6, 45, 16, -6, -7, -22, -38, -1, -4, 8, -11, -16, 21, -45, -15, -59, -32, 42, -1, 3, 6, 11, -7, 34, -27, -8, 85, 43, -9], "withholdReward": false, "trial_id": "mdp_trial_13", "block": "test", "trialIndex": 18, "score": -17.4, "costs": -1.4, "simulationMode": [null, null, null, null, null], "rewards": [1, 1, -5, -6, -7], "path": ["0", "0", "1", "2", "3", "8", "9"], "rt": [4769, 1424, 2303, 488, 1601], "actions": ["up", "up", "up", "left", "up"], "actionTimes": [6742, 8674, 11485, 12485, 14596], "queries": {"click": {"state": {"target": ["29"], "time": [2746]}, "edge": {"target": [], "time": []}}, "mouseover": {"state": {"target": ["28", "26", "29"], "time": [2337, 2369, 2702]}, "edge": {"target": [], "time": []}}, "mouseout": {"state": {"target": ["0", "28", "26", "29"], "time": [2304, 2353, 2520, 17225]}, "edge": {"target": [], "time": []}}}, "displayed_time": "15.97", "trialTime": 17403, "trial_type": "mouselab-mdp", "trial_index": 33, "time_elapsed": 1170872, "internal_node_id": "0.0-4.0-1.0-12.0"}}, {"uniqueid": "w25545337:a43331370", "current_trial": 34, "dateTime": 1691160285034, "trialdata": {"revealed_states": [], "clicked_states": ["15"], "num_clicks_accrued": [0, 0, 0, 0, 0, 0, 0, 0, 0, 0, 0, 0, 0], "stateRewards": ["", -1, 2, 5, -6, 13, -64, -47, 8, -79, -80, -33, 1, 2, -2, -16, 56, -71, -10, 3, 29, 44, 85, -1, 4, 5, 4, -36, -56, 19, 8, 52, -13, -2], "withholdReward": false, "trial_id": "mdp_trial_14", "block": "test", "trialIndex": 19, "score": 1.5999999999999996, "costs": -1.4, "simulationMode": [null, null, null, null, null], "rewards": [-1, 4, 5, 8, -13], "path": ["0", "0", "23", "24", "25", "30", "32"], "rt": [5371, 225, 164, 203, 299], "actions": ["left", "left", "left", "down", "down"], "actionTimes": [7006, 7757, 8428, 9151, 9962], "queries": {"click": {"state": {"target": ["15"], "time": [4440]}, "edge": {"target": [], "time": []}}, "mouseover": {"state": {"target": ["23", "24", "30", "30", "31", "23", "0", "12", "13", "18", "15"], "time": [2018, 2052, 2118, 2484, 2502, 2552, 2569, 2585, 2818, 3218, 3500]}, "edge": {"target": [], "time": []}}, "mouseout": {"state": {"target": ["29", "26", "28", "12", "12", "23", "24", "30", "30", "31", "23", "0", "12", "13", "18", "15", "17"], "time": [502, 869, 885, 1035, 1253, 2035, 2069, 2218, 2501, 2517, 2568, 2584, 2602, 3167, 3383, 5016, 15006]}, "edge": {"target": [], "time": []}}}, "displayed_time": "15.63", "trialTime": 16631, "trial_type": "mouselab-mdp", "trial_index": 34, "time_elapsed": 1187702, "internal_node_id": "0.0-4.0-1.0-13.0"}}, {"uniqueid": "w25545337:a43331370", "current_trial": 35, "dateTime": 1691160302038, "trialdata": {"revealed_states": [], "clicked_states": ["3"], "num_clicks_accrued": [0, 0, 0, 0, 0, 0, 0, 0, 0, 0, 0, 0, 0], "stateRewards": ["", -1, -3, 3, 5, 56, 39, 50, -1, -80, 33, -46, 1, -2, -6, -8, 87, 48, 54, -11, -20, -64, -54, -2, 3, -7, -3, 12, 88, 35, -16, -46, -70, -3], "withholdReward": false, "trial_id": "mdp_trial_15", "block": "test", "trialIndex": 20, "score": 41.6, "costs": -1.4, "simulationMode": [null, null, null, null, null], "rewards": [-1, -3, 3, 5, 39], "path": ["0", "0", "1", "2", "3", "4", "6"], "rt": [5478, 472, 181, 2636, 1537], "actions": ["up", "up", "up", "right", "right"], "actionTimes": [7011, 8000, 8692, 11847, 13895], "queries": {"click": {"state": {"target": ["3"], "time": [2682]}, "edge": {"target": [], "time": []}}, "mouseover": {"state": {"target": ["1", "3", "10"], "time": [1982, 2332, 5164]}, "edge": {"target": [], "time": []}}, "mouseout": {"state": {"target": ["0", "1", "3"], "time": [1049, 1998, 4812]}, "edge": {"target": [], "time": []}}}, "displayed_time": "15.55", "trialTime": 16829, "trial_type": "mouselab-mdp", "trial_index": 35, "time_elapsed": 1204705, "internal_node_id": "0.0-4.0-1.0-14.0"}}, {"uniqueid": "w25545337:a43331370", "current_trial": 36, "dateTime": 1691160320277, "trialdata": {"revealed_states": [], "clicked_states": ["3"], "num_clicks_accrued": [0, 0, 0, 0, 0, 0, 0, 0, 0, 0, 0, 0, 0], "stateRewards": ["", -2, 1, -7, 9, 8, 25, 61, -7, -17, 69, -81, 1, 4, -4, -11, 16, 67, 44, 3, 6, -45, -54, -2, 3, 6, -11, -15, 32, -47, 3, -39, -6, -88], "withholdReward": false, "trial_id": "mdp_trial_16", "block": "test", "trialIndex": 21, "score": 60.6, "costs": -1.4, "simulationMode": [null, null, null, null, null], "rewards": [-2, 1, -7, 9, 61], "path": ["0", "0", "1", "2", "3", "4", "7"], "rt": [3554, 353, 119, 654, 1563], "actions": ["up", "up", "up", "right", "down"], "actionTimes": [6812, 7681, 8313, 9481, 11556], "queries": {"click": {"state": {"target": ["3"], "time": [5092]}, "edge": {"target": [], "time": []}}, "mouseover": {"state": {"target": ["1", "1", "2", "3", "3"], "time": [4496, 4546, 4729, 4812, 5037]}, "edge": {"target": [], "time": []}}, "mouseout": {"state": {"target": ["10", "0", "1", "1", "2", "3", "3", "10", "0"], "time": [2114, 4435, 4512, 4612, 4779, 4879, 5196, 12989, 13088]}, "edge": {"target": [], "time": []}}}, "displayed_time": "17.26", "trialTime": 18066, "trial_type": "mouselab-mdp", "trial_index": 36, "time_elapsed": 1222944, "internal_node_id": "0.0-4.0-1.0-15.0"}}, {"uniqueid": "w25545337:a43331370", "current_trial": 37, "dateTime": 1691160337160, "trialdata": {"revealed_states": [], "clicked_states": ["26"], "num_clicks_accrued": [0, 0, 0, 0, 0, 0, 0, 0, 0, 0, 0, 0, 0], "stateRewards": ["", 2, -1, 5, 6, 10, 86, 55, 10, -45, 63, -71, 1, -2, 5, -8, -50, -72, 36, 15, 61, 12, 33, -1, -4, 6, 5, 79, -56, -21, -16, -87, 60, -81], "withholdReward": false, "trial_id": "mdp_trial_17", "block": "test", "trialIndex": 22, "score": 43.6, "costs": -1.4, "simulationMode": [null, null, null, null, null, null], "rewards": [-1, -4, 6, -16, 60], "path": ["0", "0", "23", "24", "25", "30", "32"], "rt": [2550, 207, 25, 103, 595, 130], "actions": ["left", "left", "left", "left", "down", "down"], "actionTimes": [4030, 4238, 4793, 5406, 6513, 7147], "queries": {"click": {"state": {"target": ["26"], "time": [2805]}, "edge": {"target": [], "time": []}}, "mouseover": {"state": {"target": ["0", "31", "25", "26"], "time": [1835, 1969, 2502, 2553]}, "edge": {"target": [], "time": []}}, "mouseout": {"state": {"target": ["1", "0", "0", "31", "25", "26", "24", "33", "30", "31", "24", "28", "27", "29", "25", "28", "10", "23", "23", "24", "31", "23", "0"], "time": [954, 1303, 1853, 2020, 2519, 3551, 8930, 9613, 9680, 10346, 10429, 10812, 11061, 11161, 12310, 12361, 12393, 12876, 13010, 14991, 15874, 15941, 16174]}, "edge": {"target": [], "time": []}}}, "displayed_time": "15.48", "trialTime": 16702, "trial_type": "mouselab-mdp", "trial_index": 37, "time_elapsed": 1239827, "internal_node_id": "0.0-4.0-1.0-16.0"}}, {"uniqueid": "w25545337:a43331370", "current_trial": 38, "dateTime": 1691160356687, "trialdata": {"revealed_states": [], "clicked_states": [], "num_clicks_accrued": [0, 0, 0, 0, 0, 0, 0, 0, 0, 0, 0, 0, 0], "stateRewards": ["", -1, 2, -7, -12, -62, 12, -13, 5, 77, -71, 83, 1, -4, 7, 15, -42, -87, -4, 5, -25, 44, 88, -1, 4, -5, -8, 14, 51, 8, -5, 83, -24, -19], "withholdReward": false, "trial_id": "mdp_trial_18", "block": "test", "trialIndex": 23, "score": 53, "costs": 0, "simulationMode": [null, null, null, null, null], "rewards": [1, -4, 7, 5, 44], "path": ["0", "0", "12", "13", "14", "19", "21"], "rt": [2154, 154, 2, 662, 340], "actions": ["right", "right", "right", "down", "down"], "actionTimes": [3441, 4105, 4621, 5812, 6656], "queries": {"click": {"state": {"target": [], "time": []}, "edge": {"target": [], "time": []}}, "mouseover": {"state": {"target": ["0", "12", "19", "21"], "time": [2131, 2152, 2201, 2501]}, "edge": {"target": [], "time": []}}, "mouseout": {"state": {"target": ["12", "0", "0", "0", "12", "19", "21", "22"], "time": [869, 1036, 1747, 2136, 2168, 2234, 2684, 13574]}, "edge": {"target": [], "time": []}}}, "displayed_time": "15.29", "trialTime": 19361, "trial_type": "mouselab-mdp", "trial_index": 38, "time_elapsed": 1259355, "internal_node_id": "0.0-4.0-1.0-17.0"}}, {"uniqueid": "w25545337:a43331370", "current_trial": 39, "dateTime": 1691160373996, "trialdata": {"revealed_states": [], "clicked_states": [], "num_clicks_accrued": [0, 0, 0, 0, 0, 0, 0, 0, 0, 0, 0, 0, 0], "stateRewards": ["", -2, -4, 6, 14, -34, 49, 36, -8, -3, 32, -4, 1, -2, 1, -8, -20, -71, -57, -7, -86, -62, -16, -2, -3, -5, 11, 23, -21, 53, 5, -5, 85, 73], "withholdReward": false, "trial_id": "mdp_trial_19", "block": "test", "trialIndex": 24, "score": -69, "costs": 0, "simulationMode": [null, null, null, null, null], "rewards": [1, -2, 1, -7, -62], "path": ["0", "0", "12", "13", "14", "19", "21"], "rt": [1338, 129, 194, 594, 112], "actions": ["right", "right", "right", "down", "down"], "actionTimes": [3710, 4349, 5063, 6162, 6779], "queries": {"click": {"state": {"target": [], "time": []}, "edge": {"target": [], "time": []}}, "mouseover": {"state": {"target": ["12", "13"], "time": [2868, 2935]}, "edge": {"target": [], "time": []}}, "mouseout": {"state": {"target": ["0", "12", "13", "13"], "time": [2002, 2902, 2985, 15442]}, "edge": {"target": [], "time": []}}}, "displayed_time": "16.38", "trialTime": 17120, "trial_type": "mouselab-mdp", "trial_index": 39, "time_elapsed": 1276663, "internal_node_id": "0.0-4.0-1.0-18.0"}}, {"uniqueid": "w25545337:a43331370", "current_trial": 40, "dateTime": 1691160393220, "trialdata": {"revealed_states": [], "clicked_states": [], "num_clicks_accrued": [0, 0, 0, 0, 0, 0, 0, 0, 0, 0, 0, 0, 0], "stateRewards": ["", -1, -4, -3, 1, -45, -67, -24, 14, 32, 22, 22, -1, 1, -5, -7, 72, 84, -79, -5, 19, -40, -2, -1, -2, 8, -3, 84, -25, -28, 11, 64, -66, 77], "withholdReward": false, "trial_id": "mdp_trial_20", "block": "test", "trialIndex": 25, "score": -12, "costs": 0, "simulationMode": [null, null, null, null, null], "rewards": [-1, 1, -5, -5, -2], "path": ["0", "0", "12", "13", "14", "19", "22"], "rt": [1290, 84, 418, 382, 774], "actions": ["right", "right", "right", "down", "left"], "actionTimes": [3684, 4288, 5221, 6118, 7409], "queries": {"click": {"state": {"target": [], "time": []}, "edge": {"target": [], "time": []}}, "mouseover": {"state": {"target": ["22", "22"], "time": [2736, 3053]}, "edge": {"target": [], "time": []}}, "mouseout": {"state": {"target": ["0", "22"], "time": [2654, 2786]}, "edge": {"target": [], "time": []}}}, "displayed_time": "16.39", "trialTime": 19027, "trial_type": "mouselab-mdp", "trial_index": 40, "time_elapsed": 1295887, "internal_node_id": "0.0-4.0-1.0-19.0"}}, {"uniqueid": "w25545337:a43331370", "current_trial": 41, "dateTime": 1691160419294, "trialdata": {"revealed_states": [], "clicked_states": [], "num_clicks_accrued": [0, 0, 0, 0, 0, 0, 0, 0, 0, 0, 0, 0, 0], "stateRewards": ["", 2, -3, -2, 14, -4, 85, 46, 15, -28, 41, 31, -1, -1, -1, 5, 62, 79, 57, 12, -73, -64, 86, -1, 1, -3, -5, 68, 11, -32, 8, -80, -21, -56], "withholdReward": false, "trial_id": "mdp_trial_21", "block": "test", "trialIndex": 26, "score": -64, "costs": 0, "simulationMode": [null, null, null, null, null], "rewards": [-1, -1, -1, 12, -73], "path": ["0", "0", "12", "13", "14", "19", "20"], "rt": [2308, 67, 413, 436, 311], "actions": ["right", "right", "right", "down", "right"], "actionTimes": [12609, 13192, 14121, 15076, 15901], "queries": {"click": {"state": {"target": [], "time": []}, "edge": {"target": [], "time": []}}, "mouseover": {"state": {"target": [], "time": []}, "edge": {"target": [], "time": []}}, "mouseout": {"state": {"target": ["22", "13", "12", "12", "0", "0", "12", "22"], "time": [9276, 9310, 9577, 9727, 9776, 16621, 16704, 18070]}, "edge": {"target": [], "time": []}}}, "displayed_time": "24.30", "trialTime": 25883, "trial_type": "mouselab-mdp", "trial_index": 41, "time_elapsed": 1321961, "internal_node_id": "0.0-4.0-1.0-20.0"}}, {"uniqueid": "w25545337:a43331370", "current_trial": 42, "dateTime": 1691160436808, "trialdata": {"revealed_states": [], "clicked_states": [], "num_clicks_accrued": [0, 0, 0, 0, 0, 0, 0, 0, 0, 0, 0, 0, 0], "stateRewards": ["", -1, -3, -7, -4, -85, -70, 79, 8, 84, -66, 42, 2, -2, -3, -16, -54, -66, 68, -3, 21, -14, 7, -2, -1, -3, -8, 75, 80, 86, -7, -84, 73, -16], "withholdReward": false, "trial_id": "mdp_trial_22", "block": "test", "trialIndex": 27, "score": -73, "costs": 0, "simulationMode": [null, null, null, null, null], "rewards": [2, -2, -3, -16, -54], "path": ["0", "0", "12", "13", "14", "15", "16"], "rt": [2239, 41, 301, 1330, 116], "actions": ["right", "right", "right", "up", "up"], "actionTimes": [4752, 5311, 6138, 7982, 8616], "queries": {"click": {"state": {"target": [], "time": []}, "edge": {"target": [], "time": []}}, "mouseover": {"state": {"target": ["12", "13", "14", "20", "14"], "time": [2937, 3004, 3070, 3437, 3620]}, "edge": {"target": [], "time": []}}, "mouseout": {"state": {"target": ["22", "0", "12", "13", "14", "20"], "time": [1888, 2220, 2970, 3037, 3120, 3503]}, "edge": {"target": [], "time": []}}}, "displayed_time": "16.51", "trialTime": 17324, "trial_type": "mouselab-mdp", "trial_index": 42, "time_elapsed": 1339476, "internal_node_id": "0.0-4.0-1.0-21.0"}}, {"uniqueid": "w25545337:a43331370", "current_trial": 43, "dateTime": 1691160453899, "trialdata": {"revealed_states": [], "clicked_states": [], "num_clicks_accrued": [0, 0, 0, 0, 0, 0, 0, 0, 0, 0, 0, 0, 0], "stateRewards": ["", 2, -1, 3, -12, -83, 6, -33, 9, 28, 24, -50, -2, -1, -2, -5, -87, 37, 82, 12, 80, -5, 10, -2, -3, -6, 9, 22, -1, 16, 9, 77, -62, 58], "withholdReward": false, "trial_id": "mdp_trial_23", "block": "test", "trialIndex": 28, "score": 72, "costs": 0, "simulationMode": [null, null, null, null, null], "rewards": [-2, -1, -2, -5, 82], "path": ["0", "0", "12", "13", "14", "15", "18"], "rt": [2818, 25, 434, 346, 481], "actions": ["right", "right", "right", "up", "left"], "actionTimes": [4930, 5463, 6421, 7282, 8267], "queries": {"click": {"state": {"target": [], "time": []}, "edge": {"target": [], "time": []}}, "mouseover": {"state": {"target": ["12", "15", "15", "18", "15", "16", "18"], "time": [2455, 2688, 2872, 2955, 3354, 3471, 3854]}, "edge": {"target": [], "time": []}}, "mouseout": {"state": {"target": ["14", "13", "12", "0", "12", "15", "15", "18", "15", "16", "18", "12", "21", "19", "14", "13"], "time": [1489, 1556, 1590, 2439, 2522, 2722, 2921, 3163, 3372, 3704, 4148, 15728, 16094, 16110, 16143, 16327]}, "edge": {"target": [], "time": []}}}, "displayed_time": "16.11", "trialTime": 16863, "trial_type": "mouselab-mdp", "trial_index": 43, "time_elapsed": 1356566, "internal_node_id": "0.0-4.0-1.0-22.0"}}, {"uniqueid": "w25545337:a43331370", "current_trial": 44, "dateTime": 1691160470551, "trialdata": {"revealed_states": [], "clicked_states": [], "num_clicks_accrued": [0, 0, 0, 0, 0, 0, 0, 0, 0, 0, 0, 0, 0], "stateRewards": ["", -1, 2, -2, 13, -56, -28, 10, 14, 53, -80, -29, 1, -3, -3, -14, 14, 9, -40, -9, 18, 18, 48, 1, 1, 1, -9, 64, -39, -9, 7, -52, -78, 7], "withholdReward": false, "trial_id": "mdp_trial_24", "block": "test", "trialIndex": 29, "score": -10, "costs": 0, "simulationMode": [null, null, null, null, null], "rewards": [1, -3, -3, -14, 9], "path": ["0", "0", "12", "13", "14", "15", "17"], "rt": [2343, 113, 271, 551, 990], "actions": ["right", "right", "right", "up", "right"], "actionTimes": [3883, 4507, 5297, 6362, 7864], "queries": {"click": {"state": {"target": [], "time": []}, "edge": {"target": [], "time": []}}, "mouseover": {"state": {"target": ["12", "13", "14", "14"], "time": [1728, 1761, 1794, 2178]}, "edge": {"target": [], "time": []}}, "mouseout": {"state": {"target": ["22", "12", "12", "13", "14", "14", "13", "12", "22"], "time": [844, 1127, 1744, 1778, 1827, 2327, 12669, 12718, 14616]}, "edge": {"target": [], "time": []}}}, "displayed_time": "15.54", "trialTime": 16419, "trial_type": "mouselab-mdp", "trial_index": 44, "time_elapsed": 1373218, "internal_node_id": "0.0-4.0-1.0-23.0"}}, {"uniqueid": "w25545337:a43331370", "current_trial": 45, "dateTime": 1691160488481, "trialdata": {"revealed_states": [], "clicked_states": [], "num_clicks_accrued": [0, 0, 0, 0, 0, 0, 0, 0, 0, 0, 0, 0, 0], "stateRewards": ["", -2, -2, -7, -13, -10, 49, -68, -1, 84, 70, 88, 1, 4, 4, 12, -57, 25, 30, 8, -1, -77, 57, 2, 3, 2, 3, -18, -80, 23, -15, -41, 70, 11], "withholdReward": false, "trial_id": "mdp_trial_25", "block": "test", "trialIndex": 30, "score": -36, "costs": 0, "simulationMode": [null, null, null, null, null], "rewards": [1, 4, 4, 12, -57], "path": ["0", "0", "12", "13", "14", "15", "16"], "rt": [3553, 877, 466, 3047, 78], "actions": ["right", "right", "right", "up", "up"], "actionTimes": [5412, 6803, 7775, 11337, 11932], "queries": {"click": {"state": {"target": [], "time": []}, "edge": {"target": [], "time": []}}, "mouseover": {"state": {"target": ["0", "12"], "time": [2256, 2461]}, "edge": {"target": [], "time": []}}, "mouseout": {"state": {"target": ["22", "23", "0", "0", "12", "31", "30"], "time": [1129, 1462, 1544, 2427, 16798, 16948, 17053]}, "edge": {"target": [], "time": []}}}, "displayed_time": "15.86", "trialTime": 17731, "trial_type": "mouselab-mdp", "trial_index": 45, "time_elapsed": 1391149, "internal_node_id": "0.0-4.0-1.0-24.0"}}, {"uniqueid": "w25545337:a43331370", "current_trial": 46, "dateTime": 1691160505347, "trialdata": {"revealed_states": [], "clicked_states": [], "num_clicks_accrued": [0, 0, 0, 0, 0, 0, 0, 0, 0, 0, 0, 0, 0], "stateRewards": ["", 2, 3, 3, 10, 19, -21, 6, 9, 54, 68, 16, 2, 2, -6, -8, 40, -2, -75, -2, -42, 55, 59, -1, 2, 4, -14, 11, -34, -30, -6, 61, -53, 13], "withholdReward": false, "trial_id": "mdp_trial_26", "block": "test", "trialIndex": 31, "score": -3, "costs": 0, "simulationMode": [null, null, null, null, null], "rewards": [2, 3, 3, 10, -21], "path": ["0", "0", "1", "2", "3", "4", "6"], "rt": [1100, 324, 197, 374, 372], "actions": ["up", "up", "up", "right", "right"], "actionTimes": [3421, 4262, 4969, 5861, 6741], "queries": {"click": {"state": {"target": [], "time": []}, "edge": {"target": [], "time": []}}, "mouseover": {"state": {"target": [], "time": []}, "edge": {"target": [], "time": []}}, "mouseout": {"state": {"target": ["0", "0", "1", "12", "7"], "time": [1921, 11930, 12413, 12730, 14112]}, "edge": {"target": [], "time": []}}}, "displayed_time": "16.34", "trialTime": 16691, "trial_type": "mouselab-mdp", "trial_index": 46, "time_elapsed": 1408014, "internal_node_id": "0.0-4.0-1.0-25.0"}}, {"uniqueid": "w25545337:a43331370", "current_trial": 47, "dateTime": 1691160523488, "trialdata": {"revealed_states": [], "clicked_states": [], "num_clicks_accrued": [0, 0, 0, 0, 0, 0, 0, 0, 0, 0, 0, 0, 0], "stateRewards": ["", -1, -3, -7, -7, -76, 30, -49, 11, -70, 56, 2, 1, 4, -3, -14, -59, -83, -25, -9, -21, -67, -73, -2, 4, 4, -9, -11, -32, 60, 9, -87, 22, -64], "withholdReward": false, "trial_id": "mdp_trial_27", "block": "test", "trialIndex": 32, "score": -94, "costs": 0, "simulationMode": [null, null, null, null, null], "rewards": [-1, -3, -7, -7, -76], "path": ["0", "0", "1", "2", "3", "4", "5"], "rt": [1665, 3, 613, 438, 156], "actions": ["up", "up", "up", "right", "up"], "actionTimes": [4276, 4785, 5927, 6883, 7551], "queries": {"click": {"state": {"target": [], "time": []}, "edge": {"target": [], "time": []}}, "mouseover": {"state": {"target": [], "time": []}, "edge": {"target": [], "time": []}}, "mouseout": {"state": {"target": ["0", "1", "0", "1"], "time": [1281, 1833, 11007, 11057]}, "edge": {"target": [], "time": []}}}, "displayed_time": "16.62", "trialTime": 17922, "trial_type": "mouselab-mdp", "trial_index": 47, "time_elapsed": 1426156, "internal_node_id": "0.0-4.0-1.0-26.0"}}, {"uniqueid": "w25545337:a43331370", "current_trial": 48, "dateTime": 1691160540730, "trialdata": {"revealed_states": [], "clicked_states": [], "num_clicks_accrued": [0, 0, 0, 0, 0, 0, 0, 0, 0, 0, 0, 0, 0], "stateRewards": ["", 2, 3, 8, 11, 25, -80, 6, -4, -56, 84, -23, -2, -4, -3, 4, -51, -9, -61, -15, -64, 67, -35, 1, -1, -7, -6, 83, 59, -15, 12, -79, 56, 41], "withholdReward": false, "trial_id": "mdp_trial_28", "block": "test", "trialIndex": 33, "score": 30, "costs": 0, "simulationMode": [null, null, null, null, null], "rewards": [2, 3, 8, 11, 6], "path": ["0", "0", "1", "2", "3", "4", "7"], "rt": [1225, 370, 194, 336, 383], "actions": ["up", "up", "up", "right", "down"], "actionTimes": [3331, 4216, 4923, 5765, 6662], "queries": {"click": {"state": {"target": [], "time": []}, "edge": {"target": [], "time": []}}, "mouseover": {"state": {"target": [], "time": []}, "edge": {"target": [], "time": []}}, "mouseout": {"state": {"target": ["0"], "time": [9191]}, "edge": {"target": [], "time": []}}}, "displayed_time": "16.11", "trialTime": 17011, "trial_type": "mouselab-mdp", "trial_index": 48, "time_elapsed": 1443397, "internal_node_id": "0.0-4.0-1.0-27.0"}}, {"uniqueid": "w25545337:a43331370", "current_trial": 49, "dateTime": 1691160564481, "trialdata": {"revealed_states": [], "clicked_states": [], "num_clicks_accrued": [0, 0, 0, 0, 0, 0, 0, 0, 0, 0, 0, 0, 0], "stateRewards": ["", -1, 3, -5, -2, -13, -9, -34, -7, -81, 32, 35, -2, -2, 1, -14, -32, 81, 7, 4, 82, 56, -8, -1, 3, -8, 6, -24, -24, -53, 2, 38, 61, 54], "withholdReward": false, "trial_id": "mdp_trial_29", "block": "test", "trialIndex": 34, "score": -91, "costs": 0, "simulationMode": [null, null, null, null, null], "rewards": [-1, 3, -5, -7, -81], "path": ["0", "0", "1", "2", "3", "8", "9"], "rt": [1452, 53, 471, 359, 866], "actions": ["up", "up", "up", "left", "up"], "actionTimes": [3192, 3760, 4761, 5632, 7004], "queries": {"click": {"state": {"target": [], "time": []}, "edge": {"target": [], "time": []}}, "mouseover": {"state": {"target": [], "time": []}, "edge": {"target": [], "time": []}}, "mouseout": {"state": {"target": ["0"], "time": [10966]}, "edge": {"target": [], "time": []}}}, "displayed_time": "15.74", "trialTime": 23538, "trial_type": "mouselab-mdp", "trial_index": 49, "time_elapsed": 1467148, "internal_node_id": "0.0-4.0-1.0-28.0"}}, {"uniqueid": "w25545337:a43331370", "current_trial": 50, "dateTime": 1691160581483, "trialdata": {"revealed_states": [], "clicked_states": [], "num_clicks_accrued": [0, 0, 0, 0, 0, 0, 0, 0, 0, 0, 0, 0, 0], "stateRewards": ["", -2, -3, 1, -14, 48, -49, 67, -1, -35, -48, 3, -2, 1, -4, -5, 86, -84, 39, 1, 48, 41, -42, -1, -4, 2, -7, 18, -86, 17, 7, -9, 57, -69], "withholdReward": false, "trial_id": "mdp_trial_30", "block": "test", "trialIndex": 35, "score": -2, "costs": 0, "simulationMode": [null, null, null, null, null], "rewards": [-2, -3, 1, -1, 3], "path": ["0", "0", "1", "2", "3", "8", "11"], "rt": [1357, 642, 413, 702, 313], "actions": ["up", "up", "up", "left", "left"], "actionTimes": [2946, 4125, 5046, 6267, 7094], "queries": {"click": {"state": {"target": [], "time": []}, "edge": {"target": [], "time": []}}, "mouseover": {"state": {"target": [], "time": []}, "edge": {"target": [], "time": []}}, "mouseout": {"state": {"target": ["0"], "time": [1200]}, "edge": {"target": [], "time": []}}}, "displayed_time": "15.59", "trialTime": 16786, "trial_type": "mouselab-mdp", "trial_index": 50, "time_elapsed": 1484150, "internal_node_id": "0.0-4.0-1.0-29.0"}}, {"uniqueid": "w25545337:a43331370", "current_trial": 51, "dateTime": 1691160599490, "trialdata": {"revealed_states": [], "clicked_states": [], "num_clicks_accrued": [0, 0, 0, 0, 0, 0, 0, 0, 0, 0, 0, 0, 0], "stateRewards": ["", -2, 3, -5, -7, 66, 43, -60, -4, -70, -75, 4, -1, 2, 2, -13, 54, 11, -40, -1, 77, 32, 15, -2, 3, -8, -9, -35, 83, -27, 6, -74, -34, 44], "withholdReward": false, "trial_id": "mdp_trial_31", "block": "test", "trialIndex": 36, "score": -83, "costs": 0, "simulationMode": [null, null, null, null, null], "rewards": [-2, 3, -5, -4, -75], "path": ["0", "0", "1", "2", "3", "8", "10"], "rt": [787, 306, 391, 409, 498], "actions": ["up", "up", "up", "left", "down"], "actionTimes": [3294, 4112, 5013, 5931, 6935], "queries": {"click": {"state": {"target": [], "time": []}, "edge": {"target": [], "time": []}}, "mouseover": {"state": {"target": [], "time": []}, "edge": {"target": [], "time": []}}, "mouseout": {"state": {"target": ["0", "23", "24", "23", "0"], "time": [1591, 1606, 1823, 2039, 17176]}, "edge": {"target": [], "time": []}}}, "displayed_time": "16.51", "trialTime": 17799, "trial_type": "mouselab-mdp", "trial_index": 51, "time_elapsed": 1502158, "internal_node_id": "0.0-4.0-1.0-30.0"}}, {"uniqueid": "w25545337:a43331370", "current_trial": 52, "dateTime": 1691160619019, "trialdata": {"revealed_states": [], "clicked_states": [], "num_clicks_accrued": [0, 0, 0, 0, 0, 0, 0, 0, 0, 0, 0, 0, 0], "stateRewards": ["", -1, -3, 4, -10, -5, 79, -87, -2, 53, 29, -20, -2, -1, -5, 10, 27, 86, 46, -16, -29, 40, 3, 2, 4, -1, -6, 37, 79, -29, 7, 86, -62, 29], "withholdReward": false, "trial_id": "mdp_trial_32", "block": "test", "trialIndex": 37, "score": 36, "costs": 0, "simulationMode": [null, null, null, null, null], "rewards": [2, 4, -1, -6, 37], "path": ["0", "0", "23", "24", "25", "26", "27"], "rt": [1493, 691, 218, 711, 293], "actions": ["left", "left", "left", "up", "up"], "actionTimes": [5735, 6930, 7656, 8882, 9680], "queries": {"click": {"state": {"target": [], "time": []}, "edge": {"target": [], "time": []}}, "mouseover": {"state": {"target": ["1"], "time": [4772]}, "edge": {"target": [], "time": []}}, "mouseout": {"state": {"target": ["0", "0"], "time": [1141, 2675]}, "edge": {"target": [], "time": []}}}, "displayed_time": "18.24", "trialTime": 19311, "trial_type": "mouselab-mdp", "trial_index": 52, "time_elapsed": 1521686, "internal_node_id": "0.0-4.0-1.0-31.0"}}, {"uniqueid": "w25545337:a43331370", "current_trial": 53, "dateTime": 1691160636212, "trialdata": {"revealed_states": [], "clicked_states": [], "num_clicks_accrued": [0, 0, 0, 0, 0, 0, 0, 0, 0, 0, 0, 0, 0], "stateRewards": ["", -1, 1, -1, 2, 19, 85, -18, 2, -3, -26, 36, 2, 4, 7, -9, -18, 70, 72, -5, 35, -20, -28, 1, -2, -4, -3, -59, -11, -63, -2, -72, 59, -69], "withholdReward": false, "trial_id": "mdp_trial_33", "block": "test", "trialIndex": 38, "score": 52, "costs": 0, "simulationMode": [null, null, null, null, null], "rewards": [1, -2, -4, -2, 59], "path": ["0", "0", "23", "24", "25", "30", "32"], "rt": [6868, 391, 247, 502, 148], "actions": ["left", "left", "left", "down", "down"], "actionTimes": [8526, 9419, 10175, 11196, 11858], "queries": {"click": {"state": {"target": [], "time": []}, "edge": {"target": [], "time": []}}, "mouseover": {"state": {"target": ["27", "28"], "time": [3865, 4581]}, "edge": {"target": [], "time": []}}, "mouseout": {"state": {"target": ["1", "0", "27"], "time": [784, 3510, 3916]}, "edge": {"target": [], "time": []}}}, "displayed_time": "15.66", "trialTime": 16980, "trial_type": "mouselab-mdp", "trial_index": 53, "time_elapsed": 1538879, "internal_node_id": "0.0-4.0-1.0-32.0"}}, {"uniqueid": "w25545337:a43331370", "current_trial": 54, "dateTime": 1691160653178, "trialdata": {"revealed_states": [], "clicked_states": ["24", "31", "32"], "num_clicks_accrued": [0, 0, 0, 0, 0, 0, 0, 0, 0, 0, 0, 0, 0], "stateRewards": ["", -2, 2, 8, -6, -25, 3, 87, 2, -62, -2, 74, -2, -1, 2, -1, 79, 49, -37, -14, 5, 67, -9, -1, 2, -2, 5, 15, 38, 32, -14, -38, -38, 30], "withholdReward": false, "trial_id": "mdp_trial_34", "block": "test", "trialIndex": 39, "score": 14.8, "costs": -4.199999999999999, "simulationMode": [null, null, null, null, null], "rewards": [-1, 2, -2, 5, 15], "path": ["0", "0", "23", "24", "25", "26", "27"], "rt": [6129, 204, 112, 623, 247], "actions": ["left", "left", "left", "up", "up"], "actionTimes": [7547, 8256, 8880, 10008, 10764], "queries": {"click": {"state": {"target": ["24", "31", "32"], "time": [2096, 4042, 5768]}, "edge": {"target": [], "time": []}}, "mouseover": {"state": {"target": ["23", "24", "31", "32"], "time": [1690, 1956, 2905, 4620]}, "edge": {"target": [], "time": []}}, "mouseout": {"state": {"target": ["28", "23", "24", "31", "31", "32", "32"], "time": [623, 1822, 2840, 4184, 4504, 6236, 16160]}, "edge": {"target": [], "time": []}}}, "displayed_time": "15.42", "trialTime": 16750, "trial_type": "mouselab-mdp", "trial_index": 54, "time_elapsed": 1555845, "internal_node_id": "0.0-4.0-1.0-33.0"}}, {"uniqueid": "w25545337:a43331370", "current_trial": 55, "dateTime": 1691160670202, "trialdata": {"revealed_states": [], "clicked_states": ["21"], "num_clicks_accrued": [0, 0, 0, 0, 0, 0, 0, 0, 0, 0, 0, 0, 0], "stateRewards": ["", -2, 3, -1, -9, 44, 48, -37, -3, 71, -39, 87, -1, 3, -4, 4, -21, 59, -15, -8, -1, 28, -38, 2, 4, 4, 8, -85, -72, -63, 14, 58, 63, -46], "withholdReward": false, "trial_id": "mdp_trial_35", "block": "test", "trialIndex": 40, "score": 16.6, "costs": -1.4, "simulationMode": [null, null, null, null, null], "rewards": [-1, 3, -4, -8, 28], "path": ["0", "0", "12", "13", "14", "19", "21"], "rt": [3893, 204, 300, 399, 464], "actions": ["right", "right", "right", "down", "down"], "actionTimes": [5452, 6172, 6982, 7897, 8878], "queries": {"click": {"state": {"target": ["21"], "time": [3651]}, "edge": {"target": [], "time": []}}, "mouseover": {"state": {"target": ["12", "13", "15", "5", "4", "14", "19", "21", "14"], "time": [1869, 1902, 2069, 2586, 2769, 2835, 2853, 3367, 4584]}, "edge": {"target": [], "time": []}}, "mouseout": {"state": {"target": ["0", "12", "13", "15", "5", "4", "14", "19", "21", "14"], "time": [1853, 1886, 2002, 2119, 2768, 2786, 2852, 2869, 4367, 16073]}, "edge": {"target": [], "time": []}}}, "displayed_time": "15.56", "trialTime": 16802, "trial_type": "mouselab-mdp", "trial_index": 55, "time_elapsed": 1572869, "internal_node_id": "0.0-4.0-1.0-34.0"}}, {"uniqueid": "w25545337:a43331370", "current_trial": 56, "dateTime": 1691160688336, "trialdata": {"revealed_states": [], "clicked_states": ["12", "14"], "num_clicks_accrued": [0, 0, 0, 0, 0, 0, 0, 0, 0, 0, 0, 0, 0], "stateRewards": ["", 1, 3, -2, 15, 51, 15, -19, 11, 67, -45, -73, 2, 4, -2, -13, 36, 9, -28, 10, -30, 31, 16, 1, 2, -1, -16, 14, -22, 36, -1, 88, -5, 45], "withholdReward": false, "trial_id": "mdp_trial_36", "block": "test", "trialIndex": 41, "score": 24.2, "costs": -2.8, "simulationMode": [null, null, null, null, null, null], "rewards": [2, 4, -2, -13, 36], "path": ["0", "0", "12", "13", "14", "15", "16"], "rt": [3157, 361, 1296, 670, 744, 156], "actions": ["right", "right", "right", "right", "up", "up"], "actionTimes": [5346, 5709, 7538, 8741, 9997, 10660], "queries": {"click": {"state": {"target": ["12", "14"], "time": [2980, 4797]}, "edge": {"target": [], "time": []}}, "mouseover": {"state": {"target": ["0", "12", "13", "13", "14"], "time": [2593, 2892, 3391, 4108, 4591]}, "edge": {"target": [], "time": []}}, "mouseout": {"state": {"target": ["0", "0", "12", "13", "13", "14", "22"], "time": [2025, 2626, 3359, 3974, 4528, 16380, 16446]}, "edge": {"target": [], "time": []}}}, "displayed_time": "16.19", "trialTime": 17908, "trial_type": "mouselab-mdp", "trial_index": 56, "time_elapsed": 1591003, "internal_node_id": "0.0-4.0-1.0-35.0"}}, {"uniqueid": "w25545337:a43331370", "current_trial": 57, "dateTime": 1691160705324, "trialdata": {"revealed_states": [], "clicked_states": ["26", "27"], "num_clicks_accrued": [0, 0, 0, 0, 0, 0, 0, 0, 0, 0, 0, 0, 0], "stateRewards": ["", 1, -1, 4, 5, -32, 18, 20, 6, -88, -74, 9, -2, 1, -2, -14, 34, -77, -38, -1, 80, -36, 73, 2, 3, -8, 10, -48, -73, -71, -11, -22, 20, 54], "withholdReward": false, "trial_id": "mdp_trial_37", "block": "test", "trialIndex": 42, "score": -66.8, "costs": -2.8, "simulationMode": [null, null, null, null, null], "rewards": [2, 3, -8, 10, -71], "path": ["0", "0", "23", "24", "25", "26", "29"], "rt": [4587, 280, 951, 318, 54], "actions": ["left", "left", "left", "up", "left"], "actionTimes": [6155, 6970, 8440, 9273, 9842], "queries": {"click": {"state": {"target": ["26", "27"], "time": [3048, 4583]}, "edge": {"target": [], "time": []}}, "mouseover": {"state": {"target": ["26", "28", "27", "25"], "time": [2843, 3426, 4342, 5124]}, "edge": {"target": [], "time": []}}, "mouseout": {"state": {"target": ["0", "26", "28", "27", "26", "25", "22", "22"], "time": [2442, 3409, 4125, 4891, 4974, 12600, 12717, 14582]}, "edge": {"target": [], "time": []}}}, "displayed_time": "15.57", "trialTime": 16763, "trial_type": "mouselab-mdp", "trial_index": 57, "time_elapsed": 1607991, "internal_node_id": "0.0-4.0-1.0-36.0"}}, {"uniqueid": "w25545337:a43331370", "current_trial": 58, "dateTime": 1691160721398, "trialdata": {"revealed_states": [], "clicked_states": ["32", "25", "30"], "num_clicks_accrued": [0, 0, 0, 0, 0, 0, 0, 0, 0, 0, 0, 0, 0], "stateRewards": ["", -1, -3, -6, 14, 41, 18, 63, -14, 80, 21, 17, -2, -4, -2, -5, 13, 70, 8, -4, -64, -10, -20, 2, -1, 4, -1, -17, -55, 42, -7, 47, 54, 15], "withholdReward": false, "trial_id": "mdp_trial_38", "block": "test", "trialIndex": 43, "score": 47.8, "costs": -4.199999999999999, "simulationMode": [null, null, null, null, null, null], "rewards": [2, -1, 4, -7, 54], "path": ["0", "0", "23", "24", "25", "30", "32"], "rt": [5007, 426, 351, 201, 1504, 199], "actions": ["left", "left", "left", "left", "down", "down"], "actionTimes": [6078, 6505, 7376, 8091, 10110, 10820], "queries": {"click": {"state": {"target": ["32", "25", "30"], "time": [2443, 3955, 5482]}, "edge": {"target": [], "time": []}}, "mouseover": {"state": {"target": ["31", "32", "30", "25", "30"], "time": [1494, 2177, 2777, 3592, 4392]}, "edge": {"target": [], "time": []}}, "mouseout": {"state": {"target": ["0", "31", "32", "30", "25", "30"], "time": [1428, 1610, 2660, 3326, 4360, 5614]}, "edge": {"target": [], "time": []}}}, "displayed_time": "15.07", "trialTime": 15869, "trial_type": "mouselab-mdp", "trial_index": 58, "time_elapsed": 1624065, "internal_node_id": "0.0-4.0-1.0-37.0"}}, {"uniqueid": "w25545337:a43331370", "current_trial": 59, "dateTime": 1691160762297, "trialdata": {"revealed_states": [], "clicked_states": ["23", "25", "28", "27", "1", "2", "7", "10", "3", "8", "11", "9"], "num_clicks_accrued": [0, 0, 0, 0, 0, 0, 0, 0, 0, 0, 0, 0, 0], "stateRewards": ["", 1, 4, 5, 8, -55, -11, 8, 16, -37, 77, -22, -2, 3, -8, -10, 45, 87, -67, 4, 17, -33, -22, -1, -3, 7, 6, -39, -85, 75, -1, 7, -48, 45], "withholdReward": false, "trial_id": "mdp_trial_39", "block": "test", "trialIndex": 44, "score": 86.2, "costs": -16.8, "simulationMode": [null, null, null, null, null], "rewards": [1, 4, 5, 16, 77], "path": ["0", "0", "1", "2", "3", "8", "10"], "rt": [29530, 32, 240, 276, 382], "actions": ["up", "up", "up", "left", "down"], "actionTimes": [32239, 32808, 33581, 34368, 35256], "queries": {"click": {"state": {"target": ["23", "25", "28", "27", "1", "2", "7", "10", "3", "8", "11", "9"], "time": [4310, 6011, 8440, 10593, 12919, 14992, 17022, 19082, 20923, 23319, 27032, 29094]}, "edge": {"target": [], "time": []}}, "mouseover": {"state": {"target": ["0", "24", "23", "24", "24", "25", "28", "27", "10", "2", "1", "2", "7", "10", "3", "8", "2", "11", "9", "8", "1"], "time": [3383, 3733, 4066, 4900, 5499, 5798, 6552, 9329, 12143, 12309, 12575, 13646, 15723, 17855, 20020, 22067, 26155, 26929, 28651, 30227, 30394]}, "edge": {"target": [], "time": []}}, "mouseout": {"state": {"target": ["30", "23", "0", "0", "24", "23", "24", "24", "25", "28", "27", "10", "2", "1", "2", "7", "2", "10", "3", "8", "2", "8", "11", "9", "8", "1"], "time": [669, 1153, 3067, 3400, 3850, 4682, 5449, 5532, 6281, 8995, 11826, 12209, 12542, 13441, 15690, 17671, 17789, 19210, 22018, 24282, 26494, 26679, 27185, 30177, 30243, 30444]}, "edge": {"target": [], "time": []}}}, "displayed_time": "35.77", "trialTime": 40690, "trial_type": "mouselab-mdp", "trial_index": 59, "time_elapsed": 1664964, "internal_node_id": "0.0-4.0-1.0-38.0"}}, {"uniqueid": "w25545337:a43331370", "current_trial": 60, "dateTime": 1691160806209, "trialdata": {"revealed_states": [], "clicked_states": ["23", "24", "25", "12", "13", "14", "15", "1", "2", "3", "4", "6", "7", "5", "8", "11"], "num_clicks_accrued": [0, 0, 0, 0, 0, 0, 0, 0, 0, 0, 0, 0, 0], "stateRewards": ["", 1, 1, 5, 6, -29, -7, 3, -16, 9, -46, 65, -1, 4, -1, -16, -63, -77, -87, 8, 80, -50, 43, -1, -1, -5, 5, -38, -71, -62, 9, 81, -50, -52], "withholdReward": false, "trial_id": "mdp_trial_40", "block": "test", "trialIndex": 45, "score": 33.60000000000001, "costs": -22.399999999999995, "simulationMode": [null, null, null, null, null], "rewards": [1, 1, 5, -16, 65], "path": ["0", "0", "1", "2", "3", "8", "11"], "rt": [32939, 72, 370, 890, 4], "actions": ["up", "up", "up", "left", "left"], "actionTimes": [36916, 37497, 38377, 39781, 40293], "queries": {"click": {"state": {"target": ["23", "24", "25", "12", "13", "14", "15", "1", "2", "3", "4", "6", "7", "5", "8", "11"], "time": [5138, 6998, 8622, 10627, 12216, 15005, 16685, 18801, 20647, 22507, 24385, 26227, 28126, 29960, 32054, 33927]}, "edge": {"target": [], "time": []}}, "mouseover": {"state": {"target": ["23", "24", "25", "12", "13", "1", "14", "15", "18", "1", "2", "1", "2", "3", "4", "6", "7", "5", "8", "11", "10"], "time": [4852, 5685, 7833, 10347, 11663, 13062, 14893, 15959, 17041, 17308, 18196, 18607, 19240, 21105, 23186, 24868, 26850, 28715, 31529, 33110, 34709]}, "edge": {"target": [], "time": []}}, "mouseout": {"state": {"target": ["0", "23", "24", "25", "12", "13", "13", "1", "14", "15", "18", "1", "2", "1", "2", "3", "4", "6", "7", "4", "5", "8", "11", "11", "8", "10", "0"], "time": [1173, 5530, 7767, 9832, 11347, 12834, 13012, 14493, 15643, 17026, 17092, 17575, 18573, 18929, 20778, 23136, 24836, 26700, 28498, 28615, 30963, 32928, 34056, 34543, 34626, 34776, 43035]}, "edge": {"target": [], "time": []}}}, "displayed_time": "40.82", "trialTime": 43709, "trial_type": "mouselab-mdp", "trial_index": 60, "time_elapsed": 1708877, "internal_node_id": "0.0-4.0-1.0-39.0"}}, {"uniqueid": "w25545337:a43331370", "current_trial": 61, "dateTime": 1691160874344, "trialdata": {"rt": 68130, "response": {"Q0": "$-2 to $2", "Q1": "$-16 to $16", "Q2": "$-88 to $88", "Q3": "The cost was always $1.4.", "Q4": "Very motivated"}, "question_order": [0, 1, 2, 3, 4], "trial_id": "final_quiz_control", "trial_type": "survey-multi-choice", "trial_index": 61, "time_elapsed": 1777012, "internal_node_id": "0.0-4.0-2.0"}}, {"uniqueid": "w25545337:a43331370", "current_trial": 62, "dateTime": 1691160974930, "trialdata": {"rt": 100571, "response": {"Q0": "Clicking fast, using memory, avoiding nodes where I could lose money, and picking notes where I could earn the most money.", "Q1": "Yes, by being more strategic with modes - picking nodes where I could make the most money.", "Q2": "Not difficult"}, "trial_id": "self_report_control", "trial_type": "survey-text", "trial_index": 62, "time_elapsed": 1877597, "internal_node_id": "0.0-4.0-3.0"}}, {"uniqueid": "w25545337:a43331370", "current_trial": 63, "dateTime": 1691160992982, "trialdata": {"rt": 18045, "response": {"gender": "female", "age": "23", "colorblind": "0", "effort": "0"}, "trial_type": "survey-html-form", "trial_index": 63, "time_elapsed": 1895649, "internal_node_id": "0.0-4.0-4.0"}}, {"uniqueid": "w25545337:a43331370", "current_trial": 64, "dateTime": 1691161091188, "trialdata": {"rt": 98197, "response": {"Q0": "Nothing was confusing, except for the explanation of the nodes. A demonstration would've been helpful", "Q1": "Have never done a Web of Cash HIT before", "Q2": ""}, "trial_type": "survey-text", "trial_index": 64, "time_elapsed": 1993856, "internal_node_id": "0.0-4.0-5.0"}}, {"uniqueid": "w25545337:a43331370", "current_trial": 65, "dateTime": 1691161094525, "trialdata": {"rt": 3330, "stimulus": "Press 'Finish HIT' in order to reach the completion code. Once the data has been saved, you will receive the code either in this window or in the original browser window where you started the experiment.\n", "response": 0, "trial_type": "html-button-response", "trial_index": 65, "time_elapsed": 1997192, "internal_node_id": "0.0-5.0"}}, {"uniqueid": "w25545337:a43331370", "current_trial": 66, "dateTime": 1691161095529, "trialdata": {"success": true, "trial_type": "fullscreen", "trial_index": 66, "time_elapsed": 1998197, "internal_node_id": "0.0-6.0"}}], "questiondata": {"params": {"CODE": "C6DMOQA6", "MIN_TIME": 14, "inspectCost": 1, "startTime": "Fri Aug 04 2023 16:24:54 GMT+0200 (South Africa Standard Time)", "bonusRate": 0.002, "variance": "1_2_4_8_44", "branching": "31123"}, "final_score": 27.6}, "eventdata": [{"eventtype": "initialized", "value": null, "timestamp": 1691159093727, "interval": 0}, {"eventtype": "window_resize", "value": [1536, 758], "timestamp": 1691159093727, "interval": 0}, {"eventtype": "window_resize", "value": [1536, 758], "timestamp": 1691159094255, "interval": 528}, {"eventtype": "window_resize", "value": [1536, 864], "timestamp": 1691159101973, "interval": 7718}, {"eventtype": "focus", "value": "off", "timestamp": 1691159707635, "interval": 605662}, {"eventtype": "focus", "value": "on", "timestamp": 1691159707635, "interval": 0}, {"eventtype": "window_resize", "value": [1536, 758], "timestamp": 1691159707838, "interval": 203}, {"eventtype": "window_resize", "value": [1536, 864], "timestamp": 1691159709352, "interval": 1514}, {"eventtype": "focus", "value": "off", "timestamp": 1691159878078, "interval": 168726}, {"eventtype": "focus", "value": "on", "timestamp": 1691159878078, "interval": 0}, {"eventtype": "window_resize", "value": [1536, 758], "timestamp": 1691159878282, "interval": 204}, {"eventtype": "window_resize", "value": [1536, 864], "timestamp": 1691159879565, "interval": 1283}, {"eventtype": "window_resize", "value": [1536, 758], "timestamp": 1691161094748, "interval": 1215183}], "useragent": "Mozilla/5.0 (Windows NT 10.0; Win64; x64) AppleWebKit/537.36 (KHTML, like Gecko) Chrome/115.0.0.0 Safari/537.36", "mode": "live", "id": "w25545337:a43331370", "status": "user data saved", "Beginhit": "2023-08-04 14:24:47.140947", "Beginexp": "2023-08-04 14:24:59.903483", "Endhit": "2023-08-04 14:58:14.058746", "psiturkStatus": 3, "browser": "<redacted>", "platform": "windows", "language": "en-ZA"}