{"condition": 1, "counterbalance": 0, "assignmentId": "a33635169", "workerId": "w25690316", "hitId": "h43900919", "currenttrial": 16, "bonus": 0, "data": [{"uniqueid": "w25690316:a33635169", "current_trial": 0, "dateTime": 1693564808491, "trialdata": {"success": true, "trial_type": "fullscreen", "trial_index": 0, "time_elapsed": 7579, "internal_node_id": "0.0-0.0"}}, {"uniqueid": "w25690316:a33635169", "current_trial": 1, "dateTime": 1693564837609, "trialdata": {"view_history": [{"page_index": 0, "viewing_time": 29102}], "rt": 29105, "trial_id": "exp_instructions_misaligned", "trial_type": "instructions", "trial_index": 1, "time_elapsed": 36698, "internal_node_id": "0.0-1.0"}}, {"uniqueid": "w25690316:a33635169", "current_trial": 2, "dateTime": 1693565147372, "trialdata": {"view_history": [{"page_index": 0, "viewing_time": 123038}, {"page_index": 1, "viewing_time": 104982}, {"page_index": 2, "viewing_time": 26730}, {"page_index": 3, "viewing_time": 55004}], "rt": 309754, "trial_id": "mouselab_instructions_1_misaligned", "trial_type": "instructions", "trial_index": 2, "time_elapsed": 346462, "internal_node_id": "0.0-2.0-1.0"}}, {"uniqueid": "w25690316:a33635169", "current_trial": 3, "dateTime": 1693565282875, "trialdata": {"revealed_states": [], "clicked_states": ["12", "23", "1", "2", "13", "14", "19", "3", "11", "25", "24", "30", "32", "8", "9", "4", "6", "7", "21", "15", "16", "26", "27", "33", "31", "29", "28", "10", "5", "18", "17", "22", "20"], "num_clicks_accrued": [0, 0, 0, 0, 0, 0, 0, 0, 0, 0, 0, 0, 0], "stateRewards": ["", -10, 10, 10, 10, 10, 10, 10, 10, -10, -10, -10, -10, 10, -10, -10, -10, -10, 10, -10, -10, -10, -10, 10, 10, 10, -10, -10, -10, 10, 10, -10, -10, 10], "withholdReward": false, "trial_id": "practice_1", "block": "test", "trialIndex": 0, "score": -43, "costs": -16.5, "simulationMode": [null, null, null, null, null], "rewards": [-10, 10, -10, -10, -10], "path": ["0", "0", "12", "13", "14", "19", "21"], "rt": [121336, 3282, 344, 528, 142], "actions": ["right", "right", "right", "down", "down"], "actionTimes": [124210, 128037, 128916, 129976, 130730], "queries": {"click": {"state": {"target": ["12", "23", "1", "2", "13", "14", "19", "3", "11", "25", "24", "30", "32", "8", "9", "4", "6", "7", "21", "15", "16", "26", "27", "33", "31", "29", "28", "10", "5", "18", "17", "22", "20"], "time": [10175, 14082, 16509, 18671, 21038, 23248, 26167, 28673, 31421, 33357, 34947, 43083, 44985, 48782, 50193, 52642, 54088, 57277, 60301, 62489, 63969, 65892, 67014, 69010, 70301, 72202, 73432, 79645, 81438, 83635, 84724, 85988, 89793]}, "edge": {"target": [], "time": []}}, "mouseover": {"state": {"target": ["1", "12", "12", "22", "12", "0", "23", "1", "2", "18", "13", "14", "19", "21", "19", "15", "7", "3", "11", "11", "25", "24", "1", "12", "12", "10", "28", "26", "25", "30", "32", "31", "23", "8", "9", "5", "5", "4", "6", "7", "13", "19", "21", "19", "14", "15", "16", "26", "27", "33", "30", "31", "24", "26", "29", "28", "32", "23", "1", "7", "4", "5", "5", "3", "10", "4", "5", "16", "18", "17", "14", "22", "19", "21", "20", "12", "14", "12", "12", "0", "0", "23", "1", "1", "0"], "time": [5963, 7700, 8983, 9038, 9549, 12370, 13004, 15224, 17710, 19845, 20262, 22173, 24280, 25418, 25701, 27122, 27587, 28171, 30724, 30957, 32879, 34059, 37198, 39403, 39620, 41004, 41057, 41554, 41720, 42105, 44472, 46409, 46462, 48361, 49658, 51347, 51890, 51999, 53501, 56706, 58991, 59408, 59540, 61443, 61497, 61595, 63483, 65022, 66508, 68167, 69602, 69662, 71321, 71421, 71839, 72918, 74307, 76159, 76612, 77211, 77310, 78012, 78562, 78663, 79096, 80554, 80798, 82315, 82685, 84380, 85214, 85660, 86443, 86732, 89209, 94548, 105508, 107880, 112670, 114055, 115873, 116173, 117727, 118760, 118817]}, "edge": {"target": [], "time": []}}, "mouseout": {"state": {"target": ["1", "12", "12", "22", "12", "0", "23", "1", "2", "18", "13", "14", "19", "21", "19", "14", "15", "7", "3", "11", "11", "25", "24", "1", "12", "12", "10", "28", "26", "25", "30", "32", "31", "23", "8", "9", "5", "5", "4", "6", "7", "7", "13", "19", "21", "19", "14", "15", "16", "26", "27", "33", "30", "31", "24", "26", "29", "28", "32", "23", "1", "7", "4", "5", "5", "3", "10", "4", "5", "16", "18", "17", "17", "14", "22", "19", "21", "20", "12", "14", "12", "12", "0", "0", "23", "1", "1", "0"], "time": [7616, 8419, 9018, 9266, 12335, 12420, 15182, 17597, 18834, 19870, 22030, 24205, 24936, 25584, 26906, 27027, 27161, 27638, 28839, 30790, 32595, 34014, 35507, 39050, 39550, 40337, 41022, 41487, 41620, 42070, 44406, 46358, 46431, 46525, 49513, 51281, 51414, 51966, 53277, 55836, 57419, 58609, 59041, 59430, 60442, 61464, 61529, 63265, 64565, 66367, 67622, 69572, 69634, 71209, 71380, 71471, 72606, 74037, 76044, 76251, 76631, 77244, 77346, 78079, 78630, 78684, 80207, 80587, 81889, 82367, 84000, 84866, 85185, 85242, 86141, 86496, 88457, 92812, 105241, 105844, 112433, 112691, 114074, 116056, 116818, 117762, 118793, 118847]}, "edge": {"target": [], "time": []}}}, "displayed_time": "131.29", "trialTime": 134074, "trial_type": "mouselab-mdp", "trial_index": 3, "time_elapsed": 481963, "internal_node_id": "0.0-2.0-2.0-0.0"}}, {"uniqueid": "w25690316:a33635169", "current_trial": 4, "dateTime": 1693565309173, "trialdata": {"revealed_states": [], "clicked_states": [], "num_clicks_accrued": [0, 0, 0, 0, 0, 0, 0, 0, 0, 0, 0, 0, 0], "stateRewards": ["", -10, -10, 10, 10, 10, 10, -10, 10, -10, 10, -10, 10, -10, 10, 10, -10, 10, -10, 10, 10, -10, 10, -10, 10, -10, -10, 10, -10, 10, 10, -10, -10, 10], "withholdReward": false, "trial_id": "practice_2", "block": "test", "trialIndex": 1, "score": 13.5, "costs": 0, "simulationMode": [null, null, null, null, null], "rewards": [10, -10, 10, 10, -10], "path": ["0", "0", "12", "13", "14", "19", "21"], "rt": [1947, 1150, 798, 706, 338], "actions": ["right", "right", "right", "down", "down"], "actionTimes": [11148, 12832, 14181, 15435, 16311], "queries": {"click": {"state": {"target": [], "time": []}, "edge": {"target": [], "time": []}}, "mouseover": {"state": {"target": [], "time": []}, "edge": {"target": [], "time": []}}, "mouseout": {"state": {"target": ["14", "0", "16"], "time": [7431, 22352, 22776]}, "edge": {"target": [], "time": []}}}, "displayed_time": "16.84", "trialTime": 25370, "trial_type": "mouselab-mdp", "trial_index": 4, "time_elapsed": 508261, "internal_node_id": "0.0-2.0-2.0-1.0"}}, {"uniqueid": "w25690316:a33635169", "current_trial": 5, "dateTime": 1693565342692, "trialdata": {"view_history": [{"page_index": 0, "viewing_time": 27233}, {"page_index": 1, "viewing_time": 6273}], "rt": 33507, "trial_id": "mouselab_instructions_2_misaligned", "trial_type": "instructions", "trial_index": 5, "time_elapsed": 541782, "internal_node_id": "0.0-2.0-3.0"}}, {"uniqueid": "w25690316:a33635169", "current_trial": 6, "dateTime": 1693565403565, "trialdata": {"rt": 60803, "response": {"Q0": "The cost for clicking on nodes may vary between nodes.", "Q1": "I will receive a $1 bonus if I perform well, otherwise I will receive no bonus.", "Q2": "No, the amount of cash at each node of the web may be different each time.", "Q3": "To click on the least number of nodes.", "Q4": "Any time during the round.", "Q5": "3 seconds"}, "question_order": [0, 1, 2, 3, 4, 5], "correct": {"Q0": "The cost for clicking on nodes may vary between nodes.", "Q1": "The better I perform the higher my bonus will be.", "Q2": "No, the amount of cash at each node of the web may be different each time.", "Q3": "To get the highest total score.", "Q4": "Only before moving the spider.", "Q5": "3 seconds"}, "trial_id": "mouselab_quiz_misaligned", "trial_type": "survey-multi-choice", "trial_index": 6, "time_elapsed": 602655, "internal_node_id": "0.0-2.0-4.0"}}, {"uniqueid": "w25690316:a33635169", "current_trial": 7, "dateTime": 1693565438299, "trialdata": {"success": true, "trial_type": "fullscreen", "trial_index": 7, "time_elapsed": 637389, "internal_node_id": "0.0-2.1-0.1-0.1"}}, {"uniqueid": "w25690316:a33635169", "current_trial": 8, "dateTime": 1693565529515, "trialdata": {"view_history": [{"page_index": 0, "viewing_time": 33306}, {"page_index": 1, "viewing_time": 19250}, {"page_index": 2, "viewing_time": 14565}, {"page_index": 3, "viewing_time": 24088}], "rt": 91210, "trial_id": "mouselab_instructions_1_misaligned", "trial_type": "instructions", "trial_index": 8, "time_elapsed": 728605, "internal_node_id": "0.0-2.1-1.1"}}, {"uniqueid": "w25690316:a33635169", "current_trial": 9, "dateTime": 1693565540325, "trialdata": {"revealed_states": [], "clicked_states": [], "num_clicks_accrued": [0, 0, 0, 0, 0, 0, 0, 0, 0, 0, 0, 0, 0], "stateRewards": ["", -10, 10, 10, 10, 10, 10, 10, 10, -10, -10, -10, -10, 10, -10, -10, -10, -10, 10, -10, -10, -10, -10, 10, 10, 10, -10, -10, -10, 10, 10, -10, -10, 10], "withholdReward": false, "trial_id": "practice_1", "block": "test", "trialIndex": 2, "score": -26.5, "costs": 0, "simulationMode": [null, null, null, null, null], "rewards": [-10, 10, -10, -10, -10], "path": ["0", "0", "12", "13", "14", "19", "21"], "rt": [395, 442, 190, 534, 80], "actions": ["right", "right", "right", "down", "down"], "actionTimes": [3082, 4064, 4795, 5877, 6504], "queries": {"click": {"state": {"target": [], "time": []}, "edge": {"target": [], "time": []}}, "mouseover": {"state": {"target": [], "time": []}, "edge": {"target": [], "time": []}}, "mouseout": {"state": {"target": ["0"], "time": [1379]}, "edge": {"target": [], "time": []}}}, "displayed_time": "7.03", "trialTime": 9855, "trial_type": "mouselab-mdp", "trial_index": 9, "time_elapsed": 739413, "internal_node_id": "0.0-2.1-2.1-0.1"}}, {"uniqueid": "w25690316:a33635169", "current_trial": 10, "dateTime": 1693565557794, "trialdata": {"revealed_states": [], "clicked_states": [], "num_clicks_accrued": [0, 0, 0, 0, 0, 0, 0, 0, 0, 0, 0, 0, 0], "stateRewards": ["", -10, -10, 10, 10, 10, 10, -10, 10, -10, 10, -10, 10, -10, 10, 10, -10, 10, -10, 10, 10, -10, 10, -10, 10, -10, -10, 10, -10, 10, 10, -10, -10, 10], "withholdReward": false, "trial_id": "practice_2", "block": "test", "trialIndex": 3, "score": 13.5, "costs": 0, "simulationMode": [null, null, null, null, null], "rewards": [-10, -10, 10, 10, 10], "path": ["0", "0", "1", "2", "3", "4", "6"], "rt": [3539, 194, 115, 537, 78], "actions": ["up", "up", "up", "right", "right"], "actionTimes": [9430, 10162, 10824, 11879, 12488], "queries": {"click": {"state": {"target": [], "time": []}, "edge": {"target": [], "time": []}}, "mouseover": {"state": {"target": [], "time": []}, "edge": {"target": [], "time": []}}, "mouseout": {"state": {"target": ["16", "0", "0"], "time": [4261, 6282, 14458]}, "edge": {"target": [], "time": []}}}, "displayed_time": "13.01", "trialTime": 16424, "trial_type": "mouselab-mdp", "trial_index": 10, "time_elapsed": 756882, "internal_node_id": "0.0-2.1-2.1-1.1"}}, {"uniqueid": "w25690316:a33635169", "current_trial": 11, "dateTime": 1693565583035, "trialdata": {"view_history": [{"page_index": 0, "viewing_time": 20796}, {"page_index": 1, "viewing_time": 4432}], "rt": 25229, "trial_id": "mouselab_instructions_2_misaligned", "trial_type": "instructions", "trial_index": 11, "time_elapsed": 782125, "internal_node_id": "0.0-2.1-3.1"}}, {"uniqueid": "w25690316:a33635169", "current_trial": 12, "dateTime": 1693565923898, "trialdata": {"rt": 340853, "response": {"Q0": "The cost for clicking on nodes may vary between nodes.", "Q1": "The better I perform the higher my bonus will be.", "Q2": "No, the amount of cash at each node of the web may be different each time.", "Q3": "To get the highest total score.", "Q4": "Any time during the round.", "Q5": "3 seconds"}, "question_order": [0, 1, 2, 3, 4, 5], "correct": {"Q0": "The cost for clicking on nodes may vary between nodes.", "Q1": "The better I perform the higher my bonus will be.", "Q2": "No, the amount of cash at each node of the web may be different each time.", "Q3": "To get the highest total score.", "Q4": "Only before moving the spider.", "Q5": "3 seconds"}, "trial_id": "mouselab_quiz_misaligned", "trial_type": "survey-multi-choice", "trial_index": 12, "time_elapsed": 1122988, "internal_node_id": "0.0-2.1-4.1"}}, {"uniqueid": "w25690316:a33635169", "current_trial": 13, "dateTime": 1693565941403, "trialdata": {"success": true, "trial_type": "fullscreen", "trial_index": 13, "time_elapsed": 1140492, "internal_node_id": "0.0-2.2-0.2-0.2"}}, {"uniqueid": "w25690316:a33635169", "current_trial": 14, "dateTime": 1693565953027, "trialdata": {"view_history": [{"page_index": 0, "viewing_time": 6140}, {"page_index": 1, "viewing_time": 197}, {"page_index": 2, "viewing_time": 2277}, {"page_index": 3, "viewing_time": 3001}], "rt": 11617, "trial_id": "mouselab_instructions_1_misaligned", "trial_type": "instructions", "trial_index": 14, "time_elapsed": 1152117, "internal_node_id": "0.0-2.2-1.2"}}, {"uniqueid": "w25690316:a33635169", "current_trial": 15, "dateTime": 1693565965344, "trialdata": {"revealed_states": [], "clicked_states": [], "num_clicks_accrued": [0, 0, 0, 0, 0, 0, 0, 0, 0, 0, 0, 0, 0], "stateRewards": ["", -10, 10, 10, 10, 10, 10, 10, 10, -10, -10, -10, -10, 10, -10, -10, -10, -10, 10, -10, -10, -10, -10, 10, 10, 10, -10, -10, -10, 10, 10, -10, -10, 10], "withholdReward": false, "trial_id": "practice_1", "block": "test", "trialIndex": 4, "score": -26.5, "costs": 0, "simulationMode": [null, null, null, null, null], "rewards": [-10, 10, -10, -10, -10], "path": ["0", "0", "12", "13", "14", "19", "21"], "rt": [1203, 62, 93, 592, 12], "actions": ["right", "right", "right", "down", "down"], "actionTimes": [5606, 6197, 6831, 7963, 8514], "queries": {"click": {"state": {"target": [], "time": []}, "edge": {"target": [], "time": []}}, "mouseover": {"state": {"target": [], "time": []}, "edge": {"target": [], "time": []}}, "mouseout": {"state": {"target": ["12", "18", "13", "2", "4", "7", "12", "0"], "time": [160, 260, 376, 576, 626, 2662, 3062, 3278]}, "edge": {"target": [], "time": []}}}, "displayed_time": "9.07", "trialTime": 11282, "trial_type": "mouselab-mdp", "trial_index": 15, "time_elapsed": 1164433, "internal_node_id": "0.0-2.2-2.2-0.2"}}], "questiondata": {"params": {"CODE": "C6DMOQA6", "MIN_TIME": 14, "inspectCost": 1, "startTime": "Fri Sep 01 2023 12:39:57 GMT+0200 (South Africa Standard Time)", "bonusRate": 0.002, "variance": "1_2_4_8_44", "branching": "31123"}}, "eventdata": [{"eventtype": "initialized", "value": null, "timestamp": 1693564796347, "interval": 0}, {"eventtype": "window_resize", "value": [1366, 676], "timestamp": 1693564796348, "interval": 1}, {"eventtype": "window_resize", "value": [1366, 676], "timestamp": 1693564797001, "interval": 653}, {"eventtype": "window_resize", "value": [1366, 768], "timestamp": 1693564807698, "interval": 10697}, {"eventtype": "focus", "value": "off", "timestamp": 1693565427334, "interval": 619636}, {"eventtype": "focus", "value": "on", "timestamp": 1693565427335, "interval": 1}, {"eventtype": "window_resize", "value": [1366, 676], "timestamp": 1693565427578, "interval": 243}, {"eventtype": "window_resize", "value": [1366, 768], "timestamp": 1693565437547, "interval": 9969}, {"eventtype": "focus", "value": "off", "timestamp": 1693565927181, "interval": 489634}, {"eventtype": "focus", "value": "on", "timestamp": 1693565927182, "interval": 1}, {"eventtype": "window_resize", "value": [1366, 676], "timestamp": 1693565927408, "interval": 226}, {"eventtype": "window_resize", "value": [1366, 768], "timestamp": 1693565940618, "interval": 13210}], "useragent": "Mozilla/5.0 (Windows NT 10.0; Win64; x64) AppleWebKit/537.36 (KHTML, like Gecko) Chrome/109.0.0.0 Safari/537.36", "mode": "live", "id": "w25690316:a33635169", "status": "user data saved", "Beginhit": "2023-09-01 10:39:51.901075", "Beginexp": "2023-09-01 10:40:09.326665", "Endhit": null, "psiturkStatus": 2, "browser": "<redacted>", "platform": "windows", "language": "en-US", "excludeReason": "quizfail"}