{"condition": 0, "counterbalance": 0, "assignmentId": "a47977141", "workerId": "w89459375", "hitId": "h89132213", "currenttrial": 68, "bonus": 0, "data": [{"uniqueid": "w89459375:a47977141", "current_trial": 0, "dateTime": 1693836559385, "trialdata": {"success": true, "trial_type": "fullscreen", "trial_index": 0, "time_elapsed": 2894, "internal_node_id": "0.0-0.0"}}, {"uniqueid": "w89459375:a47977141", "current_trial": 1, "dateTime": 1693836565305, "trialdata": {"view_history": [{"page_index": 0, "viewing_time": 5916}], "rt": 5917, "trial_id": "exp_instructions_misaligned", "trial_type": "instructions", "trial_index": 1, "time_elapsed": 8814, "internal_node_id": "0.0-1.0"}}, {"uniqueid": "w89459375:a47977141", "current_trial": 2, "dateTime": 1693836677036, "trialdata": {"view_history": [{"page_index": 0, "viewing_time": 49672}, {"page_index": 1, "viewing_time": 25559}, {"page_index": 2, "viewing_time": 24904}, {"page_index": 3, "viewing_time": 11592}], "rt": 111727, "trial_id": "mouselab_instructions_1_misaligned", "trial_type": "instructions", "trial_index": 2, "time_elapsed": 120545, "internal_node_id": "0.0-2.0-1.0"}}, {"uniqueid": "w89459375:a47977141", "current_trial": 3, "dateTime": 1693836699745, "trialdata": {"revealed_states": [], "clicked_states": ["1", "23", "12", "13", "14", "15", "17"], "num_clicks_accrued": [0, 0, 0, 0, 0, 0, 0, 0, 0, 0, 0, 0, 0], "stateRewards": ["", 10, 10, 10, 10, 10, -10, -10, -10, 10, -10, 10, -10, 10, 10, 10, -10, -10, -10, 10, 10, 10, 10, -10, 10, 10, -10, -10, 10, -10, -10, 10, -10, -10], "withholdReward": false, "trial_id": "practice_1", "block": "test", "trialIndex": 0, "score": 10, "costs": -3.5, "simulationMode": [null, null, null, null, null], "rewards": [-10, 10, 10, 10, -10], "path": ["0", "0", "12", "13", "14", "15", "17"], "rt": [15034, 285, 128, 103, 24], "actions": ["right", "right", "right", "up", "right"], "actionTimes": [17063, 17846, 18489, 19083, 19603], "queries": {"click": {"state": {"target": ["1", "23", "12", "13", "14", "15", "17"], "time": [3806, 5198, 6393, 7533, 8614, 10520, 11745]}, "edge": {"target": [], "time": []}}, "mouseover": {"state": {"target": ["1", "23", "0", "12", "13", "14", "15", "17", "14", "16", "13", "22"], "time": [3628, 4876, 6077, 6144, 7394, 8427, 10344, 11294, 13294, 13727, 14377, 14408]}, "edge": {"target": [], "time": []}}, "mouseout": {"state": {"target": ["12", "0", "1", "23", "0", "12", "13", "14", "15", "17", "14", "15", "16", "13", "22"], "time": [1043, 1835, 4812, 6027, 6127, 7194, 8327, 10244, 11277, 12327, 13361, 13527, 14294, 14392, 14425]}, "edge": {"target": [], "time": []}}}, "displayed_time": "20.11", "trialTime": 22464, "trial_type": "mouselab-mdp", "trial_index": 3, "time_elapsed": 143253, "internal_node_id": "0.0-2.0-2.0-0.0"}}, {"uniqueid": "w89459375:a47977141", "current_trial": 4, "dateTime": 1693836725827, "trialdata": {"revealed_states": [], "clicked_states": ["12", "13", "23", "24", "25", "26", "29", "30", "32"], "num_clicks_accrued": [0, 0, 0, 0, 0, 0, 0, 0, 0, 0, 0, 0, 0], "stateRewards": ["", -10, -10, 10, 10, 10, -10, 10, -10, -10, 10, -10, -10, -10, -10, 10, 10, -10, -10, -10, -10, 10, 10, -10, 10, -10, 10, -10, 10, -10, 10, 10, 10, 10], "withholdReward": false, "trial_id": "practice_2", "block": "test", "trialIndex": 1, "score": 9, "costs": -4.5, "simulationMode": [null, null, null, null, null], "rewards": [-10, 10, -10, 10, 10], "path": ["0", "0", "23", "24", "25", "30", "32"], "rt": [19346, 131, 109, 99, 115], "actions": ["left", "left", "left", "down", "down"], "actionTimes": [20932, 21570, 22197, 22789, 23420], "queries": {"click": {"state": {"target": ["12", "13", "23", "24", "25", "26", "29", "30", "32"], "time": [3242, 4775, 7010, 8606, 10427, 12309, 14163, 17074, 18891]}, "edge": {"target": [], "time": []}}, "mouseover": {"state": {"target": ["12", "13", "14", "0", "23", "24", "25", "30", "26", "29", "23", "0", "31", "30", "32", "32"], "time": [3156, 4554, 6419, 6620, 6839, 8455, 10172, 10922, 12054, 14005, 14438, 14473, 16222, 16455, 17555, 18654]}, "edge": {"target": [], "time": []}}, "mouseout": {"state": {"target": ["21", "22", "0", "12", "12", "13", "14", "13", "12", "0", "23", "24", "25", "25", "30", "25", "26", "26", "25", "25", "29", "23", "0", "31", "30", "30", "32", "32"], "time": [1003, 1154, 2922, 3722, 4489, 5239, 6485, 6554, 6587, 6772, 7772, 10105, 10540, 10872, 11989, 12021, 12391, 12505, 12572, 13805, 14372, 14456, 14872, 16355, 17197, 17505, 18105, 18980]}, "edge": {"target": [], "time": []}}}, "displayed_time": "23.94", "trialTime": 25975, "trial_type": "mouselab-mdp", "trial_index": 4, "time_elapsed": 169336, "internal_node_id": "0.0-2.0-2.0-1.0"}}, {"uniqueid": "w89459375:a47977141", "current_trial": 5, "dateTime": 1693836750085, "trialdata": {"view_history": [{"page_index": 0, "viewing_time": 20343}, {"page_index": 1, "viewing_time": 3912}], "rt": 24255, "trial_id": "mouselab_instructions_2_misaligned", "trial_type": "instructions", "trial_index": 5, "time_elapsed": 193594, "internal_node_id": "0.0-2.0-3.0"}}, {"uniqueid": "w89459375:a47977141", "current_trial": 6, "dateTime": 1693836853577, "trialdata": {"rt": 103485, "response": {"Q0": "The cost for clicking on nodes may vary between nodes.", "Q1": "The better I perform the higher my bonus will be.", "Q2": "No, the structure of the web will be different each time.", "Q3": "To get the highest total score.", "Q4": "Only before moving the spider.", "Q5": "3 seconds"}, "question_order": [0, 1, 2, 3, 4, 5], "correct": {"Q0": "The cost for clicking on nodes may vary between nodes.", "Q1": "The better I perform the higher my bonus will be.", "Q2": "No, the amount of cash at each node of the web may be different each time.", "Q3": "To get the highest total score.", "Q4": "Only before moving the spider.", "Q5": "3 seconds"}, "trial_id": "mouselab_quiz_misaligned", "trial_type": "survey-multi-choice", "trial_index": 6, "time_elapsed": 297085, "internal_node_id": "0.0-2.0-4.0"}}, {"uniqueid": "w89459375:a47977141", "current_trial": 7, "dateTime": 1693836857910, "trialdata": {"success": true, "trial_type": "fullscreen", "trial_index": 7, "time_elapsed": 301419, "internal_node_id": "0.0-2.1-0.1-0.1"}}, {"uniqueid": "w89459375:a47977141", "current_trial": 8, "dateTime": 1693836953336, "trialdata": {"view_history": [{"page_index": 0, "viewing_time": 41829}, {"page_index": 1, "viewing_time": 22696}, {"page_index": 2, "viewing_time": 10280}, {"page_index": 3, "viewing_time": 20616}], "rt": 95421, "trial_id": "mouselab_instructions_1_misaligned", "trial_type": "instructions", "trial_index": 8, "time_elapsed": 396845, "internal_node_id": "0.0-2.1-1.1"}}, {"uniqueid": "w89459375:a47977141", "current_trial": 9, "dateTime": 1693836979824, "trialdata": {"revealed_states": [], "clicked_states": ["1", "2", "3", "8", "9", "4", "6", "5"], "num_clicks_accrued": [0, 0, 0, 0, 0, 0, 0, 0, 0, 0, 0, 0, 0], "stateRewards": ["", 10, 10, 10, 10, 10, -10, -10, -10, 10, -10, 10, -10, 10, 10, 10, -10, -10, -10, 10, 10, 10, 10, -10, 10, 10, -10, -10, 10, -10, -10, 10, -10, -10], "withholdReward": false, "trial_id": "practice_1", "block": "test", "trialIndex": 2, "score": 49.5, "costs": -4, "simulationMode": [null, null, null, null, null], "rewards": [10, 10, 10, 10, 10], "path": ["0", "0", "1", "2", "3", "4", "5"], "rt": [16671, 101, 56, 1632, 712], "actions": ["up", "up", "up", "right", "up"], "actionTimes": [18045, 18635, 19187, 21330, 22543], "queries": {"click": {"state": {"target": ["1", "2", "3", "8", "9", "4", "6", "5"], "time": [3655, 5041, 6678, 8443, 10184, 12040, 13728, 15952]}, "edge": {"target": [], "time": []}}, "mouseover": {"state": {"target": ["1", "2", "3", "8", "9", "3", "4", "6", "15", "17", "5"], "time": [3498, 4882, 6528, 8248, 10080, 11262, 11914, 13602, 14347, 14397, 15748]}, "edge": {"target": [], "time": []}}, "mouseout": {"state": {"target": ["12", "0", "1", "2", "3", "8", "9", "8", "3", "4", "6", "15", "17", "5"], "time": [613, 3348, 4667, 6229, 8031, 9964, 10514, 11232, 11381, 12330, 14231, 14381, 14415, 16347]}, "edge": {"target": [], "time": []}}}, "displayed_time": "23.06", "trialTime": 26311, "trial_type": "mouselab-mdp", "trial_index": 9, "time_elapsed": 423332, "internal_node_id": "0.0-2.1-2.1-0.1"}}, {"uniqueid": "w89459375:a47977141", "current_trial": 10, "dateTime": 1693837013949, "trialdata": {"revealed_states": [], "clicked_states": ["23", "12", "1", "2", "3", "8", "13", "14", "15", "17", "19", "21"], "num_clicks_accrued": [0, 0, 0, 0, 0, 0, 0, 0, 0, 0, 0, 0, 0], "stateRewards": ["", -10, -10, 10, 10, 10, -10, 10, -10, -10, 10, -10, -10, -10, -10, 10, 10, -10, -10, -10, -10, 10, 10, -10, 10, -10, 10, -10, 10, -10, 10, 10, 10, 10], "withholdReward": false, "trial_id": "practice_2", "block": "test", "trialIndex": 3, "score": -32.5, "costs": -6, "simulationMode": [null, null, null, null, null], "rewards": [-10, -10, -10, -10, 10], "path": ["0", "0", "12", "13", "14", "19", "21"], "rt": [24763, 314, 125, 464, 12], "actions": ["right", "right", "right", "down", "down"], "actionTimes": [28572, 29394, 30019, 30994, 31521], "queries": {"click": {"state": {"target": ["23", "12", "1", "2", "3", "8", "13", "14", "15", "17", "19", "21"], "time": [5396, 7363, 9094, 10825, 12456, 14199, 17415, 19027, 20759, 22170, 24763, 26225]}, "edge": {"target": [], "time": []}}, "mouseover": {"state": {"target": ["23", "24", "0", "12", "1", "13", "2", "3", "8", "11", "12", "12", "13", "14", "15", "17", "19", "21", "20"], "time": [4925, 6559, 7006, 7225, 8942, 9442, 10708, 12293, 13991, 15808, 16659, 16859, 17258, 18875, 20607, 21808, 24660, 25576, 27460]}, "edge": {"target": [], "time": []}}, "mouseout": {"state": {"target": ["16", "12", "0", "23", "24", "23", "0", "12", "12", "1", "13", "2", "3", "8", "11", "8", "12", "12", "13", "14", "14", "15", "15", "17", "19", "21", "20"], "time": [2957, 3258, 4827, 6408, 6942, 6990, 7058, 7625, 8792, 9325, 10375, 12142, 13925, 15724, 16042, 16092, 16708, 17192, 18775, 20342, 20558, 20867, 21660, 22313, 25476, 26443, 27743]}, "edge": {"target": [], "time": []}}}, "displayed_time": "32.03", "trialTime": 33998, "trial_type": "mouselab-mdp", "trial_index": 10, "time_elapsed": 457458, "internal_node_id": "0.0-2.1-2.1-1.1"}}, {"uniqueid": "w89459375:a47977141", "current_trial": 11, "dateTime": 1693837038881, "trialdata": {"view_history": [{"page_index": 0, "viewing_time": 22601}, {"page_index": 1, "viewing_time": 2328}], "rt": 24930, "trial_id": "mouselab_instructions_2_misaligned", "trial_type": "instructions", "trial_index": 11, "time_elapsed": 482390, "internal_node_id": "0.0-2.1-3.1"}}, {"uniqueid": "w89459375:a47977141", "current_trial": 12, "dateTime": 1693837065395, "trialdata": {"rt": 26509, "response": {"Q0": "The cost for clicking on nodes may vary between nodes.", "Q1": "The better I perform the higher my bonus will be.", "Q2": "No, the structure of the web will be different each time.", "Q3": "To get the highest total score.", "Q4": "Only before moving the spider.", "Q5": "3 seconds"}, "question_order": [0, 1, 2, 3, 4, 5], "correct": {"Q0": "The cost for clicking on nodes may vary between nodes.", "Q1": "The better I perform the higher my bonus will be.", "Q2": "No, the amount of cash at each node of the web may be different each time.", "Q3": "To get the highest total score.", "Q4": "Only before moving the spider.", "Q5": "3 seconds"}, "trial_id": "mouselab_quiz_misaligned", "trial_type": "survey-multi-choice", "trial_index": 12, "time_elapsed": 508904, "internal_node_id": "0.0-2.1-4.1"}}, {"uniqueid": "w89459375:a47977141", "current_trial": 13, "dateTime": 1693837069363, "trialdata": {"success": true, "trial_type": "fullscreen", "trial_index": 13, "time_elapsed": 512872, "internal_node_id": "0.0-2.2-0.2-0.2"}}, {"uniqueid": "w89459375:a47977141", "current_trial": 14, "dateTime": 1693837142513, "trialdata": {"view_history": [{"page_index": 0, "viewing_time": 52634}, {"page_index": 1, "viewing_time": 7912}, {"page_index": 2, "viewing_time": 6184}, {"page_index": 3, "viewing_time": 6416}], "rt": 73146, "trial_id": "mouselab_instructions_1_misaligned", "trial_type": "instructions", "trial_index": 14, "time_elapsed": 586022, "internal_node_id": "0.0-2.2-1.2"}}, {"uniqueid": "w89459375:a47977141", "current_trial": 15, "dateTime": 1693837166689, "trialdata": {"revealed_states": [], "clicked_states": ["23", "24", "25", "30", "26", "29", "27", "28"], "num_clicks_accrued": [0, 0, 0, 0, 0, 0, 0, 0, 0, 0, 0, 0, 0], "stateRewards": ["", 10, 10, 10, 10, 10, -10, -10, -10, 10, -10, 10, -10, 10, 10, 10, -10, -10, -10, 10, 10, 10, 10, -10, 10, 10, -10, -10, 10, -10, -10, 10, -10, -10], "withholdReward": false, "trial_id": "practice_1", "block": "test", "trialIndex": 4, "score": 9.5, "costs": -4, "simulationMode": [null, null, null, null, null], "rewards": [-10, 10, 10, -10, 10], "path": ["0", "0", "23", "24", "25", "26", "28"], "rt": [16990, 57, 60, 1137, 8], "actions": ["left", "left", "left", "up", "right"], "actionTimes": [18395, 18944, 19510, 21156, 21677], "queries": {"click": {"state": {"target": ["23", "24", "25", "30", "26", "29", "27", "28"], "time": [2534, 4033, 5910, 7636, 9607, 11438, 14190, 16231]}, "edge": {"target": [], "time": []}}, "mouseover": {"state": {"target": ["23", "24", "25", "30", "26", "25", "29", "28", "27", "27", "18", "15", "18", "28", "12", "13", "14"], "time": [2217, 3785, 5735, 7434, 9401, 10018, 11301, 11835, 13718, 14102, 14451, 14486, 15732, 15850, 16586, 16606, 16637]}, "edge": {"target": [], "time": []}}, "mouseout": {"state": {"target": ["0", "0", "23", "24", "25", "30", "30", "25", "26", "25", "29", "26", "28", "27", "27", "18", "15", "18", "28", "12", "13"], "time": [701, 2118, 3685, 5568, 7369, 7736, 9299, 9351, 9968, 11120, 11751, 11818, 11868, 13750, 14313, 14468, 15717, 15766, 16522, 16603, 16620]}, "edge": {"target": [], "time": []}}}, "displayed_time": "22.18", "trialTime": 24027, "trial_type": "mouselab-mdp", "trial_index": 15, "time_elapsed": 610197, "internal_node_id": "0.0-2.2-2.2-0.2"}}, {"uniqueid": "w89459375:a47977141", "current_trial": 16, "dateTime": 1693837192929, "trialdata": {"revealed_states": [], "clicked_states": ["12", "1", "23", "2", "3", "8", "4", "5"], "num_clicks_accrued": [0, 0, 0, 0, 0, 0, 0, 0, 0, 0, 0, 0, 0], "stateRewards": ["", -10, -10, 10, 10, 10, -10, 10, -10, -10, 10, -10, -10, -10, -10, 10, 10, -10, -10, -10, -10, 10, 10, -10, 10, -10, 10, -10, 10, -10, 10, 10, 10, 10], "withholdReward": false, "trial_id": "practice_2", "block": "test", "trialIndex": 5, "score": 9.5, "costs": -4, "simulationMode": [null, null, null, null, null], "rewards": [-10, -10, 10, 10, 10], "path": ["0", "0", "1", "2", "3", "4", "5"], "rt": [20547, 124, 110, 73, 136], "actions": ["up", "up", "up", "right", "up"], "actionTimes": [21769, 22403, 23022, 23616, 24250], "queries": {"click": {"state": {"target": ["12", "1", "23", "2", "3", "8", "4", "5"], "time": [4981, 8004, 10051, 12190, 14286, 16112, 18608, 20318]}, "edge": {"target": [], "time": []}}, "mouseover": {"state": {"target": ["12", "13", "1", "0", "23", "2", "3", "8", "9", "5", "4", "6", "5"], "time": [2491, 7041, 7775, 8325, 9775, 12024, 14107, 15925, 17691, 18109, 18491, 19009, 20075]}, "edge": {"target": [], "time": []}}, "mouseout": {"state": {"target": ["14", "22", "0", "12", "13", "12", "1", "0", "23", "2", "3", "8", "9", "5", "4", "6", "5"], "time": [591, 673, 2359, 6908, 7225, 7291, 8274, 8358, 10441, 13585, 15840, 17541, 18041, 18409, 18641, 19942, 20539]}, "edge": {"target": [], "time": []}}}, "displayed_time": "24.75", "trialTime": 26107, "trial_type": "mouselab-mdp", "trial_index": 16, "time_elapsed": 636437, "internal_node_id": "0.0-2.2-2.2-1.2"}}, {"uniqueid": "w89459375:a47977141", "current_trial": 17, "dateTime": 1693837217986, "trialdata": {"view_history": [{"page_index": 0, "viewing_time": 21773}, {"page_index": 1, "viewing_time": 3280}], "rt": 25053, "trial_id": "mouselab_instructions_2_misaligned", "trial_type": "instructions", "trial_index": 17, "time_elapsed": 661495, "internal_node_id": "0.0-2.2-3.2"}}, {"uniqueid": "w89459375:a47977141", "current_trial": 18, "dateTime": 1693837278939, "trialdata": {"rt": 60949, "response": {"Q0": "The cost for clicking on nodes may vary between nodes.", "Q1": "The better I perform the higher my bonus will be.", "Q2": "No, the amount of cash at each node of the web may be different each time.", "Q3": "To get the highest total score.", "Q4": "Only before moving the spider.", "Q5": "3 seconds"}, "question_order": [0, 1, 2, 3, 4, 5], "correct": {"Q0": "The cost for clicking on nodes may vary between nodes.", "Q1": "The better I perform the higher my bonus will be.", "Q2": "No, the amount of cash at each node of the web may be different each time.", "Q3": "To get the highest total score.", "Q4": "Only before moving the spider.", "Q5": "3 seconds"}, "trial_id": "mouselab_quiz_misaligned", "trial_type": "survey-multi-choice", "trial_index": 18, "time_elapsed": 722448, "internal_node_id": "0.0-2.2-4.2"}}, {"uniqueid": "w89459375:a47977141", "current_trial": 19, "dateTime": 1693837282682, "trialdata": {"rt": 3736, "response": {"Q0": "No"}, "question_order": [0], "trial_id": "repeat_check", "trial_type": "survey-multi-choice", "trial_index": 19, "time_elapsed": 726191, "internal_node_id": "0.0-4.0-0.0"}}, {"uniqueid": "w89459375:a47977141", "current_trial": 20, "dateTime": 1693837287178, "trialdata": {"rt": 4490, "stimulus": "\n<h1> Get ready to start the game! </h1>\n\nThank you for reading the instructions. Get ready start with the 40 rounds of this game.\n<br><br>\nIf you need to take a break, feel free to take one after the end of a round, before continuing to the next one.\n<br><br>\nRemember, the more money the spider gets, the bigger your bonus will be!\n<br><br>\n<div style='text-align: center;'>Press <code>space</code> to begin.</div>\n\n<br><br>\n(If, at any point, the <code>space</code> key does not take you to the next page, click once on the text and try again.)", "response": " ", "trial_id": "mdp_ready", "trial_type": "html-keyboard-response", "trial_index": 20, "time_elapsed": 730687, "internal_node_id": "0.0-6.0-0.0"}}, {"uniqueid": "w89459375:a47977141", "current_trial": 21, "dateTime": 1693837310960, "trialdata": {"revealed_states": [], "clicked_states": ["23", "24", "25", "12", "13", "14", "15", "16", "17"], "num_clicks_accrued": [0, 0, 0, 0, 0, 0, 0, 0, 0, 0, 0, 0, 0], "stateRewards": ["", -1, -2, 8, -6, -79, -6, 87, 9, -5, -66, -38, 2, 2, 5, -6, -82, 74, 85, -8, 67, -30, -15, 1, -2, -2, -2, 87, 64, 49, 7, 2, -38, -9], "withholdReward": false, "trial_id": "mdp_trial_1", "block": "test", "trialIndex": 6, "score": 69.05, "costs": -7.949999999999999, "simulationMode": [null, null, null, null, null, null], "rewards": [2, 2, 5, -6, 74], "path": ["0", "0", "12", "13", "14", "15", "17"], "rt": [16064, 816, 322, 263, 147, 93], "actions": ["right", "right", "right", "right", "up", "right"], "actionTimes": [18378, 19195, 20048, 20803, 21452, 22063], "queries": {"click": {"state": {"target": ["23", "24", "25", "12", "13", "14", "15", "16", "17"], "time": [3471, 4775, 6333, 7567, 8705, 9754, 11500, 12870, 16521]}, "edge": {"target": [], "time": []}}, "mouseover": {"state": {"target": ["23", "24", "25", "23", "0", "12", "13", "14", "15", "16", "17", "17", "17", "17"], "time": [3169, 4535, 5986, 7140, 7188, 7387, 8456, 9556, 11321, 12753, 13889, 14707, 15343, 16371]}, "edge": {"target": [], "time": []}}, "mouseout": {"state": {"target": ["0", "23", "24", "25", "24", "23", "0", "12", "13", "14", "15", "16", "17", "17", "17", "17"], "time": [3137, 3986, 5621, 7072, 7122, 7155, 7272, 8355, 9405, 11153, 12587, 13572, 14373, 15190, 15790, 16640]}, "edge": {"target": [], "time": []}}}, "displayed_time": "22.56", "trialTime": 23633, "trial_type": "mouselab-mdp", "trial_index": 21, "time_elapsed": 754468, "internal_node_id": "0.0-6.0-1.0-0.0"}}, {"uniqueid": "w89459375:a47977141", "current_trial": 22, "dateTime": 1693837341026, "trialdata": {"revealed_states": [], "clicked_states": ["1", "2", "3", "4", "5", "8", "9", "23", "24", "25", "30", "33", "26", "29"], "num_clicks_accrued": [0, 0, 0, 0, 0, 0, 0, 0, 0, 0, 0, 0, 0], "stateRewards": ["", -1, -1, 4, -16, -75, 81, -51, -7, -84, 73, -30, -2, 1, -3, -16, -77, 33, 14, 1, 45, 87, -66, 2, 2, -5, -7, -19, -17, 79, -3, 8, 49, 47], "withholdReward": false, "trial_id": "mdp_trial_2", "block": "test", "trialIndex": 7, "score": 26.1, "costs": -16.9, "simulationMode": [null, null, null, null, null, null], "rewards": [2, 2, -5, -3, 47], "path": ["0", "0", "23", "24", "25", "30", "33"], "rt": [24190, 529, 141, 91, 43, 412], "actions": ["left", "left", "left", "left", "down", "left"], "actionTimes": [25035, 25566, 26218, 26834, 27371, 28292], "queries": {"click": {"state": {"target": ["1", "2", "3", "4", "5", "8", "9", "23", "24", "25", "30", "33", "26", "29"], "time": [1612, 2821, 3901, 5322, 6837, 10660, 11671, 16132, 17318, 18593, 19337, 20334, 23098, 23738]}, "edge": {"target": [], "time": []}}, "mouseover": {"state": {"target": ["1", "2", "3", "4", "5", "3", "8", "9", "10", "10", "8", "8", "10", "2", "1", "23", "24", "25", "30", "33", "31", "26", "29", "28"], "time": [1542, 2692, 3776, 5175, 6726, 8444, 8728, 11476, 13076, 13676, 13709, 14276, 14309, 14457, 14776, 15959, 17159, 18259, 19059, 20110, 20859, 21242, 23576, 23978]}, "edge": {"target": [], "time": []}}, "mouseout": {"state": {"target": ["14", "12", "0", "1", "2", "3", "4", "5", "4", "3", "8", "9", "8", "9", "8", "10", "10", "8", "9", "8", "10", "2", "1", "23", "23", "24", "25", "30", "33", "30", "31", "26", "29", "26", "28"], "time": [359, 558, 1442, 2576, 3609, 5042, 6608, 7644, 7760, 8561, 11359, 12242, 12443, 13009, 13059, 13126, 13694, 13726, 14243, 14293, 14431, 14474, 15643, 16141, 17043, 18109, 19009, 19976, 20709, 20809, 21076, 23342, 23926, 23959, 23993]}, "edge": {"target": [], "time": []}}}, "displayed_time": "28.79", "trialTime": 29920, "trial_type": "mouselab-mdp", "trial_index": 22, "time_elapsed": 784534, "internal_node_id": "0.0-6.0-1.0-1.0"}}, {"uniqueid": "w89459375:a47977141", "current_trial": 23, "dateTime": 1693837366274, "trialdata": {"revealed_states": [], "clicked_states": ["1", "2", "3", "4", "5", "6", "8", "11"], "num_clicks_accrued": [0, 0, 0, 0, 0, 0, 0, 0, 0, 0, 0, 0, 0], "stateRewards": ["", 1, 4, 5, -5, 58, -80, 75, 6, 25, -39, 46, 2, -2, 4, 2, 59, 31, -22, -12, -61, 15, 72, 1, -2, -7, 8, 77, 76, -23, -7, 71, -15, -3], "withholdReward": false, "trial_id": "mdp_trial_3", "block": "test", "trialIndex": 8, "score": 52.4, "costs": -10.600000000000001, "simulationMode": [null, null, null, null, null], "rewards": [1, 4, 5, -5, 58], "path": ["0", "0", "1", "2", "3", "4", "5"], "rt": [18668, 87, 46, 540, 278], "actions": ["up", "up", "up", "right", "up"], "actionTimes": [20456, 21053, 21613, 22689, 23460], "queries": {"click": {"state": {"target": ["1", "2", "3", "4", "5", "6", "8", "11"], "time": [2438, 3609, 4829, 5848, 7047, 10821, 14440, 16090]}, "edge": {"target": [], "time": []}}, "mouseover": {"state": {"target": ["1", "2", "3", "4", "5", "6", "6", "6", "2", "3", "8", "11", "10", "10", "3", "5"], "time": [2314, 3482, 4681, 5665, 6848, 8301, 9083, 10682, 11849, 12081, 12165, 15419, 17150, 19429, 19479, 19562]}, "edge": {"target": [], "time": []}}, "mouseout": {"state": {"target": ["23", "0", "1", "1", "2", "3", "4", "5", "4", "6", "6", "6", "2", "3", "8", "11", "8", "10", "10", "3", "5"], "time": [1347, 1680, 2618, 3299, 4500, 5581, 6714, 7484, 8069, 8750, 9650, 11015, 11915, 12098, 15001, 16751, 16800, 17184, 19446, 19495, 19746]}, "edge": {"target": [], "time": []}}}, "displayed_time": "23.97", "trialTime": 25109, "trial_type": "mouselab-mdp", "trial_index": 23, "time_elapsed": 809783, "internal_node_id": "0.0-6.0-1.0-2.0"}}, {"uniqueid": "w89459375:a47977141", "current_trial": 24, "dateTime": 1693837388623, "trialdata": {"revealed_states": [], "clicked_states": ["23", "24", "25", "30", "33", "26", "29"], "num_clicks_accrued": [0, 0, 0, 0, 0, 0, 0, 0, 0, 0, 0, 0, 0], "stateRewards": ["", -2, 2, 3, -7, 76, 63, 21, 15, 35, -8, -44, 1, 1, -2, -12, 23, 24, 76, -9, 46, 66, -49, -2, -1, 7, 12, 40, -71, -45, -6, 38, -49, 46], "withholdReward": false, "trial_id": "mdp_trial_4", "block": "test", "trialIndex": 9, "score": 35.55, "costs": -8.45, "simulationMode": [null, null, null, null, null], "rewards": [-2, -1, 7, -6, 46], "path": ["0", "0", "23", "24", "25", "30", "33"], "rt": [16615, 210, 145, 117, 124], "actions": ["left", "left", "left", "down", "left"], "actionTimes": [18318, 19025, 19660, 20280, 20920], "queries": {"click": {"state": {"target": ["23", "24", "25", "30", "33", "26", "29"], "time": [2877, 4316, 5763, 7128, 8381, 11953, 14108]}, "edge": {"target": [], "time": []}}, "mouseover": {"state": {"target": ["0", "23", "24", "25", "30", "33", "25", "26", "29", "25", "31"], "time": [2512, 2661, 3929, 5396, 6796, 8128, 8846, 9096, 12813, 14647, 14814]}, "edge": {"target": [], "time": []}}, "mouseout": {"state": {"target": ["4", "7", "0", "0", "0", "23", "24", "25", "30", "33", "25", "26", "29", "25", "31"], "time": [862, 1045, 1145, 2344, 2596, 3854, 5246, 6664, 7945, 8696, 8862, 12613, 14581, 14764, 14847]}, "edge": {"target": [], "time": []}}}, "displayed_time": "21.43", "trialTime": 22205, "trial_type": "mouselab-mdp", "trial_index": 24, "time_elapsed": 832131, "internal_node_id": "0.0-6.0-1.0-3.0"}}, {"uniqueid": "w89459375:a47977141", "current_trial": 25, "dateTime": 1693837404970, "trialdata": {"revealed_states": [], "clicked_states": ["12"], "num_clicks_accrued": [0, 0, 0, 0, 0, 0, 0, 0, 0, 0, 0, 0, 0], "stateRewards": ["", 1, 1, 1, -3, -7, -1, -41, -10, 20, -72, -63, 1, -4, -2, 2, -66, 30, -84, -2, 49, 23, 71, -1, -4, 4, -12, 67, 5, 18, -16, 88, 56, -5], "withholdReward": false, "trial_id": "mdp_trial_5", "block": "test", "trialIndex": 10, "score": 27.25, "costs": 0.25, "simulationMode": [null, null, null, null, null], "rewards": [1, -4, -2, 2, 30], "path": ["0", "0", "12", "13", "14", "15", "17"], "rt": [7429, 395, 244, 196, 90], "actions": ["right", "right", "right", "up", "right"], "actionTimes": [8725, 9631, 10367, 11066, 11659], "queries": {"click": {"state": {"target": ["12"], "time": [2323]}, "edge": {"target": [], "time": []}}, "mouseover": {"state": {"target": ["12", "0", "13", "22"], "time": [2168, 3383, 5318, 5701]}, "edge": {"target": [], "time": []}}, "mouseout": {"state": {"target": ["22", "0", "12", "12", "0", "12", "13", "22"], "time": [801, 2118, 2420, 3335, 4800, 5236, 5652, 7419]}, "edge": {"target": [], "time": []}}}, "displayed_time": "15.30", "trialTime": 16208, "trial_type": "mouselab-mdp", "trial_index": 25, "time_elapsed": 848478, "internal_node_id": "0.0-6.0-1.0-4.0"}}, {"uniqueid": "w89459375:a47977141", "current_trial": 26, "dateTime": 1693837429847, "trialdata": {"revealed_states": [], "clicked_states": ["23", "24", "25", "30", "32", "31", "33"], "num_clicks_accrued": [0, 0, 0, 0, 0, 0, 0, 0, 0, 0, 0, 0, 0], "stateRewards": ["", 1, -1, 8, 4, 76, -33, -17, -3, -1, -54, -74, -2, 2, -5, 13, -51, 63, 83, 1, 84, 29, -36, 2, -1, 7, -12, -10, -44, -43, -14, 8, -69, 19], "withholdReward": false, "trial_id": "mdp_trial_6", "block": "test", "trialIndex": 11, "score": 3.9499999999999993, "costs": -9.05, "simulationMode": [null, null, null, null, null], "rewards": [2, -1, 7, -14, 19], "path": ["0", "0", "23", "24", "25", "30", "33"], "rt": [17018, 237, 98, 79, 8], "actions": ["left", "left", "left", "down", "left"], "actionTimes": [18405, 19162, 19772, 20354, 20882], "queries": {"click": {"state": {"target": ["23", "24", "25", "30", "32", "31", "33"], "time": [2738, 4097, 5402, 6648, 7905, 11615, 15192]}, "edge": {"target": [], "time": []}}, "mouseover": {"state": {"target": ["23", "24", "25", "30", "32", "31", "33", "30"], "time": [2589, 3839, 5206, 6454, 7623, 9258, 12289, 15923]}, "edge": {"target": [], "time": []}}, "mouseout": {"state": {"target": ["0", "23", "24", "25", "30", "32", "31", "31", "32", "33", "30", "31"], "time": [2405, 3539, 4891, 6308, 7539, 9108, 11729, 11838, 11972, 15906, 15939, 15956]}, "edge": {"target": [], "time": []}}}, "displayed_time": "21.41", "trialTime": 24739, "trial_type": "mouselab-mdp", "trial_index": 26, "time_elapsed": 873355, "internal_node_id": "0.0-6.0-1.0-5.0"}}, {"uniqueid": "w89459375:a47977141", "current_trial": 27, "dateTime": 1693837445837, "trialdata": {"revealed_states": [], "clicked_states": ["12", "13", "14", "19", "21"], "num_clicks_accrued": [0, 0, 0, 0, 0, 0, 0, 0, 0, 0, 0, 0, 0], "stateRewards": ["", -1, -3, 4, -10, -5, 79, -87, -2, 53, 29, -20, -2, -1, -5, 10, 27, 86, 46, -16, -29, 40, 3, 2, 4, -1, -6, 37, 79, -29, 7, 86, -62, 29], "withholdReward": false, "trial_id": "mdp_trial_7", "block": "test", "trialIndex": 12, "score": 11.25, "costs": -4.75, "simulationMode": [null, null, null, null, null], "rewards": [-2, -1, -5, -16, 40], "path": ["0", "0", "12", "13", "14", "19", "21"], "rt": [9774, 153, 27, 493, 90], "actions": ["right", "right", "right", "down", "down"], "actionTimes": [10732, 11398, 11936, 12937, 13517], "queries": {"click": {"state": {"target": ["12", "13", "14", "19", "21"], "time": [1711, 2982, 4280, 5522, 6526]}, "edge": {"target": [], "time": []}}, "mouseover": {"state": {"target": ["12", "13", "14", "19", "21", "15"], "time": [1557, 2742, 4125, 5258, 6328, 7243]}, "edge": {"target": [], "time": []}}, "mouseout": {"state": {"target": ["0", "12", "13", "14", "19", "21", "19", "14"], "time": [1507, 2674, 3942, 5175, 6260, 7027, 7076, 7160]}, "edge": {"target": [], "time": []}}}, "displayed_time": "14.96", "trialTime": 15830, "trial_type": "mouselab-mdp", "trial_index": 27, "time_elapsed": 889345, "internal_node_id": "0.0-6.0-1.0-6.0"}}, {"uniqueid": "w89459375:a47977141", "current_trial": 28, "dateTime": 1693837470625, "trialdata": {"revealed_states": [], "clicked_states": ["1", "2", "3", "4", "7", "8", "10", "11"], "num_clicks_accrued": [0, 0, 0, 0, 0, 0, 0, 0, 0, 0, 0, 0, 0], "stateRewards": ["", 1, -2, -8, -3, 31, -84, -55, -14, 15, -58, 17, -2, -3, 7, 7, -12, 48, 67, 4, -44, -68, 46, 2, 3, -5, -7, 76, 27, 5, 11, 57, 52, 59], "withholdReward": false, "trial_id": "mdp_trial_8", "block": "test", "trialIndex": 13, "score": -16.6, "costs": -10.6, "simulationMode": [null, null, null, null, null], "rewards": [1, -2, -8, -14, 17], "path": ["0", "0", "1", "2", "3", "8", "11"], "rt": [18872, 245, 187, 136, 149], "actions": ["up", "up", "up", "left", "left"], "actionTimes": [19844, 20615, 21291, 21940, 22602], "queries": {"click": {"state": {"target": ["1", "2", "3", "4", "7", "8", "10", "11"], "time": [1997, 3347, 4523, 5642, 6752, 10505, 11908, 15081]}, "edge": {"target": [], "time": []}}, "mouseover": {"state": {"target": ["1", "2", "3", "4", "7", "8", "10", "11", "8", "3", "4", "6"], "time": [1719, 3119, 4287, 5453, 6519, 7636, 11270, 12636, 15538, 15572, 15621, 15988]}, "edge": {"target": [], "time": []}}, "mouseout": {"state": {"target": ["15", "18", "0", "1", "2", "3", "4", "7", "8", "10", "11", "8", "3", "4"], "time": [452, 501, 1553, 2952, 4137, 5319, 6436, 7253, 11186, 12569, 15522, 15555, 15588, 15755]}, "edge": {"target": [], "time": []}}}, "displayed_time": "23.12", "trialTime": 24646, "trial_type": "mouselab-mdp", "trial_index": 28, "time_elapsed": 914133, "internal_node_id": "0.0-6.0-1.0-7.0"}}, {"uniqueid": "w89459375:a47977141", "current_trial": 29, "dateTime": 1693837492457, "trialdata": {"revealed_states": [], "clicked_states": ["23", "24", "25", "26", "29", "30", "32"], "num_clicks_accrued": [0, 0, 0, 0, 0, 0, 0, 0, 0, 0, 0, 0, 0], "stateRewards": ["", 1, -2, -8, -13, 4, 34, -84, -4, -49, 88, -70, -1, 3, -4, 10, -77, 13, -34, 15, -21, -16, 27, 1, -2, 8, -8, -6, 38, -26, 6, -15, 66, -3], "withholdReward": false, "trial_id": "mdp_trial_9", "block": "test", "trialIndex": 14, "score": 70.55, "costs": -8.45, "simulationMode": [null, null, null, null, null], "rewards": [1, -2, 8, 6, 66], "path": ["0", "0", "23", "24", "25", "30", "32"], "rt": [13897, 38, 745, 414, 183], "actions": ["left", "left", "left", "down", "down"], "actionTimes": [15477, 16026, 17295, 18202, 18886], "queries": {"click": {"state": {"target": ["23", "24", "25", "26", "29", "30", "32"], "time": [2160, 3139, 4076, 4967, 5810, 9530, 11230]}, "edge": {"target": [], "time": []}}, "mouseover": {"state": {"target": ["23", "24", "25", "26", "29", "30", "25", "25", "30", "32"], "time": [2068, 2970, 3903, 4803, 5670, 6720, 9050, 9235, 9283, 10867]}, "edge": {"target": [], "time": []}}, "mouseout": {"state": {"target": ["6", "0", "23", "24", "25", "26", "29", "25", "30", "25", "25", "30", "30", "30", "32"], "time": [952, 2019, 2837, 3770, 4605, 5554, 6104, 6621, 9017, 9083, 9267, 9609, 9737, 10819, 11804]}, "edge": {"target": [], "time": []}}}, "displayed_time": "19.39", "trialTime": 21675, "trial_type": "mouselab-mdp", "trial_index": 29, "time_elapsed": 935964, "internal_node_id": "0.0-6.0-1.0-8.0"}}, {"uniqueid": "w89459375:a47977141", "current_trial": 30, "dateTime": 1693837528171, "trialdata": {"revealed_states": [], "clicked_states": ["1", "2", "3", "12", "13", "23", "24", "25", "30", "31", "32", "33", "26", "28"], "num_clicks_accrued": [0, 0, 0, 0, 0, 0, 0, 0, 0, 0, 0, 0, 0], "stateRewards": ["", -2, -3, -7, 7, -54, -69, -4, -14, -77, 22, 40, -2, -1, 5, 6, -35, 50, -60, 10, -28, 75, 57, 1, -4, -2, 2, 68, 34, -18, 12, 3, -21, -43], "withholdReward": false, "trial_id": "mdp_trial_10", "block": "test", "trialIndex": 15, "score": 17.099999999999998, "costs": -13.900000000000002, "simulationMode": [null, null, null, null, null], "rewards": [1, -4, -2, 2, 34], "path": ["0", "0", "23", "24", "25", "26", "28"], "rt": [29353, 328, 234, 156, 166], "actions": ["left", "left", "left", "up", "right"], "actionTimes": [30805, 31636, 32389, 33063, 33743], "queries": {"click": {"state": {"target": ["1", "2", "3", "12", "13", "23", "24", "25", "30", "31", "32", "33", "26", "28"], "time": [2030, 3647, 4917, 6125, 7432, 9247, 10744, 12020, 13652, 14783, 18031, 21270, 24864, 26420]}, "edge": {"target": [], "time": []}}, "mouseover": {"state": {"target": ["1", "0", "2", "3", "12", "13", "14", "0", "23", "24", "25", "30", "31", "32", "33", "25", "26", "28", "29", "31"], "time": [1906, 2607, 3388, 4739, 5956, 7276, 8540, 8856, 9073, 10123, 11742, 12740, 14559, 16008, 18492, 24478, 24738, 26207, 27557, 29840]}, "edge": {"target": [], "time": []}}, "mouseout": {"state": {"target": ["12", "0", "1", "1", "0", "1", "2", "3", "12", "13", "14", "13", "12", "0", "23", "24", "25", "30", "31", "32", "33", "25", "26", "28", "26", "29", "31"], "time": [623, 1488, 2126, 2573, 2640, 3357, 3749, 5626, 7207, 8457, 8789, 8822, 8855, 8956, 9957, 11257, 12673, 14442, 15009, 18391, 22508, 24588, 26123, 27273, 27440, 29724, 29855]}, "edge": {"target": [], "time": []}}}, "displayed_time": "34.24", "trialTime": 35561, "trial_type": "mouselab-mdp", "trial_index": 30, "time_elapsed": 971679, "internal_node_id": "0.0-6.0-1.0-9.0"}}, {"uniqueid": "w89459375:a47977141", "current_trial": 31, "dateTime": 1693837551485, "trialdata": {"revealed_states": [], "clicked_states": ["1", "2", "3", "8", "9", "11", "10"], "num_clicks_accrued": [0, 0, 0, 0, 0, 0, 0, 0, 0, 0, 0, 0, 0], "stateRewards": ["", 1, 3, 3, -10, 52, 68, 59, 12, 7, 49, 21, -2, -3, -4, -2, -2, 63, 63, -4, 44, 43, -76, -2, -3, -6, 13, 48, 36, 12, -5, -36, -33, -11], "withholdReward": false, "trial_id": "mdp_trial_11", "block": "test", "trialIndex": 16, "score": 58.95, "costs": -9.05, "simulationMode": [null, null, null, null, null], "rewards": [1, 3, 3, 12, 49], "path": ["0", "0", "1", "2", "3", "8", "10"], "rt": [17883, 61, 20, 469, 4], "actions": ["up", "up", "up", "left", "down"], "actionTimes": [19122, 19706, 20264, 21233, 21732], "queries": {"click": {"state": {"target": ["1", "2", "3", "8", "9", "11", "10"], "time": [1851, 3005, 4197, 5373, 6574, 10872, 15874]}, "edge": {"target": [], "time": []}}, "mouseover": {"state": {"target": ["1", "2", "3", "8", "10", "9", "4", "10", "11", "10"], "time": [1742, 2845, 4043, 5210, 6012, 6475, 6797, 10543, 10742, 11128]}, "edge": {"target": [], "time": []}}, "mouseout": {"state": {"target": ["0", "1", "2", "1", "2", "3", "8", "10", "8", "9", "4", "10", "11"], "time": [1025, 2733, 3145, 3745, 3896, 4446, 5793, 6310, 6394, 6728, 6812, 10643, 11062]}, "edge": {"target": [], "time": []}}}, "displayed_time": "22.25", "trialTime": 23146, "trial_type": "mouselab-mdp", "trial_index": 31, "time_elapsed": 994993, "internal_node_id": "0.0-6.0-1.0-10.0"}}, {"uniqueid": "w89459375:a47977141", "current_trial": 32, "dateTime": 1693837570880, "trialdata": {"revealed_states": [], "clicked_states": ["23", "24", "25", "30", "33", "32", "31"], "num_clicks_accrued": [0, 0, 0, 0, 0, 0, 0, 0, 0, 0, 0, 0, 0], "stateRewards": ["", 2, 4, 7, -6, -76, -81, 2, 5, -66, -3, 36, -2, -4, 6, -2, -69, 4, -49, -6, 67, 38, -67, 2, 1, 1, 6, -68, -21, 52, -16, -16, 6, -70], "withholdReward": false, "trial_id": "mdp_trial_12", "block": "test", "trialIndex": 17, "score": -15.05, "costs": -9.05, "simulationMode": [null, null, null, null, null], "rewards": [2, 1, 1, -16, 6], "path": ["0", "0", "23", "24", "25", "30", "32"], "rt": [14292, 208, 66, 66, 89], "actions": ["left", "left", "left", "down", "down"], "actionTimes": [15280, 15990, 16549, 17131, 17721], "queries": {"click": {"state": {"target": ["23", "24", "25", "30", "33", "32", "31"], "time": [1814, 2761, 3698, 4611, 5504, 8739, 12200]}, "edge": {"target": [], "time": []}}, "mouseover": {"state": {"target": ["23", "24", "25", "30", "33", "32", "31"], "time": [1663, 2531, 3498, 4398, 5332, 6048, 9281]}, "edge": {"target": [], "time": []}}, "mouseout": {"state": {"target": ["10", "23", "0", "23", "24", "25", "30", "33", "32", "31"], "time": [296, 380, 1615, 2398, 3398, 4298, 5215, 5932, 9214, 12310]}, "edge": {"target": [], "time": []}}}, "displayed_time": "18.23", "trialTime": 19229, "trial_type": "mouselab-mdp", "trial_index": 32, "time_elapsed": 1014388, "internal_node_id": "0.0-6.0-1.0-11.0"}}, {"uniqueid": "w89459375:a47977141", "current_trial": 33, "dateTime": 1693837586824, "trialdata": {"revealed_states": [], "clicked_states": ["12", "13", "14", "19", "21"], "num_clicks_accrued": [0, 0, 0, 0, 0, 0, 0, 0, 0, 0, 0, 0, 0], "stateRewards": ["", 2, -4, 4, 9, 69, 9, -75, 12, -86, 66, 25, -1, 3, 2, -13, -88, -3, 1, 4, -69, 49, -84, 2, -1, 4, 2, -18, -81, -52, -15, -69, -54, 25], "withholdReward": false, "trial_id": "mdp_trial_13", "block": "test", "trialIndex": 18, "score": 52.25, "costs": -4.75, "simulationMode": [null, null, null, null, null], "rewards": [-1, 3, 2, 4, 49], "path": ["0", "0", "12", "13", "14", "19", "21"], "rt": [9476, 2, 2, 3, 111], "actions": ["right", "right", "right", "down", "down"], "actionTimes": [10741, 11282, 11799, 12317, 12941], "queries": {"click": {"state": {"target": ["12", "13", "14", "19", "21"], "time": [1946, 3244, 4239, 5304, 6513]}, "edge": {"target": [], "time": []}}, "mouseover": {"state": {"target": ["12", "13", "14", "19", "21"], "time": [1846, 2994, 4031, 5047, 6313]}, "edge": {"target": [], "time": []}}, "mouseout": {"state": {"target": ["31", "0", "12", "12", "13", "14", "19", "21"], "time": [865, 1045, 2042, 2663, 3798, 4948, 6213, 6779]}, "edge": {"target": [], "time": []}}}, "displayed_time": "15.27", "trialTime": 15770, "trial_type": "mouselab-mdp", "trial_index": 33, "time_elapsed": 1030332, "internal_node_id": "0.0-6.0-1.0-12.0"}}, {"uniqueid": "w89459375:a47977141", "current_trial": 34, "dateTime": 1693837603380, "trialdata": {"revealed_states": [], "clicked_states": ["23", "24", "25", "26", "27"], "num_clicks_accrued": [0, 0, 0, 0, 0, 0, 0, 0, 0, 0, 0, 0, 0], "stateRewards": ["", -1, 2, -2, 5, 80, -61, -27, 12, 44, -26, -75, -2, -4, 1, -16, 42, -49, -50, 4, -44, 2, 80, -2, -2, 5, -2, 59, 10, 24, 7, -48, -86, -44], "withholdReward": false, "trial_id": "mdp_trial_14", "block": "test", "trialIndex": 19, "score": 53.25, "costs": -4.75, "simulationMode": [null, null, null, null, null], "rewards": [-2, -2, 5, -2, 59], "path": ["0", "0", "23", "24", "25", "26", "27"], "rt": [8718, 106, 35, 511, 166], "actions": ["left", "left", "left", "up", "up"], "actionTimes": [9769, 10374, 10920, 11929, 12600], "queries": {"click": {"state": {"target": ["23", "24", "25", "26", "27"], "time": [1657, 2754, 3782, 4689, 5694]}, "edge": {"target": [], "time": []}}, "mouseover": {"state": {"target": ["23", "24", "25", "26", "27", "26", "24"], "time": [1481, 2519, 3550, 4517, 5584, 8999, 9082]}, "edge": {"target": [], "time": []}}, "mouseout": {"state": {"target": ["23", "0", "23", "24", "25", "26", "27", "26", "24", "23", "0"], "time": [739, 1450, 2502, 3450, 4350, 5466, 8932, 9015, 9115, 14565, 15631]}, "edge": {"target": [], "time": []}}}, "displayed_time": "15.05", "trialTime": 16381, "trial_type": "mouselab-mdp", "trial_index": 34, "time_elapsed": 1046889, "internal_node_id": "0.0-6.0-1.0-13.0"}}, {"uniqueid": "w89459375:a47977141", "current_trial": 35, "dateTime": 1693837623674, "trialdata": {"revealed_states": [], "clicked_states": ["1", "2", "3", "4", "5", "6"], "num_clicks_accrued": [0, 0, 0, 0, 0, 0, 0, 0, 0, 0, 0, 0, 0], "stateRewards": ["", -2, -3, 8, -4, -30, 31, 69, 9, 66, 87, 64, -2, 2, 8, 5, 47, 16, -39, -8, -54, 51, -19, 1, -2, -2, -11, -25, -26, 43, -9, 19, -84, 86], "withholdReward": false, "trial_id": "mdp_trial_15", "block": "test", "trialIndex": 20, "score": 23.1, "costs": -6.9, "simulationMode": [null, null, null, null, null], "rewards": [-2, -3, 8, -4, 31], "path": ["0", "0", "1", "2", "3", "4", "6"], "rt": [13299, 257, 133, 298, 78], "actions": ["up", "up", "up", "right", "right"], "actionTimes": [14109, 14873, 15517, 16330, 16909], "queries": {"click": {"state": {"target": ["1", "2", "3", "4", "5", "6"], "time": [1464, 2847, 3949, 4997, 6146, 9822]}, "edge": {"target": [], "time": []}}, "mouseover": {"state": {"target": ["1", "2", "3", "4", "5", "6", "7"], "time": [1345, 2629, 3783, 4830, 6045, 9670, 10232]}, "edge": {"target": [], "time": []}}, "mouseout": {"state": {"target": ["0", "1", "1", "2", "3", "4", "5", "6"], "time": [111, 1647, 2511, 3729, 4764, 5847, 6447, 10099]}, "edge": {"target": [], "time": []}}}, "displayed_time": "17.41", "trialTime": 20055, "trial_type": "mouselab-mdp", "trial_index": 35, "time_elapsed": 1067182, "internal_node_id": "0.0-6.0-1.0-14.0"}}, {"uniqueid": "w89459375:a47977141", "current_trial": 36, "dateTime": 1693837827512, "trialdata": {"revealed_states": [], "clicked_states": ["1", "2", "3", "8", "11", "9", "10", "4", "5", "6"], "num_clicks_accrued": [0, 0, 0, 0, 0, 0, 0, 0, 0, 0, 0, 0, 0], "stateRewards": ["", -2, 2, 2, -6, 9, 37, 50, -13, -7, -18, -75, -2, -4, 4, 7, 23, -57, -66, -7, -81, -48, -76, 1, 1, -8, 1, 51, -2, 70, 14, 59, 71, -37], "withholdReward": false, "trial_id": "mdp_trial_16", "block": "test", "trialIndex": 21, "score": 18.099999999999998, "costs": -14.900000000000002, "simulationMode": [null, null, null, null, null], "rewards": [-2, 2, 2, -6, 37], "path": ["0", "0", "1", "2", "3", "4", "6"], "rt": [24522, 115, 54, 361, 106], "actions": ["up", "up", "up", "right", "right"], "actionTimes": [25572, 26199, 26753, 27643, 28239], "queries": {"click": {"state": {"target": ["1", "2", "3", "8", "11", "9", "10", "4", "5", "6"], "time": [2026, 3036, 3958, 4856, 5759, 9000, 12180, 15516, 17722, 21306]}, "edge": {"target": [], "time": []}}, "mouseover": {"state": {"target": ["1", "2", "3", "8", "11", "9", "8", "10", "2", "7", "4", "5", "6", "7"], "time": [1764, 2816, 3817, 4616, 5617, 7034, 9364, 9414, 12950, 12999, 13816, 17213, 18649, 22216]}, "edge": {"target": [], "time": []}}, "mouseout": {"state": {"target": ["7", "1", "23", "0", "1", "2", "3", "8", "11", "9", "8", "10", "2", "7", "4", "5", "6", "7", "1"], "time": [346, 412, 580, 1596, 2665, 3684, 4566, 5483, 6933, 9331, 9397, 12867, 12983, 13016, 17013, 18516, 21902, 201681, 201799]}, "edge": {"target": [], "time": []}}}, "displayed_time": "28.75", "trialTime": 203659, "trial_type": "mouselab-mdp", "trial_index": 36, "time_elapsed": 1271020, "internal_node_id": "0.0-6.0-1.0-15.0"}}, {"uniqueid": "w89459375:a47977141", "current_trial": 37, "dateTime": 1693837879615, "trialdata": {"revealed_states": [], "clicked_states": ["1", "2", "3", "4", "6", "5", "7", "8", "11"], "num_clicks_accrued": [0, 0, 0, 0, 0, 0, 0, 0, 0, 0, 0, 0, 0], "stateRewards": ["", 1, -4, -6, 11, -20, 8, -30, 1, -38, 88, 42, 2, 3, 5, -12, -8, -74, 30, -8, 67, -19, 42, 2, -1, 4, 13, 50, -68, 2, -8, -15, 87, -46], "withholdReward": false, "trial_id": "mdp_trial_17", "block": "test", "trialIndex": 22, "score": 21.25, "costs": -12.750000000000002, "simulationMode": [null, null, null, null, null], "rewards": [1, -4, -6, 1, 42], "path": ["0", "0", "1", "2", "3", "8", "11"], "rt": [21237, 10, 850, 683, 73], "actions": ["up", "up", "up", "left", "left"], "actionTimes": [22113, 22645, 24005, 25185, 25757], "queries": {"click": {"state": {"target": ["1", "2", "3", "4", "6", "5", "7", "8", "11"], "time": [2153, 3403, 4681, 5601, 6361, 9722, 12938, 16178, 17735]}, "edge": {"target": [], "time": []}}, "mouseover": {"state": {"target": ["1", "2", "3", "4", "6", "5", "4", "7", "2", "10", "8", "11", "27", "10", "2"], "time": [1833, 3200, 4448, 5350, 6183, 7182, 10150, 10300, 13253, 13318, 13568, 17531, 18650, 21083, 21099]}, "edge": {"target": [], "time": []}}, "mouseout": {"state": {"target": ["0", "1", "2", "3", "4", "6", "5", "4", "7", "2", "10", "8", "11", "27", "10", "2", "1", "10", "28", "23"], "time": [723, 3067, 3966, 5250, 6100, 6932, 10083, 10166, 13235, 13285, 13384, 17365, 18383, 18666, 21098, 21116, 50366, 50765, 51333, 51399]}, "edge": {"target": [], "time": []}}}, "displayed_time": "26.25", "trialTime": 51881, "trial_type": "mouselab-mdp", "trial_index": 37, "time_elapsed": 1323123, "internal_node_id": "0.0-6.0-1.0-16.0"}}, {"uniqueid": "w89459375:a47977141", "current_trial": 38, "dateTime": 1693837928900, "trialdata": {"revealed_states": [], "clicked_states": ["12", "13", "14", "19", "21", "20", "22", "15", "17", "16", "18", "23", "24", "25", "30", "33", "32", "31", "26"], "num_clicks_accrued": [0, 0, 0, 0, 0, 0, 0, 0, 0, 0, 0, 0, 0], "stateRewards": ["", -1, -3, -7, -7, -76, 30, -49, 11, -70, 56, 2, 1, 4, -3, -14, -59, -83, -25, -9, -21, -67, -73, -2, 4, 4, -9, -11, -32, 60, 9, -87, 22, -64], "withholdReward": false, "trial_id": "mdp_trial_18", "block": "test", "trialIndex": 23, "score": -41.65, "costs": -27.65, "simulationMode": [null, null, null, null, null], "rewards": [-2, 4, 4, -9, -11], "path": ["0", "0", "23", "24", "25", "26", "27"], "rt": [41734, 387, 104, 5, 455], "actions": ["left", "left", "left", "up", "up"], "actionTimes": [42748, 43651, 44250, 44769, 45734], "queries": {"click": {"state": {"target": ["12", "13", "14", "19", "21", "20", "22", "15", "17", "16", "18", "23", "24", "25", "30", "33", "32", "31", "26"], "time": [1884, 2509, 3070, 3587, 4020, 7184, 10377, 13487, 15682, 18854, 21977, 25136, 25921, 26439, 26837, 27238, 30505, 34279, 37441]}, "edge": {"target": [], "time": []}}, "mouseover": {"state": {"target": ["12", "13", "14", "19", "21", "20", "19", "22", "14", "15", "15", "17", "16", "18", "0", "23", "24", "25", "30", "33", "31", "32", "31", "26", "29", "29", "30"], "time": [1844, 2416, 2997, 3431, 3896, 4680, 7596, 7746, 10613, 10713, 10930, 13864, 16578, 19596, 22444, 22644, 25530, 26314, 26681, 27130, 27463, 30360, 30745, 34878, 37647, 37897, 41794]}, "edge": {"target": [], "time": []}}, "mouseout": {"state": {"target": ["0", "12", "13", "14", "19", "21", "20", "19", "22", "14", "15", "15", "17", "16", "18", "0", "23", "24", "25", "30", "30", "33", "30", "31", "32", "31", "26", "29", "29", "30"], "time": [1661, 2413, 2947, 3414, 3846, 4398, 7497, 7613, 10580, 10630, 10846, 13830, 16395, 19264, 22312, 22511, 25497, 26280, 26613, 26921, 27046, 27413, 27446, 27480, 30661, 34528, 37629, 37697, 41728, 41809]}, "edge": {"target": [], "time": []}}}, "displayed_time": "46.25", "trialTime": 49060, "trial_type": "mouselab-mdp", "trial_index": 38, "time_elapsed": 1372408, "internal_node_id": "0.0-6.0-1.0-17.0"}}, {"uniqueid": "w89459375:a47977141", "current_trial": 39, "dateTime": 1693837956743, "trialdata": {"revealed_states": [], "clicked_states": ["23", "24", "25", "30", "32", "26", "27", "29", "28"], "num_clicks_accrued": [0, 0, 0, 0, 0, 0, 0, 0, 0, 0, 0, 0, 0], "stateRewards": ["", -2, 4, -7, -3, -76, 39, -28, 10, 14, 12, 60, 2, -3, 6, -10, 88, -34, -41, -3, 72, -13, -56, 1, 3, 2, 8, -51, 23, -57, 1, 14, -46, -16], "withholdReward": false, "trial_id": "mdp_trial_19", "block": "test", "trialIndex": 24, "score": 24.25, "costs": -12.75, "simulationMode": [null, null, null, null, null], "rewards": [1, 3, 2, 8, 23], "path": ["0", "0", "23", "24", "25", "26", "28"], "rt": [19393, 42, 818, 445, 363], "actions": ["left", "left", "left", "up", "right"], "actionTimes": [20596, 21142, 22496, 23441, 24308], "queries": {"click": {"state": {"target": ["23", "24", "25", "30", "32", "26", "27", "29", "28"], "time": [2019, 2851, 3723, 4554, 5373, 8679, 10037, 13278, 16366]}, "edge": {"target": [], "time": []}}, "mouseover": {"state": {"target": ["23", "24", "25", "30", "32", "26", "27", "29", "26", "28", "24", "31"], "time": [1709, 2661, 3495, 4361, 5161, 6295, 9278, 13161, 13779, 13947, 16728, 16829]}, "edge": {"target": [], "time": []}}, "mouseout": {"state": {"target": ["0", "23", "24", "25", "30", "32", "30", "25", "26", "27", "26", "29", "26", "28", "24"], "time": [1676, 2478, 3344, 4261, 5095, 5761, 6078, 6211, 9145, 10947, 12945, 13746, 13863, 16661, 16778]}, "edge": {"target": [], "time": []}}}, "displayed_time": "24.83", "trialTime": 27636, "trial_type": "mouselab-mdp", "trial_index": 39, "time_elapsed": 1400251, "internal_node_id": "0.0-6.0-1.0-18.0"}}, {"uniqueid": "w89459375:a47977141", "current_trial": 40, "dateTime": 1693837972809, "trialdata": {"revealed_states": [], "clicked_states": ["23", "24", "25", "26", "27"], "num_clicks_accrued": [0, 0, 0, 0, 0, 0, 0, 0, 0, 0, 0, 0, 0], "stateRewards": ["", 2, -1, 8, -2, -16, 69, -39, -7, -13, -27, -86, 2, -2, 2, 13, -34, -16, -20, -5, 19, 81, 32, -2, -1, 2, -14, 20, 80, 58, 4, 70, 12, 73], "withholdReward": false, "trial_id": "mdp_trial_20", "block": "test", "trialIndex": 25, "score": 0.25, "costs": -4.75, "simulationMode": [null, null, null, null, null], "rewards": [-2, -1, 2, -14, 20], "path": ["0", "0", "23", "24", "25", "26", "27"], "rt": [8311, 6, 585, 30, 48], "actions": ["left", "left", "left", "up", "up"], "actionTimes": [9779, 10306, 11402, 11930, 12498], "queries": {"click": {"state": {"target": ["23", "24", "25", "26", "27"], "time": [2263, 3082, 4298, 4927, 5607]}, "edge": {"target": [], "time": []}}, "mouseover": {"state": {"target": ["23", "24", "25", "26", "27", "24", "24", "28"], "time": [2132, 2916, 4221, 4816, 5484, 6500, 7118, 7266]}, "edge": {"target": [], "time": []}}, "mouseout": {"state": {"target": ["31", "0", "23", "24", "25", "26", "27", "24", "24", "24", "28", "31"], "time": [515, 2048, 2816, 3599, 4699, 5416, 5799, 6283, 6516, 7149, 9066, 14283]}, "edge": {"target": [], "time": []}}}, "displayed_time": "15.47", "trialTime": 15873, "trial_type": "mouselab-mdp", "trial_index": 40, "time_elapsed": 1416317, "internal_node_id": "0.0-6.0-1.0-19.0"}}, {"uniqueid": "w89459375:a47977141", "current_trial": 41, "dateTime": 1693837988764, "trialdata": {"revealed_states": [], "clicked_states": ["12", "13", "14", "15", "17"], "num_clicks_accrued": [0, 0, 0, 0, 0, 0, 0, 0, 0, 0, 0, 0, 0], "stateRewards": ["", -2, 2, 5, -14, -56, 64, 84, -5, 52, 39, 85, -2, 1, 7, 8, 21, 29, -78, -9, -10, -69, 10, -2, -1, -7, 15, 72, 20, 41, -2, 52, 80, 22], "withholdReward": false, "trial_id": "mdp_trial_21", "block": "test", "trialIndex": 26, "score": 38.25, "costs": -4.75, "simulationMode": [null, null, null, null, null], "rewards": [-2, 1, 7, 8, 29], "path": ["0", "0", "12", "13", "14", "15", "17"], "rt": [6872, 385, 203, 59, 406], "actions": ["right", "right", "right", "up", "right"], "actionTimes": [7823, 8730, 9431, 10003, 10932], "queries": {"click": {"state": {"target": ["12", "13", "14", "15", "17"], "time": [1459, 2152, 2753, 3303, 3745]}, "edge": {"target": [], "time": []}}, "mouseover": {"state": {"target": ["12", "13", "14", "15", "17", "16", "15"], "time": [1325, 2078, 2612, 3145, 3595, 5145, 7141]}, "edge": {"target": [], "time": []}}, "mouseout": {"state": {"target": ["0", "12", "13", "14", "15", "17", "15", "16", "15", "19", "21"], "time": [1275, 1962, 2512, 3028, 3562, 4029, 4878, 7108, 7158, 12743, 12774]}, "edge": {"target": [], "time": []}}}, "displayed_time": "14.95", "trialTime": 15772, "trial_type": "mouselab-mdp", "trial_index": 41, "time_elapsed": 1432272, "internal_node_id": "0.0-6.0-1.0-20.0"}}, {"uniqueid": "w89459375:a47977141", "current_trial": 42, "dateTime": 1693838004746, "trialdata": {"revealed_states": [], "clicked_states": ["1", "2", "3", "8", "10"], "num_clicks_accrued": [0, 0, 0, 0, 0, 0, 0, 0, 0, 0, 0, 0, 0], "stateRewards": ["", 2, -1, 3, -12, -83, 6, -33, 9, 28, 24, -50, -2, -1, -2, -5, -87, 37, 82, 12, 80, -5, 10, -2, -3, -6, 9, 22, -1, 16, 9, 77, -62, 58], "withholdReward": false, "trial_id": "mdp_trial_22", "block": "test", "trialIndex": 27, "score": 32.25, "costs": -4.75, "simulationMode": [null, null, null, null, null], "rewards": [2, -1, 3, 9, 24], "path": ["0", "0", "1", "2", "3", "8", "10"], "rt": [7759, 122, 32, 463, 26], "actions": ["up", "up", "up", "left", "down"], "actionTimes": [8664, 9296, 9841, 10818, 11348], "queries": {"click": {"state": {"target": ["1", "2", "3", "8", "10"], "time": [1428, 2132, 3064, 3764, 4263]}, "edge": {"target": [], "time": []}}, "mouseover": {"state": {"target": ["1", "2", "3", "8", "10", "11"], "time": [1336, 2038, 2920, 3588, 4087, 5240]}, "edge": {"target": [], "time": []}}, "mouseout": {"state": {"target": ["0", "1", "2", "3", "3", "8", "10", "10", "11", "23"], "time": [769, 1971, 2805, 3181, 3487, 4053, 4689, 5106, 13087, 13221]}, "edge": {"target": [], "time": []}}}, "displayed_time": "14.91", "trialTime": 15782, "trial_type": "mouselab-mdp", "trial_index": 42, "time_elapsed": 1448254, "internal_node_id": "0.0-6.0-1.0-21.0"}}, {"uniqueid": "w89459375:a47977141", "current_trial": 43, "dateTime": 1693838020402, "trialdata": {"revealed_states": [], "clicked_states": ["23", "24", "25", "26", "28"], "num_clicks_accrued": [0, 0, 0, 0, 0, 0, 0, 0, 0, 0, 0, 0, 0], "stateRewards": ["", -1, 1, -6, -1, 80, 23, 2, -11, 73, -81, 59, 1, 3, 5, -1, -26, 28, -3, 16, -59, -13, -50, -2, -2, 2, 15, -50, 86, 17, -4, 37, 35, 44], "withholdReward": false, "trial_id": "mdp_trial_23", "block": "test", "trialIndex": 28, "score": 94.25, "costs": -4.75, "simulationMode": [null, null, null, null, null], "rewards": [-2, -2, 2, 15, 86], "path": ["0", "0", "23", "24", "25", "26", "28"], "rt": [8674, 8, 70, 104, 154], "actions": ["left", "left", "left", "up", "right"], "actionTimes": [9641, 10169, 10748, 11349, 12000], "queries": {"click": {"state": {"target": ["23", "24", "25", "26", "28"], "time": [2075, 3000, 3971, 4902, 5721]}, "edge": {"target": [], "time": []}}, "mouseover": {"state": {"target": ["23", "24", "25", "26", "28", "29", "29"], "time": [1942, 2877, 3793, 4760, 5542, 6462, 8660]}, "edge": {"target": [], "time": []}}, "mouseout": {"state": {"target": ["0", "23", "24", "25", "26", "28", "26", "29", "29"], "time": [1894, 2744, 3660, 4611, 5444, 6409, 6459, 6493, 8776]}, "edge": {"target": [], "time": []}}}, "displayed_time": "14.97", "trialTime": 15460, "trial_type": "mouselab-mdp", "trial_index": 43, "time_elapsed": 1463910, "internal_node_id": "0.0-6.0-1.0-22.0"}}, {"uniqueid": "w89459375:a47977141", "current_trial": 44, "dateTime": 1693838038434, "trialdata": {"revealed_states": [], "clicked_states": ["23", "24", "25", "30", "31", "28"], "num_clicks_accrued": [0, 0, 0, 0, 0, 0, 0, 0, 0, 0, 0, 0, 0], "stateRewards": ["", 1, -1, -7, -7, -22, 15, -13, 13, 26, -32, 38, -1, 1, -7, -4, 16, -62, 86, 12, -54, 56, 64, -2, -1, 6, 14, -57, 37, 62, -6, -25, 50, -70], "withholdReward": false, "trial_id": "mdp_trial_24", "block": "test", "trialIndex": 29, "score": 47.1, "costs": -6.9, "simulationMode": [null, null, null, null, null], "rewards": [-2, -1, 6, 14, 37], "path": ["0", "0", "23", "24", "25", "26", "28"], "rt": [12478, 105, 116, 47, 35], "actions": ["left", "left", "left", "up", "right"], "actionTimes": [13642, 14259, 14886, 15432, 16003], "queries": {"click": {"state": {"target": ["23", "24", "25", "30", "31", "28"], "time": [2337, 3062, 3733, 4647, 5110, 8919]}, "edge": {"target": [], "time": []}}, "mouseover": {"state": {"target": ["12", "0", "23", "24", "25", "30", "31", "24", "28", "26", "24", "24", "26"], "time": [1932, 2066, 2201, 2901, 3634, 4303, 4987, 8633, 8799, 9369, 9835, 11134, 11318]}, "edge": {"target": [], "time": []}}, "mouseout": {"state": {"target": ["26", "24", "23", "0", "12", "0", "23", "24", "25", "30", "31", "24", "28", "26", "24", "24"], "time": [717, 767, 798, 1884, 2026, 2100, 2801, 3484, 4269, 4937, 5319, 8649, 9118, 9802, 9867, 11184]}, "edge": {"target": [], "time": []}}}, "displayed_time": "16.52", "trialTime": 17833, "trial_type": "mouselab-mdp", "trial_index": 44, "time_elapsed": 1481942, "internal_node_id": "0.0-6.0-1.0-23.0"}}, {"uniqueid": "w89459375:a47977141", "current_trial": 45, "dateTime": 1693838058725, "trialdata": {"revealed_states": [], "clicked_states": ["17", "16", "20"], "num_clicks_accrued": [0, 0, 0, 0, 0, 0, 0, 0, 0, 0, 0, 0, 0], "stateRewards": ["", 1, 1, -2, 7, -31, -6, 76, 1, -36, -16, -53, 2, 1, 7, 13, -47, -10, 47, -7, 72, 46, -56, -2, -2, -2, 11, -80, 44, 38, 16, 67, 85, -78], "withholdReward": false, "trial_id": "mdp_trial_25", "block": "test", "trialIndex": 30, "score": 68.55, "costs": -6.449999999999999, "simulationMode": [null, null, null, null, null], "rewards": [2, 1, 7, -7, 72], "path": ["0", "0", "12", "13", "14", "19", "20"], "rt": [13022, 55, 46, 549, 74], "actions": ["right", "right", "right", "down", "right"], "actionTimes": [14304, 14859, 15434, 16519, 17112], "queries": {"click": {"state": {"target": ["17", "16", "20"], "time": [2043, 6919, 10155]}, "edge": {"target": [], "time": []}}, "mouseover": {"state": {"target": ["12", "13", "14", "17", "16", "15", "16", "15", "20", "21"], "time": [1668, 1701, 1737, 1853, 4106, 4809, 6670, 7170, 7721, 10686]}, "edge": {"target": [], "time": []}}, "mouseout": {"state": {"target": ["26", "23", "0", "12", "13", "14", "17", "16", "15", "16", "15", "20", "21"], "time": [636, 803, 1636, 1685, 1720, 1753, 2255, 4755, 6569, 7137, 7314, 10537, 13604]}, "edge": {"target": [], "time": []}}}, "displayed_time": "17.61", "trialTime": 20094, "trial_type": "mouselab-mdp", "trial_index": 45, "time_elapsed": 1502233, "internal_node_id": "0.0-6.0-1.0-24.0"}}, {"uniqueid": "w89459375:a47977141", "current_trial": 46, "dateTime": 1693838079847, "trialdata": {"revealed_states": [], "clicked_states": ["33", "32", "31", "29"], "num_clicks_accrued": [0, 0, 0, 0, 0, 0, 0, 0, 0, 0, 0, 0, 0], "stateRewards": ["", -1, 2, -6, 6, 43, 78, 78, -2, 55, -29, -17, -2, -4, 1, -15, 13, 7, -79, 8, -28, -68, 36, -1, -3, 3, -16, 84, -18, 87, 10, 32, 13, -81], "withholdReward": false, "trial_id": "mdp_trial_26", "block": "test", "trialIndex": 31, "score": 61.4, "costs": -8.6, "simulationMode": [null, null, null, null, null], "rewards": [-1, -3, 3, -16, 87], "path": ["0", "0", "23", "24", "25", "26", "29"], "rt": [14697, 18, 17, 10, 500], "actions": ["left", "left", "left", "up", "left"], "actionTimes": [16164, 16699, 17226, 17750, 18772], "queries": {"click": {"state": {"target": ["33", "32", "31", "29"], "time": [2062, 5255, 8566, 11999]}, "edge": {"target": [], "time": []}}, "mouseover": {"state": {"target": ["32", "33", "32", "32", "31", "31", "29", "26", "28"], "time": [1721, 1955, 2738, 4538, 5455, 5955, 9041, 12341, 12557]}, "edge": {"target": [], "time": []}}, "mouseout": {"state": {"target": ["0", "32", "33", "32", "32", "31", "31", "29", "26", "28"], "time": [1503, 1788, 2205, 3555, 5422, 5472, 8840, 12324, 12391, 12740]}, "edge": {"target": [], "time": []}}}, "displayed_time": "19.27", "trialTime": 20901, "trial_type": "mouselab-mdp", "trial_index": 46, "time_elapsed": 1523355, "internal_node_id": "0.0-6.0-1.0-25.0"}}, {"uniqueid": "w89459375:a47977141", "current_trial": 47, "dateTime": 1693838104204, "trialdata": {"revealed_states": [], "clicked_states": ["9", "5", "6", "7", "29"], "num_clicks_accrued": [0, 0, 0, 0, 0, 0, 0, 0, 0, 0, 0, 0, 0], "stateRewards": ["", 2, -1, -2, -5, -47, -57, -33, -11, 31, -18, -72, -2, 1, -4, -8, -46, -53, -50, 15, -85, -9, 39, -2, -2, 1, 14, -1, -8, 53, -12, -41, -74, 62], "withholdReward": false, "trial_id": "mdp_trial_27", "block": "test", "trialIndex": 32, "score": 53.25, "costs": -10.75, "simulationMode": [null, null, null, null, null], "rewards": [-2, -2, 1, 14, 53], "path": ["0", "0", "23", "24", "25", "26", "29"], "rt": [18170, 475, 69, 53, 397], "actions": ["left", "left", "left", "up", "left"], "actionTimes": [19150, 20148, 20729, 21280, 22203], "queries": {"click": {"state": {"target": ["9", "5", "6", "7", "29"], "time": [1685, 5126, 8314, 11599, 15105]}, "edge": {"target": [], "time": []}}, "mouseover": {"state": {"target": ["2", "3", "8", "9", "8", "1", "0", "5", "6", "6", "7", "11", "10", "29", "26", "28", "9"], "time": [1271, 1354, 1420, 1555, 1972, 2072, 2138, 4972, 5354, 5955, 8940, 12423, 12924, 14955, 15305, 15339, 16924]}, "edge": {"target": [], "time": []}}, "mouseout": {"state": {"target": ["23", "0", "2", "3", "8", "9", "8", "1", "0", "5", "6", "6", "7", "11", "10", "29", "26", "28"], "time": [521, 1071, 1304, 1369, 1436, 1922, 2005, 2105, 2155, 5305, 5387, 8691, 11924, 12692, 14769, 15289, 15338, 15355]}, "edge": {"target": [], "time": []}}}, "displayed_time": "22.71", "trialTime": 24142, "trial_type": "mouselab-mdp", "trial_index": 47, "time_elapsed": 1547712, "internal_node_id": "0.0-6.0-1.0-26.0"}}, {"uniqueid": "w89459375:a47977141", "current_trial": 48, "dateTime": 1693838141636, "trialdata": {"revealed_states": [], "clicked_states": ["20", "21", "32", "33", "31", "11", "5", "7", "10"], "num_clicks_accrued": [0, 0, 0, 0, 0, 0, 0, 0, 0, 0, 0, 0, 0], "stateRewards": ["", 1, 4, -4, 14, 35, 51, 19, -13, 54, 78, -74, -2, -1, -3, 13, -11, -42, -73, -15, -24, -3, -69, 2, -1, 5, 16, -27, 73, 58, 9, -60, 5, -60], "withholdReward": false, "trial_id": "mdp_trial_28", "block": "test", "trialIndex": 33, "score": 46.650000000000006, "costs": -19.349999999999998, "simulationMode": [null, null, null, null, null], "rewards": [1, 4, -4, -13, 78], "path": ["0", "0", "1", "2", "3", "8", "10"], "rt": [31332, 28, 3, 5, 437], "actions": ["up", "up", "up", "left", "down"], "actionTimes": [32275, 32816, 33337, 33875, 34824], "queries": {"click": {"state": {"target": ["20", "21", "32", "33", "31", "11", "5", "7", "10"], "time": [1663, 4863, 8008, 11255, 14456, 17647, 21223, 24576, 27935]}, "edge": {"target": [], "time": []}}, "mouseover": {"state": {"target": ["22", "19", "20", "21", "32", "33", "30", "31", "24", "10", "8", "11", "8", "9", "5", "4", "6", "7", "10"], "time": [1369, 1402, 1450, 2688, 5454, 8587, 11635, 11703, 14902, 14969, 15019, 15253, 18404, 18738, 21035, 21489, 21621, 23121, 25103]}, "edge": {"target": [], "time": []}}, "mouseout": {"state": {"target": ["9", "8", "1", "0", "22", "19", "20", "21", "32", "33", "30", "31", "24", "10", "8", "11", "8", "9", "5", "4", "6", "7", "10"], "time": [284, 368, 617, 1251, 1385, 1419, 2037, 5088, 8304, 11618, 11669, 14885, 14919, 15002, 15152, 17987, 18588, 20918, 21421, 21554, 22755, 24853, 31419]}, "edge": {"target": [], "time": []}}}, "displayed_time": "35.32", "trialTime": 37187, "trial_type": "mouselab-mdp", "trial_index": 48, "time_elapsed": 1585144, "internal_node_id": "0.0-6.0-1.0-27.0"}}, {"uniqueid": "w89459375:a47977141", "current_trial": 49, "dateTime": 1693838159397, "trialdata": {"revealed_states": [], "clicked_states": ["23", "33", "32", "31"], "num_clicks_accrued": [0, 0, 0, 0, 0, 0, 0, 0, 0, 0, 0, 0, 0], "stateRewards": ["", 2, 3, -3, 4, 72, -28, 34, -12, 57, -64, -15, 2, 1, -4, -15, 2, 49, 31, -1, -42, -58, 31, -2, 1, -2, -13, -75, -19, -22, -6, 61, 10, -56], "withholdReward": false, "trial_id": "mdp_trial_29", "block": "test", "trialIndex": 34, "score": 45.8, "costs": -6.199999999999999, "simulationMode": [null, null, null, null, null], "rewards": [-2, 1, -2, -6, 61], "path": ["0", "0", "23", "24", "25", "30", "31"], "rt": [12562, 36, 593, 119, 76], "actions": ["left", "left", "left", "down", "right"], "actionTimes": [13377, 13911, 15034, 15659, 16250], "queries": {"click": {"state": {"target": ["23", "33", "32", "31"], "time": [1824, 2913, 6060, 9260]}, "edge": {"target": [], "time": []}}, "mouseover": {"state": {"target": ["23", "23", "30", "33", "32", "31", "21"], "time": [1307, 1773, 2640, 2807, 5024, 6341, 9693]}, "edge": {"target": [], "time": []}}, "mouseout": {"state": {"target": ["23", "23", "30", "33", "32", "31", "21"], "time": [1338, 2558, 2674, 4791, 6240, 9577, 12640]}, "edge": {"target": [], "time": []}}}, "displayed_time": "16.75", "trialTime": 17535, "trial_type": "mouselab-mdp", "trial_index": 49, "time_elapsed": 1602905, "internal_node_id": "0.0-6.0-1.0-28.0"}}, {"uniqueid": "w89459375:a47977141", "current_trial": 50, "dateTime": 1693838182245, "trialdata": {"revealed_states": [], "clicked_states": ["1", "7", "17", "22", "31"], "num_clicks_accrued": [0, 0, 0, 0, 0, 0, 0, 0, 0, 0, 0, 0, 0], "stateRewards": ["", -1, -4, 8, 8, -68, 47, 24, -7, -61, 49, -69, -1, -1, 8, -7, 42, 1, -45, -11, 10, -63, -6, 1, 4, 6, -16, 79, -37, -58, -12, 81, 18, -53], "withholdReward": false, "trial_id": "mdp_trial_30", "block": "test", "trialIndex": 35, "score": 71.65, "costs": -8.35, "simulationMode": [null, null, null, null, null], "rewards": [1, 4, 6, -12, 81], "path": ["0", "0", "23", "24", "25", "30", "31"], "rt": [17432, 164, 131, 47, 34], "actions": ["left", "left", "left", "down", "right"], "actionTimes": [18214, 18887, 19534, 20084, 20654], "queries": {"click": {"state": {"target": ["1", "7", "17", "22", "31"], "time": [1517, 3059, 6878, 10098, 13455]}, "edge": {"target": [], "time": []}}, "mouseover": {"state": {"target": ["1", "2", "7", "12", "13", "14", "15", "16", "15", "17", "20", "22", "31", "30", "29", "24", "23"], "time": [1417, 2421, 2951, 3505, 4004, 4053, 6402, 6450, 6619, 6701, 7053, 8322, 11854, 14336, 14635, 17017, 17052]}, "edge": {"target": [], "time": []}}, "mouseout": {"state": {"target": ["0", "1", "2", "7", "12", "13", "14", "15", "16", "15", "17", "20", "22", "31", "30", "29", "24", "23"], "time": [1252, 2287, 2835, 3237, 3541, 4037, 4071, 6418, 6602, 6635, 7021, 7071, 10404, 13769, 14469, 16968, 17033, 17069]}, "edge": {"target": [], "time": []}}}, "displayed_time": "21.17", "trialTime": 22628, "trial_type": "mouselab-mdp", "trial_index": 50, "time_elapsed": 1625753, "internal_node_id": "0.0-6.0-1.0-29.0"}}, {"uniqueid": "w89459375:a47977141", "current_trial": 51, "dateTime": 1693838197943, "trialdata": {"revealed_states": [], "clicked_states": ["21", "22"], "num_clicks_accrued": [0, 0, 0, 0, 0, 0, 0, 0, 0, 0, 0, 0, 0], "stateRewards": ["", 2, 3, 8, 11, 25, -80, 6, -4, -56, 84, -23, -2, -4, -3, 4, -51, -9, -61, -15, -64, 67, -35, 1, -1, -7, -6, 83, 59, -15, 12, -79, 56, 41], "withholdReward": false, "trial_id": "mdp_trial_31", "block": "test", "trialIndex": 36, "score": 38.7, "costs": -4.3, "simulationMode": [null, null, null, null, null], "rewards": [-2, -4, -3, -15, 67], "path": ["0", "0", "12", "13", "14", "19", "21"], "rt": [7232, 114, 71, 75, 89], "actions": ["right", "right", "right", "down", "down"], "actionTimes": [8264, 8899, 9489, 10061, 10660], "queries": {"click": {"state": {"target": ["21", "22"], "time": [1790, 5166]}, "edge": {"target": [], "time": []}}, "mouseover": {"state": {"target": ["22", "21", "20", "22"], "time": [1467, 1650, 2834, 4403]}, "edge": {"target": [], "time": []}}, "mouseout": {"state": {"target": ["0", "22", "21", "20", "22"], "time": [1384, 1483, 2518, 4170, 5820]}, "edge": {"target": [], "time": []}}}, "displayed_time": "15.03", "trialTime": 15477, "trial_type": "mouselab-mdp", "trial_index": 51, "time_elapsed": 1641452, "internal_node_id": "0.0-6.0-1.0-30.0"}}, {"uniqueid": "w89459375:a47977141", "current_trial": 52, "dateTime": 1693838215202, "trialdata": {"revealed_states": [], "clicked_states": ["33"], "num_clicks_accrued": [0, 0, 0, 0, 0, 0, 0, 0, 0, 0, 0, 0, 0], "stateRewards": ["", 1, -1, 4, 5, -32, 18, 20, 6, -88, -74, 9, -2, 1, -2, -14, 34, -77, -38, -1, 80, -36, 73, 2, 3, -8, 10, -48, -73, -71, -11, -22, 20, 54], "withholdReward": false, "trial_id": "mdp_trial_32", "block": "test", "trialIndex": 37, "score": 37.85, "costs": -2.15, "simulationMode": [null, null, null, null, null], "rewards": [2, 3, -8, -11, 54], "path": ["0", "0", "23", "24", "25", "30", "33"], "rt": [5584, 562, 90, 5, 16], "actions": ["left", "left", "left", "down", "left"], "actionTimes": [6652, 7743, 8348, 8861, 9405], "queries": {"click": {"state": {"target": ["33"], "time": [2488]}, "edge": {"target": [], "time": []}}, "mouseover": {"state": {"target": ["23", "31", "33", "30", "31"], "time": [1551, 2117, 2400, 2719, 2769]}, "edge": {"target": [], "time": []}}, "mouseout": {"state": {"target": ["21", "0", "23", "31", "33", "30", "31"], "time": [419, 1501, 2069, 2134, 2686, 2753, 2803]}, "edge": {"target": [], "time": []}}}, "displayed_time": "15.07", "trialTime": 17038, "trial_type": "mouselab-mdp", "trial_index": 52, "time_elapsed": 1658711, "internal_node_id": "0.0-6.0-1.0-31.0"}}, {"uniqueid": "w89459375:a47977141", "current_trial": 53, "dateTime": 1693838231367, "trialdata": {"revealed_states": [], "clicked_states": ["27", "29"], "num_clicks_accrued": [0, 0, 0, 0, 0, 0, 0, 0, 0, 0, 0, 0, 0], "stateRewards": ["", 1, 2, 2, -15, -84, 28, -26, 13, 31, 86, 30, -2, 1, -1, -8, 66, -40, -1, -10, -32, 57, -17, 1, 2, -2, 9, -23, 77, 85, 12, -32, -62, -35], "withholdReward": false, "trial_id": "mdp_trial_33", "block": "test", "trialIndex": 38, "score": 90.7, "costs": -4.3, "simulationMode": [null, null, null, null, null], "rewards": [1, 2, -2, 9, 85], "path": ["0", "0", "23", "24", "25", "26", "29"], "rt": [8468, 118, 45, 36, 10], "actions": ["left", "left", "left", "up", "left"], "actionTimes": [9516, 10132, 10692, 11234, 11757], "queries": {"click": {"state": {"target": ["27", "29"], "time": [1811, 5584]}, "edge": {"target": [], "time": []}}, "mouseover": {"state": {"target": ["27", "24", "25", "29", "33", "30"], "time": [1679, 3199, 3299, 5512, 8829, 8862]}, "edge": {"target": [], "time": []}}, "mouseout": {"state": {"target": ["0", "27", "24", "25", "29", "33", "30"], "time": [1329, 1983, 3281, 3316, 5816, 8861, 13845]}, "edge": {"target": [], "time": []}}}, "displayed_time": "15.05", "trialTime": 15930, "trial_type": "mouselab-mdp", "trial_index": 53, "time_elapsed": 1674876, "internal_node_id": "0.0-6.0-1.0-32.0"}}, {"uniqueid": "w89459375:a47977141", "current_trial": 54, "dateTime": 1693838247597, "trialdata": {"revealed_states": [], "clicked_states": ["21"], "num_clicks_accrued": [0, 0, 0, 0, 0, 0, 0, 0, 0, 0, 0, 0, 0], "stateRewards": ["", 1, 1, -3, 7, 49, 78, 26, -5, 26, 48, -43, -1, -3, 2, -5, 4, -1, -60, 10, -35, 51, 81, -2, 1, -7, -5, -39, -86, -54, 4, -3, 74, 77], "withholdReward": false, "trial_id": "mdp_trial_34", "block": "test", "trialIndex": 39, "score": 56.85, "costs": -2.15, "simulationMode": [null, null, null, null, null], "rewards": [-1, -3, 2, 10, 51], "path": ["0", "0", "12", "13", "14", "19", "21"], "rt": [5510, 460, 57, 31, 52], "actions": ["right", "right", "right", "down", "down"], "actionTimes": [6708, 7678, 8237, 8795, 9363], "queries": {"click": {"state": {"target": ["21"], "time": [2608]}, "edge": {"target": [], "time": []}}, "mouseover": {"state": {"target": ["21"], "time": [2512]}, "edge": {"target": [], "time": []}}, "mouseout": {"state": {"target": ["0", "21"], "time": [2229, 2763]}, "edge": {"target": [], "time": []}}}, "displayed_time": "15.20", "trialTime": 15991, "trial_type": "mouselab-mdp", "trial_index": 54, "time_elapsed": 1691105, "internal_node_id": "0.0-6.0-1.0-33.0"}}, {"uniqueid": "w89459375:a47977141", "current_trial": 55, "dateTime": 1693838270295, "trialdata": {"revealed_states": [], "clicked_states": ["22", "18", "31", "32"], "num_clicks_accrued": [0, 0, 0, 0, 0, 0, 0, 0, 0, 0, 0, 0, 0], "stateRewards": ["", 2, -1, -1, -9, -81, -30, 55, -6, 78, 25, 62, 2, 4, -1, 9, -85, 1, -19, 1, -60, 12, -34, 1, 4, -1, -13, -24, -16, -83, -8, 16, 43, 9], "withholdReward": false, "trial_id": "mdp_trial_35", "block": "test", "trialIndex": 40, "score": 30.4, "costs": -8.6, "simulationMode": [null, null, null, null, null], "rewards": [1, 4, -1, -8, 43], "path": ["0", "0", "23", "24", "25", "30", "32"], "rt": [16774, 129, 84, 32, 83], "actions": ["left", "left", "left", "down", "down"], "actionTimes": [17747, 18395, 18982, 19533, 20132], "queries": {"click": {"state": {"target": ["22", "18", "31", "32"], "time": [1459, 5643, 9803, 13469]}, "edge": {"target": [], "time": []}}, "mouseover": {"state": {"target": ["22", "21", "17", "15", "18", "14", "20", "20", "13", "24", "30", "31", "32", "30"], "time": [1330, 4813, 5263, 5345, 5529, 5867, 5899, 9096, 9230, 9415, 9531, 9647, 13296, 16913]}, "edge": {"target": [], "time": []}}, "mouseout": {"state": {"target": ["22", "0", "22", "21", "17", "15", "18", "14", "20", "20", "13", "24", "30", "31", "32", "30"], "time": [596, 1031, 1582, 4829, 5314, 5413, 5832, 5883, 5932, 9164, 9262, 9445, 9580, 9906, 14615, 16946]}, "edge": {"target": [], "time": []}}}, "displayed_time": "20.65", "trialTime": 22456, "trial_type": "mouselab-mdp", "trial_index": 55, "time_elapsed": 1713803, "internal_node_id": "0.0-6.0-1.0-34.0"}}, {"uniqueid": "w89459375:a47977141", "current_trial": 56, "dateTime": 1693838286326, "trialdata": {"revealed_states": [], "clicked_states": ["29", "27"], "num_clicks_accrued": [0, 0, 0, 0, 0, 0, 0, 0, 0, 0, 0, 0, 0], "stateRewards": ["", 1, 2, 8, -2, 23, -69, -18, -16, 54, -21, 71, -1, -4, 7, 11, 43, -6, 88, 6, -55, 72, 43, 1, -3, -2, -1, 68, -31, -54, 4, -8, 25, -2], "withholdReward": false, "trial_id": "mdp_trial_36", "block": "test", "trialIndex": 41, "score": 58.7, "costs": -4.3, "simulationMode": [null, null, null, null, null], "rewards": [1, -3, -2, -1, 68], "path": ["0", "0", "23", "24", "25", "26", "27"], "rt": [8584, 524, 143, 6, 28], "actions": ["left", "left", "left", "up", "up"], "actionTimes": [9430, 10468, 11105, 11614, 12170], "queries": {"click": {"state": {"target": ["29", "27"], "time": [1859, 5327]}, "edge": {"target": [], "time": []}}, "mouseover": {"state": {"target": ["0", "23", "24", "25", "26", "29", "26", "28", "27", "4", "6"], "time": [1074, 1139, 1206, 1422, 1624, 1723, 2608, 2659, 5190, 5642, 5675]}, "edge": {"target": [], "time": []}}, "mouseout": {"state": {"target": ["31", "0", "0", "23", "24", "25", "26", "29", "26", "28", "27", "4", "6", "12"], "time": [356, 707, 1106, 1173, 1391, 1557, 1656, 2225, 2625, 2691, 5403, 5659, 13340, 13758]}, "edge": {"target": [], "time": []}}}, "displayed_time": "14.85", "trialTime": 15782, "trial_type": "mouselab-mdp", "trial_index": 56, "time_elapsed": 1729835, "internal_node_id": "0.0-6.0-1.0-35.0"}}, {"uniqueid": "w89459375:a47977141", "current_trial": 57, "dateTime": 1693838304512, "trialdata": {"revealed_states": [], "clicked_states": ["12", "13", "20", "21", "22"], "num_clicks_accrued": [0, 0, 0, 0, 0, 0, 0, 0, 0, 0, 0, 0, 0], "stateRewards": ["", 2, 3, 6, -12, -29, 12, 87, 4, 35, -30, 67, 2, 3, -5, -9, 44, 69, -8, 1, 45, -8, 28, -2, -1, -8, 11, -12, -5, 81, 9, 87, 82, 88], "withholdReward": false, "trial_id": "mdp_trial_37", "block": "test", "trialIndex": 42, "score": 39.45, "costs": -6.550000000000001, "simulationMode": [null, null, null, null, null], "rewards": [2, 3, -5, 1, 45], "path": ["0", "0", "12", "13", "14", "19", "20"], "rt": [12956, 104, 90, 35, 63], "actions": ["right", "right", "right", "down", "right"], "actionTimes": [14113, 14718, 15305, 15836, 16410], "queries": {"click": {"state": {"target": ["12", "13", "20", "21", "22"], "time": [2236, 2978, 3689, 7252, 10925]}, "edge": {"target": [], "time": []}}, "mouseover": {"state": {"target": ["12", "13", "19", "20", "21", "22"], "time": [1962, 2765, 3415, 3632, 7112, 10796]}, "edge": {"target": [], "time": []}}, "mouseout": {"state": {"target": ["0", "12", "13", "19", "20", "21", "21", "21", "22"], "time": [995, 2714, 3365, 3448, 3898, 7341, 7447, 10646, 11047]}, "edge": {"target": [], "time": []}}}, "displayed_time": "16.93", "trialTime": 17922, "trial_type": "mouselab-mdp", "trial_index": 57, "time_elapsed": 1748020, "internal_node_id": "0.0-6.0-1.0-36.0"}}, {"uniqueid": "w89459375:a47977141", "current_trial": 58, "dateTime": 1693838320806, "trialdata": {"revealed_states": [], "clicked_states": ["32"], "num_clicks_accrued": [0, 0, 0, 0, 0, 0, 0, 0, 0, 0, 0, 0, 0], "stateRewards": ["", 2, -4, 1, -12, -59, -53, -74, 16, -88, -66, 66, 1, -2, 8, -9, -14, 22, 25, -1, -39, 47, -14, -1, -1, -2, 1, -4, 52, -26, 15, -7, 46, 43], "withholdReward": false, "trial_id": "mdp_trial_38", "block": "test", "trialIndex": 43, "score": 54.85, "costs": -2.15, "simulationMode": [null, null, null, null, null], "rewards": [-1, -1, -2, 15, 46], "path": ["0", "0", "23", "24", "25", "30", "32"], "rt": [5294, 73, 48, 474, 95], "actions": ["left", "left", "left", "down", "down"], "actionTimes": [6715, 7303, 7864, 8855, 9460], "queries": {"click": {"state": {"target": ["32"], "time": [2556]}, "edge": {"target": [], "time": []}}, "mouseover": {"state": {"target": ["23", "31", "32", "33", "30", "21"], "time": [1977, 2177, 2462, 3712, 5931, 6011]}, "edge": {"target": [], "time": []}}, "mouseout": {"state": {"target": ["19", "12", "0", "23", "31", "32", "32", "33", "30", "21"], "time": [912, 1111, 1945, 2113, 2211, 2650, 3596, 5913, 5947, 6027]}, "edge": {"target": [], "time": []}}}, "displayed_time": "15.42", "trialTime": 16050, "trial_type": "mouselab-mdp", "trial_index": 58, "time_elapsed": 1764315, "internal_node_id": "0.0-6.0-1.0-37.0"}}, {"uniqueid": "w89459375:a47977141", "current_trial": 59, "dateTime": 1693838336828, "trialdata": {"revealed_states": [], "clicked_states": ["29"], "num_clicks_accrued": [0, 0, 0, 0, 0, 0, 0, 0, 0, 0, 0, 0, 0], "stateRewards": ["", -1, 3, 8, 10, -86, 61, -36, 10, 17, -60, 24, -1, -3, 3, 11, 50, 60, 33, -3, -20, 58, -6, 1, -4, -4, 13, -70, -71, 43, 14, 52, 82, -11], "withholdReward": false, "trial_id": "mdp_trial_39", "block": "test", "trialIndex": 44, "score": 46.85, "costs": -2.15, "simulationMode": [null, null, null, null, null], "rewards": [1, -4, -4, 13, 43], "path": ["0", "0", "23", "24", "25", "26", "29"], "rt": [4631, 120, 83, 11, 6], "actions": ["left", "left", "left", "up", "left"], "actionTimes": [5600, 6217, 6814, 7340, 7851], "queries": {"click": {"state": {"target": ["29"], "time": [1481]}, "edge": {"target": [], "time": []}}, "mouseover": {"state": {"target": ["23", "24", "26", "29", "26", "28", "27", "28", "23"], "time": [1160, 1195, 1277, 1326, 1644, 1664, 2562, 4811, 4859]}, "edge": {"target": [], "time": []}}, "mouseout": {"state": {"target": ["0", "23", "24", "26", "29", "26", "28", "27", "28", "23"], "time": [1126, 1176, 1227, 1310, 1629, 1660, 1676, 4794, 4828, 4994]}, "edge": {"target": [], "time": []}}}, "displayed_time": "14.97", "trialTime": 15770, "trial_type": "mouselab-mdp", "trial_index": 59, "time_elapsed": 1780336, "internal_node_id": "0.0-6.0-1.0-38.0"}}, {"uniqueid": "w89459375:a47977141", "current_trial": 60, "dateTime": 1693838354827, "trialdata": {"revealed_states": [], "clicked_states": ["6", "10", "11"], "num_clicks_accrued": [0, 0, 0, 0, 0, 0, 0, 0, 0, 0, 0, 0, 0], "stateRewards": ["", 2, -2, 7, -11, -76, -65, -23, 16, -58, 30, 81, 1, 2, 7, 14, 9, 55, -2, 6, 11, -15, 31, -1, -1, -3, 2, 15, 2, 46, 15, 18, 45, -34], "withholdReward": false, "trial_id": "mdp_trial_40", "block": "test", "trialIndex": 45, "score": 97.55, "costs": -6.449999999999999, "simulationMode": [null, null, null, null, null], "rewards": [2, -2, 7, 16, 81], "path": ["0", "0", "1", "2", "3", "8", "11"], "rt": [12516, 82, 53, 383, 50], "actions": ["up", "up", "up", "left", "left"], "actionTimes": [13485, 14087, 14641, 15554, 16121], "queries": {"click": {"state": {"target": ["6", "10", "11"], "time": [1604, 5660, 9207]}, "edge": {"target": [], "time": []}}, "mouseover": {"state": {"target": ["6", "18", "10", "2", "11", "8", "9", "8"], "time": [1552, 1787, 5453, 8887, 9070, 9404, 9570, 12486]}, "edge": {"target": [], "time": []}}, "mouseout": {"state": {"target": ["0", "6", "18", "10", "2", "11", "8", "9"], "time": [1222, 1722, 1820, 5837, 8904, 9387, 9437, 12453]}, "edge": {"target": [], "time": []}}}, "displayed_time": "16.66", "trialTime": 17712, "trial_type": "mouselab-mdp", "trial_index": 60, "time_elapsed": 1798335, "internal_node_id": "0.0-6.0-1.0-39.0"}}, {"uniqueid": "w89459375:a47977141", "current_trial": 61, "dateTime": 1693838390307, "trialdata": {"rt": 35472, "response": {"Q0": "$-2 to $2", "Q1": "$-16 to $16", "Q2": "$-88 to $88", "Q3": "The cost for clicking on nodes varied between nodes.", "Q4": "Very motivated"}, "question_order": [0, 1, 2, 3, 4], "trial_id": "final_quiz_control", "trial_type": "survey-multi-choice", "trial_index": 61, "time_elapsed": 1833815, "internal_node_id": "0.0-6.0-2.0"}}, {"uniqueid": "w89459375:a47977141", "current_trial": 62, "dateTime": 1693838513075, "trialdata": {"rt": 122753, "response": {"Q0": "I started clicking through the whole path to get to a total but then shifted to only clicking the terminating node and choosing one with the highest positive number balanced against my \"spend\" to get to that point.", "Q1": "About half way throughI changed to only clicking the terminating node and choosing the one with the highest positive number balanced against my \"spend\" to get to that point.", "Q2": "The frequency of negative numbers seemed to increase over time."}, "trial_id": "self_report_control", "trial_type": "survey-text", "trial_index": 62, "time_elapsed": 1956583, "internal_node_id": "0.0-6.0-3.0"}}, {"uniqueid": "w89459375:a47977141", "current_trial": 63, "dateTime": 1693838540306, "trialdata": {"rt": 27225, "response": {"Q0": "Neither disagree nor agree", "Q1": "Disagree", "Q2": "Agree", "Q3": "Agree", "Q4": "Neither disagree nor agree", "Q5": "Agree", "Q6": "Disagree"}, "question_order": [0, 1, 2, 3, 4, 5, 6], "trial_id": "self_report_2", "trial_type": "survey-multi-choice", "trial_index": 63, "time_elapsed": 1983815, "internal_node_id": "0.0-6.0-4.0"}}, {"uniqueid": "w89459375:a47977141", "current_trial": 64, "dateTime": 1693838557565, "trialdata": {"rt": 17248, "response": {"gender": "male", "age": "49", "colorblind": "0", "effort": "0"}, "trial_type": "survey-html-form", "trial_index": 64, "time_elapsed": 2001073, "internal_node_id": "0.0-6.0-5.0"}}, {"uniqueid": "w89459375:a47977141", "current_trial": 65, "dateTime": 1693838594939, "trialdata": {"rt": 37368, "response": {"Q0": "It took me a few turns to pass the comprehension qeustions because of the way they were phrased.", "Q1": "No", "Q2": ""}, "trial_type": "survey-text", "trial_index": 65, "time_elapsed": 2038447, "internal_node_id": "0.0-6.0-6.0"}}, {"uniqueid": "w89459375:a47977141", "current_trial": 66, "dateTime": 1693838608402, "trialdata": {"rt": 13458, "stimulus": "<h1>Completion Code Instructions (1/2)</h1>\n<br><br><br><br>\nYou have reached the end of the experiment! The completion code consists of two parts: (1) a code with 2 characters (2) a code with 6 characters. On this page, you will receive the second part of the code. The first part of the completion code will be on the next page.\n<br><br>\nThe second part of your completion code is: <b>EWEK22</b>\n<br><br>\nPlease note this down. Then, press 'Next' in order to find the first part of your completion code. Once the data has been saved, you will receive this code either in this window or in the original browser window where you started the experiment.\n <br><br>\n<h2 style='color: red;'>Note: this is <strong>NOT</strong> the full completion code. Copy this down and click 'Next' to get the full completion code on the next page.</h2>", "response": 0, "trial_type": "html-button-response", "trial_index": 66, "time_elapsed": 2051911, "internal_node_id": "0.0-6.0-7.0"}}, {"uniqueid": "w89459375:a47977141", "current_trial": 67, "dateTime": 1693838609407, "trialdata": {"success": true, "trial_type": "fullscreen", "trial_index": 67, "time_elapsed": 2052916, "internal_node_id": "0.0-7.0"}}], "questiondata": {"params": {"CODE": "C6DMOQA6", "MIN_TIME": 14, "inspectCost": 1, "startTime": "Mon Sep 04 2023 15:09:15 GMT+0100 (British Summer Time)", "bonusRate": 0.002, "variance": "1_2_4_8_44", "branching": "31123"}, "final_score": 1602.35}, "eventdata": [{"eventtype": "initialized", "value": null, "timestamp": 1693836555071, "interval": 0}, {"eventtype": "window_resize", "value": [1024, 767], "timestamp": 1693836555071, "interval": 0}, {"eventtype": "window_resize", "value": [1024, 767], "timestamp": 1693836555375, "interval": 304}, {"eventtype": "window_resize", "value": [1920, 1080], "timestamp": 1693836558605, "interval": 3230}, {"eventtype": "focus", "value": "off", "timestamp": 1693836855729, "interval": 297124}, {"eventtype": "focus", "value": "on", "timestamp": 1693836855729, "interval": 0}, {"eventtype": "window_resize", "value": [1024, 767], "timestamp": 1693836855937, "interval": 208}, {"eventtype": "window_resize", "value": [1920, 1080], "timestamp": 1693836857126, "interval": 1189}, {"eventtype": "focus", "value": "off", "timestamp": 1693837066839, "interval": 209713}, {"eventtype": "focus", "value": "on", "timestamp": 1693837066840, "interval": 1}, {"eventtype": "window_resize", "value": [1024, 767], "timestamp": 1693837067047, "interval": 207}, {"eventtype": "window_resize", "value": [1920, 1080], "timestamp": 1693837068583, "interval": 1536}, {"eventtype": "window_resize", "value": [1024, 767], "timestamp": 1693838608656, "interval": 1540073}], "useragent": "Mozilla/5.0 (Windows NT 10.0; Win64; x64) AppleWebKit/537.36 (KHTML, like Gecko) Chrome/114.0.0.0 Safari/537.36", "mode": "live", "id": "w89459375:a47977141", "status": "user data saved", "Beginhit": "2023-09-04 14:09:13.176586", "Beginexp": "2023-09-04 14:09:19.496666", "Endhit": "2023-09-04 14:43:29.893676", "psiturkStatus": 3, "browser": "<redacted>", "platform": "windows", "language": "en-GB-oxendict"}