{"condition": 1, "counterbalance": 0, "assignmentId": "a10749351", "workerId": "w63777449", "hitId": "h27549378", "currenttrial": 56, "bonus": 0, "data": [{"uniqueid": "w63777449:a10749351", "current_trial": 0, "dateTime": 1691159355119, "trialdata": {"success": true, "trial_type": "fullscreen", "trial_index": 0, "time_elapsed": 53462, "internal_node_id": "0.0-0.0"}}, {"uniqueid": "w63777449:a10749351", "current_trial": 1, "dateTime": 1691159383727, "trialdata": {"view_history": [{"page_index": 0, "viewing_time": 28603}], "rt": 28604, "trial_id": "exp_instructions_misaligned", "trial_type": "instructions", "trial_index": 1, "time_elapsed": 82070, "internal_node_id": "0.0-1.0"}}, {"uniqueid": "w63777449:a10749351", "current_trial": 2, "dateTime": 1691159389323, "trialdata": {"success": true, "trial_type": "fullscreen", "trial_index": 2, "time_elapsed": 87666, "internal_node_id": "0.0-2.0-0.0"}}, {"uniqueid": "w63777449:a10749351", "current_trial": 3, "dateTime": 1691159958753, "trialdata": {"view_history": [{"page_index": 0, "viewing_time": 168879}, {"page_index": 1, "viewing_time": 237510}, {"page_index": 2, "viewing_time": 82345}, {"page_index": 1, "viewing_time": 1948}, {"page_index": 2, "viewing_time": 1592}, {"page_index": 3, "viewing_time": 77155}], "rt": 569429, "trial_id": "mouselab_instructions_1_misaligned", "trial_type": "instructions", "trial_index": 3, "time_elapsed": 657096, "internal_node_id": "0.0-2.0-1.0"}}, {"uniqueid": "w63777449:a10749351", "current_trial": 4, "dateTime": 1691160017436, "trialdata": {"revealed_states": [], "clicked_states": ["25", "26", "27", "29", "28"], "num_clicks_accrued": [0, 0, 0, 0, 0, 0, 0, 0, 0, 0, 0, 0, 0], "stateRewards": ["", -10, -10, -10, 10, 10, 10, 10, -10, 10, -10, 10, -10, 10, -10, 10, 10, -10, 10, 10, 10, 10, -10, -10, 10, 10, 10, -10, -10, 10, 10, 10, -10, -10], "withholdReward": false, "trial_id": "practice_1", "block": "test", "trialIndex": 0, "score": 31, "costs": -2.5, "simulationMode": [null, null, null, null, null], "rewards": [-10, 10, 10, 10, 10], "path": ["0", "0", "23", "24", "25", "26", "29"], "rt": [25884, 601, 270, 212, 249], "actions": ["left", "left", "left", "up", "left"], "actionTimes": [35522, 36623, 37393, 38101, 38856], "queries": {"click": {"state": {"target": ["25", "26", "27", "29", "28"], "time": [13828, 20741, 22616, 24816, 31626]}, "edge": {"target": [], "time": []}}, "mouseover": {"state": {"target": ["23", "24", "25", "26", "27", "29", "26", "28"], "time": [12894, 12961, 13295, 19981, 22069, 23934, 27118, 27267]}, "edge": {"target": [], "time": []}}, "mouseout": {"state": {"target": ["28", "23", "24", "25", "26", "27", "29", "26", "28"], "time": [8243, 12928, 13029, 15929, 21831, 23483, 27083, 27185, 34569]}, "edge": {"target": [], "time": []}}}, "displayed_time": "39.35", "trialTime": 57017, "trial_type": "mouselab-mdp", "trial_index": 4, "time_elapsed": 715779, "internal_node_id": "0.0-2.0-2.0-0.0"}}, {"uniqueid": "w63777449:a10749351", "current_trial": 5, "dateTime": 1691160058763, "trialdata": {"revealed_states": [], "clicked_states": [], "num_clicks_accrued": [0, 0, 0, 0, 0, 0, 0, 0, 0, 0, 0, 0, 0], "stateRewards": ["", -10, -10, 10, -10, -10, 10, -10, -10, 10, 10, 10, -10, -10, 10, -10, -10, 10, -10, -10, 10, -10, 10, 10, 10, -10, -10, -10, 10, 10, 10, 10, -10, 10], "withholdReward": false, "trial_id": "practice_2", "block": "test", "trialIndex": 1, "score": -6.5, "costs": 0, "simulationMode": [null, null, null, null, null], "rewards": [-10, -10, 10, -10, 10], "path": ["0", "0", "1", "2", "3", "8", "9"], "rt": [18803, 1329, 442, 363, 374], "actions": ["up", "up", "up", "left", "up"], "actionTimes": [24477, 26300, 27246, 28101, 28979], "queries": {"click": {"state": {"target": [], "time": []}, "edge": {"target": [], "time": []}}, "mouseover": {"state": {"target": ["32"], "time": [13081]}, "edge": {"target": [], "time": []}}, "mouseout": {"state": {"target": ["0"], "time": [7180]}, "edge": {"target": [], "time": []}}}, "displayed_time": "29.49", "trialTime": 41192, "trial_type": "mouselab-mdp", "trial_index": 5, "time_elapsed": 757106, "internal_node_id": "0.0-2.0-2.0-1.0"}}, {"uniqueid": "w63777449:a10749351", "current_trial": 6, "dateTime": 1691160191366, "trialdata": {"view_history": [{"page_index": 0, "viewing_time": 112117}, {"page_index": 1, "viewing_time": 20485}], "rt": 132602, "trial_id": "mouselab_instructions_2_misaligned", "trial_type": "instructions", "trial_index": 6, "time_elapsed": 889709, "internal_node_id": "0.0-2.0-3.0"}}, {"uniqueid": "w63777449:a10749351", "current_trial": 7, "dateTime": 1691160289956, "trialdata": {"rt": 98586, "response": {"Q0": "The cost for clicking on nodes may vary between nodes.", "Q1": "The better I perform the higher my bonus will be.", "Q2": "No, the amount of cash at each node of the web may be different each time.", "Q3": "To get the highest total score.", "Q4": "Only before moving the spider.", "Q5": "3 seconds"}, "question_order": [0, 1, 2, 3, 4, 5], "correct": {"Q0": "The cost for clicking on nodes may vary between nodes.", "Q1": "The better I perform the higher my bonus will be.", "Q2": "No, the amount of cash at each node of the web may be different each time.", "Q3": "To get the highest total score.", "Q4": "Only before moving the spider.", "Q5": "3 seconds"}, "trial_id": "mouselab_quiz_misaligned", "trial_type": "survey-multi-choice", "trial_index": 7, "time_elapsed": 988299, "internal_node_id": "0.0-2.0-4.0"}}, {"uniqueid": "w63777449:a10749351", "current_trial": 8, "dateTime": 1691160310334, "trialdata": {"rt": 20373, "stimulus": "\n<h1> Get ready to start the game! </h1>\n\nThank you for reading the instructions. Get ready start with the 40 rounds of this game.\n<br><br>\nIf you need to take a break, feel free to take one after the end of a round, before continuing to the next one.\n<br><br>\nRemember, the more money the spider gets, the bigger your bonus will be!\n<br><br>\n<div style='text-align: center;'>Press <code>space</code> to begin.</div>\n\n<br><br>\n(If, at any point, the <code>space</code> key does not take you to the next page, click once on the text and try again.)", "response": " ", "trial_id": "mdp_ready", "trial_type": "html-keyboard-response", "trial_index": 8, "time_elapsed": 1008677, "internal_node_id": "0.0-4.0-0.0"}}, {"uniqueid": "w63777449:a10749351", "current_trial": 9, "dateTime": 1691160343934, "trialdata": {"revealed_states": [], "clicked_states": ["25", "26", "27", "28", "29"], "num_clicks_accrued": [0, 0, 0, 0, 0, 0, 0, 0, 0, 0, 0, 0, 0], "stateRewards": ["", -2, -1, -3, -1, -78, -6, 2, -1, 22, -88, 32, 2, 2, -7, -8, -51, -17, 54, 2, -44, 54, 75, 2, -2, -8, -15, -29, 12, -67, 15, -1, -47, -47], "withholdReward": false, "trial_id": "mdp_trial_1", "block": "test", "trialIndex": 2, "score": -19.950000000000003, "costs": -8.950000000000001, "simulationMode": [null, null, null, null, null, null], "rewards": [2, -2, -8, -15, 12], "path": ["0", "0", "23", "24", "25", "26", "28"], "rt": [12150, 1393, 266, 92, 269, 126], "actions": ["left", "left", "left", "left", "up", "right"], "actionTimes": [19429, 20826, 21607, 22199, 22960, 23584], "queries": {"click": {"state": {"target": ["25", "26", "27", "28", "29"], "time": [8535, 9637, 10638, 14075, 18104]}, "edge": {"target": [], "time": []}}, "mouseover": {"state": {"target": ["23", "24", "25", "26", "27", "29", "28", "26", "29", "26", "24", "23"], "time": [7766, 7884, 8133, 9251, 10103, 11037, 12537, 14520, 14704, 18722, 18806, 18905]}, "edge": {"target": [], "time": []}}, "mouseout": {"state": {"target": ["0", "23", "24", "25", "26", "27", "27", "29", "26", "28", "26", "29", "26", "24"], "time": [7734, 7800, 8067, 8918, 10068, 10852, 10986, 12203, 12319, 14503, 14587, 18705, 18738, 18889]}, "edge": {"target": [], "time": []}}}, "displayed_time": "24.07", "trialTime": 33455, "trial_type": "mouselab-mdp", "trial_index": 9, "time_elapsed": 1042276, "internal_node_id": "0.0-4.0-1.0-0.0"}}, {"uniqueid": "w63777449:a10749351", "current_trial": 10, "dateTime": 1691160380389, "trialdata": {"revealed_states": [], "clicked_states": ["25", "28", "26", "27", "29", "30"], "num_clicks_accrued": [0, 0, 0, 0, 0, 0, 0, 0, 0, 0, 0, 0, 0], "stateRewards": ["", 2, 3, -6, -5, -3, 55, 40, 11, 61, 11, 51, 2, -4, -6, 9, -25, 29, -15, -6, 7, -77, -2, -2, -4, 1, 14, -43, -1, 56, -12, -54, 41, -74], "withholdReward": false, "trial_id": "mdp_trial_2", "block": "test", "trialIndex": 3, "score": 54.5, "costs": -10.5, "simulationMode": [null, null, null, null, null], "rewards": [-2, -4, 1, 14, 56], "path": ["0", "0", "23", "24", "25", "26", "29"], "rt": [17336, 323, 132, 260, 152], "actions": ["left", "left", "left", "up", "left"], "actionTimes": [23973, 24794, 25420, 26180, 26824], "queries": {"click": {"state": {"target": ["25", "28", "26", "27", "29", "30"], "time": [8467, 10077, 13562, 15345, 18909, 22094]}, "edge": {"target": [], "time": []}}, "mouseover": {"state": {"target": ["23", "24", "25", "28", "26", "27", "29", "25", "30"], "time": [7345, 7512, 7962, 9464, 10799, 14648, 16634, 20118, 20568]}, "edge": {"target": [], "time": []}}, "mouseout": {"state": {"target": ["23", "23", "24", "25", "28", "26", "27", "29", "25", "30"], "time": [4411, 7429, 7696, 9247, 10766, 14599, 16135, 19851, 20502, 22987]}, "edge": {"target": [], "time": []}}}, "displayed_time": "27.32", "trialTime": 36310, "trial_type": "mouselab-mdp", "trial_index": 10, "time_elapsed": 1078732, "internal_node_id": "0.0-4.0-1.0-1.0"}}, {"uniqueid": "w63777449:a10749351", "current_trial": 11, "dateTime": 1691160431460, "trialdata": {"revealed_states": [], "clicked_states": ["23", "24", "25", "26", "27", "28", "29", "30", "32", "33", "31", "1", "2", "3", "4", "5", "6"], "num_clicks_accrued": [0, 0, 0, 0, 0, 0, 0, 0, 0, 0, 0, 0, 0], "stateRewards": ["", -1, -2, 4, 9, 10, -75, 39, 16, -43, 88, -19, -1, 1, 2, 4, -31, 10, 73, 12, 41, -64, -81, -2, 2, -6, 1, -81, -1, -26, 3, -59, -3, -20], "withholdReward": false, "trial_id": "mdp_trial_3", "block": "test", "trialIndex": 4, "score": -3.9499999999999993, "costs": -23.95, "simulationMode": [null, null, null, null, null], "rewards": [-1, -2, 4, 9, 10], "path": ["0", "0", "1", "2", "3", "4", "5"], "rt": [40911, 188, 38, 124, 94], "actions": ["up", "up", "up", "right", "up"], "actionTimes": [43085, 43784, 44319, 44953, 45558], "queries": {"click": {"state": {"target": ["23", "24", "25", "26", "27", "28", "29", "30", "32", "33", "31", "1", "2", "3", "4", "5", "6"], "time": [3435, 4514, 5628, 6827, 8377, 11745, 15227, 18056, 19558, 22943, 26015, 30527, 32169, 33870, 35256, 36904, 39750]}, "edge": {"target": [], "time": []}}, "mouseover": {"state": {"target": ["23", "24", "25", "26", "27", "28", "26", "29", "25", "30", "32", "33", "30", "31", "0", "0", "1", "3", "2", "1", "2", "3", "4", "5", "6", "7", "2"], "time": [2995, 4230, 5031, 6264, 7980, 10433, 12150, 12268, 16451, 16617, 19203, 20737, 23704, 23738, 28806, 29238, 29339, 29839, 29905, 30155, 31140, 32792, 34709, 36393, 37526, 40694, 42111]}, "edge": {"target": [], "time": []}}, "mouseout": {"state": {"target": ["0", "23", "24", "25", "26", "27", "28", "26", "29", "25", "30", "32", "33", "30", "31", "0", "0", "1", "3", "2", "1", "2", "3", "4", "5", "6", "7"], "time": [2896, 3947, 4914, 6198, 7632, 10100, 12133, 12217, 16333, 16500, 19035, 20520, 23688, 23721, 27072, 29172, 29272, 29589, 29855, 30039, 31007, 32758, 34492, 36160, 37493, 40461, 42011]}, "edge": {"target": [], "time": []}}}, "displayed_time": "46.06", "trialTime": 50919, "trial_type": "mouselab-mdp", "trial_index": 11, "time_elapsed": 1129803, "internal_node_id": "0.0-4.0-1.0-2.0"}}, {"uniqueid": "w63777449:a10749351", "current_trial": 12, "dateTime": 1691160476746, "trialdata": {"revealed_states": [], "clicked_states": ["12", "13", "14", "19", "21", "22", "20", "15", "17", "16"], "num_clicks_accrued": [0, 0, 0, 0, 0, 0, 0, 0, 0, 0, 0, 0, 0], "stateRewards": ["", 1, 1, -5, 10, -31, 73, 14, -8, -23, 63, -70, -1, 2, 8, 7, 25, -59, 27, -10, -40, -71, -15, -2, 3, -8, -5, -19, 77, -34, 7, 67, 63, 19], "withholdReward": false, "trial_id": "mdp_trial_4", "block": "test", "trialIndex": 5, "score": 26.099999999999998, "costs": -14.900000000000002, "simulationMode": [null, null, null, null, null], "rewards": [-1, 2, 8, 7, 25], "path": ["0", "0", "12", "13", "14", "15", "16"], "rt": [29157, 586, 457, 3131, 1456], "actions": ["right", "right", "right", "up", "up"], "actionTimes": [33615, 34696, 35649, 39290, 41249], "queries": {"click": {"state": {"target": ["12", "13", "14", "19", "21", "22", "20", "15", "17", "16"], "time": [6058, 8355, 10574, 11998, 13565, 16358, 19640, 23105, 25073, 28252]}, "edge": {"target": [], "time": []}}, "mouseover": {"state": {"target": ["12", "12", "12", "13", "14", "19", "21", "14", "14", "22", "19", "20", "14", "15", "17", "16", "18"], "time": [5063, 5362, 5580, 6965, 10114, 11682, 13166, 14300, 14785, 15083, 17368, 17485, 21736, 22737, 24138, 25888, 29373]}, "edge": {"target": [], "time": []}}, "mouseout": {"state": {"target": ["2", "1", "0", "12", "0", "12", "12", "12", "13", "14", "19", "21", "19", "14", "14", "22", "19", "20", "14", "15", "17", "16", "18"], "time": [844, 977, 1427, 2561, 5062, 5129, 5463, 6547, 10014, 11466, 12716, 14233, 14267, 14334, 14800, 17351, 17401, 21519, 22186, 23803, 25821, 29039, 32956]}, "edge": {"target": [], "time": []}}}, "displayed_time": "41.74", "trialTime": 45135, "trial_type": "mouselab-mdp", "trial_index": 12, "time_elapsed": 1175089, "internal_node_id": "0.0-4.0-1.0-3.0"}}, {"uniqueid": "w63777449:a10749351", "current_trial": 13, "dateTime": 1691160506524, "trialdata": {"revealed_states": [], "clicked_states": ["12", "13", "14", "19", "21", "20"], "num_clicks_accrued": [0, 0, 0, 0, 0, 0, 0, 0, 0, 0, 0, 0, 0], "stateRewards": ["", 2, 3, 6, -12, -29, 12, 87, 4, 35, -30, 67, 2, 3, -5, -9, 44, 69, -8, 1, 45, -8, 28, -2, -1, -8, 11, -12, -5, 81, 9, 87, 82, 88], "withholdReward": false, "trial_id": "mdp_trial_5", "block": "test", "trialIndex": 6, "score": 39.1, "costs": -6.9, "simulationMode": [null, null, null, null, null], "rewards": [2, 3, -5, 1, 45], "path": ["0", "0", "12", "13", "14", "19", "20"], "rt": [16475, 388, 335, 203, 134], "actions": ["right", "right", "right", "down", "right"], "actionTimes": [20155, 21036, 21865, 22567, 23199], "queries": {"click": {"state": {"target": ["12", "13", "14", "19", "21", "20"], "time": [5460, 6639, 8345, 10158, 11308, 14500]}, "edge": {"target": [], "time": []}}, "mouseover": {"state": {"target": ["12", "12", "13", "14", "19", "21", "20", "19", "22"], "time": [4371, 4938, 6207, 7723, 9875, 10858, 12158, 14943, 15093]}, "edge": {"target": [], "time": []}}, "mouseout": {"state": {"target": ["12", "12", "12", "13", "14", "19", "19", "21", "20", "19", "22"], "time": [1920, 4422, 5973, 7491, 9623, 10372, 10676, 11531, 14928, 14994, 19495]}, "edge": {"target": [], "time": []}}}, "displayed_time": "23.70", "trialTime": 29622, "trial_type": "mouselab-mdp", "trial_index": 13, "time_elapsed": 1204867, "internal_node_id": "0.0-4.0-1.0-4.0"}}, {"uniqueid": "w63777449:a10749351", "current_trial": 14, "dateTime": 1691160532218, "trialdata": {"revealed_states": [], "clicked_states": ["1", "2", "3", "4", "5", "6"], "num_clicks_accrued": [0, 0, 0, 0, 0, 0, 0, 0, 0, 0, 0, 0, 0], "stateRewards": ["", -1, -3, -6, 14, 41, 18, 63, -14, 80, 21, 17, -2, -4, -2, -5, 13, 70, 8, -4, -64, -10, -20, 2, -1, 4, -1, -17, -55, 42, -7, 47, 54, 15], "withholdReward": false, "trial_id": "mdp_trial_6", "block": "test", "trialIndex": 7, "score": 38.1, "costs": -6.9, "simulationMode": [null, null, null, null, null, null], "rewards": [-1, -3, -6, 14, 41], "path": ["0", "0", "1", "2", "3", "4", "5"], "rt": [15324, 1042, 384, 113, 289, 153], "actions": ["up", "up", "up", "up", "right", "up"], "actionTimes": [17662, 18708, 19602, 20214, 21006, 21655], "queries": {"click": {"state": {"target": ["1", "2", "3", "4", "5", "6"], "time": [4691, 7336, 9067, 10846, 12672, 15966]}, "edge": {"target": [], "time": []}}, "mouseover": {"state": {"target": ["0", "23", "1", "2", "3", "4", "5", "6"], "time": [3159, 3209, 4394, 5129, 8096, 10279, 12364, 13365]}, "edge": {"target": [], "time": []}}, "mouseout": {"state": {"target": ["0", "23", "1", "2", "3", "4", "5"], "time": [3193, 4110, 5112, 7962, 10013, 12063, 13198]}, "edge": {"target": [], "time": []}}}, "displayed_time": "22.15", "trialTime": 25543, "trial_type": "mouselab-mdp", "trial_index": 14, "time_elapsed": 1230560, "internal_node_id": "0.0-4.0-1.0-5.0"}}, {"uniqueid": "w63777449:a10749351", "current_trial": 15, "dateTime": 1691160559305, "trialdata": {"revealed_states": [], "clicked_states": ["23", "24", "25", "30", "33", "32"], "num_clicks_accrued": [0, 0, 0, 0, 0, 0, 0, 0, 0, 0, 0, 0, 0], "stateRewards": ["", 2, -4, 1, -12, -59, -53, -74, 16, -88, -66, 66, 1, -2, 8, -9, -14, 22, 25, -1, -39, 47, -14, -1, -1, -2, 1, -4, 52, -26, 15, -7, 46, 43], "withholdReward": false, "trial_id": "mdp_trial_7", "block": "test", "trialIndex": 8, "score": 50.1, "costs": -6.9, "simulationMode": [null, null, null, null, null], "rewards": [-1, -1, -2, 15, 46], "path": ["0", "0", "23", "24", "25", "30", "32"], "rt": [14390, 67, 59, 422, 70], "actions": ["left", "left", "left", "down", "down"], "actionTimes": [19156, 19719, 20277, 21207, 21773], "queries": {"click": {"state": {"target": ["23", "24", "25", "30", "33", "32"], "time": [6161, 7120, 8334, 9751, 11827, 14692]}, "edge": {"target": [], "time": []}}, "mouseover": {"state": {"target": ["23", "24", "25", "30", "33", "30", "32", "31"], "time": [5761, 6905, 7780, 9378, 10747, 12981, 13264, 15448]}, "edge": {"target": [], "time": []}}, "mouseout": {"state": {"target": ["6", "7", "1", "23", "24", "25", "30", "30", "33", "30", "32"], "time": [3876, 3942, 4159, 6904, 7647, 9130, 9970, 10514, 12897, 13017, 15398]}, "edge": {"target": [], "time": []}}}, "displayed_time": "22.27", "trialTime": 26920, "trial_type": "mouselab-mdp", "trial_index": 15, "time_elapsed": 1257648, "internal_node_id": "0.0-4.0-1.0-6.0"}}, {"uniqueid": "w63777449:a10749351", "current_trial": 16, "dateTime": 1691160593057, "trialdata": {"revealed_states": [], "clicked_states": ["1", "2", "3", "8", "10", "11", "9", "4", "5"], "num_clicks_accrued": [0, 0, 0, 0, 0, 0, 0, 0, 0, 0, 0, 0, 0], "stateRewards": ["", 2, -4, 7, 3, 23, -42, 4, 7, -81, -33, 7, -2, -4, 5, -1, 50, -57, -14, -13, -14, 44, 55, -2, -2, 5, -2, 33, 1, 57, -13, -7, 58, 87], "withholdReward": false, "trial_id": "mdp_trial_8", "block": "test", "trialIndex": 9, "score": 18.25, "costs": -12.750000000000002, "simulationMode": [null, null, null, null, null], "rewards": [2, -4, 7, 3, 23], "path": ["0", "0", "1", "2", "3", "4", "5"], "rt": [24538, 62, 236, 31, 40], "actions": ["up", "up", "up", "right", "up"], "actionTimes": [29174, 29732, 30472, 31002, 31560], "queries": {"click": {"state": {"target": ["1", "2", "3", "8", "10", "11", "9", "4", "5"], "time": [7312, 8511, 9613, 10584, 11771, 15094, 18532, 21484, 24119]}, "edge": {"target": [], "time": []}}, "mouseover": {"state": {"target": ["12", "1", "12", "23", "1", "2", "3", "8", "10", "11", "9", "5", "4", "5", "6"], "time": [5342, 5592, 6042, 6292, 6492, 7961, 9144, 10178, 11379, 14330, 15813, 19465, 20499, 22582, 25018]}, "edge": {"target": [], "time": []}}, "mouseout": {"state": {"target": ["31", "0", "12", "1", "12", "23", "1", "2", "3", "3", "8", "10", "11", "9", "5", "4", "5"], "time": [3775, 5310, 5476, 5892, 6193, 6326, 7711, 9110, 9832, 10078, 11329, 13997, 15680, 18752, 20082, 22548, 24700]}, "edge": {"target": [], "time": []}}}, "displayed_time": "32.07", "trialTime": 33493, "trial_type": "mouselab-mdp", "trial_index": 16, "time_elapsed": 1291399, "internal_node_id": "0.0-4.0-1.0-7.0"}}, {"uniqueid": "w63777449:a10749351", "current_trial": 17, "dateTime": 1691160632843, "trialdata": {"revealed_states": [], "clicked_states": [], "num_clicks_accrued": [0, 0, 0, 0, 0, 0, 0, 0, 0, 0, 0, 0, 0], "stateRewards": ["", 1, 1, -3, 7, 49, 78, 26, -5, 26, 48, -43, -1, -3, 2, -5, 4, -1, -60, 10, -35, 51, 81, -2, 1, -7, -5, -39, -86, -54, 4, -3, 74, 77], "withholdReward": false, "trial_id": "mdp_trial_9", "block": "test", "trialIndex": 10, "score": 84, "costs": 0, "simulationMode": [null, null, null, null, null], "rewards": [1, 1, -3, 7, 78], "path": ["0", "0", "1", "2", "3", "4", "6"], "rt": [13377, 187, 309, 95, 23], "actions": ["up", "up", "up", "right", "right"], "actionTimes": [34305, 34986, 35792, 36379, 36906], "queries": {"click": {"state": {"target": [], "time": []}, "edge": {"target": [], "time": []}}, "mouseover": {"state": {"target": ["0", "0", "0", "1"], "time": [21458, 26705, 27178, 28311]}, "edge": {"target": [], "time": []}}, "mouseout": {"state": {"target": ["6", "0", "0", "0", "0"], "time": [20791, 20938, 25559, 26794, 27804]}, "edge": {"target": [], "time": []}}}, "displayed_time": "37.40", "trialTime": 39627, "trial_type": "mouselab-mdp", "trial_index": 17, "time_elapsed": 1331186, "internal_node_id": "0.0-4.0-1.0-8.0"}}, {"uniqueid": "w63777449:a10749351", "current_trial": 18, "dateTime": 1691160651872, "trialdata": {"revealed_states": [], "clicked_states": ["12", "13", "14", "19", "20"], "num_clicks_accrued": [0, 0, 0, 0, 0, 0, 0, 0, 0, 0, 0, 0, 0], "stateRewards": ["", -2, 4, -7, -3, -76, 39, -28, 10, 14, 12, 60, 2, -3, 6, -10, 88, -34, -41, -3, 72, -13, -56, 1, 3, 2, 8, -51, 23, -57, 1, 14, -46, -16], "withholdReward": false, "trial_id": "mdp_trial_10", "block": "test", "trialIndex": 11, "score": 69.25, "costs": -4.75, "simulationMode": [null, null, null, null, null], "rewards": [2, -3, 6, -3, 72], "path": ["0", "0", "12", "13", "14", "19", "20"], "rt": [11162, 169, 59, 221, 148], "actions": ["right", "right", "right", "down", "right"], "actionTimes": [13612, 14289, 14864, 15591, 16236], "queries": {"click": {"state": {"target": ["12", "13", "14", "19", "20"], "time": [4476, 5661, 6840, 7918, 8785]}, "edge": {"target": [], "time": []}}, "mouseover": {"state": {"target": ["0", "23", "0", "12", "12", "13", "14", "19", "20", "21"], "time": [3348, 3465, 3766, 3849, 4066, 5301, 6501, 7467, 8402, 9269]}, "edge": {"target": [], "time": []}}, "mouseout": {"state": {"target": ["1", "0", "23", "0", "12", "12", "13", "14", "19", "20", "21"], "time": [1680, 3382, 3732, 3815, 3916, 4983, 6219, 7301, 8351, 9135, 12935]}, "edge": {"target": [], "time": []}}}, "displayed_time": "16.74", "trialTime": 18854, "trial_type": "mouselab-mdp", "trial_index": 18, "time_elapsed": 1350214, "internal_node_id": "0.0-4.0-1.0-9.0"}}, {"uniqueid": "w63777449:a10749351", "current_trial": 19, "dateTime": 1691160676329, "trialdata": {"revealed_states": [], "clicked_states": ["1", "2", "3", "4", "5", "7", "6"], "num_clicks_accrued": [0, 0, 0, 0, 0, 0, 0, 0, 0, 0, 0, 0, 0], "stateRewards": ["", 2, -3, -4, -1, 25, -16, 16, 10, -71, -20, -55, 1, 3, -4, -9, 1, 32, 11, -6, 32, -50, -41, -1, 4, 4, -8, 7, -81, 70, 2, -52, 45, -10], "withholdReward": false, "trial_id": "mdp_trial_11", "block": "test", "trialIndex": 12, "score": 9.95, "costs": -9.05, "simulationMode": [null, null, null, null, null, null], "rewards": [2, -3, -4, -1, 25], "path": ["0", "0", "1", "2", "3", "4", "5"], "rt": [17676, 221, 2, 15, 102, 127], "actions": ["up", "up", "up", "up", "right", "up"], "actionTimes": [20160, 20383, 20903, 21431, 22035, 22660], "queries": {"click": {"state": {"target": ["1", "2", "3", "4", "5", "7", "6"], "time": [5249, 6278, 8063, 9801, 11220, 14259, 18403]}, "edge": {"target": [], "time": []}}, "mouseover": {"state": {"target": ["1", "23", "1", "2", "3", "3", "4", "5", "5", "7", "6"], "time": [3891, 4158, 4791, 5595, 6660, 7665, 9494, 10394, 10877, 12245, 15081]}, "edge": {"target": [], "time": []}}, "mouseout": {"state": {"target": ["0", "1", "23", "1", "2", "3", "3", "4", "5", "5", "5", "7"], "time": [3859, 4092, 4742, 5576, 6499, 6778, 8283, 10344, 10462, 11449, 11897, 14914]}, "edge": {"target": [], "time": []}}}, "displayed_time": "23.15", "trialTime": 24279, "trial_type": "mouselab-mdp", "trial_index": 19, "time_elapsed": 1374671, "internal_node_id": "0.0-4.0-1.0-10.0"}}, {"uniqueid": "w63777449:a10749351", "current_trial": 20, "dateTime": 1691160695688, "trialdata": {"revealed_states": [], "clicked_states": ["1", "2", "3", "8", "11"], "num_clicks_accrued": [0, 0, 0, 0, 0, 0, 0, 0, 0, 0, 0, 0, 0], "stateRewards": ["", -1, 1, 8, -8, -49, 62, -78, 16, 28, -81, 78, -2, -3, -1, -4, 67, 49, -2, -13, -16, -39, 83, 1, -4, 4, -5, -20, 7, 84, 7, -32, -59, 19], "withholdReward": false, "trial_id": "mdp_trial_12", "block": "test", "trialIndex": 13, "score": 97.25, "costs": -4.75, "simulationMode": [null, null, null, null, null], "rewards": [-1, 1, 8, 16, 78], "path": ["0", "0", "1", "2", "3", "8", "11"], "rt": [12372, 133, 51, 148, 124], "actions": ["up", "up", "up", "left", "left"], "actionTimes": [14792, 15425, 15975, 16638, 17266], "queries": {"click": {"state": {"target": ["1", "2", "3", "8", "11"], "time": [5005, 5944, 7374, 8672, 9784]}, "edge": {"target": [], "time": []}}, "mouseover": {"state": {"target": ["23", "23", "1", "1", "2", "2", "3", "8", "11", "9"], "time": [3184, 3419, 3668, 4151, 5303, 5554, 6620, 8021, 9438, 11439]}, "edge": {"target": [], "time": []}}, "mouseout": {"state": {"target": ["6", "0", "23", "23", "1", "1", "2", "2", "3", "8", "11"], "time": [1316, 1906, 3218, 3553, 3768, 5287, 5336, 6161, 7904, 9338, 11255]}, "edge": {"target": [], "time": []}}}, "displayed_time": "17.76", "trialTime": 19207, "trial_type": "mouselab-mdp", "trial_index": 20, "time_elapsed": 1394031, "internal_node_id": "0.0-4.0-1.0-11.0"}}, {"uniqueid": "w63777449:a10749351", "current_trial": 21, "dateTime": 1691160716641, "trialdata": {"revealed_states": [], "clicked_states": ["23", "24", "25", "30", "33"], "num_clicks_accrued": [0, 0, 0, 0, 0, 0, 0, 0, 0, 0, 0, 0, 0], "stateRewards": ["", 2, -3, 5, -14, -63, -9, -24, -11, -54, -43, 68, 2, -2, -4, 7, -64, 30, 47, 12, -74, 11, 86, 1, -3, 3, 10, -71, -42, -52, -1, -29, -16, 69], "withholdReward": false, "trial_id": "mdp_trial_13", "block": "test", "trialIndex": 14, "score": 64.25, "costs": -4.75, "simulationMode": [null, null, null, null, null], "rewards": [1, -3, 3, -1, 69], "path": ["0", "0", "23", "24", "25", "30", "33"], "rt": [12528, 402, 79, 257, 244], "actions": ["left", "left", "left", "down", "left"], "actionTimes": [14711, 15608, 16184, 16933, 17667], "queries": {"click": {"state": {"target": ["23", "24", "25", "30", "33"], "time": [4213, 5311, 6329, 7882, 10111]}, "edge": {"target": [], "time": []}}, "mouseover": {"state": {"target": ["0", "23", "24", "25", "30", "33", "31"], "time": [3399, 3765, 4950, 5969, 7418, 9818, 11070]}, "edge": {"target": [], "time": []}}, "mouseout": {"state": {"target": ["9", "8", "1", "0", "23", "24", "25", "30", "33", "30"], "time": [964, 1148, 1433, 3599, 4850, 5901, 7267, 9634, 10802, 10904]}, "edge": {"target": [], "time": []}}}, "displayed_time": "18.17", "trialTime": 20767, "trial_type": "mouselab-mdp", "trial_index": 21, "time_elapsed": 1414984, "internal_node_id": "0.0-4.0-1.0-12.0"}}, {"uniqueid": "w63777449:a10749351", "current_trial": 22, "dateTime": 1691160775759, "trialdata": {"revealed_states": [], "clicked_states": ["23", "24", "25", "26", "28", "27", "29", "30", "32", "31", "33", "1", "2", "3", "8", "11", "9", "10", "4", "6"], "num_clicks_accrued": [0, 0, 0, 0, 0, 0, 0, 0, 0, 0, 0, 0, 0], "stateRewards": ["", -1, 1, -1, 2, 19, 85, -18, 2, -3, -26, 36, 2, 4, 7, -9, -18, 70, 72, -5, 35, -20, -28, 1, -2, -4, -3, -59, -11, -63, -2, -72, 59, -69], "withholdReward": false, "trial_id": "mdp_trial_14", "block": "test", "trialIndex": 15, "score": 56.2, "costs": -29.799999999999997, "simulationMode": [null, null, null, null, null], "rewards": [-1, 1, -1, 2, 85], "path": ["0", "0", "1", "2", "3", "4", "6"], "rt": [50746, 150, 46, 368, 918], "actions": ["up", "up", "up", "right", "right"], "actionTimes": [53592, 54231, 54776, 55663, 57081], "queries": {"click": {"state": {"target": ["23", "24", "25", "26", "28", "27", "29", "30", "32", "31", "33", "1", "2", "3", "8", "11", "9", "10", "4", "6"], "time": [4385, 5329, 6376, 7208, 8427, 11669, 15082, 18511, 20438, 24209, 27026, 31125, 33087, 34760, 35831, 37339, 41019, 44319, 47254, 48837]}, "edge": {"target": [], "time": []}}, "mouseover": {"state": {"target": ["0", "23", "24", "25", "26", "28", "27", "29", "25", "30", "30", "32", "31", "30", "33", "23", "24", "32", "24", "10", "8", "10", "10", "2", "1", "2", "3", "8", "11", "9", "8", "10", "2", "4", "6", "7"], "time": [3542, 3941, 4975, 5992, 6810, 8111, 8861, 12095, 15813, 15880, 16230, 19066, 21100, 24717, 25217, 28502, 28619, 28736, 28969, 29086, 29336, 29818, 30101, 30635, 30735, 32507, 33955, 35455, 36771, 39491, 41657, 41892, 45995, 46709, 48142, 49777]}, "edge": {"target": [], "time": []}}, "mouseout": {"state": {"target": ["31", "0", "0", "23", "24", "24", "25", "26", "28", "27", "29", "25", "30", "30", "32", "31", "30", "33", "23", "24", "31", "32", "24", "10", "8", "10", "10", "2", "1", "2", "3", "8", "11", "9", "8", "10", "2", "4", "6"], "time": [1924, 2532, 3758, 4859, 5547, 5842, 6777, 7977, 8811, 12045, 15746, 15847, 16048, 18900, 20883, 24684, 24852, 28052, 28536, 28635, 28669, 28920, 29003, 29302, 29453, 29869, 30585, 30686, 31853, 33770, 35388, 36638, 39389, 41624, 41724, 45942, 46041, 48092, 49544]}, "edge": {"target": [], "time": []}}}, "displayed_time": "57.58", "trialTime": 58869, "trial_type": "mouselab-mdp", "trial_index": 22, "time_elapsed": 1474102, "internal_node_id": "0.0-4.0-1.0-13.0"}}, {"uniqueid": "w63777449:a10749351", "current_trial": 23, "dateTime": 1691160800872, "trialdata": {"revealed_states": [], "clicked_states": ["12", "13", "14", "19", "21", "20"], "num_clicks_accrued": [0, 0, 0, 0, 0, 0, 0, 0, 0, 0, 0, 0, 0], "stateRewards": ["", 2, -3, -8, 14, -7, -51, 73, 2, 36, 36, -43, -1, 3, -4, 1, 6, 87, -65, 15, 61, -42, -83, -1, 3, -2, -7, 30, -48, 35, 13, 26, 60, 78], "withholdReward": false, "trial_id": "mdp_trial_15", "block": "test", "trialIndex": 16, "score": 67.1, "costs": -6.9, "simulationMode": [null, null, null, null, null], "rewards": [-1, 3, -4, 15, 61], "path": ["0", "0", "12", "13", "14", "19", "20"], "rt": [15361, 37, 339, 121, 250], "actions": ["right", "right", "right", "down", "right"], "actionTimes": [19535, 20091, 20958, 21591, 22337], "queries": {"click": {"state": {"target": ["12", "13", "14", "19", "21", "20"], "time": [5331, 6783, 8281, 9834, 11565, 15121]}, "edge": {"target": [], "time": []}}, "mouseover": {"state": {"target": ["12", "13", "14", "19", "21", "20", "19", "22"], "time": [4894, 5730, 7830, 9215, 11031, 12332, 15550, 15633]}, "edge": {"target": [], "time": []}}, "mouseout": {"state": {"target": ["7", "1", "0", "0", "12", "13", "14", "19", "21", "20", "19"], "time": [3178, 3327, 3510, 4862, 5696, 7530, 8964, 10698, 11775, 15533, 15583]}, "edge": {"target": [], "time": []}}}, "displayed_time": "22.84", "trialTime": 24929, "trial_type": "mouselab-mdp", "trial_index": 23, "time_elapsed": 1499215, "internal_node_id": "0.0-4.0-1.0-14.0"}}, {"uniqueid": "w63777449:a10749351", "current_trial": 24, "dateTime": 1691160888263, "trialdata": {"revealed_states": [], "clicked_states": ["1", "2", "3", "4", "6", "7", "5", "9", "10", "8", "11", "23", "24", "25", "26", "28", "29", "27", "30", "32", "33", "31", "12", "13", "14", "19", "21", "20", "22"], "num_clicks_accrued": [0, 0, 0, 0, 0, 0, 0, 0, 0, 0, 0, 0, 0], "stateRewards": ["", -2, -4, -6, 12, -58, -70, -80, 2, 16, -88, -62, 1, 2, -5, 11, 77, -35, -44, -5, 18, -83, 87, 1, -3, -5, 13, -44, -21, -86, 10, -52, 8, 29], "withholdReward": false, "trial_id": "mdp_trial_16", "block": "test", "trialIndex": 17, "score": 36.85000000000001, "costs": -43.14999999999999, "simulationMode": [null, null, null, null, null], "rewards": [1, 2, -5, -5, 87], "path": ["0", "0", "12", "13", "14", "19", "22"], "rt": [77160, 9, 292, 248, 737], "actions": ["right", "right", "right", "down", "left"], "actionTimes": [81918, 82421, 83222, 83978, 85216], "queries": {"click": {"state": {"target": ["1", "2", "3", "4", "6", "7", "5", "9", "10", "8", "11", "23", "24", "25", "26", "28", "29", "27", "30", "32", "33", "31", "12", "13", "14", "19", "21", "20", "22"], "time": [6469, 8776, 10226, 11574, 13772, 18461, 21428, 25913, 29236, 32027, 33429, 37477, 38883, 40203, 41585, 42819, 46114, 49113, 52659, 54699, 57879, 61628, 65442, 66731, 67975, 69557, 70696, 73836, 77042]}, "edge": {"target": [], "time": []}}, "mouseover": {"state": {"target": ["12", "12", "1", "2", "3", "4", "7", "6", "7", "4", "5", "9", "8", "10", "8", "11", "2", "1", "0", "23", "24", "25", "26", "28", "29", "29", "29", "27", "26", "25", "25", "25", "30", "32", "33", "30", "31", "22", "13", "12", "13", "14", "19", "21", "20", "19", "22", "14", "17", "15"], "time": [5581, 5947, 6014, 8772, 9784, 11100, 13034, 13317, 14619, 18986, 19036, 22505, 26841, 27291, 29908, 32826, 35027, 35159, 35410, 35728, 38144, 39795, 40761, 42279, 43395, 43597, 43979, 46797, 50049, 50232, 50816, 51801, 52232, 53400, 56001, 58570, 58618, 63837, 64204, 64372, 65937, 67422, 68691, 70323, 71323, 74458, 74592, 77960, 78343, 78843]}, "edge": {"target": [], "time": []}}, "mouseout": {"state": {"target": ["22", "0", "0", "12", "12", "1", "2", "3", "4", "4", "7", "6", "7", "4", "5", "9", "8", "10", "8", "11", "8", "2", "1", "0", "23", "24", "25", "26", "28", "26", "29", "29", "29", "27", "26", "25", "25", "25", "30", "32", "33", "30", "31", "22", "13", "12", "13", "14", "19", "21", "20", "19", "22", "14", "17"], "time": [1162, 4063, 5548, 5614, 5964, 8771, 9683, 11051, 11804, 12967, 13250, 14452, 18970, 19003, 22155, 26757, 27056, 29891, 32252, 34659, 34893, 35076, 35376, 35427, 38110, 39745, 40711, 42245, 43329, 43380, 43412, 43663, 46648, 50017, 50099, 50399, 51266, 52205, 53317, 55719, 58553, 58601, 63437, 64188, 64338, 65923, 67359, 68555, 70006, 71190, 74442, 74509, 77909, 78009, 78826]}, "edge": {"target": [], "time": []}}}, "displayed_time": "85.71", "trialTime": 87213, "trial_type": "mouselab-mdp", "trial_index": 24, "time_elapsed": 1586606, "internal_node_id": "0.0-4.0-1.0-15.0"}}, {"uniqueid": "w63777449:a10749351", "current_trial": 25, "dateTime": 1691160906082, "trialdata": {"revealed_states": [], "clicked_states": ["12", "13", "14", "19", "21"], "num_clicks_accrued": [0, 0, 0, 0, 0, 0, 0, 0, 0, 0, 0, 0, 0], "stateRewards": ["", 2, -4, 4, 9, 69, 9, -75, 12, -86, 66, 25, -1, 3, 2, -13, -88, -3, 1, 4, -69, 49, -84, 2, -1, 4, 2, -18, -81, -52, -15, -69, -54, 25], "withholdReward": false, "trial_id": "mdp_trial_17", "block": "test", "trialIndex": 18, "score": 52.25, "costs": -4.75, "simulationMode": [null, null, null, null, null], "rewards": [-1, 3, 2, 4, 49], "path": ["0", "0", "12", "13", "14", "19", "21"], "rt": [10429, 232, 64, 254, 107], "actions": ["right", "right", "right", "down", "down"], "actionTimes": [12709, 13438, 14020, 14776, 15381], "queries": {"click": {"state": {"target": ["12", "13", "14", "19", "21"], "time": [3467, 4903, 5653, 6679, 8779]}, "edge": {"target": [], "time": []}}, "mouseover": {"state": {"target": ["12", "13", "13", "14", "19", "21", "20"], "time": [3000, 3817, 4618, 5403, 6187, 7486, 10037]}, "edge": {"target": [], "time": []}}, "mouseout": {"state": {"target": ["15", "13", "12", "0", "12", "13", "13", "14", "19", "21"], "time": [1050, 1349, 1399, 2967, 3786, 3868, 5219, 6136, 7270, 9954]}, "edge": {"target": [], "time": []}}}, "displayed_time": "16.28", "trialTime": 17636, "trial_type": "mouselab-mdp", "trial_index": 25, "time_elapsed": 1604425, "internal_node_id": "0.0-4.0-1.0-16.0"}}, {"uniqueid": "w63777449:a10749351", "current_trial": 26, "dateTime": 1691160942896, "trialdata": {"revealed_states": [], "clicked_states": ["1", "2", "3", "4", "6", "7", "5", "9", "8"], "num_clicks_accrued": [0, 0, 0, 0, 0, 0, 0, 0, 0, 0, 0, 0, 0], "stateRewards": ["", 2, -1, -2, -5, -47, -57, -33, -11, 31, -18, -72, -2, 1, -4, -8, -46, -53, -50, 15, -85, -9, 39, -2, -2, 1, 14, -1, -8, 53, -12, -41, -74, 62], "withholdReward": false, "trial_id": "mdp_trial_18", "block": "test", "trialIndex": 19, "score": 6.25, "costs": -12.750000000000002, "simulationMode": [null, null, null, null, null], "rewards": [2, -1, -2, -11, 31], "path": ["0", "0", "1", "2", "3", "8", "9"], "rt": [29576, 191, 5, 229, 172], "actions": ["up", "up", "up", "left", "up"], "actionTimes": [31972, 32660, 33158, 33899, 34590], "queries": {"click": {"state": {"target": ["1", "2", "3", "4", "6", "7", "5", "9", "8"], "time": [3826, 5040, 7159, 8824, 10264, 13513, 16751, 20040, 23154]}, "edge": {"target": [], "time": []}}, "mouseover": {"state": {"target": ["0", "1", "2", "3", "4", "6", "7", "4", "5", "9", "8", "10", "10"], "time": [3071, 3522, 4190, 6423, 8527, 9559, 11059, 13943, 14011, 17245, 20479, 23697, 24148]}, "edge": {"target": [], "time": []}}, "mouseout": {"state": {"target": ["20", "19", "12", "0", "0", "1", "2", "3", "4", "6", "7", "4", "5", "9", "8", "10"], "time": [753, 1020, 1488, 2988, 3206, 4122, 5974, 8307, 9492, 10909, 13927, 13979, 17162, 20446, 23680, 23730]}, "edge": {"target": [], "time": []}}}, "displayed_time": "35.09", "trialTime": 36613, "trial_type": "mouselab-mdp", "trial_index": 26, "time_elapsed": 1641238, "internal_node_id": "0.0-4.0-1.0-17.0"}}, {"uniqueid": "w63777449:a10749351", "current_trial": 27, "dateTime": 1691160978527, "trialdata": {"revealed_states": [], "clicked_states": ["23", "24", "25", "26", "27", "28", "29", "30", "33", "31", "1"], "num_clicks_accrued": [0, 0, 0, 0, 0, 0, 0, 0, 0, 0, 0, 0, 0], "stateRewards": ["", -2, -2, -3, -6, -15, -11, 41, -12, -63, -76, 2, -2, -3, 8, 9, -36, -2, -18, -16, -32, -85, -17, -2, 1, 5, -16, 82, 35, -88, -1, 80, -82, -20], "withholdReward": false, "trial_id": "mdp_trial_19", "block": "test", "trialIndex": 20, "score": -93.65, "costs": -14.650000000000002, "simulationMode": [null, null, null, null, null], "rewards": [-2, 1, 5, -1, -82], "path": ["0", "0", "23", "24", "25", "30", "32"], "rt": [25592, 133, 105, 600, 116], "actions": ["left", "left", "left", "down", "down"], "actionTimes": [27560, 28195, 28800, 29913, 30528], "queries": {"click": {"state": {"target": ["23", "24", "25", "26", "27", "28", "29", "30", "33", "31", "1"], "time": [3451, 4445, 5573, 6349, 7163, 10495, 14672, 18059, 19051, 22897, 26326]}, "edge": {"target": [], "time": []}}, "mouseover": {"state": {"target": ["23", "24", "25", "25", "26", "27", "28", "29", "26", "28", "28", "26", "29", "25", "30", "30", "33", "32", "31", "0", "1", "2", "1"], "time": [3150, 4102, 4856, 5318, 5935, 6770, 7520, 8769, 9789, 9853, 10120, 10920, 11020, 15957, 16124, 16907, 18640, 19925, 22474, 24227, 24425, 25410, 26075]}, "edge": {"target": [], "time": []}}, "mouseout": {"state": {"target": ["10", "0", "23", "24", "25", "25", "26", "27", "28", "26", "29", "26", "28", "28", "26", "29", "25", "30", "30", "33", "30", "32", "31", "0", "1", "2", "1"], "time": [1083, 1499, 3934, 4835, 4901, 5903, 6566, 7486, 8669, 8736, 9787, 9821, 10003, 10904, 10954, 15539, 16040, 16657, 18624, 19657, 19692, 22424, 23993, 24309, 25360, 25892, 26539]}, "edge": {"target": [], "time": []}}}, "displayed_time": "31.05", "trialTime": 35426, "trial_type": "mouselab-mdp", "trial_index": 27, "time_elapsed": 1676870, "internal_node_id": "0.0-4.0-1.0-18.0"}}, {"uniqueid": "w63777449:a10749351", "current_trial": 28, "dateTime": 1691161012725, "trialdata": {"revealed_states": [], "clicked_states": ["23", "24", "25", "26", "28", "27", "29", "33", "32", "30", "31"], "num_clicks_accrued": [0, 0, 0, 0, 0, 0, 0, 0, 0, 0, 0, 0, 0], "stateRewards": ["", 2, -1, 1, 10, -52, 86, -22, -2, -14, -63, 38, 1, 3, 7, -8, 11, -32, -27, 9, -71, 40, -87, -2, -1, 5, -7, 12, 31, -57, 13, 86, -58, 29], "withholdReward": false, "trial_id": "mdp_trial_20", "block": "test", "trialIndex": 21, "score": 83.95, "costs": -17.05, "simulationMode": [null, null, null, null, null], "rewards": [-2, -1, 5, 13, 86], "path": ["0", "0", "23", "24", "25", "30", "31"], "rt": [27167, 167, 102, 361, 269], "actions": ["left", "left", "left", "down", "right"], "actionTimes": [29086, 29742, 30343, 31203, 31963], "queries": {"click": {"state": {"target": ["23", "24", "25", "26", "28", "27", "29", "33", "32", "30", "31"], "time": [3128, 5117, 5859, 6942, 7905, 11072, 13891, 16834, 19651, 22534, 24740]}, "edge": {"target": [], "time": []}}, "mouseover": {"state": {"target": ["23", "24", "24", "25", "26", "26", "28", "27", "29", "33", "32", "30", "31", "23", "1", "2", "1"], "time": [2579, 4306, 4797, 5498, 6181, 6648, 7282, 8565, 12433, 14534, 17736, 20303, 23488, 27072, 27273, 27339, 27840]}, "edge": {"target": [], "time": []}}, "mouseout": {"state": {"target": ["1", "0", "23", "24", "24", "25", "26", "26", "28", "27", "29", "33", "33", "32", "30", "31", "23", "1", "2"], "time": [1127, 2562, 3647, 4414, 5431, 6166, 6215, 7215, 8382, 12234, 14433, 17053, 17402, 20270, 23405, 26956, 27139, 27307, 27689]}, "edge": {"target": [], "time": []}}}, "displayed_time": "32.46", "trialTime": 33990, "trial_type": "mouselab-mdp", "trial_index": 28, "time_elapsed": 1711068, "internal_node_id": "0.0-4.0-1.0-19.0"}}, {"uniqueid": "w63777449:a10749351", "current_trial": 29, "dateTime": 1691161035139, "trialdata": {"revealed_states": [], "clicked_states": ["23", "24", "25", "26", "27", "1", "2", "3", "8", "11"], "num_clicks_accrued": [0, 0, 0, 0, 0, 0, 0, 0, 0, 0, 0, 0, 0], "stateRewards": ["", 2, 4, 4, -8, -36, -33, 38, 16, -51, 57, 57, 1, 3, 4, -6, 45, 68, 87, 1, 63, 24, -55, -2, 2, -6, -13, -63, -50, 8, 2, 80, 6, 60], "withholdReward": false, "trial_id": "mdp_trial_21", "block": "test", "trialIndex": 22, "score": 73.5, "costs": -9.5, "simulationMode": [null, null, null, null, null], "rewards": [2, 4, 4, 16, 57], "path": ["0", "0", "1", "2", "3", "8", "11"], "rt": [16034, 51, 302, 138, 87], "actions": ["up", "up", "up", "left", "left"], "actionTimes": [17992, 18532, 19349, 20002, 20585], "queries": {"click": {"state": {"target": ["23", "24", "25", "26", "27", "1", "2", "3", "8", "11"], "time": [3172, 3943, 4708, 5536, 6298, 10019, 10906, 11851, 12684, 13692]}, "edge": {"target": [], "time": []}}, "mouseover": {"state": {"target": ["23", "24", "25", "26", "27", "11", "9", "3", "2", "1", "1", "2", "3", "8", "11", "9"], "time": [2889, 3608, 4343, 5158, 5892, 6892, 6960, 8344, 8393, 8510, 8993, 10560, 11410, 12277, 13427, 14578]}, "edge": {"target": [], "time": []}}, "mouseout": {"state": {"target": ["1", "0", "0", "23", "24", "25", "26", "27", "11", "9", "3", "2", "1", "1", "2", "3", "8", "11"], "time": [1140, 1388, 2805, 3575, 4292, 5126, 5859, 6877, 6927, 8310, 8368, 8459, 8576, 10376, 11360, 12243, 13261, 14529]}, "edge": {"target": [], "time": []}}}, "displayed_time": "21.08", "trialTime": 22218, "trial_type": "mouselab-mdp", "trial_index": 29, "time_elapsed": 1733481, "internal_node_id": "0.0-4.0-1.0-20.0"}}, {"uniqueid": "w63777449:a10749351", "current_trial": 30, "dateTime": 1691161081342, "trialdata": {"revealed_states": [], "clicked_states": ["12", "13", "14", "15", "16", "17", "18", "20", "19", "21", "22", "1", "2", "3", "8", "9", "11", "10"], "num_clicks_accrued": [0, 0, 0, 0, 0, 0, 0, 0, 0, 0, 0, 0, 0], "stateRewards": ["", -1, -3, -6, -2, -7, 80, -45, -3, -38, -72, 76, 2, 1, 7, 4, -62, 14, -74, 14, -87, -21, -88, -2, 1, -7, -10, 66, 56, -76, 10, -29, -72, -70], "withholdReward": false, "trial_id": "mdp_trial_22", "block": "test", "trialIndex": 23, "score": 36.900000000000006, "costs": -26.099999999999998, "simulationMode": [null, null, null, null, null, null], "rewards": [-1, -3, -6, -3, 76], "path": ["0", "0", "1", "2", "3", "8", "11"], "rt": [39363, 235, 15, 82, 172, 58], "actions": ["up", "up", "up", "up", "left", "left"], "actionTimes": [42163, 42401, 42921, 43505, 44189, 44772], "queries": {"click": {"state": {"target": ["12", "13", "14", "15", "16", "17", "18", "20", "19", "21", "22", "1", "2", "3", "8", "9", "11", "10"], "time": [3790, 5313, 6798, 7975, 9191, 12694, 16628, 19598, 22437, 24127, 27048, 30116, 31024, 32026, 33247, 34128, 36920, 39823]}, "edge": {"target": [], "time": []}}, "mouseover": {"state": {"target": ["12", "13", "14", "15", "16", "17", "15", "18", "15", "20", "19", "21", "22", "12", "1", "1", "2", "3", "8", "9", "11", "11", "10"], "time": [3405, 4989, 6356, 7268, 8725, 10108, 13043, 13227, 17262, 17679, 20329, 23696, 25382, 27916, 27949, 28366, 30616, 31617, 32934, 33751, 34804, 35883, 37686]}, "edge": {"target": [], "time": []}}, "mouseout": {"state": {"target": ["9", "8", "10", "1", "0", "12", "13", "14", "15", "16", "17", "15", "18", "15", "20", "19", "21", "19", "22", "12", "1", "1", "2", "3", "8", "9", "9", "11", "11", "10"], "time": [1471, 1571, 1787, 1837, 2294, 4207, 5724, 7210, 8675, 9908, 13028, 13092, 17245, 17279, 20313, 23382, 24353, 25132, 27899, 27932, 27999, 30533, 31533, 32869, 33718, 34346, 34653, 35636, 37402, 41304]}, "edge": {"target": [], "time": []}}}, "displayed_time": "45.27", "trialTime": 46010, "trial_type": "mouselab-mdp", "trial_index": 30, "time_elapsed": 1779684, "internal_node_id": "0.0-4.0-1.0-21.0"}}, {"uniqueid": "w63777449:a10749351", "current_trial": 31, "dateTime": 1691161100836, "trialdata": {"revealed_states": [], "clicked_states": ["23", "24", "25", "26", "27", "29"], "num_clicks_accrued": [0, 0, 0, 0, 0, 0, 0, 0, 0, 0, 0, 0, 0], "stateRewards": ["", 1, 2, -8, 9, 18, -83, -11, 6, -64, -48, 17, -2, -2, -5, -3, -24, -3, -86, -2, 48, -41, -22, -2, 4, 7, 8, 81, 13, -48, 10, 61, 19, 57], "withholdReward": false, "trial_id": "mdp_trial_23", "block": "test", "trialIndex": 24, "score": 91.1, "costs": -6.9, "simulationMode": [null, null, null, null, null, null], "rewards": [-2, 4, 7, 8, 81], "path": ["0", "0", "23", "24", "25", "26", "27"], "rt": [9177, 281, 137, 25, 565, 101], "actions": ["left", "left", "left", "left", "up", "up"], "actionTimes": [11118, 11402, 12056, 12593, 13664, 14267], "queries": {"click": {"state": {"target": ["23", "24", "25", "26", "27", "29"], "time": [3466, 4268, 5220, 6075, 7137, 10073]}, "edge": {"target": [], "time": []}}, "mouseover": {"state": {"target": ["0", "23", "24", "25", "26", "27", "29"], "time": [2643, 3110, 4011, 4744, 5648, 6764, 8065]}, "edge": {"target": [], "time": []}}, "mouseout": {"state": {"target": ["0", "23", "24", "25", "26", "27"], "time": [2660, 3828, 4697, 5597, 6631, 7881]}, "edge": {"target": [], "time": []}}}, "displayed_time": "15.96", "trialTime": 19308, "trial_type": "mouselab-mdp", "trial_index": 31, "time_elapsed": 1799178, "internal_node_id": "0.0-4.0-1.0-22.0"}}, {"uniqueid": "w63777449:a10749351", "current_trial": 32, "dateTime": 1691161129856, "trialdata": {"revealed_states": [], "clicked_states": ["23", "24", "25", "30", "31", "32", "33", "26", "28", "27"], "num_clicks_accrued": [0, 0, 0, 0, 0, 0, 0, 0, 0, 0, 0, 0, 0], "stateRewards": ["", 1, 2, 2, -15, -84, 28, -26, 13, 31, 86, 30, -2, 1, -1, -8, 66, -40, -1, -10, -32, 57, -17, 1, 2, -2, 9, -23, 77, 85, 12, -32, -62, -35], "withholdReward": false, "trial_id": "mdp_trial_24", "block": "test", "trialIndex": 25, "score": 72.1, "costs": -14.900000000000002, "simulationMode": [null, null, null, null, null, null], "rewards": [1, 2, -2, 9, 77], "path": ["0", "0", "23", "24", "25", "26", "28"], "rt": [19524, 607, 176, 80, 291, 1328], "actions": ["left", "left", "left", "left", "up", "right"], "actionTimes": [22602, 23212, 23896, 24483, 25275, 27097], "queries": {"click": {"state": {"target": ["23", "24", "25", "30", "31", "32", "33", "26", "28", "27"], "time": [4127, 4903, 5637, 6643, 7535, 10923, 14404, 17272, 18380, 21335]}, "edge": {"target": [], "time": []}}, "mouseover": {"state": {"target": ["23", "24", "25", "30", "31", "32", "33", "30", "25", "26", "28", "27"], "time": [3709, 4644, 5311, 6050, 7077, 8129, 11614, 15314, 15481, 15914, 17848, 19083]}, "edge": {"target": [], "time": []}}, "mouseout": {"state": {"target": ["29", "25", "24", "23", "0", "12", "13", "0", "23", "24", "25", "30", "31", "32", "33", "30", "25", "26", "28"], "time": [857, 1024, 1107, 1524, 1557, 1624, 1841, 3626, 4574, 5262, 6011, 7046, 8062, 11363, 15298, 15331, 15548, 17765, 18999]}, "edge": {"target": [], "time": []}}}, "displayed_time": "27.60", "trialTime": 28803, "trial_type": "mouselab-mdp", "trial_index": 32, "time_elapsed": 1828198, "internal_node_id": "0.0-4.0-1.0-23.0"}}, {"uniqueid": "w63777449:a10749351", "current_trial": 33, "dateTime": 1691161149539, "trialdata": {"revealed_states": [], "clicked_states": ["12", "13", "14", "19", "21", "20"], "num_clicks_accrued": [0, 0, 0, 0, 0, 0, 0, 0, 0, 0, 0, 0, 0], "stateRewards": ["", 2, 3, -2, -8, -8, -41, 74, 15, -23, -80, 1, 1, 3, 3, -15, -63, -78, 67, 13, 75, -41, 86, 2, -2, 6, -3, -8, -49, 50, -6, 83, 74, 80], "withholdReward": false, "trial_id": "mdp_trial_25", "block": "test", "trialIndex": 26, "score": 88.1, "costs": -6.9, "simulationMode": [null, null, null, null, null], "rewards": [1, 3, 3, 13, 75], "path": ["0", "0", "12", "13", "14", "19", "20"], "rt": [12665, 84, 351, 12, 145], "actions": ["right", "right", "right", "down", "right"], "actionTimes": [14704, 15281, 16131, 16642, 17292], "queries": {"click": {"state": {"target": ["12", "13", "14", "19", "21", "20"], "time": [3425, 4250, 4971, 6041, 6887, 10959]}, "edge": {"target": [], "time": []}}, "mouseover": {"state": {"target": ["12", "13", "14", "19", "21", "20", "22"], "time": [2840, 3775, 4591, 5393, 6458, 10343, 11911]}, "edge": {"target": [], "time": []}}, "mouseout": {"state": {"target": ["27", "24", "23", "12", "13", "14", "19", "21", "20", "22"], "time": [838, 1123, 1189, 3759, 4574, 5342, 6443, 10260, 11761, 19063]}, "edge": {"target": [], "time": []}}}, "displayed_time": "17.78", "trialTime": 19473, "trial_type": "mouselab-mdp", "trial_index": 33, "time_elapsed": 1847881, "internal_node_id": "0.0-4.0-1.0-24.0"}}, {"uniqueid": "w63777449:a10749351", "current_trial": 34, "dateTime": 1691161173886, "trialdata": {"revealed_states": [], "clicked_states": ["1", "2", "3", "4", "7"], "num_clicks_accrued": [0, 0, 0, 0, 0, 0, 0, 0, 0, 0, 0, 0, 0], "stateRewards": ["", -2, 2, 2, -6, 9, 37, 50, -13, -7, -18, -75, -2, -4, 4, 7, 23, -57, -66, -7, -81, -48, -76, 1, 1, -8, 1, 51, -2, 70, 14, 59, 71, -37], "withholdReward": false, "trial_id": "mdp_trial_26", "block": "test", "trialIndex": 27, "score": 23.25, "costs": -4.75, "simulationMode": [null, null, null, null, null], "rewards": [-2, -4, 4, 7, 23], "path": ["0", "0", "12", "13", "14", "15", "16"], "rt": [8067, 8504, 2030, 89, 91], "actions": ["right", "right", "right", "up", "up"], "actionTimes": [9474, 18469, 20997, 21590, 22176], "queries": {"click": {"state": {"target": ["1", "2", "3", "4", "7"], "time": [2413, 3060, 3950, 4672, 5400]}, "edge": {"target": [], "time": []}}, "mouseover": {"state": {"target": ["1", "2", "3", "4", "7", "6"], "time": [2009, 2726, 3676, 4293, 5027, 6345]}, "edge": {"target": [], "time": []}}, "mouseout": {"state": {"target": ["23", "0", "1", "2", "3", "4", "7", "6", "18"], "time": [857, 1952, 2710, 3509, 4278, 5011, 6294, 13697, 14063]}, "edge": {"target": [], "time": []}}}, "displayed_time": "22.67", "trialTime": 24149, "trial_type": "mouselab-mdp", "trial_index": 34, "time_elapsed": 1872229, "internal_node_id": "0.0-4.0-1.0-25.0"}}, {"uniqueid": "w63777449:a10749351", "current_trial": 35, "dateTime": 1691161194264, "trialdata": {"revealed_states": [], "clicked_states": ["1", "2", "3", "4", "5", "6"], "num_clicks_accrued": [0, 0, 0, 0, 0, 0, 0, 0, 0, 0, 0, 0, 0], "stateRewards": ["", -1, 2, -6, 6, 43, 78, 78, -2, 55, -29, -17, -2, -4, 1, -15, 13, 7, -79, 8, -28, -68, 36, -1, -3, 3, -16, 84, -18, 87, 10, 32, 13, -81], "withholdReward": false, "trial_id": "mdp_trial_27", "block": "test", "trialIndex": 28, "score": 72.1, "costs": -6.9, "simulationMode": [null, null, null, null, null], "rewards": [-1, 2, -6, 6, 78], "path": ["0", "0", "1", "2", "3", "4", "6"], "rt": [13017, 136, 339, 21, 427], "actions": ["up", "up", "up", "right", "right"], "actionTimes": [15707, 16350, 17186, 17719, 18641], "queries": {"click": {"state": {"target": ["1", "2", "3", "4", "5", "6"], "time": [4248, 4989, 5669, 7238, 8372, 11405]}, "edge": {"target": [], "time": []}}, "mouseover": {"state": {"target": ["12", "1", "2", "3", "4", "4", "5", "5", "6", "7"], "time": [3574, 3991, 4558, 5325, 5975, 6991, 7560, 8094, 8861, 12580]}, "edge": {"target": [], "time": []}}, "mouseout": {"state": {"target": ["13", "12", "0", "12", "1", "2", "3", "4", "4", "5", "5", "6"], "time": [1889, 1957, 3373, 3857, 4525, 5291, 5891, 6042, 7543, 7612, 8599, 12194]}, "edge": {"target": [], "time": []}}}, "displayed_time": "19.13", "trialTime": 20181, "trial_type": "mouselab-mdp", "trial_index": 35, "time_elapsed": 1892606, "internal_node_id": "0.0-4.0-1.0-26.0"}}, {"uniqueid": "w63777449:a10749351", "current_trial": 36, "dateTime": 1691161211407, "trialdata": {"revealed_states": [], "clicked_states": ["23", "24", "25", "30", "32", "33"], "num_clicks_accrued": [0, 0, 0, 0, 0, 0, 0, 0, 0, 0, 0, 0, 0], "stateRewards": ["", 1, -3, -6, -5, 47, 80, -29, 11, -71, 10, -29, -2, 3, -6, 12, 2, -78, -6, 8, 34, -16, -5, -1, 3, 3, -13, 84, -36, -62, -3, -27, 66, 15], "withholdReward": false, "trial_id": "mdp_trial_28", "block": "test", "trialIndex": 29, "score": 61.1, "costs": -6.9, "simulationMode": [null, null, null, null, null, null], "rewards": [-1, 3, 3, -3, 66], "path": ["0", "0", "23", "24", "25", "30", "32"], "rt": [9360, 665, 244, 286, 134, 32], "actions": ["left", "left", "left", "left", "down", "down"], "actionTimes": [10788, 11456, 12229, 13022, 13653, 14185], "queries": {"click": {"state": {"target": ["23", "24", "25", "30", "32", "33"], "time": [2582, 3257, 3907, 4706, 5681, 8576]}, "edge": {"target": [], "time": []}}, "mouseover": {"state": {"target": ["23", "24", "25", "30", "32", "33", "31"], "time": [2297, 2948, 3564, 4285, 5266, 6349, 9417]}, "edge": {"target": [], "time": []}}, "mouseout": {"state": {"target": ["7", "0", "23", "24", "25", "30", "32", "33"], "time": [712, 2065, 2914, 3548, 4249, 5099, 6219, 8725]}, "edge": {"target": [], "time": []}}}, "displayed_time": "15.43", "trialTime": 16941, "trial_type": "mouselab-mdp", "trial_index": 36, "time_elapsed": 1909750, "internal_node_id": "0.0-4.0-1.0-27.0"}}, {"uniqueid": "w63777449:a10749351", "current_trial": 37, "dateTime": 1691161233873, "trialdata": {"revealed_states": [], "clicked_states": ["1", "2", "3", "8", "11", "9", "10"], "num_clicks_accrued": [0, 0, 0, 0, 0, 0, 0, 0, 0, 0, 0, 0, 0], "stateRewards": ["", 1, 1, -6, -2, 7, 77, 3, 16, -16, 66, 31, -1, 3, -8, -6, 33, -50, -48, 7, -60, -66, 36, 2, -3, 3, -7, -12, -61, -79, -4, 8, 74, -70], "withholdReward": false, "trial_id": "mdp_trial_29", "block": "test", "trialIndex": 30, "score": 68.95, "costs": -9.05, "simulationMode": [null, null, null, null, null], "rewards": [1, 1, -6, 16, 66], "path": ["0", "0", "1", "2", "3", "8", "10"], "rt": [15673, 20, 298, 52, 176], "actions": ["up", "up", "up", "left", "down"], "actionTimes": [17747, 18332, 19130, 19686, 20375], "queries": {"click": {"state": {"target": ["1", "2", "3", "8", "11", "9", "10"], "time": [3169, 4146, 4953, 6207, 7489, 10552, 13398]}, "edge": {"target": [], "time": []}}, "mouseover": {"state": {"target": ["23", "23", "1", "2", "2", "3", "8", "11", "9", "9", "8", "10", "7"], "time": [2373, 2640, 2858, 3443, 3859, 4597, 5511, 7287, 7845, 8146, 11512, 11628, 16165]}, "edge": {"target": [], "time": []}}, "mouseout": {"state": {"target": ["31", "0", "23", "23", "1", "2", "2", "3", "8", "11", "9", "9", "8", "10"], "time": [861, 2340, 2390, 2657, 3426, 3459, 4478, 5172, 6594, 7812, 7894, 11228, 11578, 16097]}, "edge": {"target": [], "time": []}}}, "displayed_time": "20.87", "trialTime": 22243, "trial_type": "mouselab-mdp", "trial_index": 37, "time_elapsed": 1932215, "internal_node_id": "0.0-4.0-1.0-28.0"}}, {"uniqueid": "w63777449:a10749351", "current_trial": 38, "dateTime": 1691161262234, "trialdata": {"revealed_states": [], "clicked_states": ["23", "24", "25", "26", "27", "28", "29", "30", "31", "32"], "num_clicks_accrued": [0, 0, 0, 0, 0, 0, 0, 0, 0, 0, 0, 0, 0], "stateRewards": ["", -2, 4, -5, -12, 85, -24, -18, -15, -78, -22, 26, -1, -1, 2, 14, -45, 52, -23, 7, -33, 24, -6, -2, -4, 5, -7, -16, 36, -39, 5, 71, -87, -23], "withholdReward": false, "trial_id": "mdp_trial_30", "block": "test", "trialIndex": 31, "score": 60.099999999999994, "costs": -14.900000000000002, "simulationMode": [null, null, null, null, null, null], "rewards": [-2, -4, 5, 5, 71], "path": ["0", "0", "23", "24", "25", "30", "31"], "rt": [20899, 693, 76, 96, 435, 166], "actions": ["left", "left", "left", "left", "down", "right"], "actionTimes": [22444, 23139, 23731, 24319, 25257, 25921], "queries": {"click": {"state": {"target": ["23", "24", "25", "26", "27", "28", "29", "30", "31", "32"], "time": [2345, 2954, 3553, 4204, 4936, 8282, 11637, 14963, 17149, 19913]}, "edge": {"target": [], "time": []}}, "mouseover": {"state": {"target": ["23", "24", "25", "26", "27", "28", "26", "29", "26", "24", "31", "30", "31", "31", "32", "33"], "time": [2029, 2680, 3267, 3848, 4614, 5731, 8665, 8848, 12133, 12332, 12783, 12983, 15351, 15718, 18036, 20952]}, "edge": {"target": [], "time": []}}, "mouseout": {"state": {"target": ["7", "0", "23", "24", "25", "26", "27", "28", "26", "29", "29", "26", "24", "31", "30", "31", "31", "32", "33"], "time": [676, 1994, 2645, 3234, 3831, 4425, 5514, 8648, 8681, 11857, 12116, 12149, 12367, 12899, 15334, 15651, 17685, 20902, 21720]}, "edge": {"target": [], "time": []}}}, "displayed_time": "26.42", "trialTime": 28150, "trial_type": "mouselab-mdp", "trial_index": 38, "time_elapsed": 1960577, "internal_node_id": "0.0-4.0-1.0-29.0"}}, {"uniqueid": "w63777449:a10749351", "current_trial": 39, "dateTime": 1691161285413, "trialdata": {"revealed_states": [], "clicked_states": ["23", "24", "25", "30", "31", "32", "33"], "num_clicks_accrued": [0, 0, 0, 0, 0, 0, 0, 0, 0, 0, 0, 0, 0], "stateRewards": ["", -2, 2, -1, -6, 22, 6, 6, -5, 70, -42, 65, 1, 3, 5, -6, -67, -9, 3, 14, 7, -62, -13, -2, 4, 1, 16, 42, -21, -52, -8, 32, 53, 81], "withholdReward": false, "trial_id": "mdp_trial_31", "block": "test", "trialIndex": 32, "score": 66.95, "costs": -9.05, "simulationMode": [null, null, null, null, null], "rewards": [-2, 4, 1, -8, 81], "path": ["0", "0", "23", "24", "25", "30", "33"], "rt": [15760, 1061, 57, 202, 184], "actions": ["left", "left", "left", "down", "left"], "actionTimes": [17814, 19378, 19925, 20637, 21319], "queries": {"click": {"state": {"target": ["23", "24", "25", "30", "31", "32", "33"], "time": [2888, 4166, 5096, 5856, 6586, 9949, 13693]}, "edge": {"target": [], "time": []}}, "mouseover": {"state": {"target": ["23", "24", "25", "30", "31", "32", "33"], "time": [2559, 3344, 4744, 5494, 6228, 7963, 10463]}, "edge": {"target": [], "time": []}}, "mouseout": {"state": {"target": ["0", "23", "24", "25", "30", "31", "30", "32"], "time": [2525, 3277, 4678, 5461, 6195, 7362, 7747, 10412]}, "edge": {"target": [], "time": []}}}, "displayed_time": "21.82", "trialTime": 22966, "trial_type": "mouselab-mdp", "trial_index": 39, "time_elapsed": 1983756, "internal_node_id": "0.0-4.0-1.0-30.0"}}, {"uniqueid": "w63777449:a10749351", "current_trial": 40, "dateTime": 1691161304271, "trialdata": {"revealed_states": [], "clicked_states": ["12", "13", "14", "19", "21", "22"], "num_clicks_accrued": [0, 0, 0, 0, 0, 0, 0, 0, 0, 0, 0, 0, 0], "stateRewards": ["", -2, 2, 8, -6, -25, 3, 87, 2, -62, -2, 74, -2, -1, 2, -1, 79, 49, -37, -14, 5, 67, -9, -1, 2, -2, 5, 15, 38, 32, -14, -38, -38, 30], "withholdReward": false, "trial_id": "mdp_trial_32", "block": "test", "trialIndex": 33, "score": 45.1, "costs": -6.9, "simulationMode": [null, null, null, null, null], "rewards": [-2, -1, 2, -14, 67], "path": ["0", "0", "12", "13", "14", "19", "21"], "rt": [12573, 78, 26, 302, 3], "actions": ["right", "right", "right", "down", "down"], "actionTimes": [14528, 15114, 15661, 16471, 16971], "queries": {"click": {"state": {"target": ["12", "13", "14", "19", "21", "22"], "time": [3601, 4320, 5500, 6472, 7423, 10442]}, "edge": {"target": [], "time": []}}, "mouseover": {"state": {"target": ["12", "13", "14", "19", "21", "31", "31", "0", "12", "13", "22", "19", "19", "22", "19", "20", "20"], "time": [3245, 3962, 5147, 6030, 7047, 8064, 8382, 8614, 8647, 8748, 8982, 9715, 10048, 10082, 11600, 11834, 13000]}, "edge": {"target": [], "time": []}}, "mouseout": {"state": {"target": ["33", "30", "31", "23", "0", "12", "13", "14", "14", "19", "21", "31", "31", "0", "12", "13", "22", "19", "19", "22", "19", "20"], "time": [911, 960, 1076, 1427, 2945, 3929, 4646, 5717, 5864, 6964, 7641, 8081, 8414, 8631, 8698, 8895, 9698, 9765, 10066, 11566, 11716, 12533]}, "edge": {"target": [], "time": []}}}, "displayed_time": "17.49", "trialTime": 18634, "trial_type": "mouselab-mdp", "trial_index": 40, "time_elapsed": 2002614, "internal_node_id": "0.0-4.0-1.0-31.0"}}, {"uniqueid": "w63777449:a10749351", "current_trial": 41, "dateTime": 1691161326445, "trialdata": {"revealed_states": [], "clicked_states": ["1", "2", "3", "7", "4", "6", "5"], "num_clicks_accrued": [0, 0, 0, 0, 0, 0, 0, 0, 0, 0, 0, 0, 0], "stateRewards": ["", -2, -3, -3, 9, 79, 67, 22, -15, -56, 27, -85, -2, 4, -4, -15, -20, -32, 60, 15, 71, 57, 17, 1, 2, -8, 15, -37, -81, 82, 15, 21, -3, 2], "withholdReward": false, "trial_id": "mdp_trial_33", "block": "test", "trialIndex": 34, "score": 70.95, "costs": -9.05, "simulationMode": [null, null, null, null, null], "rewards": [-2, -3, -3, 9, 79], "path": ["0", "0", "1", "2", "3", "4", "5"], "rt": [14917, 169, 356, 358, 76], "actions": ["up", "up", "up", "right", "up"], "actionTimes": [17912, 18584, 19437, 20290, 20875], "queries": {"click": {"state": {"target": ["1", "2", "3", "7", "4", "6", "5"], "time": [4366, 5004, 6177, 7301, 10422, 11169, 14055]}, "edge": {"target": [], "time": []}}, "mouseover": {"state": {"target": ["1", "2", "3", "3", "4", "7", "4", "6", "5"], "time": [4008, 4674, 5246, 5909, 6492, 6959, 7609, 10794, 11995]}, "edge": {"target": [], "time": []}}, "mouseout": {"state": {"target": ["20", "19", "22", "0", "1", "2", "3", "3", "4", "7", "4", "6"], "time": [1822, 1889, 1973, 3957, 4641, 5243, 5293, 6400, 6526, 7593, 10762, 11729]}, "edge": {"target": [], "time": []}}}, "displayed_time": "21.37", "trialTime": 21963, "trial_type": "mouselab-mdp", "trial_index": 41, "time_elapsed": 2024787, "internal_node_id": "0.0-4.0-1.0-32.0"}}, {"uniqueid": "w63777449:a10749351", "current_trial": 42, "dateTime": 1691161354156, "trialdata": {"revealed_states": [], "clicked_states": ["23", "24", "25", "30", "31", "32", "33"], "num_clicks_accrued": [0, 0, 0, 0, 0, 0, 0, 0, 0, 0, 0, 0, 0], "stateRewards": ["", -2, -3, 8, -4, -30, 31, 69, 9, 66, 87, 64, -2, 2, 8, 5, 47, 16, -39, -8, -54, 51, -19, 1, -2, -2, -11, -25, -26, 43, -9, 19, -84, 86], "withholdReward": false, "trial_id": "mdp_trial_34", "block": "test", "trialIndex": 35, "score": -105.05, "costs": -9.05, "simulationMode": [null, null, null, null, null], "rewards": [1, -2, -2, -9, -84], "path": ["0", "0", "23", "24", "25", "30", "32"], "rt": [15634, 44, 171, 750, 207], "actions": ["left", "left", "left", "down", "down"], "actionTimes": [18053, 18601, 19279, 20525, 21233], "queries": {"click": {"state": {"target": ["23", "24", "25", "30", "31", "32", "33"], "time": [3503, 4144, 4887, 5643, 6729, 10458, 13895]}, "edge": {"target": [], "time": []}}, "mouseover": {"state": {"target": ["0", "23", "24", "25", "30", "31", "31", "32", "30", "25", "26", "25", "33", "26"], "time": [3051, 3168, 3786, 4603, 5270, 5924, 6420, 7620, 10936, 10971, 11022, 11426, 13891, 15589]}, "edge": {"target": [], "time": []}}, "mouseout": {"state": {"target": ["5", "2", "1", "0", "23", "24", "25", "30", "31", "31", "30", "32", "30", "25", "26", "25", "33"], "time": [1418, 1501, 1600, 3067, 3768, 4486, 5253, 5909, 5953, 7153, 7320, 10920, 10954, 10993, 11419, 13890, 15473]}, "edge": {"target": [], "time": []}}}, "displayed_time": "21.73", "trialTime": 27493, "trial_type": "mouselab-mdp", "trial_index": 42, "time_elapsed": 2052498, "internal_node_id": "0.0-4.0-1.0-33.0"}}, {"uniqueid": "w63777449:a10749351", "current_trial": 43, "dateTime": 1691161381759, "trialdata": {"revealed_states": [], "clicked_states": ["23", "24", "25", "26", "27", "28"], "num_clicks_accrued": [0, 0, 0, 0, 0, 0, 0, 0, 0, 0, 0, 0, 0], "stateRewards": ["", -1, -3, 4, -10, -5, 79, -87, -2, 53, 29, -20, -2, -1, -5, 10, 27, 86, 46, -16, -29, 40, 3, 2, 4, -1, -6, 37, 79, -29, 7, 86, -62, 29], "withholdReward": false, "trial_id": "mdp_trial_35", "block": "test", "trialIndex": 36, "score": 71.1, "costs": -6.9, "simulationMode": [null, null, null, null, null], "rewards": [2, 4, -1, -6, 79], "path": ["0", "0", "23", "24", "25", "26", "28"], "rt": [11838, 206, 297, 307, 96], "actions": ["left", "left", "left", "up", "right"], "actionTimes": [13692, 14398, 15190, 15999, 16589], "queries": {"click": {"state": {"target": ["23", "24", "25", "26", "27", "28"], "time": [2788, 3362, 4623, 5345, 6029, 9311]}, "edge": {"target": [], "time": []}}, "mouseover": {"state": {"target": ["23", "24", "25", "25", "26", "27", "29", "28", "28", "26", "29"], "time": [2437, 3087, 3650, 4340, 4971, 5738, 6689, 8089, 8439, 9690, 9756]}, "edge": {"target": [], "time": []}}, "mouseout": {"state": {"target": ["26", "28", "0", "23", "24", "25", "25", "26", "27", "29", "28", "28", "26", "29", "33", "30", "31", "23", "24", "0", "0", "0"], "time": [668, 768, 2407, 3053, 3647, 3804, 4939, 5688, 6505, 8039, 8120, 9673, 9724, 18058, 18442, 18525, 19309, 20143, 20309, 21009, 21326, 22076]}, "edge": {"target": [], "time": []}}}, "displayed_time": "17.09", "trialTime": 27338, "trial_type": "mouselab-mdp", "trial_index": 43, "time_elapsed": 2080102, "internal_node_id": "0.0-4.0-1.0-34.0"}}, {"uniqueid": "w63777449:a10749351", "current_trial": 44, "dateTime": 1691161413587, "trialdata": {"revealed_states": [], "clicked_states": ["1", "2", "3", "4", "6", "7", "5", "9", "10", "11", "27"], "num_clicks_accrued": [0, 0, 0, 0, 0, 0, 0, 0, 0, 0, 0, 0, 0], "stateRewards": ["", -2, 1, -7, -8, -37, -76, -87, 11, 30, -63, 80, -1, 4, 2, -1, 42, 17, 52, -3, -75, -80, -68, 2, -3, -5, -15, -48, 82, 24, -7, 5, -22, -71], "withholdReward": false, "trial_id": "mdp_trial_36", "block": "test", "trialIndex": 37, "score": 65.35, "costs": -17.650000000000002, "simulationMode": [null, null, null, null, null, null], "rewards": [-2, 1, -7, 11, 80], "path": ["0", "0", "1", "2", "3", "8", "11"], "rt": [24316, 853, 204, 598, 187, 53], "actions": ["up", "up", "up", "up", "left", "left"], "actionTimes": [25618, 26472, 27186, 28280, 28969, 29519], "queries": {"click": {"state": {"target": ["1", "2", "3", "4", "6", "7", "5", "9", "10", "11", "27"], "time": [2107, 2812, 3629, 4365, 5178, 7993, 11470, 14732, 18115, 20961, 23806]}, "edge": {"target": [], "time": []}}, "mouseover": {"state": {"target": ["1", "2", "3", "4", "6", "7", "4", "5", "9", "8", "10", "11", "27"], "time": [1854, 2571, 3206, 4038, 4722, 5672, 8673, 8990, 12326, 15192, 15477, 18811, 21828]}, "edge": {"target": [], "time": []}}, "mouseout": {"state": {"target": ["0", "1", "2", "3", "4", "6", "7", "4", "5", "9", "8", "10", "11"], "time": [1753, 2421, 3154, 4005, 4688, 5507, 8623, 8706, 12126, 15160, 15376, 18594, 21562]}, "edge": {"target": [], "time": []}}}, "displayed_time": "30.03", "trialTime": 31473, "trial_type": "mouselab-mdp", "trial_index": 44, "time_elapsed": 2111930, "internal_node_id": "0.0-4.0-1.0-35.0"}}, {"uniqueid": "w63777449:a10749351", "current_trial": 45, "dateTime": 1691161459111, "trialdata": {"revealed_states": [], "clicked_states": ["1", "2", "7", "6", "5", "27", "29", "28", "33", "32", "31", "21", "30", "25", "24", "23"], "num_clicks_accrued": [0, 0, 0, 0, 0, 0, 0, 0, 0, 0, 0, 0, 0], "stateRewards": ["", -1, -3, -3, 1, -38, 2, -53, -2, -1, -81, 70, -1, 1, -5, -9, 46, 15, 35, -1, -22, 38, 59, -2, 4, -8, 13, 1, -83, -43, 4, 76, 13, 48], "withholdReward": false, "trial_id": "mdp_trial_37", "block": "test", "trialIndex": 38, "score": 49.8, "costs": -24.2, "simulationMode": [null, null, null, null, null], "rewards": [-2, 4, -8, 4, 76], "path": ["0", "0", "23", "24", "25", "30", "31"], "rt": [39077, 148, 208, 23, 76], "actions": ["left", "left", "left", "down", "right"], "actionTimes": [41676, 42315, 43024, 43541, 44125], "queries": {"click": {"state": {"target": ["1", "2", "7", "6", "5", "27", "29", "28", "33", "32", "31", "21", "30", "25", "24", "23"], "time": [4108, 4910, 6129, 9065, 11870, 14784, 17597, 20755, 23578, 26716, 30130, 33218, 36743, 38038, 39564, 40586]}, "edge": {"target": [], "time": []}}, "mouseover": {"state": {"target": ["0", "23", "28", "1", "1", "2", "4", "7", "6", "5", "9", "11", "27", "29", "26", "28", "25", "33", "32", "31", "21", "30", "25", "24", "23"], "time": [3149, 3185, 3232, 3598, 3883, 4617, 5584, 5800, 6469, 10087, 12871, 13654, 14055, 15538, 18308, 18605, 21458, 21824, 24424, 27542, 31412, 35496, 37281, 39146, 40264]}, "edge": {"target": [], "time": []}}, "mouseout": {"state": {"target": ["27", "0", "23", "28", "1", "1", "2", "4", "7", "6", "5", "9", "11", "27", "29", "26", "28", "25", "33", "32", "31", "21", "31", "30", "25", "24"], "time": [1614, 3183, 3200, 3502, 3849, 4325, 5308, 5734, 6418, 9787, 12804, 13621, 13704, 15339, 18306, 18389, 21441, 21507, 24240, 27275, 30945, 34211, 35013, 37147, 38913, 39997]}, "edge": {"target": [], "time": []}}}, "displayed_time": "44.62", "trialTime": 45279, "trial_type": "mouselab-mdp", "trial_index": 45, "time_elapsed": 2157453, "internal_node_id": "0.0-4.0-1.0-36.0"}}, {"uniqueid": "w63777449:a10749351", "current_trial": 46, "dateTime": 1691161491612, "trialdata": {"revealed_states": [], "clicked_states": ["12", "13", "14", "15", "16", "18", "17", "20", "21", "19", "22"], "num_clicks_accrued": [0, 0, 0, 0, 0, 0, 0, 0, 0, 0, 0, 0, 0], "stateRewards": ["", -1, 4, -3, 3, 57, -61, 5, -11, 23, -1, 34, -2, -4, -1, -13, 27, 38, -36, 4, -45, 21, 88, 1, -2, -1, 1, -69, -5, -78, -12, -9, 38, -54], "withholdReward": false, "trial_id": "mdp_trial_38", "block": "test", "trialIndex": 39, "score": 67.95, "costs": -17.05, "simulationMode": [null, null, null, null, null], "rewards": [-2, -4, -1, 4, 88], "path": ["0", "0", "12", "13", "14", "19", "22"], "rt": [25562, 231, 430, 101, 208], "actions": ["right", "right", "right", "down", "left"], "actionTimes": [27740, 28473, 29422, 30025, 30734], "queries": {"click": {"state": {"target": ["12", "13", "14", "15", "16", "18", "17", "20", "21", "19", "22"], "time": [3823, 4638, 5943, 6939, 7659, 10486, 13416, 16266, 19120, 22178, 23030]}, "edge": {"target": [], "time": []}}, "mouseover": {"state": {"target": ["12", "22", "19", "12", "13", "14", "15", "16", "18", "15", "17", "20", "19", "20", "21", "19", "22", "23", "23", "24", "23", "0"], "time": [2746, 2946, 3163, 3380, 4199, 5599, 6482, 7516, 8267, 11201, 11302, 14420, 15270, 15353, 16836, 19954, 22655, 23822, 25156, 26706, 26822, 26841]}, "edge": {"target": [], "time": []}}, "mouseout": {"state": {"target": ["23", "0", "12", "22", "19", "12", "13", "14", "15", "16", "18", "15", "17", "20", "19", "20", "21", "19", "22", "23", "23", "24", "23", "0"], "time": [1495, 2729, 2780, 3013, 3331, 4165, 5066, 6266, 7300, 8117, 11168, 11234, 14154, 15170, 15304, 16787, 19821, 22605, 23723, 24906, 26589, 26806, 26839, 26872]}, "edge": {"target": [], "time": []}}}, "displayed_time": "31.23", "trialTime": 32261, "trial_type": "mouselab-mdp", "trial_index": 46, "time_elapsed": 2189954, "internal_node_id": "0.0-4.0-1.0-37.0"}}, {"uniqueid": "w63777449:a10749351", "current_trial": 47, "dateTime": 1691161572266, "trialdata": {"revealed_states": [], "clicked_states": ["12", "13", "14", "15", "16", "17", "18", "19", "21", "20", "22", "1", "2", "3", "4", "6", "5", "7", "10", "8", "9", "11", "23", "24", "25", "26", "28", "27", "29", "33", "31", "30", "32"], "num_clicks_accrued": [0, 0, 0, 0, 0, 0, 0, 0, 0, 0, 0, 0, 0], "stateRewards": ["", -1, 3, -7, 16, -32, -74, -48, 2, 10, 15, -30, 1, 1, -2, 10, 12, -83, 67, 13, -66, 47, 65, -2, 4, 2, -14, -8, -57, 24, 9, 65, 12, 46], "withholdReward": false, "trial_id": "mdp_trial_39", "block": "test", "trialIndex": 40, "score": 26.850000000000016, "costs": -51.149999999999984, "simulationMode": [null, null, null, null, null], "rewards": [-2, 4, 2, 9, 65], "path": ["0", "0", "23", "24", "25", "30", "31"], "rt": [74393, 403, 206, 117, 109], "actions": ["left", "left", "left", "down", "right"], "actionTimes": [76287, 77188, 77917, 78536, 79162], "queries": {"click": {"state": {"target": ["12", "13", "14", "15", "16", "17", "18", "19", "21", "20", "22", "1", "2", "3", "4", "6", "5", "7", "10", "8", "9", "11", "23", "24", "25", "26", "28", "27", "29", "33", "31", "30", "32"], "time": [3371, 4064, 4785, 6107, 6797, 9687, 12477, 15307, 17412, 21093, 23890, 26842, 29721, 30908, 31809, 32791, 35686, 38548, 41856, 44739, 46086, 49175, 52074, 53103, 53970, 55197, 56100, 59060, 62075, 65036, 67952, 72032, 73283]}, "edge": {"target": [], "time": []}}, "mouseover": {"state": {"target": ["12", "13", "14", "15", "15", "16", "17", "20", "18", "14", "19", "21", "20", "19", "22", "1", "2", "3", "4", "6", "5", "4", "7", "2", "10", "10", "10", "8", "9", "11", "28", "24", "23", "24", "25", "26", "28", "27", "29", "33", "30", "31", "30", "32"], "time": [3004, 3823, 4440, 5458, 5741, 6441, 7258, 10543, 11326, 13294, 13677, 16312, 18045, 21932, 22004, 25465, 27716, 30550, 31467, 32484, 33368, 36388, 36702, 39171, 39238, 39704, 40138, 42437, 45356, 46990, 50240, 50324, 50573, 52908, 53692, 54559, 55776, 56979, 59811, 63080, 65696, 65896, 68597, 72900]}, "edge": {"target": [], "time": []}}, "mouseout": {"state": {"target": ["0", "12", "13", "14", "14", "15", "15", "16", "17", "20", "18", "14", "19", "21", "20", "19", "22", "1", "2", "3", "4", "6", "5", "4", "7", "2", "10", "10", "10", "8", "9", "11", "28", "24", "23", "24", "25", "26", "28", "27", "29", "33", "30", "31", "30"], "time": [2988, 3582, 4391, 5012, 5440, 5508, 6391, 7158, 10094, 10776, 13228, 13310, 16062, 17634, 21914, 21966, 24665, 27071, 30500, 31433, 32368, 33201, 36386, 36501, 39170, 39205, 39287, 39971, 42388, 45323, 46923, 49841, 50290, 50540, 52691, 53592, 54475, 55693, 56692, 59644, 62679, 65063, 65830, 68531, 72616]}, "edge": {"target": [], "time": []}}}, "displayed_time": "79.65", "trialTime": 80411, "trial_type": "mouselab-mdp", "trial_index": 47, "time_elapsed": 2270609, "internal_node_id": "0.0-4.0-1.0-38.0"}}, {"uniqueid": "w63777449:a10749351", "current_trial": 48, "dateTime": 1691161610073, "trialdata": {"revealed_states": [], "clicked_states": ["12", "13", "14", "19", "21", "20", "22", "15", "17", "16", "18"], "num_clicks_accrued": [0, 0, 0, 0, 0, 0, 0, 0, 0, 0, 0, 0, 0], "stateRewards": ["", 1, 1, 6, -14, -40, 37, 16, -13, 33, -68, 49, 2, 4, 3, 6, 55, 27, 32, 10, -65, 20, -87, 2, 1, -6, -5, -42, 12, 29, -8, 16, 76, -33], "withholdReward": false, "trial_id": "mdp_trial_40", "block": "test", "trialIndex": 41, "score": 52.95, "costs": -17.05, "simulationMode": [null, null, null, null, null, null], "rewards": [2, 4, 3, 6, 55], "path": ["0", "0", "12", "13", "14", "15", "16"], "rt": [26813, 604, 413, 161, 218, 92], "actions": ["right", "right", "right", "right", "up", "up"], "actionTimes": [32319, 32924, 33852, 34508, 35216, 35807], "queries": {"click": {"state": {"target": ["12", "13", "14", "19", "21", "20", "22", "15", "17", "16", "18"], "time": [6503, 7262, 7978, 9562, 10512, 15225, 18293, 21417, 23597, 26996, 30994]}, "edge": {"target": [], "time": []}}, "mouseover": {"state": {"target": ["12", "13", "14", "19", "21", "20", "19", "22", "14", "17", "15", "17", "16", "18"], "time": [6218, 6929, 7709, 9186, 10137, 14255, 16106, 16357, 19341, 19764, 20075, 21975, 24460, 27428]}, "edge": {"target": [], "time": []}}, "mouseout": {"state": {"target": ["32", "0", "12", "13", "13", "14", "19", "21", "20", "19", "22", "14", "17", "15", "17", "16", "18"], "time": [4083, 5885, 6887, 7478, 7604, 9053, 10004, 13721, 16073, 16223, 19258, 19391, 19974, 21959, 24410, 27361, 36831]}, "edge": {"target": [], "time": []}}}, "displayed_time": "36.30", "trialTime": 37533, "trial_type": "mouselab-mdp", "trial_index": 48, "time_elapsed": 2308416, "internal_node_id": "0.0-4.0-1.0-39.0"}}, {"uniqueid": "w63777449:a10749351", "current_trial": 49, "dateTime": 1691161745093, "trialdata": {"rt": 134807, "response": {"Q0": "$-88 to $88", "Q1": "$-32 to $32", "Q2": "$-32 to $32", "Q3": "The cost for clicking on nodes varied between nodes.", "Q4": "Slightly motivated"}, "question_order": [0, 1, 2, 3, 4], "trial_id": "final_quiz_control", "trial_type": "survey-multi-choice", "trial_index": 49, "time_elapsed": 2443435, "internal_node_id": "0.0-4.0-2.0"}}, {"uniqueid": "w63777449:a10749351", "current_trial": 50, "dateTime": 1691162124871, "trialdata": {"rt": 379571, "response": {"Q0": "I directed the spider to the destination that promised amount of dollars above $40", "Q1": "I tried to improve by opening more circles using inspector, than focusing on obtaining amount of dollars above $40", "Q2": "I made 2 mistakes by wrongfully directing the spider to the wrong destination hence it was difficult to redirect it to the specified destination."}, "trial_id": "self_report_control", "trial_type": "survey-text", "trial_index": 50, "time_elapsed": 2823213, "internal_node_id": "0.0-4.0-3.0"}}, {"uniqueid": "w63777449:a10749351", "current_trial": 51, "dateTime": 1691162219170, "trialdata": {"rt": 94296, "response": {"Q0": "Agree", "Q1": "Disagree", "Q2": "Agree", "Q3": "Neither disagree nor agree", "Q4": "Disagree", "Q5": "Agree", "Q6": "Disagree"}, "question_order": [0, 1, 2, 3, 4, 5, 6], "trial_id": "self_report_2", "trial_type": "survey-multi-choice", "trial_index": 51, "time_elapsed": 2917512, "internal_node_id": "0.0-4.0-4.0"}}, {"uniqueid": "w63777449:a10749351", "current_trial": 52, "dateTime": 1691162269208, "trialdata": {"rt": 50025, "response": {"gender": "male", "age": "27", "colorblind": "0", "effort": "0"}, "trial_type": "survey-html-form", "trial_index": 52, "time_elapsed": 2967551, "internal_node_id": "0.0-4.0-5.0"}}, {"uniqueid": "w63777449:a10749351", "current_trial": 53, "dateTime": 1691162475606, "trialdata": {"rt": 206393, "response": {"Q0": "No ", "Q1": "No, not at all", "Q2": "The game was entertaining an enjoyable."}, "trial_type": "survey-text", "trial_index": 53, "time_elapsed": 3173949, "internal_node_id": "0.0-4.0-6.0"}}, {"uniqueid": "w63777449:a10749351", "current_trial": 54, "dateTime": 1691162483185, "trialdata": {"rt": 7534, "stimulus": "Press 'Finish HIT' in order to reach the completion code. Once the data has been saved, you will receive the code either in this window or in the original browser window where you started the experiment.\n", "response": 0, "trial_type": "html-button-response", "trial_index": 54, "time_elapsed": 3181528, "internal_node_id": "0.0-5.0"}}, {"uniqueid": "w63777449:a10749351", "current_trial": 55, "dateTime": 1691162484195, "trialdata": {"success": true, "trial_type": "fullscreen", "trial_index": 55, "time_elapsed": 3182538, "internal_node_id": "0.0-6.0"}}], "questiondata": {"params": {"CODE": "C6DMOQA6", "MIN_TIME": 14, "inspectCost": 1, "startTime": "Fri Aug 04 2023 16:28:19 GMT+0200 (South Africa Standard Time)", "bonusRate": 0.002, "variance": "1_2_4_8_44", "branching": "31123"}, "final_score": 1795.05}, "eventdata": [{"eventtype": "initialized", "value": null, "timestamp": 1691159298774, "interval": 0}, {"eventtype": "window_resize", "value": [1028, 778], "timestamp": 1691159298774, "interval": 0}, {"eventtype": "window_resize", "value": [1536, 806], "timestamp": 1691159299246, "interval": 472}, {"eventtype": "window_resize", "value": [1536, 806], "timestamp": 1691159301551, "interval": 2305}, {"eventtype": "focus", "value": "off", "timestamp": 1691159313730, "interval": 12179}, {"eventtype": "focus", "value": "on", "timestamp": 1691159340991, "interval": 27261}, {"eventtype": "focus", "value": "off", "timestamp": 1691159340998, "interval": 7}, {"eventtype": "focus", "value": "on", "timestamp": 1691159341076, "interval": 78}, {"eventtype": "window_resize", "value": [1536, 864], "timestamp": 1691159354343, "interval": 13267}], "useragent": "Mozilla/5.0 (Windows NT 10.0; Win64; x64) AppleWebKit/537.36 (KHTML, like Gecko) Chrome/115.0.0.0 Safari/537.36", "mode": "live", "id": "w63777449:a10749351", "status": "user data saved", "Beginhit": "2023-08-04 14:28:07.508794", "Beginexp": "2023-08-04 14:29:14.940113", "Endhit": "2023-08-04 15:21:27.779426", "psiturkStatus": 3, "browser": "<redacted>", "platform": "windows", "language": "en-US"}