{"condition": 0, "counterbalance": 0, "assignmentId": "a48361959", "workerId": "w30996390", "hitId": "h59268672", "currenttrial": 37, "bonus": 0, "data": [{"uniqueid": "w30996390:a48361959", "current_trial": 0, "dateTime": 1693481882491, "trialdata": {"success": true, "trial_type": "fullscreen", "trial_index": 0, "time_elapsed": 17595, "internal_node_id": "0.0-0.0"}}, {"uniqueid": "w30996390:a48361959", "current_trial": 1, "dateTime": 1693481987475, "trialdata": {"view_history": [{"page_index": 0, "viewing_time": 104941}], "rt": 104951, "trial_id": "exp_instructions_control", "trial_type": "instructions", "trial_index": 1, "time_elapsed": 122582, "internal_node_id": "0.0-1.0"}}, {"uniqueid": "w30996390:a48361959", "current_trial": 2, "dateTime": 1693483294323, "trialdata": {"view_history": [{"page_index": 0, "viewing_time": 635534}, {"page_index": 1, "viewing_time": 499697}, {"page_index": 2, "viewing_time": 96055}, {"page_index": 3, "viewing_time": 75520}], "rt": 1306810, "trial_id": "mouselab_instructions_1_control", "trial_type": "instructions", "trial_index": 2, "time_elapsed": 1429425, "internal_node_id": "0.0-2.0-1.0"}}, {"uniqueid": "w30996390:a48361959", "current_trial": 3, "dateTime": 1693483351855, "trialdata": {"revealed_states": [], "clicked_states": ["12", "13", "14", "19", "21"], "num_clicks_accrued": [0, 0, 0, 0, 0, 0, 0, 0, 0, 0, 0, 0, 0], "stateRewards": ["", 10, -10, -10, -10, -10, -10, -10, 10, 10, 10, 10, -10, 10, -10, 10, -10, -10, -10, -10, 10, 10, 10, -10, -10, 10, -10, -10, -10, -10, 10, 10, -10, -10], "withholdReward": false, "trial_id": "practice_1", "block": "test", "trialIndex": 0, "score": -9, "costs": -2.5, "simulationMode": [null, null, null, null, null], "rewards": [-10, 10, -10, 10, -10], "path": ["0", "0", "12", "13", "14", "15", "16"], "rt": [32541, 1486, 447, 965, 1417], "actions": ["right", "right", "right", "up", "up"], "actionTimes": [36293, 38493, 39597, 41299, 43368], "queries": {"click": {"state": {"target": ["12", "13", "14", "19", "21"], "time": [7152, 9964, 13559, 16138, 18958]}, "edge": {"target": [], "time": []}}, "mouseover": {"state": {"target": ["12", "13", "14", "19", "21", "14", "15", "1", "23", "0"], "time": [6527, 9696, 13206, 15671, 18452, 28195, 30497, 30808, 31289, 31641]}, "edge": {"target": [], "time": []}}, "mouseout": {"state": {"target": ["0", "12", "13", "14", "19", "21", "14", "15", "1", "23", "0"], "time": [5569, 9409, 12912, 15391, 17977, 19260, 30217, 30781, 31051, 31449, 31816]}, "edge": {"target": [], "time": []}}}, "displayed_time": "44.02", "trialTime": 51268, "trial_type": "mouselab-mdp", "trial_index": 3, "time_elapsed": 1486933, "internal_node_id": "0.0-2.0-2.0-0.0"}}, {"uniqueid": "w30996390:a48361959", "current_trial": 4, "dateTime": 1693483380677, "trialdata": {"revealed_states": [], "clicked_states": [], "num_clicks_accrued": [0, 0, 0, 0, 0, 0, 0, 0, 0, 0, 0, 0, 0], "stateRewards": ["", 10, -10, -10, 10, -10, -10, 10, 10, 10, 10, -10, -10, -10, 10, 10, -10, -10, -10, -10, 10, -10, -10, 10, 10, 10, 10, 10, -10, 10, 10, -10, -10, -10], "withholdReward": false, "trial_id": "practice_2", "block": "test", "trialIndex": 1, "score": 13.5, "costs": 0, "simulationMode": [null, null, null, null, null], "rewards": [10, -10, -10, 10, 10], "path": ["0", "0", "1", "2", "3", "8", "9"], "rt": [2128, 2828, 839, 944, 687], "actions": ["up", "up", "up", "left", "up"], "actionTimes": [10328, 13724, 15218, 16834, 18200], "queries": {"click": {"state": {"target": [], "time": []}, "edge": {"target": [], "time": []}}, "mouseover": {"state": {"target": [], "time": []}, "edge": {"target": [], "time": []}}, "mouseout": {"state": {"target": ["20", "19", "12", "0"], "time": [4436, 4789, 5217, 22862]}, "edge": {"target": [], "time": []}}}, "displayed_time": "18.86", "trialTime": 25984, "trial_type": "mouselab-mdp", "trial_index": 4, "time_elapsed": 1515784, "internal_node_id": "0.0-2.0-2.0-1.0"}}, {"uniqueid": "w30996390:a48361959", "current_trial": 5, "dateTime": 1693483679706, "trialdata": {"view_history": [{"page_index": 0, "viewing_time": 287537}, {"page_index": 1, "viewing_time": 11451}], "rt": 298990, "trial_id": "mouselab_instructions_2_control", "trial_type": "instructions", "trial_index": 5, "time_elapsed": 1814813, "internal_node_id": "0.0-2.0-3.0"}}, {"uniqueid": "w30996390:a48361959", "current_trial": 6, "dateTime": 1693483795252, "trialdata": {"rt": 115286, "response": {"Q0": "The cost for clicking on nodes may vary between nodes.", "Q1": "The better I perform the higher my bonus will be.", "Q2": "No, the amount of cash at each node of the web may be different each time.", "Q3": "To click on the least number of nodes.", "Q4": "Any time during the round.", "Q5": "3 seconds"}, "question_order": [0, 1, 2, 3, 4, 5], "correct": {"Q0": "The cost for clicking on nodes may vary between nodes.", "Q1": "The better I perform the higher my bonus will be.", "Q2": "No, the amount of cash at each node of the web may be different each time.", "Q3": "To get the highest total score.", "Q4": "Only before moving the spider.", "Q5": "3 seconds"}, "trial_id": "mouselab_quiz_control", "trial_type": "survey-multi-choice", "trial_index": 6, "time_elapsed": 1930359, "internal_node_id": "0.0-2.0-4.0"}}, {"uniqueid": "w30996390:a48361959", "current_trial": 7, "dateTime": 1693483809716, "trialdata": {"success": true, "trial_type": "fullscreen", "trial_index": 7, "time_elapsed": 1944823, "internal_node_id": "0.0-2.1-0.1-0.1"}}, {"uniqueid": "w30996390:a48361959", "current_trial": 8, "dateTime": 1693484143671, "trialdata": {"view_history": [{"page_index": 0, "viewing_time": 85255}, {"page_index": 1, "viewing_time": 169827}, {"page_index": 2, "viewing_time": 23720}, {"page_index": 3, "viewing_time": 55134}], "rt": 333940, "trial_id": "mouselab_instructions_1_control", "trial_type": "instructions", "trial_index": 8, "time_elapsed": 2278777, "internal_node_id": "0.0-2.1-1.1"}}, {"uniqueid": "w30996390:a48361959", "current_trial": 9, "dateTime": 1693484176649, "trialdata": {"revealed_states": [], "clicked_states": [], "num_clicks_accrued": [0, 0, 0, 0, 0, 0, 0, 0, 0, 0, 0, 0, 0], "stateRewards": ["", 10, -10, -10, -10, -10, -10, -10, 10, 10, 10, 10, -10, 10, -10, 10, -10, -10, -10, -10, 10, 10, 10, -10, -10, 10, -10, -10, -10, -10, 10, 10, -10, -10], "withholdReward": false, "trial_id": "practice_1", "block": "test", "trialIndex": 2, "score": 13.5, "costs": 0, "simulationMode": [null, null, null, null, null], "rewards": [10, -10, -10, 10, 10], "path": ["0", "0", "1", "2", "3", "8", "11"], "rt": [3904, 894, 6276, 2266, 327], "actions": ["up", "up", "up", "left", "left"], "actionTimes": [9873, 11361, 18362, 21382, 22392], "queries": {"click": {"state": {"target": [], "time": []}, "edge": {"target": [], "time": []}}, "mouseover": {"state": {"target": [], "time": []}, "edge": {"target": [], "time": []}}, "mouseout": {"state": {"target": ["0"], "time": [25857]}, "edge": {"target": [], "time": []}}}, "displayed_time": "22.95", "trialTime": 30236, "trial_type": "mouselab-mdp", "trial_index": 9, "time_elapsed": 2311752, "internal_node_id": "0.0-2.1-2.1-0.1"}}, {"uniqueid": "w30996390:a48361959", "current_trial": 10, "dateTime": 1693484200069, "trialdata": {"revealed_states": [], "clicked_states": [], "num_clicks_accrued": [0, 0, 0, 0, 0, 0, 0, 0, 0, 0, 0, 0, 0], "stateRewards": ["", 10, -10, -10, 10, -10, -10, 10, 10, 10, 10, -10, -10, -10, 10, 10, -10, -10, -10, -10, 10, -10, -10, 10, 10, 10, 10, 10, -10, 10, 10, -10, -10, -10], "withholdReward": false, "trial_id": "practice_2", "block": "test", "trialIndex": 3, "score": 33.5, "costs": 0, "simulationMode": [null, null, null, null, null], "rewards": [10, 10, 10, 10, -10], "path": ["0", "0", "23", "24", "25", "30", "32"], "rt": [2419, 1456, 893, 691, 1005], "actions": ["left", "left", "left", "down", "down"], "actionTimes": [7542, 9674, 11232, 12666, 14334], "queries": {"click": {"state": {"target": [], "time": []}, "edge": {"target": [], "time": []}}, "mouseover": {"state": {"target": [], "time": []}, "edge": {"target": [], "time": []}}, "mouseout": {"state": {"target": ["17", "0"], "time": [2374, 17776]}, "edge": {"target": [], "time": []}}}, "displayed_time": "14.88", "trialTime": 21046, "trial_type": "mouselab-mdp", "trial_index": 10, "time_elapsed": 2335173, "internal_node_id": "0.0-2.1-2.1-1.1"}}, {"uniqueid": "w30996390:a48361959", "current_trial": 11, "dateTime": 1693484249787, "trialdata": {"view_history": [{"page_index": 0, "viewing_time": 46141}, {"page_index": 1, "viewing_time": 3548}], "rt": 49691, "trial_id": "mouselab_instructions_2_control", "trial_type": "instructions", "trial_index": 11, "time_elapsed": 2384893, "internal_node_id": "0.0-2.1-3.1"}}, {"uniqueid": "w30996390:a48361959", "current_trial": 12, "dateTime": 1693484362912, "trialdata": {"rt": 113094, "response": {"Q0": "The cost for clicking on nodes may vary between nodes.", "Q1": "The better I perform the higher my bonus will be.", "Q2": "No, the amount of cash at each node of the web may be different each time.", "Q3": "To get the highest total score.", "Q4": "Any time during the round.", "Q5": "3 seconds"}, "question_order": [0, 1, 2, 3, 4, 5], "correct": {"Q0": "The cost for clicking on nodes may vary between nodes.", "Q1": "The better I perform the higher my bonus will be.", "Q2": "No, the amount of cash at each node of the web may be different each time.", "Q3": "To get the highest total score.", "Q4": "Only before moving the spider.", "Q5": "3 seconds"}, "trial_id": "mouselab_quiz_control", "trial_type": "survey-multi-choice", "trial_index": 12, "time_elapsed": 2498019, "internal_node_id": "0.0-2.1-4.1"}}, {"uniqueid": "w30996390:a48361959", "current_trial": 13, "dateTime": 1693484374763, "trialdata": {"success": true, "trial_type": "fullscreen", "trial_index": 13, "time_elapsed": 2509869, "internal_node_id": "0.0-2.2-0.2-0.2"}}, {"uniqueid": "w30996390:a48361959", "current_trial": 14, "dateTime": 1693484536655, "trialdata": {"view_history": [{"page_index": 0, "viewing_time": 46143}, {"page_index": 1, "viewing_time": 62658}, {"page_index": 2, "viewing_time": 45204}, {"page_index": 3, "viewing_time": 7875}], "rt": 161880, "trial_id": "mouselab_instructions_1_control", "trial_type": "instructions", "trial_index": 14, "time_elapsed": 2671762, "internal_node_id": "0.0-2.2-1.2"}}, {"uniqueid": "w30996390:a48361959", "current_trial": 15, "dateTime": 1693484557840, "trialdata": {"revealed_states": [], "clicked_states": [], "num_clicks_accrued": [0, 0, 0, 0, 0, 0, 0, 0, 0, 0, 0, 0, 0], "stateRewards": ["", 10, -10, -10, -10, -10, -10, -10, 10, 10, 10, 10, -10, 10, -10, 10, -10, -10, -10, -10, 10, 10, 10, -10, -10, 10, -10, -10, -10, -10, 10, 10, -10, -10], "withholdReward": false, "trial_id": "practice_1", "block": "test", "trialIndex": 4, "score": -6.5, "costs": 0, "simulationMode": [null, null, null, null, null], "rewards": [-10, 10, -10, -10, 10], "path": ["0", "0", "12", "13", "14", "19", "22"], "rt": [2164, 447, 445, 497, 519], "actions": ["right", "right", "right", "down", "left"], "actionTimes": [7413, 8569, 9588, 10740, 12011], "queries": {"click": {"state": {"target": [], "time": []}, "edge": {"target": [], "time": []}}, "mouseover": {"state": {"target": [], "time": []}, "edge": {"target": [], "time": []}}, "mouseout": {"state": {"target": ["0"], "time": [16085]}, "edge": {"target": [], "time": []}}}, "displayed_time": "12.68", "trialTime": 18833, "trial_type": "mouselab-mdp", "trial_index": 15, "time_elapsed": 2692944, "internal_node_id": "0.0-2.2-2.2-0.2"}}, {"uniqueid": "w30996390:a48361959", "current_trial": 16, "dateTime": 1693484577466, "trialdata": {"revealed_states": [], "clicked_states": [], "num_clicks_accrued": [0, 0, 0, 0, 0, 0, 0, 0, 0, 0, 0, 0, 0], "stateRewards": ["", 10, -10, -10, 10, -10, -10, 10, 10, 10, 10, -10, -10, -10, 10, 10, -10, -10, -10, -10, 10, -10, -10, 10, 10, 10, 10, 10, -10, 10, 10, -10, -10, -10], "withholdReward": false, "trial_id": "practice_2", "block": "test", "trialIndex": 5, "score": -6.5, "costs": 0, "simulationMode": [null, null, null, null, null], "rewards": [10, -10, -10, 10, -10], "path": ["0", "0", "1", "2", "3", "4", "6"], "rt": [1960, 453, 233, 410, 186], "actions": ["up", "up", "up", "right", "right"], "actionTimes": [6467, 7564, 8443, 9564, 10415], "queries": {"click": {"state": {"target": [], "time": []}, "edge": {"target": [], "time": []}}, "mouseover": {"state": {"target": [], "time": []}, "edge": {"target": [], "time": []}}, "mouseout": {"state": {"target": ["0"], "time": [14558]}, "edge": {"target": [], "time": []}}}, "displayed_time": "11.10", "trialTime": 17386, "trial_type": "mouselab-mdp", "trial_index": 16, "time_elapsed": 2712570, "internal_node_id": "0.0-2.2-2.2-1.2"}}, {"uniqueid": "w30996390:a48361959", "current_trial": 17, "dateTime": 1693484632690, "trialdata": {"view_history": [{"page_index": 0, "viewing_time": 51013}, {"page_index": 1, "viewing_time": 4181}], "rt": 55196, "trial_id": "mouselab_instructions_2_control", "trial_type": "instructions", "trial_index": 17, "time_elapsed": 2767796, "internal_node_id": "0.0-2.2-3.2"}}, {"uniqueid": "w30996390:a48361959", "current_trial": 18, "dateTime": 1693484702031, "trialdata": {"rt": 69308, "response": {"Q0": "The cost for clicking on nodes may vary between nodes.", "Q1": "The better I perform the higher my bonus will be.", "Q2": "No, the amount of cash at each node of the web may be different each time.", "Q3": "To get the highest total score.", "Q4": "Only before moving the spider.", "Q5": "3 seconds"}, "question_order": [0, 1, 2, 3, 4, 5], "correct": {"Q0": "The cost for clicking on nodes may vary between nodes.", "Q1": "The better I perform the higher my bonus will be.", "Q2": "No, the amount of cash at each node of the web may be different each time.", "Q3": "To get the highest total score.", "Q4": "Only before moving the spider.", "Q5": "3 seconds"}, "trial_id": "mouselab_quiz_control", "trial_type": "survey-multi-choice", "trial_index": 18, "time_elapsed": 2837137, "internal_node_id": "0.0-2.2-4.2"}}, {"uniqueid": "w30996390:a48361959", "current_trial": 19, "dateTime": 1693484726160, "trialdata": {"rt": 24054, "response": {"Q0": "No"}, "question_order": [0], "trial_id": "repeat_check", "trial_type": "survey-multi-choice", "trial_index": 19, "time_elapsed": 2861263, "internal_node_id": "0.0-4.0-0.0"}}, {"uniqueid": "w30996390:a48361959", "current_trial": 20, "dateTime": 1693484744078, "trialdata": {"rt": 17836, "stimulus": "\n<h1> Get ready to start the game! </h1>\n\nThank you for reading the instructions. Get ready start with the 40 rounds of this game.\n<br><br>\nIf you need to take a break, feel free to take one after the end of a round, before continuing to the next one.\n<br><br>\nRemember, the more money the spider gets, the bigger your bonus will be!\n<br><br>\n<div style='text-align: center;'>Press <code>space</code> to begin.</div>\n\n<br><br>\n(If, at any point, the <code>space</code> key does not take you to the next page, click once on the text and try again.)", "response": " ", "trial_id": "mdp_ready", "trial_type": "html-keyboard-response", "trial_index": 20, "time_elapsed": 2879185, "internal_node_id": "0.0-6.0-0.0"}}, {"uniqueid": "w30996390:a48361959", "current_trial": 21, "dateTime": 1693484778313, "trialdata": {"revealed_states": [], "clicked_states": [], "num_clicks_accrued": [0, 0, 0, 0, 0, 0, 0, 0, 0, 0, 0, 0, 0], "stateRewards": ["", 1, 1, 1, -3, -7, -1, -41, -10, 20, -72, -63, 1, -4, -2, 2, -66, 30, -84, -2, 49, 23, 71, -1, -4, 4, -12, 67, 5, 18, -16, 88, 56, -5], "withholdReward": false, "trial_id": "mdp_trial_1", "block": "test", "trialIndex": 6, "score": -70, "costs": 0, "simulationMode": [null, null, null, null, null], "rewards": [1, 1, 1, -10, -63], "path": ["0", "0", "1", "2", "3", "8", "11"], "rt": [1770, 451, 347, 678, 374], "actions": ["up", "up", "up", "left", "left"], "actionTimes": [15314, 16451, 17491, 18890, 19948], "queries": {"click": {"state": {"target": [], "time": []}, "edge": {"target": [], "time": []}}, "mouseover": {"state": {"target": [], "time": []}, "edge": {"target": [], "time": []}}, "mouseout": {"state": {"target": ["0"], "time": [27100]}, "edge": {"target": [], "time": []}}}, "displayed_time": "27.56", "trialTime": 32029, "trial_type": "mouselab-mdp", "trial_index": 21, "time_elapsed": 2913417, "internal_node_id": "0.0-6.0-1.0-0.0"}}, {"uniqueid": "w30996390:a48361959", "current_trial": 22, "dateTime": 1693484807300, "trialdata": {"revealed_states": [], "clicked_states": [], "num_clicks_accrued": [0, 0, 0, 0, 0, 0, 0, 0, 0, 0, 0, 0, 0], "stateRewards": ["", -1, 2, -2, 5, 80, -61, -27, 12, 44, -26, -75, -2, -4, 1, -16, 42, -49, -50, 4, -44, 2, 80, -2, -2, 5, -2, 59, 10, 24, 7, -48, -86, -44], "withholdReward": false, "trial_id": "mdp_trial_2", "block": "test", "trialIndex": 7, "score": -78, "costs": 0, "simulationMode": [null, null, null, null, null], "rewards": [-2, -2, 5, 7, -86], "path": ["0", "0", "23", "24", "25", "30", "32"], "rt": [2079, 114, 259, 325, 109], "actions": ["left", "left", "left", "down", "down"], "actionTimes": [7318, 8076, 8941, 9823, 10606], "queries": {"click": {"state": {"target": [], "time": []}, "edge": {"target": [], "time": []}}, "mouseover": {"state": {"target": [], "time": []}, "edge": {"target": [], "time": []}}, "mouseout": {"state": {"target": ["17", "15", "0"], "time": [2304, 2490, 24760]}, "edge": {"target": [], "time": []}}}, "displayed_time": "19.25", "trialTime": 26562, "trial_type": "mouselab-mdp", "trial_index": 22, "time_elapsed": 2942404, "internal_node_id": "0.0-6.0-1.0-1.0"}}, {"uniqueid": "w30996390:a48361959", "current_trial": 23, "dateTime": 1693484840131, "trialdata": {"revealed_states": [], "clicked_states": ["24", "25"], "num_clicks_accrued": [0, 0, 0, 0, 0, 0, 0, 0, 0, 0, 0, 0, 0], "stateRewards": ["", -2, 1, -5, 2, -68, 80, 33, 10, 67, -59, 20, -1, -3, 3, 14, 74, -2, 24, -16, 63, 80, 46, -1, 4, 6, 12, 83, -38, -43, -4, 43, 14, -79], "withholdReward": false, "trial_id": "mdp_trial_3", "block": "test", "trialIndex": 8, "score": -24.8, "costs": -2.8, "simulationMode": [null, null, null, null, null], "rewards": [-1, 4, 6, 12, -43], "path": ["0", "0", "23", "24", "25", "26", "29"], "rt": [11887, 325, 778, 1086, 574], "actions": ["left", "left", "left", "up", "left"], "actionTimes": [16424, 17439, 18869, 20607, 21808], "queries": {"click": {"state": {"target": ["24", "25"], "time": [6458, 10269]}, "edge": {"target": [], "time": []}}, "mouseover": {"state": {"target": ["23", "24", "25"], "time": [5620, 6197, 7797]}, "edge": {"target": [], "time": []}}, "mouseout": {"state": {"target": ["17", "15", "23", "24"], "time": [1603, 1776, 5908, 7607]}, "edge": {"target": [], "time": []}}}, "displayed_time": "22.46", "trialTime": 30192, "trial_type": "mouselab-mdp", "trial_index": 23, "time_elapsed": 2975235, "internal_node_id": "0.0-6.0-1.0-2.0"}}, {"uniqueid": "w30996390:a48361959", "current_trial": 24, "dateTime": 1693484867838, "trialdata": {"revealed_states": [], "clicked_states": [], "num_clicks_accrued": [0, 0, 0, 0, 0, 0, 0, 0, 0, 0, 0, 0, 0], "stateRewards": ["", 1, 2, 8, -2, 23, -69, -18, -16, 54, -21, 71, -1, -4, 7, 11, 43, -6, 88, 6, -55, 72, 43, 1, -3, -2, -1, 68, -31, -54, 4, -8, 25, -2], "withholdReward": false, "trial_id": "mdp_trial_4", "block": "test", "trialIndex": 9, "score": -26, "costs": 0, "simulationMode": [null, null, null, null, null], "rewards": [1, 2, 8, -16, -21], "path": ["0", "0", "1", "2", "3", "8", "10"], "rt": [1993, 664, 566, 753, 338], "actions": ["up", "up", "up", "left", "down"], "actionTimes": [6555, 7846, 9060, 10468, 11428], "queries": {"click": {"state": {"target": [], "time": []}, "edge": {"target": [], "time": []}}, "mouseover": {"state": {"target": [], "time": []}, "edge": {"target": [], "time": []}}, "mouseout": {"state": {"target": ["25"], "time": [1876]}, "edge": {"target": [], "time": []}}}, "displayed_time": "18.57", "trialTime": 25421, "trial_type": "mouselab-mdp", "trial_index": 24, "time_elapsed": 3002942, "internal_node_id": "0.0-6.0-1.0-3.0"}}, {"uniqueid": "w30996390:a48361959", "current_trial": 25, "dateTime": 1693484940512, "trialdata": {"revealed_states": [], "clicked_states": ["12", "13", "14"], "num_clicks_accrued": [0, 0, 0, 0, 0, 0, 0, 0, 0, 0, 0, 0, 0], "stateRewards": ["", 1, 1, 4, 11, 83, -66, 18, -16, -23, 5, 25, 1, -3, 1, -12, 18, 24, -86, -11, -64, 36, 40, 2, 1, -6, 13, 55, 29, 72, -2, 81, -72, -41], "withholdReward": false, "trial_id": "mdp_trial_5", "block": "test", "trialIndex": 10, "score": -80.2, "costs": -4.199999999999999, "simulationMode": [null, null, null, null, null], "rewards": [1, -3, 1, -11, -64], "path": ["0", "0", "12", "13", "14", "19", "20"], "rt": [9579, 783, 487, 298, 965], "actions": ["right", "right", "right", "down", "right"], "actionTimes": [15061, 16496, 17436, 18605, 20284], "queries": {"click": {"state": {"target": ["12", "13", "14"], "time": [7167, 9371, 11696]}, "edge": {"target": [], "time": []}}, "mouseover": {"state": {"target": ["12", "13", "14"], "time": [6901, 8569, 11186]}, "edge": {"target": [], "time": []}}, "mouseout": {"state": {"target": ["0", "12", "13", "14"], "time": [6602, 8531, 11167, 11919]}, "edge": {"target": [], "time": []}}}, "displayed_time": "20.85", "trialTime": 70460, "trial_type": "mouselab-mdp", "trial_index": 25, "time_elapsed": 3075616, "internal_node_id": "0.0-6.0-1.0-4.0"}}, {"uniqueid": "w30996390:a48361959", "current_trial": 26, "dateTime": 1693484971888, "trialdata": {"revealed_states": [], "clicked_states": [], "num_clicks_accrued": [0, 0, 0, 0, 0, 0, 0, 0, 0, 0, 0, 0, 0], "stateRewards": ["", 2, 2, 3, -15, 23, -14, 73, -7, -32, -20, -6, 1, 1, -5, -12, 73, 6, -84, 11, -81, -57, 13, -2, -1, -4, -8, -52, -58, 49, 13, 5, -41, -41], "withholdReward": false, "trial_id": "mdp_trial_6", "block": "test", "trialIndex": 11, "score": 15, "costs": 0, "simulationMode": [null, null, null, null, null], "rewards": [2, 2, 3, -15, 23], "path": ["0", "0", "1", "2", "3", "4", "5"], "rt": [1644, 328, 332, 285, 2327], "actions": ["up", "up", "up", "right", "up"], "actionTimes": [7024, 7984, 8949, 9790, 12723], "queries": {"click": {"state": {"target": [], "time": []}, "edge": {"target": [], "time": []}}, "mouseover": {"state": {"target": [], "time": []}, "edge": {"target": [], "time": []}}, "mouseout": {"state": {"target": ["14", "12"], "time": [1652, 1864]}, "edge": {"target": [], "time": []}}}, "displayed_time": "19.39", "trialTime": 28004, "trial_type": "mouselab-mdp", "trial_index": 26, "time_elapsed": 3106992, "internal_node_id": "0.0-6.0-1.0-5.0"}}, {"uniqueid": "w30996390:a48361959", "current_trial": 27, "dateTime": 1693485008619, "trialdata": {"revealed_states": [], "clicked_states": [], "num_clicks_accrued": [0, 0, 0, 0, 0, 0, 0, 0, 0, 0, 0, 0, 0], "stateRewards": ["", -1, -3, 4, -10, -5, 79, -87, -2, 53, 29, -20, -2, -1, -5, 10, 27, 86, 46, -16, -29, 40, 3, 2, 4, -1, -6, 37, 79, -29, 7, 86, -62, 29], "withholdReward": false, "trial_id": "mdp_trial_7", "block": "test", "trialIndex": 12, "score": 69, "costs": 0, "simulationMode": [null, null, null, null, null], "rewards": [-1, -3, 4, -10, 79], "path": ["0", "0", "1", "2", "3", "4", "6"], "rt": [1828, 425, 564, 413, 194], "actions": ["up", "up", "up", "right", "right"], "actionTimes": [6493, 7570, 8769, 9810, 10648], "queries": {"click": {"state": {"target": [], "time": []}, "edge": {"target": [], "time": []}}, "mouseover": {"state": {"target": [], "time": []}, "edge": {"target": [], "time": []}}, "mouseout": {"state": {"target": ["0"], "time": [2894]}, "edge": {"target": [], "time": []}}}, "displayed_time": "18.70", "trialTime": 34248, "trial_type": "mouselab-mdp", "trial_index": 27, "time_elapsed": 3143722, "internal_node_id": "0.0-6.0-1.0-6.0"}}, {"uniqueid": "w30996390:a48361959", "current_trial": 28, "dateTime": 1693485035723, "trialdata": {"revealed_states": [], "clicked_states": [], "num_clicks_accrued": [0, 0, 0, 0, 0, 0, 0, 0, 0, 0, 0, 0, 0], "stateRewards": ["", 1, -2, 4, 7, -43, -83, -60, -5, -86, -80, 83, -1, -2, 6, 11, -15, 21, 13, 9, 29, -49, 11, -1, 4, -6, -11, 87, 40, 63, -8, -39, -11, 62], "withholdReward": false, "trial_id": "mdp_trial_8", "block": "test", "trialIndex": 13, "score": -22, "costs": 0, "simulationMode": [null, null, null, null, null], "rewards": [-1, 4, -6, -8, -11], "path": ["0", "0", "23", "24", "25", "30", "32"], "rt": [1862, 336, 414, 365, 472], "actions": ["left", "left", "left", "down", "down"], "actionTimes": [4804, 5772, 6821, 7815, 9055], "queries": {"click": {"state": {"target": [], "time": []}, "edge": {"target": [], "time": []}}, "mouseover": {"state": {"target": [], "time": []}, "edge": {"target": [], "time": []}}, "mouseout": {"state": {"target": ["0"], "time": [1359]}, "edge": {"target": [], "time": []}}}, "displayed_time": "16.95", "trialTime": 24230, "trial_type": "mouselab-mdp", "trial_index": 28, "time_elapsed": 3170827, "internal_node_id": "0.0-6.0-1.0-7.0"}}, {"uniqueid": "w30996390:a48361959", "current_trial": 29, "dateTime": 1693485062580, "trialdata": {"revealed_states": [], "clicked_states": [], "num_clicks_accrued": [0, 0, 0, 0, 0, 0, 0, 0, 0, 0, 0, 0, 0], "stateRewards": ["", 1, 1, 7, -11, 80, -20, -53, -14, 3, 31, 27, 2, -1, -8, -10, 33, 41, 86, 9, 78, -37, -13, -1, -2, -6, -8, -80, 75, 4, -16, -49, -74, 24], "withholdReward": false, "trial_id": "mdp_trial_9", "block": "test", "trialIndex": 14, "score": -55, "costs": 0, "simulationMode": [null, null, null, null, null], "rewards": [1, 1, 7, -11, -53], "path": ["0", "0", "1", "2", "3", "4", "7"], "rt": [1085, 538, 548, 486, 374], "actions": ["up", "up", "up", "right", "down"], "actionTimes": [4536, 5702, 6867, 7973, 9008], "queries": {"click": {"state": {"target": [], "time": []}, "edge": {"target": [], "time": []}}, "mouseover": {"state": {"target": [], "time": []}, "edge": {"target": [], "time": []}}, "mouseout": {"state": {"target": ["0"], "time": [1775]}, "edge": {"target": [], "time": []}}}, "displayed_time": "17.46", "trialTime": 24268, "trial_type": "mouselab-mdp", "trial_index": 29, "time_elapsed": 3197684, "internal_node_id": "0.0-6.0-1.0-8.0"}}, {"uniqueid": "w30996390:a48361959", "current_trial": 30, "dateTime": 1693485092365, "trialdata": {"revealed_states": [], "clicked_states": [], "num_clicks_accrued": [0, 0, 0, 0, 0, 0, 0, 0, 0, 0, 0, 0, 0], "stateRewards": ["", -1, 4, -3, 3, 57, -61, 5, -11, 23, -1, 34, -2, -4, -1, -13, 27, 38, -36, 4, -45, 21, 88, 1, -2, -1, 1, -69, -5, -78, -12, -9, 38, -54], "withholdReward": false, "trial_id": "mdp_trial_10", "block": "test", "trialIndex": 15, "score": 18, "costs": 0, "simulationMode": [null, null, null, null, null], "rewards": [-2, -4, -1, -13, 38], "path": ["0", "0", "12", "13", "14", "15", "17"], "rt": [2186, 549, 567, 1037, 825], "actions": ["right", "right", "right", "up", "right"], "actionTimes": [5502, 6699, 7895, 9557, 10962], "queries": {"click": {"state": {"target": [], "time": []}, "edge": {"target": [], "time": []}}, "mouseover": {"state": {"target": [], "time": []}, "edge": {"target": [], "time": []}}, "mouseout": {"state": {"target": ["0"], "time": [1767]}, "edge": {"target": [], "time": []}}}, "displayed_time": "17.32", "trialTime": 27354, "trial_type": "mouselab-mdp", "trial_index": 30, "time_elapsed": 3227469, "internal_node_id": "0.0-6.0-1.0-9.0"}}, {"uniqueid": "w30996390:a48361959", "current_trial": 31, "dateTime": 1693485124756, "trialdata": {"revealed_states": [], "clicked_states": ["1"], "num_clicks_accrued": [0, 0, 0, 0, 0, 0, 0, 0, 0, 0, 0, 0, 0], "stateRewards": ["", -2, 3, -1, 2, -72, 63, 20, -1, 62, -66, 39, -2, 3, -6, 14, 22, 47, 1, 8, -49, -1, -41, 2, 2, -6, -16, -64, -60, -34, 16, 54, 22, -7], "withholdReward": false, "trial_id": "mdp_trial_11", "block": "test", "trialIndex": 16, "score": -71.4, "costs": -1.4, "simulationMode": [null, null, null, null, null], "rewards": [-2, 3, -1, 2, -72], "path": ["0", "0", "1", "2", "3", "4", "5"], "rt": [6631, 466, 651, 633, 845], "actions": ["up", "up", "up", "right", "up"], "actionTimes": [9472, 10485, 11853, 13143, 14618], "queries": {"click": {"state": {"target": ["1"], "time": [6109]}, "edge": {"target": [], "time": []}}, "mouseover": {"state": {"target": ["1"], "time": [5800]}, "edge": {"target": [], "time": []}}, "mouseout": {"state": {"target": ["0"], "time": [1257]}, "edge": {"target": [], "time": []}}}, "displayed_time": "16.85", "trialTime": 29902, "trial_type": "mouselab-mdp", "trial_index": 31, "time_elapsed": 3259860, "internal_node_id": "0.0-6.0-1.0-10.0"}}, {"uniqueid": "w30996390:a48361959", "current_trial": 32, "dateTime": 1693485154114, "trialdata": {"revealed_states": [], "clicked_states": [], "num_clicks_accrued": [0, 0, 0, 0, 0, 0, 0, 0, 0, 0, 0, 0, 0], "stateRewards": ["", 2, 3, 8, 14, 69, -27, 17, 2, -71, -65, -10, 2, -3, 7, 8, 65, -10, 65, -12, 73, -12, 13, -2, -2, 6, 10, -79, -69, -18, 10, -85, 67, 74], "withholdReward": false, "trial_id": "mdp_trial_12", "block": "test", "trialIndex": 17, "score": -6, "costs": 0, "simulationMode": [null, null, null, null, null], "rewards": [-2, -2, 6, 10, -18], "path": ["0", "0", "23", "24", "25", "26", "29"], "rt": [1486, 230, 265, 1583, 110], "actions": ["left", "left", "left", "up", "left"], "actionTimes": [7124, 7966, 8852, 11065, 11820], "queries": {"click": {"state": {"target": [], "time": []}, "edge": {"target": [], "time": []}}, "mouseover": {"state": {"target": [], "time": []}, "edge": {"target": [], "time": []}}, "mouseout": {"state": {"target": ["1"], "time": [2890]}, "edge": {"target": [], "time": []}}}, "displayed_time": "19.64", "trialTime": 27000, "trial_type": "mouselab-mdp", "trial_index": 32, "time_elapsed": 3289218, "internal_node_id": "0.0-6.0-1.0-11.0"}}, {"uniqueid": "w30996390:a48361959", "current_trial": 33, "dateTime": 1693485181061, "trialdata": {"revealed_states": [], "clicked_states": [], "num_clicks_accrued": [0, 0, 0, 0, 0, 0, 0, 0, 0, 0, 0, 0, 0], "stateRewards": ["", -2, -1, -3, -1, -78, -6, 2, -1, 22, -88, 32, 2, 2, -7, -8, -51, -17, 54, 2, -44, 54, 75, 2, -2, -8, -15, -29, 12, -67, 15, -1, -47, -47], "withholdReward": false, "trial_id": "mdp_trial_13", "block": "test", "trialIndex": 18, "score": -40, "costs": 0, "simulationMode": [null, null, null, null, null], "rewards": [2, -2, -8, 15, -47], "path": ["0", "0", "23", "24", "25", "30", "32"], "rt": [6169, 325, 277, 789, 636], "actions": ["left", "left", "left", "down", "down"], "actionTimes": [9694, 10660, 11739, 13263, 14517], "queries": {"click": {"state": {"target": [], "time": []}, "edge": {"target": [], "time": []}}, "mouseover": {"state": {"target": ["1", "0"], "time": [6613, 8525]}, "edge": {"target": [], "time": []}}, "mouseout": {"state": {"target": ["0", "1"], "time": [6209, 8239]}, "edge": {"target": [], "time": []}}}, "displayed_time": "17.53", "trialTime": 24382, "trial_type": "mouselab-mdp", "trial_index": 33, "time_elapsed": 3316166, "internal_node_id": "0.0-6.0-1.0-12.0"}}, {"uniqueid": "w30996390:a48361959", "current_trial": 34, "dateTime": 1693485208445, "trialdata": {"revealed_states": [], "clicked_states": [], "num_clicks_accrued": [0, 0, 0, 0, 0, 0, 0, 0, 0, 0, 0, 0, 0], "stateRewards": ["", 2, -1, -4, -13, 74, 77, 3, 2, -43, -2, -11, 2, 3, 7, 11, -26, -29, -33, -3, -3, -13, -3, 1, 3, -7, 14, -59, 33, 9, -5, 34, 79, 68], "withholdReward": false, "trial_id": "mdp_trial_14", "block": "test", "trialIndex": 19, "score": 58, "costs": 0, "simulationMode": [null, null, null, null, null], "rewards": [2, -1, -4, -13, 74], "path": ["0", "0", "1", "2", "3", "4", "5"], "rt": [1490, 316, 331, 120, 254], "actions": ["up", "up", "up", "right", "up"], "actionTimes": [4442, 5394, 6277, 7041, 7872], "queries": {"click": {"state": {"target": [], "time": []}, "edge": {"target": [], "time": []}}, "mouseover": {"state": {"target": [], "time": []}, "edge": {"target": [], "time": []}}, "mouseout": {"state": {"target": [], "time": []}, "edge": {"target": [], "time": []}}}, "displayed_time": "16.96", "trialTime": 25055, "trial_type": "mouselab-mdp", "trial_index": 34, "time_elapsed": 3343543, "internal_node_id": "0.0-6.0-1.0-13.0"}}, {"uniqueid": "w30996390:a48361959", "current_trial": 35, "dateTime": 1693485237785, "trialdata": {"revealed_states": [], "clicked_states": [], "num_clicks_accrued": [0, 0, 0, 0, 0, 0, 0, 0, 0, 0, 0, 0, 0], "stateRewards": ["", 2, -1, 3, -12, -83, 6, -33, 9, 28, 24, -50, -2, -1, -2, -5, -87, 37, 82, 12, 80, -5, 10, -2, -3, -6, 9, 22, -1, 16, 9, 77, -62, 58], "withholdReward": false, "trial_id": "mdp_trial_15", "block": "test", "trialIndex": 20, "score": -2, "costs": 0, "simulationMode": [null, null, null, null, null], "rewards": [2, -1, 3, -12, 6], "path": ["0", "0", "1", "2", "3", "4", "6"], "rt": [1454, 253, 286, 762, 1158], "actions": ["up", "up", "up", "right", "right"], "actionTimes": [7598, 8463, 9406, 10755, 12552], "queries": {"click": {"state": {"target": [], "time": []}, "edge": {"target": [], "time": []}}, "mouseover": {"state": {"target": [], "time": []}, "edge": {"target": [], "time": []}}, "mouseout": {"state": {"target": [], "time": []}, "edge": {"target": [], "time": []}}}, "displayed_time": "20.16", "trialTime": 26590, "trial_type": "mouselab-mdp", "trial_index": 35, "time_elapsed": 3372888, "internal_node_id": "0.0-6.0-1.0-14.0"}}, {"uniqueid": "w30996390:a48361959", "current_trial": 36, "dateTime": 1693485264567, "trialdata": {"revealed_states": [], "clicked_states": [], "num_clicks_accrued": [0, 0, 0, 0, 0, 0, 0, 0, 0, 0, 0, 0, 0], "stateRewards": ["", -2, -3, 4, 1, 33, -53, 15, 9, -12, 61, -6, -2, 4, 6, -11, 47, -43, -7, -11, 46, 23, -28, -1, -1, 3, -10, 11, 76, -76, 10, 18, -38, 87], "withholdReward": false, "trial_id": "mdp_trial_16", "block": "test", "trialIndex": 21, "score": 15, "costs": 0, "simulationMode": [null, null, null, null, null], "rewards": [-2, -3, 4, 1, 15], "path": ["0", "0", "1", "2", "3", "4", "7"], "rt": [1385, 300, 377, 197, 109], "actions": ["up", "up", "up", "right", "down"], "actionTimes": [4497, 5363, 6341, 7111, 7772], "queries": {"click": {"state": {"target": [], "time": []}, "edge": {"target": [], "time": []}}, "mouseover": {"state": {"target": [], "time": []}, "edge": {"target": [], "time": []}}, "mouseout": {"state": {"target": [], "time": []}, "edge": {"target": [], "time": []}}}, "displayed_time": "17.12", "trialTime": 24265, "trial_type": "mouselab-mdp", "trial_index": 36, "time_elapsed": 3399671, "internal_node_id": "0.0-6.0-1.0-15.0"}}], "questiondata": {"params": {"CODE": "C6DMOQA6", "MIN_TIME": 14, "inspectCost": 1, "startTime": "Thu Aug 31 2023 13:37:39 GMT+0200 (South Africa Standard Time)", "bonusRate": 0.002, "variance": "1_2_4_8_44", "branching": "31123"}}, "eventdata": [{"eventtype": "initialized", "value": null, "timestamp": 1693481856719, "interval": 0}, {"eventtype": "window_resize", "value": [1024, 654], "timestamp": 1693481856723, "interval": 4}, {"eventtype": "window_resize", "value": [1024, 654], "timestamp": 1693481859062, "interval": 2339}, {"eventtype": "window_resize", "value": [1366, 768], "timestamp": 1693481882106, "interval": 23044}, {"eventtype": "focus", "value": "off", "timestamp": 1693483805879, "interval": 1923773}, {"eventtype": "focus", "value": "on", "timestamp": 1693483805883, "interval": 4}, {"eventtype": "window_resize", "value": [1024, 654], "timestamp": 1693483806240, "interval": 357}, {"eventtype": "window_resize", "value": [1366, 768], "timestamp": 1693483809226, "interval": 2986}, {"eventtype": "focus", "value": "off", "timestamp": 1693484371049, "interval": 561823}, {"eventtype": "focus", "value": "on", "timestamp": 1693484371056, "interval": 7}, {"eventtype": "window_resize", "value": [1024, 654], "timestamp": 1693484371390, "interval": 334}, {"eventtype": "window_resize", "value": [1366, 768], "timestamp": 1693484374061, "interval": 2671}], "useragent": "Mozilla/5.0 (Windows NT 10.0; Win64; x64) AppleWebKit/537.36 (KHTML, like Gecko) Chrome/116.0.0.0 Safari/537.36", "mode": "live", "id": "w30996390:a48361959", "status": "user data saved", "Beginhit": "2023-08-31 11:37:18.628129", "Beginexp": "2023-08-31 11:38:03.996808", "Endhit": null, "psiturkStatus": 2, "browser": "<redacted>", "platform": "windows", "language": "en-US", "excludeReason": "dataincomplete"}