{"condition": 1, "counterbalance": 0, "assignmentId": "a93041975", "workerId": "w70549161", "hitId": "h83626106", "currenttrial": 62, "bonus": 0, "data": [{"uniqueid": "w70549161:a93041975", "current_trial": 0, "dateTime": 1693580075746, "trialdata": {"success": true, "trial_type": "fullscreen", "trial_index": 0, "time_elapsed": 3826, "internal_node_id": "0.0-0.0"}}, {"uniqueid": "w70549161:a93041975", "current_trial": 1, "dateTime": 1693580081831, "trialdata": {"view_history": [{"page_index": 0, "viewing_time": 6078}], "rt": 6079, "trial_id": "exp_instructions_misaligned", "trial_type": "instructions", "trial_index": 1, "time_elapsed": 9912, "internal_node_id": "0.0-1.0"}}, {"uniqueid": "w70549161:a93041975", "current_trial": 2, "dateTime": 1693580249132, "trialdata": {"view_history": [{"page_index": 0, "viewing_time": 42343}, {"page_index": 1, "viewing_time": 65608}, {"page_index": 2, "viewing_time": 31685}, {"page_index": 3, "viewing_time": 27657}], "rt": 167293, "trial_id": "mouselab_instructions_1_misaligned", "trial_type": "instructions", "trial_index": 2, "time_elapsed": 177213, "internal_node_id": "0.0-2.0-1.0"}}, {"uniqueid": "w70549161:a93041975", "current_trial": 3, "dateTime": 1693580298177, "trialdata": {"revealed_states": [], "clicked_states": ["23", "24", "26", "27", "25", "12", "13", "14", "19", "21", "1", "2", "3"], "num_clicks_accrued": [0, 0, 0, 0, 0, 0, 0, 0, 0, 0, 0, 0, 0], "stateRewards": ["", -10, -10, 10, 10, -10, -10, -10, 10, -10, 10, 10, -10, 10, 10, 10, -10, 10, 10, 10, 10, -10, 10, 10, -10, -10, 10, 10, -10, -10, -10, -10, 10, 10], "withholdReward": false, "trial_id": "practice_1", "block": "test", "trialIndex": 0, "score": 7, "costs": -6.5, "simulationMode": [null, null, null, null, null], "rewards": [10, -10, -10, 10, 10], "path": ["0", "0", "23", "24", "25", "26", "27"], "rt": [36908, 461, 342, 813, 403], "actions": ["left", "left", "left", "up", "up"], "actionTimes": [41494, 42455, 43304, 44629, 45539], "queries": {"click": {"state": {"target": ["23", "24", "26", "27", "25", "12", "13", "14", "19", "21", "1", "2", "3"], "time": [7669, 10969, 14248, 16236, 17673, 20296, 22002, 29657, 31528, 32747, 34886, 36173, 37308]}, "edge": {"target": [], "time": []}}, "mouseover": {"state": {"target": ["23", "12", "24", "24", "0", "12", "13", "13", "12", "0", "23", "26", "27", "25", "25", "13", "14", "13", "12", "13", "0", "0", "12", "13", "14", "19", "21", "1", "2", "3", "8", "11", "26", "24", "1", "1", "2", "3", "23", "0", "23"], "time": [7031, 8902, 10023, 10592, 12665, 12685, 12717, 13030, 13062, 13081, 13097, 13615, 15905, 17034, 17378, 18915, 19282, 19313, 19501, 21003, 22876, 23575, 27304, 27668, 29324, 30378, 32017, 33300, 33336, 33356, 33571, 33592, 33939, 33956, 34222, 34590, 35425, 37025, 38316, 38868, 39718]}, "edge": {"target": [], "time": []}}, "mouseout": {"state": {"target": ["0", "23", "12", "24", "24", "0", "12", "13", "13", "12", "0", "23", "26", "27", "26", "25", "25", "13", "14", "13", "12", "13", "12", "0", "0", "12", "13", "14", "19", "21", "1", "2", "3", "8", "11", "26", "24", "1", "1", "2", "3", "1", "23", "0"], "time": [6847, 8631, 9940, 10139, 12631, 12683, 12701, 12732, 13047, 13078, 13095, 13111, 15840, 16937, 17001, 17161, 18845, 18931, 19298, 19414, 20948, 22836, 22874, 22925, 27266, 27338, 29307, 30340, 31969, 33247, 33317, 33354, 33567, 33590, 33611, 33954, 33972, 34238, 35354, 36923, 37897, 37988, 38817, 39518]}, "edge": {"target": [], "time": []}}}, "displayed_time": "46.04", "trialTime": 48072, "trial_type": "mouselab-mdp", "trial_index": 3, "time_elapsed": 226257, "internal_node_id": "0.0-2.0-2.0-0.0"}}, {"uniqueid": "w70549161:a93041975", "current_trial": 4, "dateTime": 1693580335517, "trialdata": {"revealed_states": [], "clicked_states": ["23", "24", "25", "26", "28", "1", "2", "3", "4", "6", "12", "13", "14", "19", "21", "22"], "num_clicks_accrued": [0, 0, 0, 0, 0, 0, 0, 0, 0, 0, 0, 0, 0], "stateRewards": ["", -10, -10, -10, 10, -10, -10, 10, 10, 10, 10, -10, -10, -10, 10, -10, -10, 10, 10, 10, -10, 10, 10, 10, 10, -10, -10, 10, -10, -10, -10, 10, -10, 10], "withholdReward": false, "trial_id": "practice_2", "block": "test", "trialIndex": 1, "score": 5.5, "costs": -8, "simulationMode": [null, null, null, null, null], "rewards": [-10, -10, 10, 10, 10], "path": ["0", "0", "12", "13", "14", "19", "22"], "rt": [28418, 318, 315, 529, 980], "actions": ["right", "right", "right", "down", "left"], "actionTimes": [31678, 32498, 33309, 34343, 35833], "queries": {"click": {"state": {"target": ["23", "24", "25", "26", "28", "1", "2", "3", "4", "6", "12", "13", "14", "19", "21", "22"], "time": [5184, 7053, 8124, 10449, 11699, 13038, 14559, 15879, 17249, 18517, 21277, 22730, 23902, 25170, 26407, 27544]}, "edge": {"target": [], "time": []}}, "mouseover": {"state": {"target": ["23", "24", "23", "24", "25", "26", "28", "1", "2", "3", "4", "6", "18", "13", "13", "12", "13", "14", "19", "21", "22", "20", "12"], "time": [4080, 4468, 4884, 5805, 7694, 8630, 10903, 12559, 13806, 15075, 16382, 17752, 19173, 19206, 20513, 20709, 21811, 23231, 24519, 25930, 27315, 28066, 29986]}, "edge": {"target": [], "time": []}}, "mouseout": {"state": {"target": ["23", "0", "23", "24", "23", "24", "25", "26", "28", "1", "2", "3", "4", "6", "18", "13", "13", "12", "13", "14", "19", "21", "22", "19", "20", "12"], "time": [2079, 4049, 4152, 4735, 5736, 7642, 8581, 10870, 12422, 13524, 15009, 16350, 17721, 19069, 19190, 19250, 20561, 21764, 23132, 24420, 25823, 27225, 27983, 28049, 29903, 30302]}, "edge": {"target": [], "time": []}}}, "displayed_time": "36.34", "trialTime": 36589, "trial_type": "mouselab-mdp", "trial_index": 4, "time_elapsed": 263595, "internal_node_id": "0.0-2.0-2.0-1.0"}}, {"uniqueid": "w70549161:a93041975", "current_trial": 5, "dateTime": 1693580360366, "trialdata": {"view_history": [{"page_index": 0, "viewing_time": 19914}, {"page_index": 1, "viewing_time": 4929}], "rt": 24844, "trial_id": "mouselab_instructions_2_misaligned", "trial_type": "instructions", "trial_index": 5, "time_elapsed": 288447, "internal_node_id": "0.0-2.0-3.0"}}, {"uniqueid": "w70549161:a93041975", "current_trial": 6, "dateTime": 1693580401178, "trialdata": {"rt": 40804, "response": {"Q0": "The cost for clicking on nodes may vary between nodes.", "Q1": "The better I perform the higher my bonus will be.", "Q2": "No, the amount of cash at each node of the web may be different each time.", "Q3": "To click on the least number of nodes.", "Q4": "Only before moving the spider.", "Q5": "3 seconds"}, "question_order": [0, 1, 2, 3, 4, 5], "correct": {"Q0": "The cost for clicking on nodes may vary between nodes.", "Q1": "The better I perform the higher my bonus will be.", "Q2": "No, the amount of cash at each node of the web may be different each time.", "Q3": "To get the highest total score.", "Q4": "Only before moving the spider.", "Q5": "3 seconds"}, "trial_id": "mouselab_quiz_misaligned", "trial_type": "survey-multi-choice", "trial_index": 6, "time_elapsed": 329259, "internal_node_id": "0.0-2.0-4.0"}}, {"uniqueid": "w70549161:a93041975", "current_trial": 7, "dateTime": 1693580412297, "trialdata": {"success": true, "trial_type": "fullscreen", "trial_index": 7, "time_elapsed": 340378, "internal_node_id": "0.0-2.1-0.1-0.1"}}, {"uniqueid": "w70549161:a93041975", "current_trial": 8, "dateTime": 1693580441452, "trialdata": {"view_history": [{"page_index": 0, "viewing_time": 8847}, {"page_index": 1, "viewing_time": 3292}, {"page_index": 2, "viewing_time": 1537}, {"page_index": 3, "viewing_time": 15475}], "rt": 29152, "trial_id": "mouselab_instructions_1_misaligned", "trial_type": "instructions", "trial_index": 8, "time_elapsed": 369533, "internal_node_id": "0.0-2.1-1.1"}}, {"uniqueid": "w70549161:a93041975", "current_trial": 9, "dateTime": 1693580461888, "trialdata": {"revealed_states": [], "clicked_states": ["23", "25", "33"], "num_clicks_accrued": [0, 0, 0, 0, 0, 0, 0, 0, 0, 0, 0, 0, 0], "stateRewards": ["", -10, -10, 10, 10, -10, -10, -10, 10, -10, 10, 10, -10, 10, 10, 10, -10, 10, 10, 10, 10, -10, 10, 10, -10, -10, 10, 10, -10, -10, -10, -10, 10, 10], "withholdReward": false, "trial_id": "practice_1", "block": "test", "trialIndex": 2, "score": -8, "costs": -1.5, "simulationMode": [null, null, null, null, null], "rewards": [10, -10, -10, -10, 10], "path": ["0", "0", "23", "24", "25", "30", "33"], "rt": [10818, 1335, 362, 322, 841], "actions": ["left", "left", "left", "down", "left"], "actionTimes": [13051, 14884, 15768, 16593, 17930], "queries": {"click": {"state": {"target": ["23", "25", "33"], "time": [3501, 5555, 6976]}, "edge": {"target": [], "time": []}}, "mouseover": {"state": {"target": ["23", "23", "24", "25", "30", "30", "33", "30", "31", "23"], "time": [2903, 3253, 4124, 5326, 6110, 6589, 6826, 7755, 11491, 11593]}, "edge": {"target": [], "time": []}}, "mouseout": {"state": {"target": ["0", "23", "23", "24", "25", "30", "30", "33", "30", "31"], "time": [2850, 2969, 3986, 5039, 6027, 6372, 6778, 7709, 7796, 11541]}, "edge": {"target": [], "time": []}}}, "displayed_time": "18.43", "trialTime": 19595, "trial_type": "mouselab-mdp", "trial_index": 9, "time_elapsed": 389966, "internal_node_id": "0.0-2.1-2.1-0.1"}}, {"uniqueid": "w70549161:a93041975", "current_trial": 10, "dateTime": 1693580496758, "trialdata": {"revealed_states": [], "clicked_states": ["1", "2", "10", "8", "11", "9", "5", "4", "6", "7", "12", "13", "14", "18", "15"], "num_clicks_accrued": [0, 0, 0, 0, 0, 0, 0, 0, 0, 0, 0, 0, 0], "stateRewards": ["", -10, -10, -10, 10, -10, -10, 10, 10, 10, 10, -10, -10, -10, 10, -10, -10, 10, 10, 10, -10, 10, 10, 10, 10, -10, -10, 10, -10, -10, -10, 10, -10, 10], "withholdReward": false, "trial_id": "practice_2", "block": "test", "trialIndex": 3, "score": -14, "costs": -7.5, "simulationMode": [null, null, null, null, null], "rewards": [-10, -10, 10, -10, 10], "path": ["0", "0", "12", "13", "14", "15", "18"], "rt": [26670, 48, 79, 728, 570], "actions": ["right", "right", "right", "up", "left"], "actionTimes": [29035, 29587, 30193, 31432, 32510], "queries": {"click": {"state": {"target": ["1", "2", "10", "8", "11", "9", "5", "4", "6", "7", "12", "13", "14", "18", "15"], "time": [4965, 7022, 8222, 10395, 11464, 12868, 13955, 15358, 17380, 18683, 20472, 21809, 22945, 24788, 26766]}, "edge": {"target": [], "time": []}}, "mouseover": {"state": {"target": ["12", "1", "1", "2", "10", "8", "11", "9", "5", "4", "6", "6", "7", "13", "22", "13", "12", "12", "13", "14", "15", "18", "15", "16", "14"], "time": [3197, 3448, 4671, 5565, 7897, 8860, 11131, 12400, 13755, 14445, 15841, 17165, 18031, 19434, 19472, 19926, 20022, 20242, 20995, 22314, 23446, 24584, 25429, 27314, 28461]}, "edge": {"target": [], "time": []}}, "mouseout": {"state": {"target": ["23", "0", "12", "1", "1", "2", "10", "8", "11", "9", "5", "4", "6", "6", "7", "13", "22", "13", "12", "12", "13", "14", "15", "18", "15", "16", "15", "14"], "time": [970, 2995, 3377, 3512, 5350, 7774, 8760, 11083, 11985, 13052, 14376, 15813, 16835, 17968, 19369, 19451, 19773, 19959, 20038, 20941, 22262, 23380, 24401, 25383, 27212, 28338, 28430, 28476]}, "edge": {"target": [], "time": []}}}, "displayed_time": "33.01", "trialTime": 34085, "trial_type": "mouselab-mdp", "trial_index": 10, "time_elapsed": 424836, "internal_node_id": "0.0-2.1-2.1-1.1"}}, {"uniqueid": "w70549161:a93041975", "current_trial": 11, "dateTime": 1693580517156, "trialdata": {"view_history": [{"page_index": 0, "viewing_time": 19022}, {"page_index": 1, "viewing_time": 1370}], "rt": 20392, "trial_id": "mouselab_instructions_2_misaligned", "trial_type": "instructions", "trial_index": 11, "time_elapsed": 445237, "internal_node_id": "0.0-2.1-3.1"}}, {"uniqueid": "w70549161:a93041975", "current_trial": 12, "dateTime": 1693580545267, "trialdata": {"rt": 28105, "response": {"Q0": "The cost for clicking on nodes may vary between nodes.", "Q1": "The better I perform the higher my bonus will be.", "Q2": "No, the amount of cash at each node of the web may be different each time.", "Q3": "To get the highest total score.", "Q4": "Only before moving the spider.", "Q5": "3 seconds"}, "question_order": [0, 1, 2, 3, 4, 5], "correct": {"Q0": "The cost for clicking on nodes may vary between nodes.", "Q1": "The better I perform the higher my bonus will be.", "Q2": "No, the amount of cash at each node of the web may be different each time.", "Q3": "To get the highest total score.", "Q4": "Only before moving the spider.", "Q5": "3 seconds"}, "trial_id": "mouselab_quiz_misaligned", "trial_type": "survey-multi-choice", "trial_index": 12, "time_elapsed": 473348, "internal_node_id": "0.0-2.1-4.1"}}, {"uniqueid": "w70549161:a93041975", "current_trial": 13, "dateTime": 1693580551366, "trialdata": {"rt": 6087, "response": {"Q0": "No"}, "question_order": [0], "trial_id": "repeat_check", "trial_type": "survey-multi-choice", "trial_index": 13, "time_elapsed": 479447, "internal_node_id": "0.0-4.0-0.0"}}, {"uniqueid": "w70549161:a93041975", "current_trial": 14, "dateTime": 1693580553132, "trialdata": {"rt": 1756, "stimulus": "\n<h1> Get ready to start the game! </h1>\n\nThank you for reading the instructions. Get ready start with the 40 rounds of this game.\n<br><br>\nIf you need to take a break, feel free to take one after the end of a round, before continuing to the next one.\n<br><br>\nRemember, the more money the spider gets, the bigger your bonus will be!\n<br><br>\n<div style='text-align: center;'>Press <code>space</code> to begin.</div>\n\n<br><br>\n(If, at any point, the <code>space</code> key does not take you to the next page, click once on the text and try again.)", "response": " ", "trial_id": "mdp_ready", "trial_type": "html-keyboard-response", "trial_index": 14, "time_elapsed": 481213, "internal_node_id": "0.0-6.0-0.0"}}, {"uniqueid": "w70549161:a93041975", "current_trial": 15, "dateTime": 1693580583632, "trialdata": {"revealed_states": [], "clicked_states": ["23", "24", "25", "30", "33", "26", "29", "12", "13", "14", "15", "18"], "num_clicks_accrued": [0, 0, 0, 0, 0, 0, 0, 0, 0, 0, 0, 0, 0], "stateRewards": ["", -1, -3, 3, 5, 56, 39, 50, -1, -80, 33, -46, 1, -2, -6, -8, 87, 48, 54, -11, -20, -64, -54, -2, 3, -7, -3, 12, 88, 35, -16, -46, -70, -3], "withholdReward": false, "trial_id": "mdp_trial_1", "block": "test", "trialIndex": 4, "score": 12.8, "costs": -13.2, "simulationMode": [null, null, null, null, null, null], "rewards": [-2, 3, -7, -3, 35], "path": ["0", "0", "23", "24", "25", "26", "29"], "rt": [20558, 921, 496, 231, 764, 1073], "actions": ["left", "left", "left", "left", "up", "left"], "actionTimes": [22643, 23568, 24571, 25304, 26574, 28153], "queries": {"click": {"state": {"target": ["23", "24", "25", "30", "33", "26", "29", "12", "13", "14", "15", "18"], "time": [3142, 4616, 5768, 6675, 7639, 11015, 12002, 15628, 17549, 18455, 19292, 20062]}, "edge": {"target": [], "time": []}}, "mouseover": {"state": {"target": ["23", "24", "25", "30", "33", "26", "29", "27", "27", "28", "12", "12", "13", "14", "15", "18"], "time": [2929, 3680, 5537, 6305, 7291, 9615, 11766, 12540, 12790, 14331, 15027, 15378, 16751, 18124, 18988, 19809]}, "edge": {"target": [], "time": []}}, "mouseout": {"state": {"target": ["7", "23", "24", "25", "30", "33", "26", "29", "27", "27", "28", "12", "12", "13", "14", "15", "18"], "time": [1175, 3642, 5452, 6230, 7240, 7745, 11699, 12081, 12591, 14264, 14962, 15044, 16664, 18091, 18921, 19774, 21162]}, "edge": {"target": [], "time": []}}}, "displayed_time": "28.65", "trialTime": 29599, "trial_type": "mouselab-mdp", "trial_index": 15, "time_elapsed": 511712, "internal_node_id": "0.0-6.0-1.0-0.0"}}, {"uniqueid": "w70549161:a93041975", "current_trial": 16, "dateTime": 1693580617313, "trialdata": {"revealed_states": [], "clicked_states": ["1", "2", "3", "8", "11", "9", "4", "6", "23", "24", "25", "26", "29", "27"], "num_clicks_accrued": [0, 0, 0, 0, 0, 0, 0, 0, 0, 0, 0, 0, 0], "stateRewards": ["", 2, -1, -1, 7, 11, -40, -22, -2, 69, 37, 8, -2, 4, -8, -12, -2, -72, -3, -12, 17, 63, 12, 1, 3, -7, 6, 25, 61, 61, -9, 28, -17, 27], "withholdReward": false, "trial_id": "mdp_trial_2", "block": "test", "trialIndex": 5, "score": -11.5, "costs": -17.5, "simulationMode": [null, null, null, null, null, null], "rewards": [2, -1, -1, -2, 8], "path": ["0", "0", "1", "2", "3", "8", "11"], "rt": [26224, 699, 209, 216, 579, 69], "actions": ["up", "up", "up", "up", "left", "left"], "actionTimes": [27889, 28597, 29316, 30038, 31121, 31700], "queries": {"click": {"state": {"target": ["1", "2", "3", "8", "11", "9", "4", "6", "23", "24", "25", "26", "29", "27"], "time": [2548, 3394, 4820, 5580, 6330, 9303, 12541, 14693, 18090, 19013, 20016, 20953, 21785, 25237]}, "edge": {"target": [], "time": []}}, "mouseover": {"state": {"target": ["1", "2", "10", "3", "8", "11", "9", "9", "3", "4", "3", "4", "7", "7", "6", "23", "24", "25", "26", "29", "27", "26", "27", "28", "0", "1", "2"], "time": [2303, 3137, 4140, 4473, 5342, 6140, 6861, 8997, 10337, 10777, 11621, 12311, 13896, 14316, 14400, 16473, 18808, 19664, 20647, 21552, 22650, 24125, 24974, 26029, 26974, 27217, 27269]}, "edge": {"target": [], "time": []}}, "mouseout": {"state": {"target": ["0", "1", "2", "10", "3", "8", "11", "9", "8", "9", "3", "4", "3", "4", "7", "7", "6", "23", "24", "25", "26", "29", "27", "26", "27", "28", "0", "1"], "time": [1099, 3068, 4035, 4410, 5291, 6059, 6437, 8264, 8916, 10004, 10417, 11574, 12244, 13799, 13962, 14334, 15952, 18676, 19614, 20567, 21497, 22444, 24046, 24759, 25896, 26870, 27182, 27234]}, "edge": {"target": [], "time": []}}}, "displayed_time": "32.20", "trialTime": 32921, "trial_type": "mouselab-mdp", "trial_index": 16, "time_elapsed": 545394, "internal_node_id": "0.0-6.0-1.0-1.0"}}, {"uniqueid": "w70549161:a93041975", "current_trial": 17, "dateTime": 1693580659534, "trialdata": {"revealed_states": [], "clicked_states": ["12", "13", "14", "19", "21", "20", "23", "24", "25", "30", "33"], "num_clicks_accrued": [0, 0, 0, 0, 0, 0, 0, 0, 0, 0, 0, 0, 0], "stateRewards": ["", -2, -3, 8, -4, -30, 31, 69, 9, 66, 87, 64, -2, 2, 8, 5, 47, 16, -39, -8, -54, 51, -19, 1, -2, -2, -11, -25, -26, 43, -9, 19, -84, 86], "withholdReward": false, "trial_id": "mdp_trial_3", "block": "test", "trialIndex": 6, "score": -107.65, "costs": -11.65, "simulationMode": [null, null, null, null, null], "rewards": [1, -2, -2, -9, -84], "path": ["0", "0", "23", "24", "25", "30", "32"], "rt": [32144, 386, 169, 677, 134], "actions": ["left", "left", "left", "down", "down"], "actionTimes": [35487, 36381, 37047, 38223, 38865], "queries": {"click": {"state": {"target": ["12", "13", "14", "19", "21", "20", "23", "24", "25", "30", "33"], "time": [4671, 5856, 7140, 8397, 10101, 13911, 18208, 19177, 21783, 22623, 23519]}, "edge": {"target": [], "time": []}}, "mouseover": {"state": {"target": ["12", "12", "13", "14", "19", "21", "20", "19", "22", "12", "1", "23", "24", "25", "25", "25", "30", "33", "32", "30", "25", "25", "0", "0", "23"], "time": [4037, 4388, 5270, 6816, 8077, 9769, 12059, 15048, 15131, 16514, 16568, 17891, 18844, 19878, 20931, 21569, 22371, 23304, 24902, 27804, 27849, 28288, 29557, 29889, 31578]}, "edge": {"target": [], "time": []}}, "mouseout": {"state": {"target": ["2", "1", "12", "12", "13", "14", "19", "21", "19", "20", "19", "22", "12", "1", "23", "24", "25", "25", "25", "30", "33", "30", "32", "30", "25", "25", "0", "0", "23"], "time": [2267, 2382, 4119, 5221, 6590, 8013, 9670, 10209, 11990, 15015, 15097, 16480, 16533, 16838, 18274, 19259, 20027, 21035, 22286, 22718, 24157, 24818, 27768, 27821, 27888, 29158, 29623, 31511, 32380]}, "edge": {"target": [], "time": []}}}, "displayed_time": "39.37", "trialTime": 41417, "trial_type": "mouselab-mdp", "trial_index": 17, "time_elapsed": 587614, "internal_node_id": "0.0-6.0-1.0-2.0"}}, {"uniqueid": "w70549161:a93041975", "current_trial": 18, "dateTime": 1693580678025, "trialdata": {"revealed_states": [], "clicked_states": ["23"], "num_clicks_accrued": [0, 0, 0, 0, 0, 0, 0, 0, 0, 0, 0, 0, 0], "stateRewards": ["", -2, 4, 3, 5, -61, 4, 30, 1, -47, 83, 10, 1, 4, 7, -14, 19, -74, -83, 6, -2, -2, -65, -1, -2, 4, -11, 12, -1, -68, 11, -38, -28, 66], "withholdReward": false, "trial_id": "mdp_trial_4", "block": "test", "trialIndex": 7, "score": -15.75, "costs": 0.25, "simulationMode": [null, null, null, null, null], "rewards": [-1, -2, 4, 11, -28], "path": ["0", "0", "23", "24", "25", "30", "32"], "rt": [2979, 1686, 202, 638, 771], "actions": ["left", "left", "left", "down", "down"], "actionTimes": [4841, 7040, 7747, 8882, 10152], "queries": {"click": {"state": {"target": ["23"], "time": [3360]}, "edge": {"target": [], "time": []}}, "mouseover": {"state": {"target": ["23", "24"], "time": [2462, 3940]}, "edge": {"target": [], "time": []}}, "mouseout": {"state": {"target": ["23", "0", "23"], "time": [1120, 2410, 3888]}, "edge": {"target": [], "time": []}}}, "displayed_time": "15.87", "trialTime": 17722, "trial_type": "mouselab-mdp", "trial_index": 18, "time_elapsed": 606105, "internal_node_id": "0.0-6.0-1.0-3.0"}}, {"uniqueid": "w70549161:a93041975", "current_trial": 19, "dateTime": 1693580696285, "trialdata": {"revealed_states": [], "clicked_states": ["29", "26", "25", "24", "23"], "num_clicks_accrued": [0, 0, 0, 0, 0, 0, 0, 0, 0, 0, 0, 0, 0], "stateRewards": ["", 1, 1, 6, -14, -40, 37, 16, -13, 33, -68, 49, 2, 4, 3, 6, 55, 27, 32, 10, -65, 20, -87, 2, 1, -6, -5, -42, 12, 29, -8, 16, 76, -33], "withholdReward": false, "trial_id": "mdp_trial_5", "block": "test", "trialIndex": 8, "score": 16.25, "costs": -4.75, "simulationMode": [null, null, null, null, null], "rewards": [2, 1, -6, -5, 29], "path": ["0", "0", "23", "24", "25", "26", "29"], "rt": [9616, 566, 522, 699, 552], "actions": ["left", "left", "left", "up", "left"], "actionTimes": [11243, 12307, 13332, 14527, 15581], "queries": {"click": {"state": {"target": ["29", "26", "25", "24", "23"], "time": [3849, 7458, 8415, 9169, 9901]}, "edge": {"target": [], "time": []}}, "mouseover": {"state": {"target": ["24", "25", "29", "27", "26", "25", "24", "23"], "time": [2816, 3431, 3499, 4618, 5861, 8103, 8911, 9729]}, "edge": {"target": [], "time": []}}, "mouseout": {"state": {"target": ["24", "18", "0", "24", "25", "29", "27", "26", "25", "24"], "time": [557, 842, 2210, 3413, 3449, 4481, 5823, 8047, 8879, 9652]}, "edge": {"target": [], "time": []}}}, "displayed_time": "16.09", "trialTime": 17401, "trial_type": "mouselab-mdp", "trial_index": 19, "time_elapsed": 624365, "internal_node_id": "0.0-6.0-1.0-4.0"}}, {"uniqueid": "w70549161:a93041975", "current_trial": 20, "dateTime": 1693580714429, "trialdata": {"revealed_states": [], "clicked_states": ["23", "24", "25", "30", "33", "32"], "num_clicks_accrued": [0, 0, 0, 0, 0, 0, 0, 0, 0, 0, 0, 0, 0], "stateRewards": ["", -1, 1, -5, -6, -78, 47, -13, 12, 48, -88, 20, 2, -3, -2, 13, -20, 37, -57, 14, -38, 30, 31, -2, -2, 8, 2, -23, 78, 28, 12, -74, -88, 8], "withholdReward": false, "trial_id": "mdp_trial_6", "block": "test", "trialIndex": 9, "score": 17.1, "costs": -6.9, "simulationMode": [null, null, null, null, null, null], "rewards": [-2, -2, 8, 12, 8], "path": ["0", "0", "23", "24", "25", "30", "33"], "rt": [9560, 406, 12, 333, 441, 688], "actions": ["left", "left", "left", "left", "down", "left"], "actionTimes": [11852, 12261, 12777, 13611, 14555, 15755], "queries": {"click": {"state": {"target": ["23", "24", "25", "30", "33", "32"], "time": [3633, 4506, 5387, 6383, 7459, 10247]}, "edge": {"target": [], "time": []}}, "mouseover": {"state": {"target": ["23", "24", "25", "30", "33", "32"], "time": [3370, 4255, 5120, 6087, 7244, 9159]}, "edge": {"target": [], "time": []}}, "mouseout": {"state": {"target": ["23", "0", "23", "24", "25", "30", "33", "30"], "time": [1144, 1750, 4203, 5055, 5992, 6475, 8313, 9080]}, "edge": {"target": [], "time": []}}}, "displayed_time": "16.30", "trialTime": 17264, "trial_type": "mouselab-mdp", "trial_index": 20, "time_elapsed": 642510, "internal_node_id": "0.0-6.0-1.0-5.0"}}, {"uniqueid": "w70549161:a93041975", "current_trial": 21, "dateTime": 1693580747196, "trialdata": {"revealed_states": [], "clicked_states": ["1", "2", "3", "4", "7", "8", "11", "9", "12", "13", "14", "15", "16"], "num_clicks_accrued": [0, 0, 0, 0, 0, 0, 0, 0, 0, 0, 0, 0, 0], "stateRewards": ["", 2, -4, 1, -12, -59, -53, -74, 16, -88, -66, 66, 1, -2, 8, -9, -14, 22, 25, -1, -39, 47, -14, -1, -1, -2, 1, -4, 52, -26, 15, -7, 46, 43], "withholdReward": false, "trial_id": "mdp_trial_7", "block": "test", "trialIndex": 10, "score": -48.35, "costs": -15.35, "simulationMode": [null, null, null, null, null, null], "rewards": [1, -2, 8, -1, -39], "path": ["0", "0", "12", "13", "14", "19", "20"], "rt": [23388, 329, 638, 363, 632, 920], "actions": ["right", "right", "right", "right", "down", "right"], "actionTimes": [25527, 25860, 27013, 27884, 29024, 30446], "queries": {"click": {"state": {"target": ["1", "2", "3", "4", "7", "8", "11", "9", "12", "13", "14", "15", "16"], "time": [2920, 4340, 5957, 6829, 7949, 11040, 12047, 14856, 20016, 20940, 21823, 22956, 24361]}, "edge": {"target": [], "time": []}}, "mouseover": {"state": {"target": ["1", "2", "3", "4", "7", "3", "8", "11", "9", "16", "17", "14", "13", "12", "12", "0", "12", "13", "14", "15", "16"], "time": [2588, 3637, 5710, 6498, 7534, 9713, 9919, 11758, 13199, 15511, 15535, 15853, 15892, 16275, 18980, 19082, 19784, 20702, 21539, 22540, 24147]}, "edge": {"target": [], "time": []}}, "mouseout": {"state": {"target": ["32", "0", "1", "2", "3", "4", "7", "4", "3", "8", "11", "9", "16", "17", "14", "13", "12", "12", "0", "12", "13", "14", "15", "16"], "time": [881, 2501, 3453, 5180, 6430, 7461, 8183, 9539, 9799, 11682, 12900, 15427, 15531, 15565, 15873, 16207, 18166, 19031, 19716, 20536, 21453, 22422, 23642, 24924]}, "edge": {"target": [], "time": []}}}, "displayed_time": "30.95", "trialTime": 31938, "trial_type": "mouselab-mdp", "trial_index": 21, "time_elapsed": 675277, "internal_node_id": "0.0-6.0-1.0-6.0"}}, {"uniqueid": "w70549161:a93041975", "current_trial": 22, "dateTime": 1693580778190, "trialdata": {"revealed_states": [], "clicked_states": ["23", "24", "25", "30", "32", "33", "31", "26", "29", "27"], "num_clicks_accrued": [0, 0, 0, 0, 0, 0, 0, 0, 0, 0, 0, 0, 0], "stateRewards": ["", -1, -3, -3, 1, -38, 2, -53, -2, -1, -81, 70, -1, 1, -5, -9, 46, 15, 35, -1, -22, 38, 59, -2, 4, -8, 13, 1, -83, -43, 4, 76, 13, 48], "withholdReward": false, "trial_id": "mdp_trial_8", "block": "test", "trialIndex": 11, "score": 31.099999999999998, "costs": -14.900000000000002, "simulationMode": [null, null, null, null, null, null], "rewards": [-2, 4, -8, 4, 48], "path": ["0", "0", "23", "24", "25", "30", "33"], "rt": [23077, 1103, 192, 251, 223, 647], "actions": ["left", "left", "left", "left", "down", "left"], "actionTimes": [24875, 25983, 26677, 27439, 28159, 29305], "queries": {"click": {"state": {"target": ["23", "24", "25", "30", "32", "33", "31", "26", "29", "27"], "time": [2978, 4097, 5019, 7689, 9194, 11969, 15043, 18553, 20126, 23271]}, "edge": {"target": [], "time": []}}, "mouseover": {"state": {"target": ["23", "24", "25", "30", "32", "33", "31", "25", "26", "29", "29", "27", "26", "25"], "time": [2544, 3916, 4813, 7359, 8498, 10767, 13165, 15624, 15996, 19309, 19726, 20796, 23892, 23946]}, "edge": {"target": [], "time": []}}, "mouseout": {"state": {"target": ["15", "23", "23", "24", "25", "30", "30", "32", "33", "31", "25", "26", "29", "29", "27", "27", "26"], "time": [782, 3110, 3587, 4666, 7129, 7820, 8444, 9322, 13092, 15577, 15656, 19291, 19363, 20244, 23400, 23858, 23927]}, "edge": {"target": [], "time": []}}}, "displayed_time": "29.81", "trialTime": 30184, "trial_type": "mouselab-mdp", "trial_index": 22, "time_elapsed": 706270, "internal_node_id": "0.0-6.0-1.0-7.0"}}, {"uniqueid": "w70549161:a93041975", "current_trial": 23, "dateTime": 1693580797799, "trialdata": {"revealed_states": [], "clicked_states": ["12", "13", "14", "15", "17", "16"], "num_clicks_accrued": [0, 0, 0, 0, 0, 0, 0, 0, 0, 0, 0, 0, 0], "stateRewards": ["", -2, -3, 4, 1, 33, -53, 15, 9, -12, 61, -6, -2, 4, 6, -11, 47, -43, -7, -11, 46, 23, -28, -1, -1, 3, -10, 11, 76, -76, 10, 18, -38, 87], "withholdReward": false, "trial_id": "mdp_trial_9", "block": "test", "trialIndex": 12, "score": 37.1, "costs": -6.9, "simulationMode": [null, null, null, null, null], "rewards": [-2, 4, 6, -11, 47], "path": ["0", "0", "12", "13", "14", "15", "16"], "rt": [12490, 141, 119, 790, 63], "actions": ["right", "right", "right", "up", "up"], "actionTimes": [14093, 14735, 15367, 16651, 17215], "queries": {"click": {"state": {"target": ["12", "13", "14", "15", "17", "16"], "time": [2789, 3662, 4553, 5381, 6750, 9659]}, "edge": {"target": [], "time": []}}, "mouseover": {"state": {"target": ["12", "13", "14", "15", "17", "16", "15", "18", "15"], "time": [2487, 3389, 4245, 5065, 6282, 7573, 10314, 10637, 13273]}, "edge": {"target": [], "time": []}}, "mouseout": {"state": {"target": ["25", "24", "23", "0", "12", "13", "14", "15", "17", "16", "15", "18", "15"], "time": [656, 717, 733, 2455, 3306, 4187, 4987, 6229, 6902, 10243, 10332, 13206, 13305]}, "edge": {"target": [], "time": []}}}, "displayed_time": "17.72", "trialTime": 18808, "trial_type": "mouselab-mdp", "trial_index": 23, "time_elapsed": 725879, "internal_node_id": "0.0-6.0-1.0-8.0"}}, {"uniqueid": "w70549161:a93041975", "current_trial": 24, "dateTime": 1693580822295, "trialdata": {"revealed_states": [], "clicked_states": ["12", "13", "14", "19", "21", "23", "24", "25", "26", "29"], "num_clicks_accrued": [0, 0, 0, 0, 0, 0, 0, 0, 0, 0, 0, 0, 0], "stateRewards": ["", 2, -2, -3, 10, -4, -1, -11, -8, -9, -36, -78, 2, 1, 7, -7, 44, -1, -31, -1, 26, 47, 83, 2, -4, -4, -6, -52, -76, -81, -1, -59, 45, 67], "withholdReward": false, "trial_id": "mdp_trial_10", "block": "test", "trialIndex": 13, "score": 82.5, "costs": -9.5, "simulationMode": [null, null, null, null, null, null], "rewards": [2, 1, 7, -1, 83], "path": ["0", "0", "12", "13", "14", "19", "22"], "rt": [14299, 1520, 283, 333, 437, 631], "actions": ["right", "right", "right", "right", "down", "left"], "actionTimes": [17161, 18684, 19493, 20329, 21268, 22395], "queries": {"click": {"state": {"target": ["12", "13", "14", "19", "21", "23", "24", "25", "26", "29"], "time": [3896, 4690, 5733, 6787, 7599, 11567, 12585, 14274, 15116, 15918]}, "edge": {"target": [], "time": []}}, "mouseover": {"state": {"target": ["12", "13", "14", "19", "21", "22", "23", "24", "25", "26", "29", "28", "18"], "time": [3646, 4431, 5301, 6589, 7394, 8839, 9163, 12307, 13858, 14825, 15724, 16588, 16692]}, "edge": {"target": [], "time": []}}, "mouseout": {"state": {"target": ["14", "13", "0", "12", "13", "14", "19", "21", "22", "23", "24", "25", "26", "29", "26", "28"], "time": [1541, 1589, 3597, 4381, 5208, 6317, 7310, 7701, 8857, 12247, 13809, 14776, 15670, 16516, 16569, 16607]}, "edge": {"target": [], "time": []}}}, "displayed_time": "22.90", "trialTime": 23669, "trial_type": "mouselab-mdp", "trial_index": 24, "time_elapsed": 750375, "internal_node_id": "0.0-6.0-1.0-9.0"}}, {"uniqueid": "w70549161:a93041975", "current_trial": 25, "dateTime": 1693580842928, "trialdata": {"revealed_states": [], "clicked_states": ["1", "2", "3", "8", "9", "4", "6"], "num_clicks_accrued": [0, 0, 0, 0, 0, 0, 0, 0, 0, 0, 0, 0, 0], "stateRewards": ["", 1, 1, 1, 15, -76, 52, -32, 14, -57, 37, 49, 1, -4, -3, 6, 83, -76, 25, 9, 36, -1, -17, -1, 4, 4, -2, -22, -21, 58, -15, -57, 49, -24], "withholdReward": false, "trial_id": "mdp_trial_11", "block": "test", "trialIndex": 14, "score": 61.55, "costs": -8.45, "simulationMode": [null, null, null, null, null], "rewards": [1, 1, 1, 15, 52], "path": ["0", "0", "1", "2", "3", "4", "6"], "rt": [13444, 257, 296, 629, 185], "actions": ["up", "up", "up", "right", "right"], "actionTimes": [15209, 15973, 16778, 17916, 18626], "queries": {"click": {"state": {"target": ["1", "2", "3", "8", "9", "4", "6"], "time": [2642, 3576, 4514, 5367, 6484, 9894, 10833]}, "edge": {"target": [], "time": []}}, "mouseover": {"state": {"target": ["1", "2", "3", "8", "9", "10", "4", "6", "4", "6", "7", "7"], "time": [2410, 3382, 4264, 5104, 6220, 7732, 8525, 8575, 8940, 10448, 12787, 14578]}, "edge": {"target": [], "time": []}}, "mouseout": {"state": {"target": ["18", "12", "0", "1", "2", "3", "8", "9", "8", "10", "4", "6", "4", "6", "4", "7", "7"], "time": [703, 820, 2325, 3254, 4116, 4626, 5507, 7676, 7713, 8460, 8559, 8877, 9994, 12536, 12663, 14390, 14613]}, "edge": {"target": [], "time": []}}}, "displayed_time": "19.12", "trialTime": 19800, "trial_type": "mouselab-mdp", "trial_index": 25, "time_elapsed": 771008, "internal_node_id": "0.0-6.0-1.0-10.0"}}, {"uniqueid": "w70549161:a93041975", "current_trial": 26, "dateTime": 1693580865769, "trialdata": {"revealed_states": [], "clicked_states": ["23", "24", "25", "30", "33"], "num_clicks_accrued": [0, 0, 0, 0, 0, 0, 0, 0, 0, 0, 0, 0, 0], "stateRewards": ["", -2, -1, -2, -15, 87, 57, 29, -10, 77, -80, -7, 1, -3, 6, 14, -11, 87, -59, 4, -71, 16, -11, 2, 2, -7, 2, -47, 61, 50, 14, -20, 17, 81], "withholdReward": false, "trial_id": "mdp_trial_12", "block": "test", "trialIndex": 15, "score": 87.25, "costs": -4.75, "simulationMode": [null, null, null, null, null], "rewards": [2, 2, -7, 14, 81], "path": ["0", "0", "23", "24", "25", "30", "33"], "rt": [9061, 96, 299, 496, 571], "actions": ["left", "left", "left", "down", "left"], "actionTimes": [10744, 11338, 12145, 13169, 14239], "queries": {"click": {"state": {"target": ["23", "24", "25", "30", "33"], "time": [2433, 3289, 4218, 5112, 6323]}, "edge": {"target": [], "time": []}}, "mouseover": {"state": {"target": ["23", "24", "25", "30", "33", "26"], "time": [2182, 3075, 3914, 4860, 5697, 8124]}, "edge": {"target": [], "time": []}}, "mouseout": {"state": {"target": ["0", "23", "24", "25", "30", "33"], "time": [2148, 3002, 3858, 4807, 5612, 7023]}, "edge": {"target": [], "time": []}}}, "displayed_time": "15.69", "trialTime": 21976, "trial_type": "mouselab-mdp", "trial_index": 26, "time_elapsed": 793849, "internal_node_id": "0.0-6.0-1.0-11.0"}}, {"uniqueid": "w70549161:a93041975", "current_trial": 27, "dateTime": 1693580937121, "trialdata": {"revealed_states": [], "clicked_states": ["23", "24", "25", "26", "27", "30", "32", "33", "31", "1", "2", "3", "8", "9", "4", "5", "6", "12", "13", "14", "19", "22", "20", "21", "15", "16", "18", "17"], "num_clicks_accrued": [0, 0, 0, 0, 0, 0, 0, 0, 0, 0, 0, 0, 0], "stateRewards": ["", -1, -2, 4, 9, 10, -75, 39, 16, -43, 88, -19, -1, 1, 2, 4, -31, 10, 73, 12, 41, -64, -81, -2, 2, -6, 1, -81, -1, -26, 3, -59, -3, -20], "withholdReward": false, "trial_id": "mdp_trial_13", "block": "test", "trialIndex": 16, "score": 38.60000000000001, "costs": -40.39999999999999, "simulationMode": [null, null, null, null, null], "rewards": [-1, 1, 2, 4, 73], "path": ["0", "0", "12", "13", "14", "15", "18"], "rt": [64316, 345, 193, 513, 343], "actions": ["right", "right", "right", "up", "left"], "actionTimes": [66239, 67085, 67781, 68804, 69652], "queries": {"click": {"state": {"target": ["23", "24", "25", "26", "27", "30", "32", "33", "31", "1", "2", "3", "8", "9", "4", "5", "6", "12", "13", "14", "19", "22", "20", "21", "15", "16", "18", "17"], "time": [2913, 3702, 4526, 5467, 6384, 9780, 10786, 14209, 17785, 21529, 22535, 23543, 24655, 25807, 29934, 31087, 34933, 38140, 38950, 39764, 40794, 41846, 45544, 49316, 53348, 54334, 58128, 62840]}, "edge": {"target": [], "time": []}}, "mouseover": {"state": {"target": ["23", "24", "25", "26", "27", "30", "32", "33", "30", "31", "0", "12", "7", "1", "2", "3", "8", "9", "4", "5", "6", "12", "13", "14", "19", "22", "19", "20", "21", "19", "14", "15", "16", "18", "15", "17", "14", "17", "15"], "time": [2382, 3403, 4258, 5046, 6042, 7492, 10569, 11587, 17085, 17453, 19937, 19976, 20422, 21298, 22117, 23103, 24177, 25450, 29132, 30789, 34484, 35669, 38709, 39471, 40564, 41688, 45043, 45260, 49088, 52584, 52634, 52951, 54055, 57661, 58987, 59026, 62323, 62543, 63727]}, "edge": {"target": [], "time": []}}, "mouseout": {"state": {"target": ["26", "24", "23", "0", "23", "24", "25", "26", "27", "25", "30", "32", "33", "30", "31", "0", "12", "7", "1", "2", "3", "8", "9", "4", "5", "6", "12", "13", "14", "19", "22", "19", "20", "21", "19", "14", "15", "16", "18", "15", "17", "14", "17", "15"], "time": [841, 872, 889, 2362, 3346, 4203, 4953, 5929, 7089, 7171, 10469, 10898, 17034, 17155, 19866, 19957, 20010, 20779, 21997, 23030, 24123, 25376, 29001, 30569, 34397, 35568, 38656, 39417, 40429, 40909, 44827, 45130, 46147, 52530, 52601, 52751, 53511, 57594, 58950, 59007, 61919, 62443, 63711, 63745]}, "edge": {"target": [], "time": []}}}, "displayed_time": "70.16", "trialTime": 70412, "trial_type": "mouselab-mdp", "trial_index": 27, "time_elapsed": 865201, "internal_node_id": "0.0-6.0-1.0-12.0"}}, {"uniqueid": "w70549161:a93041975", "current_trial": 28, "dateTime": 1693580988940, "trialdata": {"revealed_states": [], "clicked_states": ["14", "18", "16", "17", "20", "22", "21", "5", "6", "11", "9", "29"], "num_clicks_accrued": [0, 0, 0, 0, 0, 0, 0, 0, 0, 0, 0, 0, 0], "stateRewards": ["", 2, 3, 6, -12, -29, 12, 87, 4, 35, -30, 67, 2, 3, -5, -9, 44, 69, -8, 1, 45, -8, 28, -2, -1, -8, 11, -12, -5, 81, 9, 87, 82, 88], "withholdReward": false, "trial_id": "mdp_trial_14", "block": "test", "trialIndex": 17, "score": 56.400000000000006, "costs": -24.599999999999994, "simulationMode": [null, null, null, null, null], "rewards": [-2, -1, -8, 11, 81], "path": ["0", "0", "23", "24", "25", "26", "29"], "rt": [43178, 89, 239, 722, 556], "actions": ["left", "left", "left", "up", "left"], "actionTimes": [45958, 46545, 47297, 48531, 49583], "queries": {"click": {"state": {"target": ["14", "18", "16", "17", "20", "22", "21", "5", "6", "11", "9", "29"], "time": [4655, 5686, 8982, 12659, 16101, 19611, 22970, 26413, 30023, 33615, 37360, 41203]}, "edge": {"target": [], "time": []}}, "mouseover": {"state": {"target": ["12", "13", "14", "18", "15", "16", "17", "20", "19", "22", "21", "21", "18", "10", "11", "8", "5", "6", "4", "8", "11", "9", "29", "29", "27", "26", "25"], "time": [3201, 3618, 3852, 5435, 6700, 7046, 11992, 15193, 17625, 17665, 20218, 20540, 23711, 23995, 24297, 24338, 24763, 29841, 32014, 32070, 32528, 36943, 40668, 40972, 44042, 44646, 45100]}, "edge": {"target": [], "time": []}}, "mouseout": {"state": {"target": ["13", "12", "0", "12", "13", "14", "18", "15", "16", "17", "20", "19", "22", "21", "21", "18", "10", "11", "8", "5", "6", "4", "8", "11", "9", "29", "29", "27", "26", "25"], "time": [1831, 1984, 3152, 3267, 3684, 4753, 6549, 6844, 11710, 15121, 17607, 17645, 20183, 20273, 23642, 23731, 24014, 24318, 24360, 27158, 30170, 32034, 32091, 36859, 39680, 40720, 43858, 44597, 44664, 45119]}, "edge": {"target": [], "time": []}}}, "displayed_time": "50.08", "trialTime": 50875, "trial_type": "mouselab-mdp", "trial_index": 28, "time_elapsed": 917021, "internal_node_id": "0.0-6.0-1.0-13.0"}}, {"uniqueid": "w70549161:a93041975", "current_trial": 29, "dateTime": 1693581006788, "trialdata": {"revealed_states": [], "clicked_states": ["29", "27"], "num_clicks_accrued": [0, 0, 0, 0, 0, 0, 0, 0, 0, 0, 0, 0, 0], "stateRewards": ["", 1, 2, -8, 9, 18, -83, -11, 6, -64, -48, 17, -2, -2, -5, -3, -24, -3, -86, -2, 48, -41, -22, -2, 4, 7, 8, 81, 13, -48, 10, 61, 19, 57], "withholdReward": false, "trial_id": "mdp_trial_15", "block": "test", "trialIndex": 18, "score": 93.7, "costs": -4.3, "simulationMode": [null, null, null, null, null], "rewards": [-2, 4, 7, 8, 81], "path": ["0", "0", "23", "24", "25", "26", "27"], "rt": [8932, 51, 331, 629, 211], "actions": ["left", "left", "left", "up", "up"], "actionTimes": [10845, 11406, 12250, 13386, 14103], "queries": {"click": {"state": {"target": ["29", "27"], "time": [3030, 6737]}, "edge": {"target": [], "time": []}}, "mouseover": {"state": {"target": ["26", "29", "27", "28"], "time": [2697, 2764, 6256, 10066]}, "edge": {"target": [], "time": []}}, "mouseout": {"state": {"target": ["13", "12", "0", "26", "29", "27", "27", "28"], "time": [1071, 1174, 2397, 2717, 3147, 6868, 9643, 10283]}, "edge": {"target": [], "time": []}}}, "displayed_time": "15.92", "trialTime": 16944, "trial_type": "mouselab-mdp", "trial_index": 29, "time_elapsed": 934868, "internal_node_id": "0.0-6.0-1.0-14.0"}}, {"uniqueid": "w70549161:a93041975", "current_trial": 30, "dateTime": 1693581026983, "trialdata": {"revealed_states": [], "clicked_states": ["27", "29", "28"], "num_clicks_accrued": [0, 0, 0, 0, 0, 0, 0, 0, 0, 0, 0, 0, 0], "stateRewards": ["", -1, -1, 7, -15, -43, -21, -84, -9, -45, -66, 2, 1, -2, 2, 8, -27, 44, -52, -5, -84, 11, 53, 1, 4, -4, 16, 83, -82, -15, -16, 68, -43, 81], "withholdReward": false, "trial_id": "mdp_trial_16", "block": "test", "trialIndex": 19, "score": 93.55, "costs": -6.449999999999999, "simulationMode": [null, null, null, null, null], "rewards": [1, 4, -4, 16, 83], "path": ["0", "0", "23", "24", "25", "26", "27"], "rt": [11997, 120, 771, 716, 201], "actions": ["left", "left", "left", "up", "up"], "actionTimes": [14104, 14723, 15992, 17232, 17928], "queries": {"click": {"state": {"target": ["27", "29", "28"], "time": [3236, 6744, 10420]}, "edge": {"target": [], "time": []}}, "mouseover": {"state": {"target": ["23", "24", "27", "29", "26", "28"], "time": [2553, 2577, 2972, 6261, 9940, 10106]}, "edge": {"target": [], "time": []}}, "mouseout": {"state": {"target": ["0", "23", "24", "27", "29", "26"], "time": [2533, 2573, 2596, 6112, 9906, 10005]}, "edge": {"target": [], "time": []}}}, "displayed_time": "18.43", "trialTime": 19298, "trial_type": "mouselab-mdp", "trial_index": 30, "time_elapsed": 955063, "internal_node_id": "0.0-6.0-1.0-15.0"}}, {"uniqueid": "w70549161:a93041975", "current_trial": 31, "dateTime": 1693581068847, "trialdata": {"revealed_states": [], "clicked_states": ["27", "29", "32", "33", "31", "9", "11", "5", "6"], "num_clicks_accrued": [0, 0, 0, 0, 0, 0, 0, 0, 0, 0, 0, 0, 0], "stateRewards": ["", -1, -3, -6, -2, -7, 80, -45, -3, -38, -72, 76, 2, 1, 7, 4, -62, 14, -74, 14, -87, -21, -88, -2, 1, -7, -10, 66, 56, -76, 10, -29, -72, -70], "withholdReward": false, "trial_id": "mdp_trial_17", "block": "test", "trialIndex": 20, "score": 48.650000000000006, "costs": -19.349999999999998, "simulationMode": [null, null, null, null, null], "rewards": [-1, -3, -6, -2, 80], "path": ["0", "0", "1", "2", "3", "4", "6"], "rt": [34586, 308, 156, 434, 223], "actions": ["up", "up", "up", "right", "right"], "actionTimes": [36389, 37202, 37869, 38814, 39537], "queries": {"click": {"state": {"target": ["27", "29", "32", "33", "31", "9", "11", "5", "6"], "time": [3196, 7123, 10915, 14376, 17752, 21160, 24403, 28079, 31722]}, "edge": {"target": [], "time": []}}, "mouseover": {"state": {"target": ["10", "27", "27", "29", "33", "32", "33", "30", "23", "24", "28", "24", "31", "23", "7", "9", "8", "11", "3", "5", "6", "7", "0"], "time": [2246, 2611, 2961, 6809, 8439, 10667, 13360, 14914, 15280, 15833, 16296, 17024, 17170, 18257, 18280, 19012, 21790, 22134, 27211, 27664, 31459, 33570, 35534]}, "edge": {"target": [], "time": []}}, "mouseout": {"state": {"target": ["28", "0", "0", "10", "27", "27", "29", "33", "32", "33", "30", "23", "24", "28", "24", "31", "23", "7", "9", "8", "11", "3", "5", "6", "7", "0"], "time": [805, 907, 2181, 2266, 2833, 6606, 8364, 8896, 13274, 14894, 14933, 15335, 16238, 16986, 17096, 18236, 18277, 18300, 21771, 21832, 25029, 27266, 31356, 33478, 35451, 35564]}, "edge": {"target": [], "time": []}}}, "displayed_time": "40.05", "trialTime": 40967, "trial_type": "mouselab-mdp", "trial_index": 31, "time_elapsed": 996927, "internal_node_id": "0.0-6.0-1.0-16.0"}}, {"uniqueid": "w70549161:a93041975", "current_trial": 32, "dateTime": 1693581092761, "trialdata": {"revealed_states": [], "clicked_states": ["17", "21"], "num_clicks_accrued": [0, 0, 0, 0, 0, 0, 0, 0, 0, 0, 0, 0, 0], "stateRewards": ["", 2, -1, -3, 16, -3, -16, -62, -1, 13, -26, 43, -1, 4, 3, -9, -54, -37, -3, -12, -71, -68, -57, 1, -3, 2, -9, 2, -2, -9, -11, 84, -52, 55], "withholdReward": false, "trial_id": "mdp_trial_18", "block": "test", "trialIndex": 21, "score": -11.3, "costs": -4.3, "simulationMode": [null, null, null, null, null], "rewards": [1, -3, 2, -9, 2], "path": ["0", "0", "23", "24", "25", "26", "27"], "rt": [16197, 702, 29, 913, 227], "actions": ["left", "left", "left", "up", "up"], "actionTimes": [17785, 19003, 19541, 21022, 21800], "queries": {"click": {"state": {"target": ["17", "21"], "time": [2450, 5992]}, "edge": {"target": [], "time": []}}, "mouseover": {"state": {"target": ["12", "15", "17", "19", "21", "13", "6", "5", "1", "23", "24"], "time": [1853, 1897, 2219, 3054, 3080, 6788, 9470, 9870, 16457, 16923, 17004]}, "edge": {"target": [], "time": []}}, "mouseout": {"state": {"target": ["0", "12", "15", "17", "19", "21", "13", "6", "5", "1", "23", "24"], "time": [1833, 1872, 2141, 2957, 3078, 6732, 6807, 9535, 16372, 16478, 16972, 17057]}, "edge": {"target": [], "time": []}}}, "displayed_time": "22.31", "trialTime": 23008, "trial_type": "mouselab-mdp", "trial_index": 32, "time_elapsed": 1020841, "internal_node_id": "0.0-6.0-1.0-17.0"}}, {"uniqueid": "w70549161:a93041975", "current_trial": 33, "dateTime": 1693581138127, "trialdata": {"revealed_states": [], "clicked_states": ["29", "27", "28", "9", "11", "32", "33", "22", "16"], "num_clicks_accrued": [0, 0, 0, 0, 0, 0, 0, 0, 0, 0, 0, 0, 0], "stateRewards": ["", 2, 4, 7, -6, -76, -81, 2, 5, -66, -3, 36, -2, -4, 6, -2, -69, 4, -49, -6, 67, 38, -67, 2, 1, 1, 6, -68, -21, 52, -16, -16, 6, -70], "withholdReward": false, "trial_id": "mdp_trial_19", "block": "test", "trialIndex": 22, "score": 42.650000000000006, "costs": -19.349999999999998, "simulationMode": [null, null, null, null, null], "rewards": [2, 1, 1, 6, 52], "path": ["0", "0", "23", "24", "25", "26", "29"], "rt": [37053, 145, 324, 945, 363], "actions": ["left", "left", "left", "up", "left"], "actionTimes": [38778, 39433, 40262, 41721, 42594], "queries": {"click": {"state": {"target": ["29", "27", "28", "9", "11", "32", "33", "22", "16"], "time": [3374, 7097, 10840, 14684, 18094, 21920, 25648, 30276, 34438]}, "edge": {"target": [], "time": []}}, "mouseover": {"state": {"target": ["1", "2", "3", "29", "29", "27", "28", "8", "9", "11", "33", "32", "33", "31", "19", "22", "14", "17", "16", "23", "31"], "time": [2402, 2423, 2463, 2737, 3124, 6750, 10525, 14049, 14401, 16358, 21455, 21703, 25299, 29458, 29830, 30082, 33773, 33809, 34288, 37880, 37916]}, "edge": {"target": [], "time": []}}, "mouseout": {"state": {"target": ["24", "23", "0", "1", "2", "3", "29", "29", "27", "28", "8", "9", "11", "33", "32", "33", "31", "19", "22", "14", "17", "16", "23", "31"], "time": [765, 801, 2367, 2422, 2445, 2671, 2757, 6582, 10461, 14014, 14083, 16301, 19381, 21520, 23983, 29429, 29476, 30061, 33719, 33791, 33854, 37849, 37899, 37935]}, "edge": {"target": [], "time": []}}}, "displayed_time": "43.10", "trialTime": 44328, "trial_type": "mouselab-mdp", "trial_index": 33, "time_elapsed": 1066208, "internal_node_id": "0.0-6.0-1.0-18.0"}}, {"uniqueid": "w70549161:a93041975", "current_trial": 34, "dateTime": 1693581215308, "trialdata": {"revealed_states": [], "clicked_states": ["6", "11", "10", "7", "9", "27", "29", "33", "21", "18", "16", "17", "20", "31", "32", "28", "5"], "num_clicks_accrued": [0, 0, 0, 0, 0, 0, 0, 0, 0, 0, 0, 0, 0], "stateRewards": ["", 2, -4, 4, 9, 69, 9, -75, 12, -86, 66, 25, -1, 3, 2, -13, -88, -3, 1, 4, -69, 49, -84, 2, -1, 4, 2, -18, -81, -52, -15, -69, -54, 25], "withholdReward": false, "trial_id": "mdp_trial_20", "block": "test", "trialIndex": 23, "score": 43.45000000000001, "costs": -36.54999999999999, "simulationMode": [null, null, null, null, null], "rewards": [2, -4, 4, 9, 69], "path": ["0", "0", "1", "2", "3", "4", "5"], "rt": [68741, 93, 23, 811, 417], "actions": ["up", "up", "up", "right", "up"], "actionTimes": [70880, 71476, 72004, 73330, 74268], "queries": {"click": {"state": {"target": ["6", "11", "10", "7", "9", "27", "29", "33", "21", "18", "16", "17", "20", "31", "32", "28", "5"], "time": [4665, 8024, 11634, 15661, 18936, 23281, 27008, 31185, 35597, 39726, 43532, 47178, 50572, 54416, 57941, 61803, 65796]}, "edge": {"target": [], "time": []}}, "mouseover": {"state": {"target": ["1", "3", "4", "6", "4", "3", "8", "11", "10", "2", "7", "7", "3", "9", "29", "27", "29", "26", "24", "30", "33", "22", "19", "20", "21", "13", "18", "16", "16", "17", "20", "19", "31", "32", "28", "10", "4", "5"], "time": [2562, 2980, 3366, 3615, 5366, 5388, 5411, 5435, 11317, 14895, 15062, 15443, 17122, 17527, 22465, 22833, 26842, 30387, 30618, 30805, 30956, 34946, 34968, 34991, 35331, 39134, 39183, 42954, 43269, 46845, 50038, 52886, 54248, 57625, 61438, 64980, 65063, 65378]}, "edge": {"target": [], "time": []}}, "mouseout": {"state": {"target": ["0", "1", "3", "4", "6", "4", "3", "8", "11", "10", "2", "7", "7", "3", "9", "29", "27", "29", "26", "24", "30", "33", "22", "19", "20", "21", "13", "18", "16", "16", "16", "17", "17", "20", "19", "31", "32", "28", "10", "4", "5"], "time": [2478, 2610, 3347, 3447, 5345, 5386, 5409, 5432, 11251, 14863, 14978, 15177, 17067, 17143, 19641, 22767, 26558, 30367, 30435, 30704, 30888, 34465, 34966, 34987, 35010, 39009, 39180, 42884, 43035, 43703, 46745, 47272, 49846, 52864, 52908, 57575, 60221, 64961, 64999, 65329, 75775]}, "edge": {"target": [], "time": []}}}, "displayed_time": "74.77", "trialTime": 76227, "trial_type": "mouselab-mdp", "trial_index": 34, "time_elapsed": 1143388, "internal_node_id": "0.0-6.0-1.0-19.0"}}, {"uniqueid": "w70549161:a93041975", "current_trial": 35, "dateTime": 1693581239103, "trialdata": {"revealed_states": [], "clicked_states": ["5", "29", "26", "27"], "num_clicks_accrued": [0, 0, 0, 0, 0, 0, 0, 0, 0, 0, 0, 0, 0], "stateRewards": ["", 1, -4, -4, 8, 1, -79, 68, -10, -79, 8, -74, -1, -3, -6, 14, 43, 23, 9, 5, -51, 63, 61, -2, 4, 6, -10, 69, -32, 57, 15, -80, -80, -77], "withholdReward": false, "trial_id": "mdp_trial_21", "block": "test", "trialIndex": 24, "score": 59, "costs": -8, "simulationMode": [null, null, null, null, null], "rewards": [-2, 4, 6, -10, 69], "path": ["0", "0", "23", "24", "25", "26", "27"], "rt": [15236, 794, 195, 809, 161], "actions": ["left", "left", "left", "up", "up"], "actionTimes": [17621, 18913, 19618, 20938, 21606], "queries": {"click": {"state": {"target": ["5", "29", "26", "27"], "time": [3495, 7203, 10592, 13303]}, "edge": {"target": [], "time": []}}, "mouseover": {"state": {"target": ["2", "5", "27", "33", "29", "26", "27"], "time": [2862, 2908, 4388, 4822, 6940, 9491, 12735]}, "edge": {"target": [], "time": []}}, "mouseout": {"state": {"target": ["3", "1", "0", "0", "2", "5", "27", "33", "29", "26", "27"], "time": [821, 1105, 1170, 1789, 2882, 4330, 4410, 6738, 9412, 12600, 16378]}, "edge": {"target": [], "time": []}}}, "displayed_time": "22.14", "trialTime": 22879, "trial_type": "mouselab-mdp", "trial_index": 35, "time_elapsed": 1167183, "internal_node_id": "0.0-6.0-1.0-20.0"}}, {"uniqueid": "w70549161:a93041975", "current_trial": 36, "dateTime": 1693581276081, "trialdata": {"revealed_states": [], "clicked_states": ["21", "29", "27", "9", "11", "5", "16"], "num_clicks_accrued": [0, 0, 0, 0, 0, 0, 0, 0, 0, 0, 0, 0, 0], "stateRewards": ["", -2, -4, -6, 12, -58, -70, -80, 2, 16, -88, -62, 1, 2, -5, 11, 77, -35, -44, -5, 18, -83, 87, 1, -3, -5, 13, -44, -21, -86, 10, -52, 8, 29], "withholdReward": false, "trial_id": "mdp_trial_22", "block": "test", "trialIndex": 25, "score": 70.95, "costs": -15.05, "simulationMode": [null, null, null, null, null], "rewards": [1, 2, -5, 11, 77], "path": ["0", "0", "12", "13", "14", "15", "16"], "rt": [29264, 161, 390, 691, 109], "actions": ["right", "right", "right", "up", "up"], "actionTimes": [31132, 31811, 32712, 33912, 34523], "queries": {"click": {"state": {"target": ["21", "29", "27", "9", "11", "5", "16"], "time": [3172, 7651, 11278, 15121, 18965, 22591, 26881]}, "edge": {"target": [], "time": []}}, "mouseover": {"state": {"target": ["12", "22", "21", "31", "30", "33", "29", "27", "10", "9", "11", "5", "8", "10", "2", "6", "16", "15", "14"], "time": [2460, 2757, 2802, 6516, 6538, 6815, 7269, 10997, 13470, 14756, 18680, 22243, 23702, 24218, 25838, 26170, 26469, 30379, 30399]}, "edge": {"target": [], "time": []}}, "mouseout": {"state": {"target": ["24", "23", "0", "12", "22", "21", "31", "30", "33", "29", "27", "10", "9", "11", "5", "8", "10", "2", "6", "16", "15", "14"], "time": [865, 884, 2438, 2503, 2777, 6463, 6535, 6564, 7002, 10926, 13454, 14470, 15141, 19737, 22609, 23765, 25819, 25858, 26189, 30347, 30396, 30418]}, "edge": {"target": [], "time": []}}}, "displayed_time": "35.03", "trialTime": 36054, "trial_type": "mouselab-mdp", "trial_index": 36, "time_elapsed": 1204161, "internal_node_id": "0.0-6.0-1.0-21.0"}}, {"uniqueid": "w70549161:a93041975", "current_trial": 37, "dateTime": 1693581294205, "trialdata": {"revealed_states": [], "clicked_states": ["6", "16"], "num_clicks_accrued": [0, 0, 0, 0, 0, 0, 0, 0, 0, 0, 0, 0, 0], "stateRewards": ["", -2, 1, 6, -2, -10, -78, -69, 14, -15, 7, -1, 1, -1, -2, 13, 77, 32, 87, 5, -74, 30, -26, 1, 3, 4, 12, 39, 54, -43, 2, 10, 23, 13], "withholdReward": false, "trial_id": "mdp_trial_23", "block": "test", "trialIndex": 26, "score": 83.7, "costs": -4.3, "simulationMode": [null, null, null, null, null], "rewards": [1, -1, -2, 13, 77], "path": ["0", "0", "12", "13", "14", "15", "16"], "rt": [8962, 14, 194, 509, 149], "actions": ["right", "right", "right", "up", "up"], "actionTimes": [11079, 11590, 12287, 13315, 13965], "queries": {"click": {"state": {"target": ["6", "16"], "time": [3414, 7126]}, "edge": {"target": [], "time": []}}, "mouseover": {"state": {"target": ["1", "4", "6", "16", "16"], "time": [2499, 2567, 3003, 6680, 6932]}, "edge": {"target": [], "time": []}}, "mouseout": {"state": {"target": ["0", "1", "4", "6", "16"], "time": [2467, 2521, 2932, 5690, 6726]}, "edge": {"target": [], "time": []}}}, "displayed_time": "16.12", "trialTime": 17175, "trial_type": "mouselab-mdp", "trial_index": 37, "time_elapsed": 1222285, "internal_node_id": "0.0-6.0-1.0-22.0"}}, {"uniqueid": "w70549161:a93041975", "current_trial": 38, "dateTime": 1693581321670, "trialdata": {"revealed_states": [], "clicked_states": ["20", "16", "5", "11"], "num_clicks_accrued": [0, 0, 0, 0, 0, 0, 0, 0, 0, 0, 0, 0, 0], "stateRewards": ["", 1, -2, 4, 7, -43, -83, -60, -5, -86, -80, 83, -1, -2, 6, 11, -15, 21, 13, 9, 29, -49, 11, -1, 4, -6, -11, 87, 40, 63, -8, -39, -11, 62], "withholdReward": false, "trial_id": "mdp_trial_24", "block": "test", "trialIndex": 27, "score": 72.4, "costs": -8.6, "simulationMode": [null, null, null, null, null], "rewards": [1, -2, 4, -5, 83], "path": ["0", "0", "1", "2", "3", "8", "11"], "rt": [19414, 327, 182, 413, 127], "actions": ["up", "up", "up", "left", "left"], "actionTimes": [22111, 22954, 23649, 24573, 25205], "queries": {"click": {"state": {"target": ["20", "16", "5", "11"], "time": [4235, 9465, 13877, 17787]}, "edge": {"target": [], "time": []}}, "mouseover": {"state": {"target": ["20", "17", "16", "6", "5", "11"], "time": [4036, 8865, 9199, 13391, 13713, 17554]}, "edge": {"target": [], "time": []}}, "mouseout": {"state": {"target": ["16", "14", "19", "21", "23", "0", "20", "17", "16", "6", "5", "5"], "time": [933, 957, 995, 1028, 1628, 3370, 8762, 8982, 13361, 13411, 14050, 17187]}, "edge": {"target": [], "time": []}}}, "displayed_time": "25.71", "trialTime": 26455, "trial_type": "mouselab-mdp", "trial_index": 38, "time_elapsed": 1249750, "internal_node_id": "0.0-6.0-1.0-23.0"}}, {"uniqueid": "w70549161:a93041975", "current_trial": 39, "dateTime": 1693581382947, "trialdata": {"revealed_states": [], "clicked_states": ["29", "27", "32", "28", "9", "11", "10"], "num_clicks_accrued": [0, 0, 0, 0, 0, 0, 0, 0, 0, 0, 0, 0, 0], "stateRewards": ["", 2, 3, 3, 10, 19, -21, 6, 9, 54, 68, 16, 2, 2, -6, -8, 40, -2, -75, -2, -42, 55, 59, -1, 2, 4, -14, 11, -34, -30, -6, 61, -53, 13], "withholdReward": false, "trial_id": "mdp_trial_25", "block": "test", "trialIndex": 28, "score": 69.95, "costs": -15.05, "simulationMode": [null, null, null, null, null], "rewards": [2, 3, 3, 9, 68], "path": ["0", "0", "1", "2", "3", "8", "10"], "rt": [30801, 200, 66, 529, 361], "actions": ["up", "up", "up", "left", "down"], "actionTimes": [55426, 56136, 56704, 57764, 58636], "queries": {"click": {"state": {"target": ["29", "27", "32", "28", "9", "11", "10"], "time": [25501, 30313, 34909, 39404, 43466, 47326, 51036]}, "edge": {"target": [], "time": []}}, "mouseover": {"state": {"target": ["23", "26", "29", "27", "26", "25", "30", "32", "31", "23", "23", "24", "28", "9", "11", "10", "3", "4"], "time": [24695, 24782, 25233, 29798, 34307, 34352, 34374, 34711, 38287, 38352, 38637, 38926, 39140, 43065, 47026, 50655, 54661, 54698]}, "edge": {"target": [], "time": []}}, "mouseout": {"state": {"target": ["11", "0", "23", "26", "29", "27", "26", "25", "30", "32", "31", "23", "23", "24", "28", "9", "11", "10", "3"], "time": [23542, 24693, 24713, 25185, 29462, 34284, 34328, 34371, 34427, 38233, 38321, 38471, 38904, 39072, 42580, 44340, 48548, 54611, 54679]}, "edge": {"target": [], "time": []}}}, "displayed_time": "59.14", "trialTime": 60315, "trial_type": "mouselab-mdp", "trial_index": 39, "time_elapsed": 1311027, "internal_node_id": "0.0-6.0-1.0-24.0"}}, {"uniqueid": "w70549161:a93041975", "current_trial": 40, "dateTime": 1693581400533, "trialdata": {"revealed_states": [], "clicked_states": ["14", "19", "21"], "num_clicks_accrued": [0, 0, 0, 0, 0, 0, 0, 0, 0, 0, 0, 0, 0], "stateRewards": ["", 1, 2, -3, -6, 50, -7, 7, -7, -80, 21, -1, 2, 2, 4, -1, 33, 84, 1, 14, -53, 81, 6, -2, -2, -3, -9, -87, -38, -59, -5, -74, -3, -71], "withholdReward": false, "trial_id": "mdp_trial_26", "block": "test", "trialIndex": 29, "score": 98.35, "costs": -4.65, "simulationMode": [null, null, null, null, null], "rewards": [2, 2, 4, 14, 81], "path": ["0", "0", "12", "13", "14", "19", "21"], "rt": [8458, 319, 560, 900, 313], "actions": ["right", "right", "right", "down", "down"], "actionTimes": [10397, 11223, 12301, 13713, 14533], "queries": {"click": {"state": {"target": ["14", "19", "21"], "time": [3083, 4921, 5973]}, "edge": {"target": [], "time": []}}, "mouseover": {"state": {"target": ["12", "14", "20", "19", "21"], "time": [2452, 2851, 4052, 4725, 5720]}, "edge": {"target": [], "time": []}}, "mouseout": {"state": {"target": ["4", "7", "0", "12", "14", "20", "19", "21"], "time": [862, 890, 2431, 2472, 3946, 4691, 5672, 7007]}, "edge": {"target": [], "time": []}}}, "displayed_time": "15.94", "trialTime": 16529, "trial_type": "mouselab-mdp", "trial_index": 40, "time_elapsed": 1328613, "internal_node_id": "0.0-6.0-1.0-25.0"}}, {"uniqueid": "w70549161:a93041975", "current_trial": 41, "dateTime": 1693581419385, "trialdata": {"revealed_states": [], "clicked_states": ["3"], "num_clicks_accrued": [0, 0, 0, 0, 0, 0, 0, 0, 0, 0, 0, 0, 0], "stateRewards": ["", 2, -3, -2, 14, -4, 85, 46, 15, -28, 41, 31, -1, -1, -1, 5, 62, 79, 57, 12, -73, -64, 86, -1, 1, -3, -5, 68, 11, -32, 8, -80, -21, -56], "withholdReward": false, "trial_id": "mdp_trial_27", "block": "test", "trialIndex": 30, "score": -64.95, "costs": -0.95, "simulationMode": [null, null, null, null, null], "rewards": [-1, -1, -1, 12, -73], "path": ["0", "0", "12", "13", "14", "19", "20"], "rt": [11154, 352, 282, 238, 505], "actions": ["right", "right", "right", "down", "right"], "actionTimes": [13253, 14109, 14888, 15634, 16647], "queries": {"click": {"state": {"target": ["3"], "time": [3794]}, "edge": {"target": [], "time": []}}, "mouseover": {"state": {"target": ["1", "2", "3", "3", "4", "6", "5", "7"], "time": [2874, 2966, 3058, 3544, 4623, 4652, 8274, 10215]}, "edge": {"target": [], "time": []}}, "mouseout": {"state": {"target": ["22", "0", "1", "2", "3", "3", "4", "6", "5", "7"], "time": [770, 2761, 2945, 3010, 3193, 4620, 4649, 4710, 10196, 10237]}, "edge": {"target": [], "time": []}}}, "displayed_time": "17.15", "trialTime": 17843, "trial_type": "mouselab-mdp", "trial_index": 41, "time_elapsed": 1347465, "internal_node_id": "0.0-6.0-1.0-26.0"}}, {"uniqueid": "w70549161:a93041975", "current_trial": 42, "dateTime": 1693581452944, "trialdata": {"revealed_states": [], "clicked_states": ["9", "29", "32", "28", "27", "33"], "num_clicks_accrued": [0, 0, 0, 0, 0, 0, 0, 0, 0, 0, 0, 0, 0], "stateRewards": ["", 1, -3, 4, 13, -72, 52, 5, 5, -58, 5, 14, 2, 1, 3, -14, -86, -4, 73, 6, -58, -50, 49, 2, -3, -4, 2, 33, -41, 42, -11, 81, 45, 53], "withholdReward": false, "trial_id": "mdp_trial_28", "block": "test", "trialIndex": 31, "score": 24.1, "costs": -12.9, "simulationMode": [null, null, null, null, null], "rewards": [2, -3, -4, -11, 53], "path": ["0", "0", "23", "24", "25", "30", "33"], "rt": [25581, 199, 342, 323, 338], "actions": ["left", "left", "left", "down", "left"], "actionTimes": [27792, 28498, 29344, 30185, 31038], "queries": {"click": {"state": {"target": ["9", "29", "32", "28", "27", "33"], "time": [3614, 6888, 10614, 14844, 18436, 21895]}, "edge": {"target": [], "time": []}}, "mouseover": {"state": {"target": ["1", "2", "3", "8", "9", "26", "29", "30", "32", "24", "28", "24", "27", "26", "33", "33", "30", "31", "31"], "time": [2830, 2872, 3013, 3130, 3364, 5141, 5495, 10067, 10401, 14162, 14376, 16792, 18140, 19885, 19931, 21161, 22527, 22551, 23046]}, "edge": {"target": [], "time": []}}, "mouseout": {"state": {"target": ["0", "1", "2", "3", "8", "9", "26", "29", "30", "32", "24", "28", "24", "28", "27", "27", "26", "33", "33", "30", "31", "31"], "time": [2797, 2851, 2892, 3094, 3151, 4859, 5184, 7744, 10300, 11587, 14325, 16750, 18005, 18053, 18604, 19882, 19910, 19955, 22504, 22550, 22575, 25086]}, "edge": {"target": [], "time": []}}}, "displayed_time": "31.58", "trialTime": 32520, "trial_type": "mouselab-mdp", "trial_index": 42, "time_elapsed": 1381024, "internal_node_id": "0.0-6.0-1.0-27.0"}}, {"uniqueid": "w70549161:a93041975", "current_trial": 43, "dateTime": 1693581482278, "trialdata": {"revealed_states": [], "clicked_states": ["17", "20", "21", "16", "18", "6"], "num_clicks_accrued": [0, 0, 0, 0, 0, 0, 0, 0, 0, 0, 0, 0, 0], "stateRewards": ["", 1, -3, -6, -5, 47, 80, -29, 11, -71, 10, -29, -2, 3, -6, 12, 2, -78, -6, 8, 34, -16, -5, -1, 3, 3, -13, 84, -36, -62, -3, -27, 66, 15], "withholdReward": false, "trial_id": "mdp_trial_29", "block": "test", "trialIndex": 32, "score": 54.1, "costs": -12.9, "simulationMode": [null, null, null, null, null], "rewards": [1, -3, -6, -5, 80], "path": ["0", "0", "1", "2", "3", "4", "6"], "rt": [23021, 141, 111, 258, 124], "actions": ["up", "up", "up", "right", "right"], "actionTimes": [24678, 25326, 25952, 26710, 27347], "queries": {"click": {"state": {"target": ["17", "20", "21", "16", "18", "6"], "time": [2485, 6362, 9788, 13515, 16774, 20016]}, "edge": {"target": [], "time": []}}, "mouseover": {"state": {"target": ["12", "14", "17", "16", "19", "20", "21", "16", "16", "18", "7", "5", "6", "6", "4", "3", "2", "1"], "time": [1834, 1874, 2238, 5695, 5743, 6119, 9606, 12998, 13333, 14681, 17395, 17696, 17775, 18077, 22397, 22441, 23400, 23441]}, "edge": {"target": [], "time": []}}, "mouseout": {"state": {"target": ["0", "12", "14", "17", "16", "19", "20", "21", "16", "16", "18", "7", "5", "6", "6", "4", "3", "2"], "time": [981, 1870, 1902, 3151, 5716, 6097, 7928, 9890, 13019, 14121, 17364, 17443, 17717, 17889, 22374, 22420, 23377, 23421]}, "edge": {"target": [], "time": []}}}, "displayed_time": "27.86", "trialTime": 28341, "trial_type": "mouselab-mdp", "trial_index": 43, "time_elapsed": 1410359, "internal_node_id": "0.0-6.0-1.0-28.0"}}, {"uniqueid": "w70549161:a93041975", "current_trial": 44, "dateTime": 1693581506451, "trialdata": {"revealed_states": [], "clicked_states": ["9", "11", "27", "29"], "num_clicks_accrued": [0, 0, 0, 0, 0, 0, 0, 0, 0, 0, 0, 0, 0], "stateRewards": ["", -1, 4, -8, 12, 14, 69, -8, 5, -72, -14, 56, -1, -1, -1, 9, 67, 19, 11, -9, -88, -58, 3, 2, -4, -8, 4, 62, 77, -74, 5, -31, 65, 88], "withholdReward": false, "trial_id": "mdp_trial_30", "block": "test", "trialIndex": 33, "score": 47.4, "costs": -8.6, "simulationMode": [null, null, null, null, null], "rewards": [2, -4, -8, 4, 62], "path": ["0", "0", "23", "24", "25", "26", "27"], "rt": [17172, 51, 13, 744, 118], "actions": ["left", "left", "left", "up", "up"], "actionTimes": [18823, 19377, 19890, 21164, 21790], "queries": {"click": {"state": {"target": ["9", "11", "27", "29"], "time": [2824, 6403, 10577, 14843]}, "edge": {"target": [], "time": []}}, "mouseover": {"state": {"target": ["1", "2", "3", "9", "11", "3", "6", "29", "27", "29"], "time": [2259, 2302, 2343, 2559, 6086, 6902, 7538, 9999, 10333, 14609]}, "edge": {"target": [], "time": []}}, "mouseout": {"state": {"target": ["1", "0", "1", "2", "3", "9", "9", "11", "3", "6", "29", "27", "29"], "time": [726, 2227, 2280, 2322, 2497, 2947, 3403, 6860, 6924, 9898, 10233, 10680, 14943]}, "edge": {"target": [], "time": []}}}, "displayed_time": "22.31", "trialTime": 23126, "trial_type": "mouselab-mdp", "trial_index": 44, "time_elapsed": 1434532, "internal_node_id": "0.0-6.0-1.0-29.0"}}, {"uniqueid": "w70549161:a93041975", "current_trial": 45, "dateTime": 1693581567955, "trialdata": {"revealed_states": [], "clicked_states": ["33", "31", "32", "27", "28", "29", "11", "9", "5", "10", "7", "16", "18", "17", "20"], "num_clicks_accrued": [0, 0, 0, 0, 0, 0, 0, 0, 0, 0, 0, 0, 0], "stateRewards": ["", 2, -1, -2, -5, -47, -57, -33, -11, 31, -18, -72, -2, 1, -4, -8, -46, -53, -50, 15, -85, -9, 39, -2, -2, 1, 14, -1, -8, 53, -12, -41, -74, 62], "withholdReward": false, "trial_id": "mdp_trial_31", "block": "test", "trialIndex": 34, "score": 14.750000000000007, "costs": -32.24999999999999, "simulationMode": [null, null, null, null, null], "rewards": [-2, -2, 1, -12, 62], "path": ["0", "0", "23", "24", "25", "30", "33"], "rt": [53833, 14, 184, 188, 637], "actions": ["left", "left", "left", "down", "left"], "actionTimes": [55873, 56408, 57096, 57784, 58936], "queries": {"click": {"state": {"target": ["33", "31", "32", "27", "28", "29", "11", "9", "5", "10", "7", "16", "18", "17", "20"], "time": [2825, 6249, 9645, 13994, 17400, 20741, 24099, 28030, 31322, 34596, 38103, 41296, 44525, 47766, 51076]}, "edge": {"target": [], "time": []}}, "mouseover": {"state": {"target": ["23", "33", "30", "31", "32", "30", "25", "26", "27", "28", "28", "26", "29", "8", "11", "9", "9", "5", "5", "6", "16", "6", "10", "2", "7", "16", "18", "15", "17", "20", "20", "21", "19", "12", "0", "24"], "time": [2415, 2510, 3482, 6073, 9382, 12906, 12981, 13326, 13525, 14601, 14967, 17935, 18379, 21528, 21781, 27415, 27827, 28720, 29219, 32097, 32471, 32593, 33217, 35085, 35130, 39143, 42297, 45999, 46081, 48277, 48692, 51795, 54488, 54904, 55023, 55090]}, "edge": {"target": [], "time": []}}, "mouseout": {"state": {"target": ["0", "23", "33", "30", "31", "32", "30", "25", "26", "27", "28", "28", "26", "29", "8", "11", "9", "9", "5", "5", "6", "16", "6", "10", "2", "7", "16", "16", "18", "15", "17", "20", "20", "21", "19", "12", "0", "24"], "time": [2396, 2443, 3439, 3527, 6942, 9712, 12956, 13025, 13394, 14555, 14631, 17914, 17959, 21156, 21586, 27346, 27496, 28130, 28744, 32067, 32147, 32494, 32834, 35045, 35108, 38728, 41415, 41982, 45977, 46039, 48236, 48330, 51678, 54453, 54508, 55003, 55042, 55123]}, "edge": {"target": [], "time": []}}}, "displayed_time": "59.45", "trialTime": 60348, "trial_type": "mouselab-mdp", "trial_index": 45, "time_elapsed": 1496035, "internal_node_id": "0.0-6.0-1.0-30.0"}}, {"uniqueid": "w70549161:a93041975", "current_trial": 46, "dateTime": 1693581603838, "trialdata": {"revealed_states": [], "clicked_states": ["10", "33", "29", "30", "32", "31", "27", "28"], "num_clicks_accrued": [0, 0, 0, 0, 0, 0, 0, 0, 0, 0, 0, 0, 0], "stateRewards": ["", -2, 2, 3, -7, 76, 63, 21, 15, 35, -8, -44, 1, 1, -2, -12, 23, 24, 76, -9, 46, 66, -49, -2, -1, 7, 12, 40, -71, -45, -6, 38, -49, 46], "withholdReward": false, "trial_id": "mdp_trial_32", "block": "test", "trialIndex": 35, "score": 39.400000000000006, "costs": -16.599999999999998, "simulationMode": [null, null, null, null, null], "rewards": [-2, -1, 7, 12, 40], "path": ["0", "0", "23", "24", "25", "26", "27"], "rt": [28564, 254, 119, 522, 106], "actions": ["left", "left", "left", "up", "up"], "actionTimes": [30572, 31327, 31946, 32964, 33568], "queries": {"click": {"state": {"target": ["10", "33", "29", "30", "32", "31", "27", "28"], "time": [3428, 7435, 11364, 14574, 15960, 19904, 23396, 26986]}, "edge": {"target": [], "time": []}}, "mouseover": {"state": {"target": ["1", "10", "11", "29", "33", "29", "30", "31", "31", "30", "32", "32", "31", "31", "25", "26", "27", "28"], "time": [2525, 2843, 4257, 6806, 7172, 11097, 11981, 12005, 12346, 13570, 15269, 15705, 16510, 19658, 20603, 20648, 20936, 23946]}, "edge": {"target": [], "time": []}}, "mouseout": {"state": {"target": ["24", "23", "0", "1", "10", "11", "29", "33", "29", "30", "31", "31", "30", "32", "32", "31", "31", "25", "26", "27"], "time": [636, 667, 2442, 2774, 4214, 4282, 6827, 8243, 11918, 12003, 12026, 13508, 15229, 15369, 16469, 16532, 20562, 20625, 20669, 23905]}, "edge": {"target": [], "time": []}}}, "displayed_time": "34.08", "trialTime": 34661, "trial_type": "mouselab-mdp", "trial_index": 46, "time_elapsed": 1531918, "internal_node_id": "0.0-6.0-1.0-31.0"}}, {"uniqueid": "w70549161:a93041975", "current_trial": 47, "dateTime": 1693581625282, "trialdata": {"revealed_states": [], "clicked_states": ["21", "20", "22"], "num_clicks_accrued": [0, 0, 0, 0, 0, 0, 0, 0, 0, 0, 0, 0, 0], "stateRewards": ["", 1, 1, -3, 7, 49, 78, 26, -5, 26, 48, -43, -1, -3, 2, -5, 4, -1, -60, 10, -35, 51, 81, -2, 1, -7, -5, -39, -86, -54, 4, -3, 74, 77], "withholdReward": false, "trial_id": "mdp_trial_33", "block": "test", "trialIndex": 36, "score": 82.55, "costs": -6.449999999999999, "simulationMode": [null, null, null, null, null], "rewards": [-1, -3, 2, 10, 81], "path": ["0", "0", "12", "13", "14", "19", "22"], "rt": [12959, 181, 602, 555, 440], "actions": ["right", "right", "right", "down", "left"], "actionTimes": [15299, 15997, 17108, 18169, 19117], "queries": {"click": {"state": {"target": ["21", "20", "22"], "time": [3266, 7612, 11221]}, "edge": {"target": [], "time": []}}, "mouseover": {"state": {"target": ["12", "22", "19", "21", "20", "20", "19", "22", "14", "15", "16", "15"], "time": [2411, 2469, 2818, 3036, 4178, 6779, 10802, 10903, 12203, 12248, 12851, 14720]}, "edge": {"target": [], "time": []}}, "mouseout": {"state": {"target": ["28", "23", "0", "12", "22", "19", "21", "20", "20", "19", "22", "14", "15", "16", "15"], "time": [845, 893, 1514, 2467, 2798, 2968, 4174, 4231, 10771, 10840, 11324, 12226, 12594, 14698, 14741]}, "edge": {"target": [], "time": []}}}, "displayed_time": "19.61", "trialTime": 20382, "trial_type": "mouselab-mdp", "trial_index": 47, "time_elapsed": 1553362, "internal_node_id": "0.0-6.0-1.0-32.0"}}, {"uniqueid": "w70549161:a93041975", "current_trial": 48, "dateTime": 1693581642380, "trialdata": {"revealed_states": [], "clicked_states": ["18"], "num_clicks_accrued": [0, 0, 0, 0, 0, 0, 0, 0, 0, 0, 0, 0, 0], "stateRewards": ["", -1, 3, 1, -7, 56, 76, 57, 3, 11, -9, 14, 1, -2, 2, 8, -77, -3, 79, -5, 88, 24, -66, -2, -1, 7, -7, -30, 14, -76, 11, -36, 28, -6], "withholdReward": false, "trial_id": "mdp_trial_34", "block": "test", "trialIndex": 37, "score": 85.85, "costs": -2.15, "simulationMode": [null, null, null, null, null], "rewards": [1, -2, 2, 8, 79], "path": ["0", "0", "12", "13", "14", "15", "18"], "rt": [5287, 157, 264, 879, 363], "actions": ["right", "right", "right", "up", "left"], "actionTimes": [6948, 7609, 8383, 9777, 10639], "queries": {"click": {"state": {"target": ["18"], "time": [2668]}, "edge": {"target": [], "time": []}}, "mouseover": {"state": {"target": ["12", "13", "14", "14", "18", "22", "14"], "time": [1985, 2025, 2048, 2267, 2420, 4877, 6165]}, "edge": {"target": [], "time": []}}, "mouseout": {"state": {"target": ["12", "12", "13", "14", "14", "18", "22"], "time": [897, 2021, 2045, 2067, 2369, 3690, 6115]}, "edge": {"target": [], "time": []}}}, "displayed_time": "15.67", "trialTime": 16058, "trial_type": "mouselab-mdp", "trial_index": 48, "time_elapsed": 1570460, "internal_node_id": "0.0-6.0-1.0-33.0"}}, {"uniqueid": "w70549161:a93041975", "current_trial": 49, "dateTime": 1693581674808, "trialdata": {"revealed_states": [], "clicked_states": ["6", "11", "16", "17", "18", "9"], "num_clicks_accrued": [0, 0, 0, 0, 0, 0, 0, 0, 0, 0, 0, 0, 0], "stateRewards": ["", -1, -3, -7, -4, -85, -70, 79, 8, 84, -66, 42, 2, -2, -3, -16, -54, -66, 68, -3, 21, -14, 7, -2, -1, -3, -8, 75, 80, 86, -7, -84, 73, -16], "withholdReward": false, "trial_id": "mdp_trial_35", "block": "test", "trialIndex": 38, "score": 68.1, "costs": -12.9, "simulationMode": [null, null, null, null, null], "rewards": [-1, -3, -7, 8, 84], "path": ["0", "0", "1", "2", "3", "8", "9"], "rt": [24101, 710, 181, 516, 689], "actions": ["up", "up", "up", "left", "up"], "actionTimes": [25833, 27040, 27731, 28757, 29952], "queries": {"click": {"state": {"target": ["6", "11", "16", "17", "18", "9"], "time": [2661, 6941, 10765, 14177, 17651, 21610]}, "edge": {"target": [], "time": []}}, "mouseover": {"state": {"target": ["15", "16", "6", "6", "11", "8", "7", "16", "17", "15", "18", "7", "9"], "time": [1769, 2138, 2181, 2430, 6423, 8825, 8872, 10437, 13207, 16523, 17454, 19115, 21398]}, "edge": {"target": [], "time": []}}, "mouseout": {"state": {"target": ["14", "12", "0", "15", "16", "6", "6", "11", "8", "7", "16", "17", "15", "18", "7", "9"], "time": [590, 656, 1766, 2116, 2161, 2203, 3876, 7027, 8849, 8895, 13143, 16499, 16566, 19091, 19137, 23023]}, "edge": {"target": [], "time": []}}}, "displayed_time": "30.46", "trialTime": 31203, "trial_type": "mouselab-mdp", "trial_index": 49, "time_elapsed": 1602889, "internal_node_id": "0.0-6.0-1.0-34.0"}}, {"uniqueid": "w70549161:a93041975", "current_trial": 50, "dateTime": 1693581695127, "trialdata": {"revealed_states": [], "clicked_states": ["27", "33", "32"], "num_clicks_accrued": [0, 0, 0, 0, 0, 0, 0, 0, 0, 0, 0, 0, 0], "stateRewards": ["", -1, 3, -4, -14, 78, 67, 2, 13, -32, 28, 39, -2, 1, -4, -4, -4, -42, -86, 11, 64, -29, -32, -1, -4, 2, -7, 5, 68, -61, 2, -21, 85, 50], "withholdReward": false, "trial_id": "mdp_trial_36", "block": "test", "trialIndex": 39, "score": 77.55, "costs": -6.449999999999999, "simulationMode": [null, null, null, null, null], "rewards": [-1, -4, 2, 2, 85], "path": ["0", "0", "23", "24", "25", "30", "32"], "rt": [13201, 315, 255, 259, 263], "actions": ["left", "left", "left", "down", "down"], "actionTimes": [14844, 15665, 16424, 17179, 17975], "queries": {"click": {"state": {"target": ["27", "33", "32"], "time": [2847, 7057, 10884]}, "edge": {"target": [], "time": []}}, "mouseover": {"state": {"target": ["24", "26", "27", "33", "33", "32"], "time": [2159, 2209, 2542, 6637, 6888, 10702]}, "edge": {"target": [], "time": []}}, "mouseout": {"state": {"target": ["10", "23", "0", "24", "26", "27", "33", "33", "32"], "time": [508, 772, 2130, 2181, 2515, 4761, 6661, 8579, 11769]}, "edge": {"target": [], "time": []}}}, "displayed_time": "18.48", "trialTime": 19231, "trial_type": "mouselab-mdp", "trial_index": 50, "time_elapsed": 1623207, "internal_node_id": "0.0-6.0-1.0-35.0"}}, {"uniqueid": "w70549161:a93041975", "current_trial": 51, "dateTime": 1693581765513, "trialdata": {"revealed_states": [], "clicked_states": ["18", "17", "20", "22", "33", "31", "29", "27", "11", "9", "5", "7", "10", "16", "21", "28", "32"], "num_clicks_accrued": [0, 0, 0, 0, 0, 0, 0, 0, 0, 0, 0, 0, 0], "stateRewards": ["", -1, -3, -7, -7, -76, 30, -49, 11, -70, 56, 2, 1, 4, -3, -14, -59, -83, -25, -9, -21, -67, -73, -2, 4, 4, -9, -11, -32, 60, 9, -87, 22, -64], "withholdReward": false, "trial_id": "mdp_trial_37", "block": "test", "trialIndex": 40, "score": 20.45000000000001, "costs": -36.54999999999999, "simulationMode": [null, null, null, null, null], "rewards": [-2, 4, 4, -9, 60], "path": ["0", "0", "23", "24", "25", "26", "29"], "rt": [62624, 151, 367, 506, 185], "actions": ["left", "left", "left", "up", "left"], "actionTimes": [64719, 65375, 66283, 67293, 67975], "queries": {"click": {"state": {"target": ["18", "17", "20", "22", "33", "31", "29", "27", "11", "9", "5", "7", "10", "16", "21", "28", "32"], "time": [3150, 6981, 10165, 13373, 16682, 20238, 23482, 26876, 30488, 33813, 37021, 40398, 44174, 47381, 51677, 56357, 60318]}, "edge": {"target": [], "time": []}}, "mouseover": {"state": {"target": ["18", "17", "20", "19", "22", "31", "30", "33", "30", "31", "25", "29", "27", "11", "8", "11", "9", "5", "4", "7", "7", "2", "10", "2", "16", "15", "19", "21", "21", "23", "23", "28", "24", "32", "29"], "time": [2879, 6687, 7523, 10761, 10789, 14087, 14133, 14396, 17499, 20009, 21558, 21928, 26474, 28799, 28844, 30321, 32018, 34971, 38036, 38100, 40098, 43592, 44009, 44751, 45503, 50547, 50569, 50593, 51280, 54989, 56041, 56109, 57295, 60001, 63764]}, "edge": {"target": [], "time": []}}, "mouseout": {"state": {"target": ["31", "0", "18", "17", "20", "19", "22", "31", "30", "33", "30", "31", "25", "29", "27", "11", "8", "11", "9", "5", "4", "7", "7", "2", "10", "2", "16", "16", "15", "19", "21", "21", "21", "23", "23", "28", "24", "32"], "time": [773, 2496, 4009, 7452, 10738, 10787, 14025, 14110, 14371, 16835, 17525, 21491, 21885, 23623, 27011, 28822, 30258, 31062, 34493, 38015, 38059, 38162, 42065, 43657, 44730, 44777, 49051, 50544, 50567, 50590, 50613, 54605, 54884, 55320, 56063, 57206, 57338, 63676]}, "edge": {"target": [], "time": []}}}, "displayed_time": "68.48", "trialTime": 69281, "trial_type": "mouselab-mdp", "trial_index": 51, "time_elapsed": 1693593, "internal_node_id": "0.0-6.0-1.0-36.0"}}, {"uniqueid": "w70549161:a93041975", "current_trial": 52, "dateTime": 1693581803961, "trialdata": {"revealed_states": [], "clicked_states": ["29", "27", "5", "33", "32", "28", "31", "21"], "num_clicks_accrued": [0, 0, 0, 0, 0, 0, 0, 0, 0, 0, 0, 0, 0], "stateRewards": ["", -1, -3, 1, -4, -48, -63, -49, -2, -84, -19, 65, 2, -2, -2, -12, -4, 59, 9, 6, 75, 69, -13, -1, -3, -3, -2, -37, -68, -36, 13, 32, 18, -14], "withholdReward": false, "trial_id": "mdp_trial_38", "block": "test", "trialIndex": 41, "score": 55.8, "costs": -17.2, "simulationMode": [null, null, null, null, null], "rewards": [2, -2, -2, 6, 69], "path": ["0", "0", "12", "13", "14", "19", "21"], "rt": [30837, 151, 357, 551, 291], "actions": ["right", "right", "right", "down", "down"], "actionTimes": [32690, 33348, 34215, 35283, 36078], "queries": {"click": {"state": {"target": ["29", "27", "5", "33", "32", "28", "31", "21"], "time": [2828, 6299, 9679, 13235, 16480, 21089, 24633, 28530]}, "edge": {"target": [], "time": []}}, "mouseover": {"state": {"target": ["28", "29", "27", "5", "5", "28", "24", "30", "33", "32", "24", "28", "24", "31", "21"], "time": [2239, 2579, 6070, 7276, 7563, 10987, 11012, 11318, 12856, 15640, 20308, 20857, 23508, 23596, 28314]}, "edge": {"target": [], "time": []}}, "mouseout": {"state": {"target": ["29", "24", "23", "0", "28", "29", "27", "5", "5", "28", "24", "30", "33", "32", "24", "28", "24", "31", "21", "21", "21"], "time": [588, 920, 988, 2209, 2261, 3580, 6424, 7364, 10917, 11009, 11287, 11361, 15574, 18133, 20826, 23485, 23552, 25181, 28686, 31223, 31939]}, "edge": {"target": [], "time": []}}}, "displayed_time": "36.60", "trialTime": 37336, "trial_type": "mouselab-mdp", "trial_index": 52, "time_elapsed": 1732041, "internal_node_id": "0.0-6.0-1.0-37.0"}}, {"uniqueid": "w70549161:a93041975", "current_trial": 53, "dateTime": 1693581831612, "trialdata": {"revealed_states": [], "clicked_states": ["11", "7", "16", "20", "21"], "num_clicks_accrued": [0, 0, 0, 0, 0, 0, 0, 0, 0, 0, 0, 0, 0], "stateRewards": ["", 2, -3, -5, 5, 11, -9, -33, 6, 67, 6, -30, -1, -2, -6, 13, 55, 13, 72, -14, 75, 21, -66, -2, -4, 6, 15, -1, -35, 60, 2, 51, -73, 12], "withholdReward": false, "trial_id": "mdp_trial_39", "block": "test", "trialIndex": 42, "score": 41.25, "costs": -10.75, "simulationMode": [null, null, null, null, null], "rewards": [-1, -2, -6, -14, 75], "path": ["0", "0", "12", "13", "14", "19", "20"], "rt": [18981, 294, 102, 766, 845], "actions": ["right", "right", "right", "down", "right"], "actionTimes": [21183, 21982, 22600, 23876, 25231], "queries": {"click": {"state": {"target": ["11", "7", "16", "20", "21"], "time": [3617, 6925, 10247, 14074, 17253]}, "edge": {"target": [], "time": []}}, "mouseover": {"state": {"target": ["1", "2", "11", "3", "7", "16", "20", "21"], "time": [2679, 2847, 3302, 4508, 5995, 9714, 13792, 15862]}, "edge": {"target": [], "time": []}}, "mouseout": {"state": {"target": ["21", "22", "12", "0", "1", "2", "11", "3", "7", "16", "20", "21", "20"], "time": [744, 792, 1111, 2599, 2749, 2982, 4505, 4535, 7067, 12294, 15645, 18209, 18277]}, "edge": {"target": [], "time": []}}}, "displayed_time": "25.73", "trialTime": 26538, "trial_type": "mouselab-mdp", "trial_index": 53, "time_elapsed": 1759693, "internal_node_id": "0.0-6.0-1.0-38.0"}}, {"uniqueid": "w70549161:a93041975", "current_trial": 54, "dateTime": 1693581866240, "trialdata": {"revealed_states": [], "clicked_states": ["29", "27", "32", "33", "31", "9", "11"], "num_clicks_accrued": [0, 0, 0, 0, 0, 0, 0, 0, 0, 0, 0, 0, 0], "stateRewards": ["", -2, -4, -2, -13, -15, 87, -19, -6, -80, 30, 12, 1, 1, -8, 2, 55, 56, 15, 11, -68, -7, 55, -2, 3, -3, -3, 48, 62, 4, 1, -3, 69, -33], "withholdReward": false, "trial_id": "mdp_trial_40", "block": "test", "trialIndex": 43, "score": 52.95, "costs": -15.05, "simulationMode": [null, null, null, null, null], "rewards": [-2, 3, -3, 1, 69], "path": ["0", "0", "23", "24", "25", "30", "32"], "rt": [27582, 260, 215, 247, 278], "actions": ["left", "left", "left", "down", "down"], "actionTimes": [29356, 30124, 30856, 31621, 32401], "queries": {"click": {"state": {"target": ["29", "27", "32", "33", "31", "9", "11"], "time": [3070, 6379, 9601, 12930, 16585, 21331, 25220]}, "edge": {"target": [], "time": []}}, "mouseover": {"state": {"target": ["22", "26", "29", "27", "25", "30", "32", "33", "30", "31", "7", "11", "9", "11", "11", "27"], "time": [1815, 2481, 2816, 5735, 6902, 6937, 6987, 10550, 15468, 16424, 20217, 20502, 21119, 24755, 25039, 28561]}, "edge": {"target": [], "time": []}}, "mouseout": {"state": {"target": ["0", "22", "26", "29", "27", "25", "30", "32", "33", "30", "31", "7", "11", "9", "11", "11", "27"], "time": [1813, 2383, 2503, 3179, 6873, 6934, 6985, 10162, 15430, 15619, 20150, 20249, 20523, 22595, 24778, 28509, 28584]}, "edge": {"target": [], "time": []}}}, "displayed_time": "32.90", "trialTime": 33512, "trial_type": "mouselab-mdp", "trial_index": 54, "time_elapsed": 1794321, "internal_node_id": "0.0-6.0-1.0-39.0"}}, {"uniqueid": "w70549161:a93041975", "current_trial": 55, "dateTime": 1693581912762, "trialdata": {"rt": 46531, "response": {"Q0": "$-2 to $2", "Q1": "$-16 to $16", "Q2": "$-88 to $88", "Q3": "The cost for clicking on nodes varied between nodes.", "Q4": "Very motivated"}, "question_order": [0, 1, 2, 3, 4], "trial_id": "final_quiz_control", "trial_type": "survey-multi-choice", "trial_index": 55, "time_elapsed": 1840843, "internal_node_id": "0.0-6.0-2.0"}}, {"uniqueid": "w70549161:a93041975", "current_trial": 56, "dateTime": 1693581973305, "trialdata": {"rt": 60525, "response": {"Q0": "didn't use any strategys", "Q1": "no, just follow my instincts ", "Q2": "hard to predict"}, "trial_id": "self_report_control", "trial_type": "survey-text", "trial_index": 56, "time_elapsed": 1901386, "internal_node_id": "0.0-6.0-3.0"}}, {"uniqueid": "w70549161:a93041975", "current_trial": 57, "dateTime": 1693582015217, "trialdata": {"rt": 41904, "response": {"Q0": "Disagree", "Q1": "Neither disagree nor agree", "Q2": "Agree", "Q3": "Agree", "Q4": "Disagree", "Q5": "Strongly agree", "Q6": "Agree"}, "question_order": [0, 1, 2, 3, 4, 5, 6], "trial_id": "self_report_2", "trial_type": "survey-multi-choice", "trial_index": 57, "time_elapsed": 1943298, "internal_node_id": "0.0-6.0-4.0"}}, {"uniqueid": "w70549161:a93041975", "current_trial": 58, "dateTime": 1693582041487, "trialdata": {"rt": 26259, "response": {"gender": "male", "age": "38", "colorblind": "0", "effort": "0"}, "trial_type": "survey-html-form", "trial_index": 58, "time_elapsed": 1969567, "internal_node_id": "0.0-6.0-5.0"}}, {"uniqueid": "w70549161:a93041975", "current_trial": 59, "dateTime": 1693582066352, "trialdata": {"rt": 24857, "response": {"Q0": "no", "Q1": "no", "Q2": "no"}, "trial_type": "survey-text", "trial_index": 59, "time_elapsed": 1994433, "internal_node_id": "0.0-6.0-6.0"}}, {"uniqueid": "w70549161:a93041975", "current_trial": 60, "dateTime": 1693582082496, "trialdata": {"rt": 16139, "stimulus": "<h1>Completion Code Instructions (1/2)</h1>\n<br><br><br><br>\nYou have reached the end of the experiment! The completion code consists of two parts: (1) a code with 2 characters (2) a code with 6 characters. On this page, you will receive the second part of the code. The first part of the completion code will be on the next page.\n<br><br>\nThe second part of your completion code is: <b>EWEK22</b>\n<br><br>\nPlease note this down. Then, press 'Next' in order to find the first part of your completion code. Once the data has been saved, you will receive this code either in this window or in the original browser window where you started the experiment.\n <br><br>\n<h2 style='color: red;'>Note: this is <strong>NOT</strong> the full completion code. Copy this down and click 'Next' to get the full completion code on the next page.</h2>", "response": 0, "trial_type": "html-button-response", "trial_index": 60, "time_elapsed": 2010577, "internal_node_id": "0.0-6.0-7.0"}}, {"uniqueid": "w70549161:a93041975", "current_trial": 61, "dateTime": 1693582083507, "trialdata": {"success": true, "trial_type": "fullscreen", "trial_index": 61, "time_elapsed": 2011588, "internal_node_id": "0.0-7.0"}}], "questiondata": {"params": {"CODE": "C6DMOQA6", "MIN_TIME": 14, "inspectCost": 1, "startTime": "Fri Sep 01 2023 15:54:31 GMT+0100 (British Summer Time)", "bonusRate": 0.002, "variance": "1_2_4_8_44", "branching": "31123"}, "final_score": 1621.75}, "eventdata": [{"eventtype": "initialized", "value": null, "timestamp": 1693580070852, "interval": 0}, {"eventtype": "window_resize", "value": [1440, 815], "timestamp": 1693580070852, "interval": 0}, {"eventtype": "window_resize", "value": [1440, 815], "timestamp": 1693580071215, "interval": 363}, {"eventtype": "window_resize", "value": [1440, 900], "timestamp": 1693580074956, "interval": 3741}, {"eventtype": "focus", "value": "off", "timestamp": 1693580409048, "interval": 334092}, {"eventtype": "focus", "value": "on", "timestamp": 1693580409208, "interval": 160}, {"eventtype": "window_resize", "value": [1440, 815], "timestamp": 1693580409257, "interval": 49}, {"eventtype": "window_resize", "value": [1440, 900], "timestamp": 1693580411495, "interval": 2238}, {"eventtype": "window_resize", "value": [1440, 815], "timestamp": 1693582082726, "interval": 1671231}], "useragent": "Mozilla/5.0 (Macintosh; Intel Mac OS X 10_15_7) AppleWebKit/537.36 (KHTML, like Gecko) Chrome/116.0.0.0 Safari/537.36", "mode": "live", "id": "w70549161:a93041975", "status": "user data saved", "Beginhit": "2023-09-01 14:54:29.913999", "Beginexp": "2023-09-01 14:54:35.866462", "Endhit": "2023-09-01 15:28:04.066399", "psiturkStatus": 3, "browser": "<redacted>", "platform": "macos", "language": "en-GB"}