{"condition": 1, "counterbalance": 0, "assignmentId": "a25964440", "workerId": "w20262211", "hitId": "h53276873", "currenttrial": 62, "bonus": 0, "data": [{"uniqueid": "w20262211:a25964440", "current_trial": 0, "dateTime": 1693661171243, "trialdata": {"success": true, "trial_type": "fullscreen", "trial_index": 0, "time_elapsed": 4848, "internal_node_id": "0.0-0.0"}}, {"uniqueid": "w20262211:a25964440", "current_trial": 1, "dateTime": 1693661245022, "trialdata": {"view_history": [{"page_index": 0, "viewing_time": 73756}], "rt": 73756, "trial_id": "exp_instructions_misaligned", "trial_type": "instructions", "trial_index": 1, "time_elapsed": 78626, "internal_node_id": "0.0-1.0"}}, {"uniqueid": "w20262211:a25964440", "current_trial": 2, "dateTime": 1693661331973, "trialdata": {"view_history": [{"page_index": 0, "viewing_time": 52946}, {"page_index": 1, "viewing_time": 19079}, {"page_index": 2, "viewing_time": 5464}, {"page_index": 3, "viewing_time": 9456}], "rt": 86945, "trial_id": "mouselab_instructions_1_misaligned", "trial_type": "instructions", "trial_index": 2, "time_elapsed": 165578, "internal_node_id": "0.0-2.0-1.0"}}, {"uniqueid": "w20262211:a25964440", "current_trial": 3, "dateTime": 1693661362665, "trialdata": {"revealed_states": [], "clicked_states": [], "num_clicks_accrued": [0, 0, 0, 0, 0, 0, 0, 0, 0, 0, 0, 0, 0], "stateRewards": ["", -10, 10, 10, 10, -10, 10, -10, 10, -10, 10, 10, 10, -10, 10, -10, -10, -10, -10, -10, 10, 10, -10, -10, -10, -10, 10, -10, -10, 10, 10, 10, -10, 10], "withholdReward": false, "trial_id": "practice_1", "block": "test", "trialIndex": 0, "score": 13.5, "costs": 0, "simulationMode": [null, null, null, null, null], "rewards": [-10, 10, 10, 10, -10], "path": ["0", "0", "1", "2", "3", "8", "9"], "rt": [1657, 517, 487, 177, 253], "actions": ["up", "up", "up", "left", "up"], "actionTimes": [11508, 12592, 13661, 14386, 15218], "queries": {"click": {"state": {"target": [], "time": []}, "edge": {"target": [], "time": []}}, "mouseover": {"state": {"target": [], "time": []}, "edge": {"target": [], "time": []}}, "mouseout": {"state": {"target": ["0"], "time": [8164]}, "edge": {"target": [], "time": []}}}, "displayed_time": "15.76", "trialTime": 28182, "trial_type": "mouselab-mdp", "trial_index": 3, "time_elapsed": 196270, "internal_node_id": "0.0-2.0-2.0-0.0"}}, {"uniqueid": "w20262211:a25964440", "current_trial": 4, "dateTime": 1693661377034, "trialdata": {"revealed_states": [], "clicked_states": [], "num_clicks_accrued": [0, 0, 0, 0, 0, 0, 0, 0, 0, 0, 0, 0, 0], "stateRewards": ["", -10, 10, -10, -10, -10, 10, -10, 10, 10, -10, 10, -10, -10, -10, -10, -10, -10, -10, 10, 10, -10, 10, 10, 10, -10, -10, 10, 10, 10, -10, 10, 10, -10], "withholdReward": false, "trial_id": "practice_2", "block": "test", "trialIndex": 1, "score": 13.5, "costs": 0, "simulationMode": [null, null, null, null, null], "rewards": [-10, 10, -10, 10, 10], "path": ["0", "0", "1", "2", "3", "8", "9"], "rt": [614, 273, 125, 166, 182], "actions": ["up", "up", "up", "left", "up"], "actionTimes": [4774, 5574, 6276, 7032, 7729], "queries": {"click": {"state": {"target": [], "time": []}, "edge": {"target": [], "time": []}}, "mouseover": {"state": {"target": [], "time": []}, "edge": {"target": [], "time": []}}, "mouseout": {"state": {"target": ["0"], "time": [3700]}, "edge": {"target": [], "time": []}}}, "displayed_time": "8.30", "trialTime": 13624, "trial_type": "mouselab-mdp", "trial_index": 4, "time_elapsed": 210639, "internal_node_id": "0.0-2.0-2.0-1.0"}}, {"uniqueid": "w20262211:a25964440", "current_trial": 5, "dateTime": 1693661425475, "trialdata": {"view_history": [{"page_index": 0, "viewing_time": 38089}, {"page_index": 1, "viewing_time": 10349}], "rt": 48438, "trial_id": "mouselab_instructions_2_misaligned", "trial_type": "instructions", "trial_index": 5, "time_elapsed": 259079, "internal_node_id": "0.0-2.0-3.0"}}, {"uniqueid": "w20262211:a25964440", "current_trial": 6, "dateTime": 1693661486001, "trialdata": {"rt": 60515, "response": {"Q0": "The cost for clicking on nodes may vary between nodes.", "Q1": "The better I perform the higher my bonus will be.", "Q2": "No, the amount of cash at each node of the web may be different each time.", "Q3": "To click on the least number of nodes.", "Q4": "Only after moving the spider.", "Q5": "3 seconds"}, "question_order": [0, 1, 2, 3, 4, 5], "correct": {"Q0": "The cost for clicking on nodes may vary between nodes.", "Q1": "The better I perform the higher my bonus will be.", "Q2": "No, the amount of cash at each node of the web may be different each time.", "Q3": "To get the highest total score.", "Q4": "Only before moving the spider.", "Q5": "3 seconds"}, "trial_id": "mouselab_quiz_misaligned", "trial_type": "survey-multi-choice", "trial_index": 6, "time_elapsed": 319606, "internal_node_id": "0.0-2.0-4.0"}}, {"uniqueid": "w20262211:a25964440", "current_trial": 7, "dateTime": 1693661501660, "trialdata": {"success": true, "trial_type": "fullscreen", "trial_index": 7, "time_elapsed": 335265, "internal_node_id": "0.0-2.1-0.1-0.1"}}, {"uniqueid": "w20262211:a25964440", "current_trial": 8, "dateTime": 1693661678061, "trialdata": {"view_history": [{"page_index": 0, "viewing_time": 87148}, {"page_index": 1, "viewing_time": 53991}, {"page_index": 2, "viewing_time": 17160}, {"page_index": 3, "viewing_time": 18097}], "rt": 176397, "trial_id": "mouselab_instructions_1_misaligned", "trial_type": "instructions", "trial_index": 8, "time_elapsed": 511666, "internal_node_id": "0.0-2.1-1.1"}}, {"uniqueid": "w20262211:a25964440", "current_trial": 9, "dateTime": 1693661693584, "trialdata": {"revealed_states": [], "clicked_states": [], "num_clicks_accrued": [0, 0, 0, 0, 0, 0, 0, 0, 0, 0, 0, 0, 0], "stateRewards": ["", -10, 10, 10, 10, -10, 10, -10, 10, -10, 10, 10, 10, -10, 10, -10, -10, -10, -10, -10, 10, 10, -10, -10, -10, -10, 10, -10, -10, 10, 10, 10, -10, 10], "withholdReward": false, "trial_id": "practice_1", "block": "test", "trialIndex": 2, "score": 13.5, "costs": 0, "simulationMode": [null, null, null, null, null], "rewards": [-10, 10, 10, 10, -10], "path": ["0", "0", "1", "2", "3", "8", "9"], "rt": [1546, 676, 623, 269, 219], "actions": ["up", "up", "up", "left", "up"], "actionTimes": [4033, 5286, 6450, 7282, 8062], "queries": {"click": {"state": {"target": [], "time": []}, "edge": {"target": [], "time": []}}, "mouseover": {"state": {"target": [], "time": []}, "edge": {"target": [], "time": []}}, "mouseout": {"state": {"target": [], "time": []}, "edge": {"target": [], "time": []}}}, "displayed_time": "8.62", "trialTime": 14334, "trial_type": "mouselab-mdp", "trial_index": 9, "time_elapsed": 527189, "internal_node_id": "0.0-2.1-2.1-0.1"}}, {"uniqueid": "w20262211:a25964440", "current_trial": 10, "dateTime": 1693661705069, "trialdata": {"revealed_states": [], "clicked_states": [], "num_clicks_accrued": [0, 0, 0, 0, 0, 0, 0, 0, 0, 0, 0, 0, 0], "stateRewards": ["", -10, 10, -10, -10, -10, 10, -10, 10, 10, -10, 10, -10, -10, -10, -10, -10, -10, -10, 10, 10, -10, 10, 10, 10, -10, -10, 10, 10, 10, -10, 10, 10, -10], "withholdReward": false, "trial_id": "practice_2", "block": "test", "trialIndex": 3, "score": 13.5, "costs": 0, "simulationMode": [null, null, null, null, null], "rewards": [-10, 10, -10, 10, 10], "path": ["0", "0", "1", "2", "3", "8", "9"], "rt": [653, 310, 253, 124, 169], "actions": ["up", "up", "up", "left", "up"], "actionTimes": [4183, 5080, 5860, 6530, 7277], "queries": {"click": {"state": {"target": [], "time": []}, "edge": {"target": [], "time": []}}, "mouseover": {"state": {"target": [], "time": []}, "edge": {"target": [], "time": []}}, "mouseout": {"state": {"target": [], "time": []}, "edge": {"target": [], "time": []}}}, "displayed_time": "7.81", "trialTime": 9467, "trial_type": "mouselab-mdp", "trial_index": 10, "time_elapsed": 538674, "internal_node_id": "0.0-2.1-2.1-1.1"}}, {"uniqueid": "w20262211:a25964440", "current_trial": 11, "dateTime": 1693661751621, "trialdata": {"view_history": [{"page_index": 0, "viewing_time": 31181}, {"page_index": 1, "viewing_time": 15366}], "rt": 46547, "trial_id": "mouselab_instructions_2_misaligned", "trial_type": "instructions", "trial_index": 11, "time_elapsed": 585225, "internal_node_id": "0.0-2.1-3.1"}}, {"uniqueid": "w20262211:a25964440", "current_trial": 12, "dateTime": 1693662040880, "trialdata": {"rt": 289250, "response": {"Q0": "The cost for clicking on nodes may vary between nodes.", "Q1": "The better I perform the higher my bonus will be.", "Q2": "No, the amount of cash at each node of the web may be different each time.", "Q3": "To get the highest total score.", "Q4": "Only before moving the spider.", "Q5": "3 seconds"}, "question_order": [0, 1, 2, 3, 4, 5], "correct": {"Q0": "The cost for clicking on nodes may vary between nodes.", "Q1": "The better I perform the higher my bonus will be.", "Q2": "No, the amount of cash at each node of the web may be different each time.", "Q3": "To get the highest total score.", "Q4": "Only before moving the spider.", "Q5": "3 seconds"}, "trial_id": "mouselab_quiz_misaligned", "trial_type": "survey-multi-choice", "trial_index": 12, "time_elapsed": 874485, "internal_node_id": "0.0-2.1-4.1"}}, {"uniqueid": "w20262211:a25964440", "current_trial": 13, "dateTime": 1693662066030, "trialdata": {"rt": 25133, "response": {"Q0": "No"}, "question_order": [0], "trial_id": "repeat_check", "trial_type": "survey-multi-choice", "trial_index": 13, "time_elapsed": 899635, "internal_node_id": "0.0-4.0-0.0"}}, {"uniqueid": "w20262211:a25964440", "current_trial": 14, "dateTime": 1693662086904, "trialdata": {"rt": 20861, "stimulus": "\n<h1> Get ready to start the game! </h1>\n\nThank you for reading the instructions. Get ready start with the 40 rounds of this game.\n<br><br>\nIf you need to take a break, feel free to take one after the end of a round, before continuing to the next one.\n<br><br>\nRemember, the more money the spider gets, the bigger your bonus will be!\n<br><br>\n<div style='text-align: center;'>Press <code>space</code> to begin.</div>\n\n<br><br>\n(If, at any point, the <code>space</code> key does not take you to the next page, click once on the text and try again.)", "response": " ", "trial_id": "mdp_ready", "trial_type": "html-keyboard-response", "trial_index": 14, "time_elapsed": 920509, "internal_node_id": "0.0-6.0-0.0"}}, {"uniqueid": "w20262211:a25964440", "current_trial": 15, "dateTime": 1693662107836, "trialdata": {"revealed_states": [], "clicked_states": [], "num_clicks_accrued": [0, 0, 0, 0, 0, 0, 0, 0, 0, 0, 0, 0, 0], "stateRewards": ["", -2, -4, -8, 8, 63, -50, -19, -7, -17, -31, 31, 1, 3, -5, 12, -35, -63, -29, -4, -17, -75, -79, -2, -3, -2, 8, -3, -85, 10, -2, -82, -82, 56], "withholdReward": false, "trial_id": "mdp_trial_1", "block": "test", "trialIndex": 4, "score": 57, "costs": 0, "simulationMode": [null, null, null, null, null], "rewards": [-2, -4, -8, 8, 63], "path": ["0", "0", "1", "2", "3", "4", "5"], "rt": [37, 423, 540, 245, 308], "actions": ["up", "up", "up", "right", "up"], "actionTimes": [4251, 5251, 6364, 7159, 8019], "queries": {"click": {"state": {"target": [], "time": []}, "edge": {"target": [], "time": []}}, "mouseover": {"state": {"target": [], "time": []}, "edge": {"target": [], "time": []}}, "mouseout": {"state": {"target": ["26", "28", "28", "0", "1", "7", "4"], "time": [1880, 1948, 2245, 14721, 14771, 15170, 15493]}, "edge": {"target": [], "time": []}}}, "displayed_time": "18.46", "trialTime": 19441, "trial_type": "mouselab-mdp", "trial_index": 15, "time_elapsed": 941441, "internal_node_id": "0.0-6.0-1.0-0.0"}}, {"uniqueid": "w20262211:a25964440", "current_trial": 16, "dateTime": 1693662134449, "trialdata": {"revealed_states": [], "clicked_states": [], "num_clicks_accrued": [0, 0, 0, 0, 0, 0, 0, 0, 0, 0, 0, 0, 0], "stateRewards": ["", -1, 4, -6, -5, -22, -38, -38, -2, -56, 88, 14, -1, -1, -7, -6, 61, -60, 21, 11, 57, 31, -30, -2, -2, 6, -9, -44, -70, -44, -15, 34, 16, -78], "withholdReward": false, "trial_id": "mdp_trial_2", "block": "test", "trialIndex": 5, "score": -61, "costs": 0, "simulationMode": [null, null, null, null, null], "rewards": [-1, 4, -6, -2, -56], "path": ["0", "0", "1", "2", "3", "8", "9"], "rt": [107, 220, 625, 78, 234], "actions": ["up", "up", "up", "left", "up"], "actionTimes": [5975, 6775, 7978, 8636, 9432], "queries": {"click": {"state": {"target": [], "time": []}, "edge": {"target": [], "time": []}}, "mouseover": {"state": {"target": [], "time": []}, "edge": {"target": [], "time": []}}, "mouseout": {"state": {"target": ["5", "5", "7", "0", "0", "1", "2", "9", "3", "9", "9", "8", "10", "1"], "time": [3695, 4014, 4062, 4449, 11651, 11815, 11866, 12851, 13080, 20361, 22201, 22356, 22678, 23044]}, "edge": {"target": [], "time": []}}}, "displayed_time": "20.13", "trialTime": 25744, "trial_type": "mouselab-mdp", "trial_index": 16, "time_elapsed": 968053, "internal_node_id": "0.0-6.0-1.0-1.0"}}, {"uniqueid": "w20262211:a25964440", "current_trial": 17, "dateTime": 1693662160638, "trialdata": {"revealed_states": [], "clicked_states": [], "num_clicks_accrued": [0, 0, 0, 0, 0, 0, 0, 0, 0, 0, 0, 0, 0], "stateRewards": ["", 2, -4, -8, -15, 71, -43, -41, 7, -17, 20, 67, -1, -1, -4, 6, 37, -24, -47, 9, 34, 57, 45, 1, 2, -4, -5, -23, 88, -5, 13, -40, 43, 44], "withholdReward": false, "trial_id": "mdp_trial_3", "block": "test", "trialIndex": 6, "score": 46, "costs": 0, "simulationMode": [null, null, null, null, null], "rewards": [2, -4, -8, -15, 71], "path": ["0", "0", "1", "2", "3", "4", "5"], "rt": [50, 317, 3596, 77, 135], "actions": ["up", "up", "up", "right", "up"], "actionTimes": [6381, 7278, 11406, 12055, 12741], "queries": {"click": {"state": {"target": [], "time": []}, "edge": {"target": [], "time": []}}, "mouseover": {"state": {"target": [], "time": []}, "edge": {"target": [], "time": []}}, "mouseout": {"state": {"target": ["0", "0", "0", "2", "4", "5", "5", "5"], "time": [4090, 4446, 16497, 17025, 17080, 17571, 19993, 22050]}, "edge": {"target": [], "time": []}}}, "displayed_time": "20.74", "trialTime": 25101, "trial_type": "mouselab-mdp", "trial_index": 17, "time_elapsed": 994243, "internal_node_id": "0.0-6.0-1.0-2.0"}}, {"uniqueid": "w20262211:a25964440", "current_trial": 18, "dateTime": 1693662182639, "trialdata": {"revealed_states": [], "clicked_states": [], "num_clicks_accrued": [0, 0, 0, 0, 0, 0, 0, 0, 0, 0, 0, 0, 0], "stateRewards": ["", 1, -3, -6, -5, 47, 80, -29, 11, -71, 10, -29, -2, 3, -6, 12, 2, -78, -6, 8, 34, -16, -5, -1, 3, 3, -13, 84, -36, -62, -3, -27, 66, 15], "withholdReward": false, "trial_id": "mdp_trial_4", "block": "test", "trialIndex": 7, "score": 34, "costs": 0, "simulationMode": [null, null, null, null, null], "rewards": [1, -3, -6, -5, 47], "path": ["0", "0", "1", "2", "3", "4", "5"], "rt": [867, 555, 228, 68, 172], "actions": ["up", "up", "up", "right", "up"], "actionTimes": [3315, 4401, 5170, 5786, 6508], "queries": {"click": {"state": {"target": [], "time": []}, "edge": {"target": [], "time": []}}, "mouseover": {"state": {"target": [], "time": []}, "edge": {"target": [], "time": []}}, "mouseout": {"state": {"target": ["0"], "time": [1782]}, "edge": {"target": [], "time": []}}}, "displayed_time": "16.83", "trialTime": 20832, "trial_type": "mouselab-mdp", "trial_index": 18, "time_elapsed": 1016244, "internal_node_id": "0.0-6.0-1.0-3.0"}}, {"uniqueid": "w20262211:a25964440", "current_trial": 19, "dateTime": 1693662264127, "trialdata": {"revealed_states": [], "clicked_states": [], "num_clicks_accrued": [0, 0, 0, 0, 0, 0, 0, 0, 0, 0, 0, 0, 0], "stateRewards": ["", 2, 3, 3, 10, 19, -21, 6, 9, 54, 68, 16, 2, 2, -6, -8, 40, -2, -75, -2, -42, 55, 59, -1, 2, 4, -14, 11, -34, -30, -6, 61, -53, 13], "withholdReward": false, "trial_id": "mdp_trial_5", "block": "test", "trialIndex": 8, "score": 37, "costs": 0, "simulationMode": [null, null, null, null, null], "rewards": [2, 3, 3, 10, 19], "path": ["0", "0", "1", "2", "3", "4", "5"], "rt": [40, 250, 2358, 474, 388], "actions": ["up", "up", "up", "right", "up"], "actionTimes": [4580, 5421, 8325, 9371, 10314], "queries": {"click": {"state": {"target": [], "time": []}, "edge": {"target": [], "time": []}}, "mouseover": {"state": {"target": [], "time": []}, "edge": {"target": [], "time": []}}, "mouseout": {"state": {"target": ["0", "0", "23", "0", "1", "22", "0", "0", "1", "0", "4", "5", "5", "5", "4", "1", "0", "1", "7", "4"], "time": [3926, 22907, 22971, 38568, 39117, 39318, 40130, 53436, 54214, 57247, 57343, 57748, 59262, 62303, 62351, 62664, 69914, 69979, 70598, 70812]}, "edge": {"target": [], "time": []}}}, "displayed_time": "19.01", "trialTime": 80516, "trial_type": "mouselab-mdp", "trial_index": 19, "time_elapsed": 1097732, "internal_node_id": "0.0-6.0-1.0-4.0"}}, {"uniqueid": "w20262211:a25964440", "current_trial": 20, "dateTime": 1693662288107, "trialdata": {"revealed_states": [], "clicked_states": [], "num_clicks_accrued": [0, 0, 0, 0, 0, 0, 0, 0, 0, 0, 0, 0, 0], "stateRewards": ["", -2, 1, -7, -8, -37, -76, -87, 11, 30, -63, 80, -1, 4, 2, -1, 42, 17, 52, -3, -75, -80, -68, 2, -3, -5, -15, -48, 82, 24, -7, 5, -22, -71], "withholdReward": false, "trial_id": "mdp_trial_6", "block": "test", "trialIndex": 9, "score": -53, "costs": 0, "simulationMode": [null, null, null, null, null], "rewards": [-2, 1, -7, -8, -37], "path": ["0", "0", "1", "2", "3", "4", "5"], "rt": [169, 271, 711, 34, 161], "actions": ["up", "up", "up", "right", "up"], "actionTimes": [4387, 5218, 6476, 7058, 7799], "queries": {"click": {"state": {"target": [], "time": []}, "edge": {"target": [], "time": []}}, "mouseover": {"state": {"target": [], "time": []}, "edge": {"target": [], "time": []}}, "mouseout": {"state": {"target": ["4", "7", "0", "17"], "time": [2265, 2429, 12142, 12199]}, "edge": {"target": [], "time": []}}}, "displayed_time": "18.61", "trialTime": 23199, "trial_type": "mouselab-mdp", "trial_index": 20, "time_elapsed": 1121712, "internal_node_id": "0.0-6.0-1.0-5.0"}}, {"uniqueid": "w20262211:a25964440", "current_trial": 21, "dateTime": 1693662308958, "trialdata": {"revealed_states": [], "clicked_states": [], "num_clicks_accrued": [0, 0, 0, 0, 0, 0, 0, 0, 0, 0, 0, 0, 0], "stateRewards": ["", -2, 1, -3, -16, -39, -52, 30, -7, -41, -59, 11, 2, 1, 8, 2, -11, -26, -42, -13, 87, -59, -48, -1, -1, -1, 16, -79, 31, 50, -1, -84, 34, -82], "withholdReward": false, "trial_id": "mdp_trial_7", "block": "test", "trialIndex": 10, "score": -59, "costs": 0, "simulationMode": [null, null, null, null, null], "rewards": [-2, 1, -3, -16, -39], "path": ["0", "0", "1", "2", "3", "4", "5"], "rt": [3922, 112, 120, 441, 283], "actions": ["up", "up", "up", "right", "up"], "actionTimes": [7531, 8179, 8844, 9824, 10648], "queries": {"click": {"state": {"target": [], "time": []}, "edge": {"target": [], "time": []}}, "mouseover": {"state": {"target": ["12", "13", "14"], "time": [6598, 6643, 6695]}, "edge": {"target": [], "time": []}}, "mouseout": {"state": {"target": ["6", "12", "13"], "time": [2314, 6632, 6685]}, "edge": {"target": [], "time": []}}}, "displayed_time": "17.95", "trialTime": 20123, "trial_type": "mouselab-mdp", "trial_index": 21, "time_elapsed": 1142563, "internal_node_id": "0.0-6.0-1.0-6.0"}}, {"uniqueid": "w20262211:a25964440", "current_trial": 22, "dateTime": 1693662328876, "trialdata": {"revealed_states": [], "clicked_states": [], "num_clicks_accrued": [0, 0, 0, 0, 0, 0, 0, 0, 0, 0, 0, 0, 0], "stateRewards": ["", 2, -3, -4, -1, 25, -16, 16, 10, -71, -20, -55, 1, 3, -4, -9, 1, 32, 11, -6, 32, -50, -41, -1, 4, 4, -8, 7, -81, 70, 2, -52, 45, -10], "withholdReward": false, "trial_id": "mdp_trial_8", "block": "test", "trialIndex": 11, "score": -66, "costs": 0, "simulationMode": [null, null, null, null, null], "rewards": [2, -3, -4, 10, -71], "path": ["0", "0", "1", "2", "3", "8", "9"], "rt": [612, 186, 249, 379, 166], "actions": ["up", "up", "up", "left", "up"], "actionTimes": [4483, 5219, 6013, 6941, 7686], "queries": {"click": {"state": {"target": [], "time": []}, "edge": {"target": [], "time": []}}, "mouseover": {"state": {"target": [], "time": []}, "edge": {"target": [], "time": []}}, "mouseout": {"state": {"target": ["14", "13", "12", "0", "23"], "time": [1693, 2093, 2129, 2166, 2494]}, "edge": {"target": [], "time": []}}}, "displayed_time": "18.03", "trialTime": 19076, "trial_type": "mouselab-mdp", "trial_index": 22, "time_elapsed": 1162481, "internal_node_id": "0.0-6.0-1.0-7.0"}}, {"uniqueid": "w20262211:a25964440", "current_trial": 23, "dateTime": 1693662350751, "trialdata": {"revealed_states": [], "clicked_states": [], "num_clicks_accrued": [0, 0, 0, 0, 0, 0, 0, 0, 0, 0, 0, 0, 0], "stateRewards": ["", -1, 3, 8, 10, -86, 61, -36, 10, 17, -60, 24, -1, -3, 3, 11, 50, 60, 33, -3, -20, 58, -6, 1, -4, -4, 13, -70, -71, 43, 14, 52, 82, -11], "withholdReward": false, "trial_id": "mdp_trial_9", "block": "test", "trialIndex": 12, "score": -66, "costs": 0, "simulationMode": [null, null, null, null, null], "rewards": [-1, 3, 8, 10, -86], "path": ["0", "0", "1", "2", "3", "4", "5"], "rt": [1255, 154, 57, 105, 135], "actions": ["up", "up", "up", "right", "up"], "actionTimes": [4076, 4798, 5421, 6093, 6797], "queries": {"click": {"state": {"target": [], "time": []}, "edge": {"target": [], "time": []}}, "mouseover": {"state": {"target": [], "time": []}, "edge": {"target": [], "time": []}}, "mouseout": {"state": {"target": ["0"], "time": [1507]}, "edge": {"target": [], "time": []}}}, "displayed_time": "17.18", "trialTime": 20871, "trial_type": "mouselab-mdp", "trial_index": 23, "time_elapsed": 1184356, "internal_node_id": "0.0-6.0-1.0-8.0"}}, {"uniqueid": "w20262211:a25964440", "current_trial": 24, "dateTime": 1693662374706, "trialdata": {"revealed_states": [], "clicked_states": [], "num_clicks_accrued": [0, 0, 0, 0, 0, 0, 0, 0, 0, 0, 0, 0, 0], "stateRewards": ["", 2, 3, -6, -5, -3, 55, 40, 11, 61, 11, 51, 2, -4, -6, 9, -25, 29, -15, -6, 7, -77, -2, -2, -4, 1, 14, -43, -1, 56, -12, -54, 41, -74], "withholdReward": false, "trial_id": "mdp_trial_10", "block": "test", "trialIndex": 13, "score": 30, "costs": 0, "simulationMode": [null, null, null, null, null], "rewards": [2, -4, -6, 9, 29], "path": ["0", "0", "12", "13", "14", "15", "17"], "rt": [913, 151, 37, 204, 72], "actions": ["right", "right", "right", "up", "right"], "actionTimes": [5212, 5910, 6496, 7266, 7881], "queries": {"click": {"state": {"target": [], "time": []}, "edge": {"target": [], "time": []}}, "mouseover": {"state": {"target": [], "time": []}, "edge": {"target": [], "time": []}}, "mouseout": {"state": {"target": ["0", "0"], "time": [4339, 21774]}, "edge": {"target": [], "time": []}}}, "displayed_time": "18.73", "trialTime": 22267, "trial_type": "mouselab-mdp", "trial_index": 24, "time_elapsed": 1208310, "internal_node_id": "0.0-6.0-1.0-9.0"}}, {"uniqueid": "w20262211:a25964440", "current_trial": 25, "dateTime": 1693662399180, "trialdata": {"revealed_states": [], "clicked_states": [], "num_clicks_accrued": [0, 0, 0, 0, 0, 0, 0, 0, 0, 0, 0, 0, 0], "stateRewards": ["", -2, -3, -6, -7, 9, 16, 65, 5, -41, 20, -25, -1, -4, 1, -11, -49, -4, 71, 1, 39, -62, 52, -2, -3, 7, -9, -28, -70, 84, 8, 24, -58, 82], "withholdReward": false, "trial_id": "mdp_trial_11", "block": "test", "trialIndex": 14, "score": -19, "costs": 0, "simulationMode": [null, null, null, null, null], "rewards": [-1, -4, 1, -11, -4], "path": ["0", "0", "12", "13", "14", "15", "17"], "rt": [189, 72, 168, 222, 117], "actions": ["right", "right", "right", "up", "right"], "actionTimes": [2297, 2903, 3637, 4438, 5117], "queries": {"click": {"state": {"target": [], "time": []}, "edge": {"target": [], "time": []}}, "mouseover": {"state": {"target": [], "time": []}, "edge": {"target": [], "time": []}}, "mouseout": {"state": {"target": ["1"], "time": [757]}, "edge": {"target": [], "time": []}}}, "displayed_time": "16.51", "trialTime": 23559, "trial_type": "mouselab-mdp", "trial_index": 25, "time_elapsed": 1232785, "internal_node_id": "0.0-6.0-1.0-10.0"}}, {"uniqueid": "w20262211:a25964440", "current_trial": 26, "dateTime": 1693662419205, "trialdata": {"revealed_states": [], "clicked_states": [], "num_clicks_accrued": [0, 0, 0, 0, 0, 0, 0, 0, 0, 0, 0, 0, 0], "stateRewards": ["", -1, 4, -3, 3, 57, -61, 5, -11, 23, -1, 34, -2, -4, -1, -13, 27, 38, -36, 4, -45, 21, 88, 1, -2, -1, 1, -69, -5, -78, -12, -9, 38, -54], "withholdReward": false, "trial_id": "mdp_trial_12", "block": "test", "trialIndex": 15, "score": 18, "costs": 0, "simulationMode": [null, null, null, null, null], "rewards": [-2, -4, -1, -13, 38], "path": ["0", "0", "12", "13", "14", "15", "17"], "rt": [2336, 245, 1355, 390, 161], "actions": ["right", "right", "right", "up", "right"], "actionTimes": [4155, 4972, 6867, 7793, 8551], "queries": {"click": {"state": {"target": [], "time": []}, "edge": {"target": [], "time": []}}, "mouseover": {"state": {"target": [], "time": []}, "edge": {"target": [], "time": []}}, "mouseout": {"state": {"target": [], "time": []}, "edge": {"target": [], "time": []}}}, "displayed_time": "16.03", "trialTime": 19215, "trial_type": "mouselab-mdp", "trial_index": 26, "time_elapsed": 1252810, "internal_node_id": "0.0-6.0-1.0-11.0"}}, {"uniqueid": "w20262211:a25964440", "current_trial": 27, "dateTime": 1693662442111, "trialdata": {"revealed_states": [], "clicked_states": [], "num_clicks_accrued": [0, 0, 0, 0, 0, 0, 0, 0, 0, 0, 0, 0, 0], "stateRewards": ["", 2, 4, 7, -6, -76, -81, 2, 5, -66, -3, 36, -2, -4, 6, -2, -69, 4, -49, -6, 67, 38, -67, 2, 1, 1, 6, -68, -21, 52, -16, -16, 6, -70], "withholdReward": false, "trial_id": "mdp_trial_13", "block": "test", "trialIndex": 16, "score": 2, "costs": 0, "simulationMode": [null, null, null, null, null], "rewards": [-2, -4, 6, -2, 4], "path": ["0", "0", "12", "13", "14", "15", "17"], "rt": [1646, 384, 146, 613, 363], "actions": ["right", "right", "right", "up", "right"], "actionTimes": [3995, 4954, 5659, 6840, 7730], "queries": {"click": {"state": {"target": [], "time": []}, "edge": {"target": [], "time": []}}, "mouseover": {"state": {"target": [], "time": []}, "edge": {"target": [], "time": []}}, "mouseout": {"state": {"target": ["0"], "time": [10327]}, "edge": {"target": [], "time": []}}}, "displayed_time": "16.66", "trialTime": 21890, "trial_type": "mouselab-mdp", "trial_index": 27, "time_elapsed": 1275716, "internal_node_id": "0.0-6.0-1.0-12.0"}}, {"uniqueid": "w20262211:a25964440", "current_trial": 28, "dateTime": 1693662477582, "trialdata": {"revealed_states": [], "clicked_states": [], "num_clicks_accrued": [0, 0, 0, 0, 0, 0, 0, 0, 0, 0, 0, 0, 0], "stateRewards": ["", -1, 2, -2, 13, -56, -28, 10, 14, 53, -80, -29, 1, -3, -3, -14, 14, 9, -40, -9, 18, 18, 48, 1, 1, 1, -9, 64, -39, -9, 7, -52, -78, 7], "withholdReward": false, "trial_id": "mdp_trial_14", "block": "test", "trialIndex": 17, "score": -15, "costs": 0, "simulationMode": [null, null, null, null, null], "rewards": [1, 1, 1, -9, -9], "path": ["0", "0", "23", "24", "25", "26", "29"], "rt": [1723, 214, 271, 1080, 365], "actions": ["left", "left", "left", "up", "left"], "actionTimes": [7772, 8533, 9363, 11026, 11937], "queries": {"click": {"state": {"target": [], "time": []}, "edge": {"target": [], "time": []}}, "mouseover": {"state": {"target": [], "time": []}, "edge": {"target": [], "time": []}}, "mouseout": {"state": {"target": ["0"], "time": [4296]}, "edge": {"target": [], "time": []}}}, "displayed_time": "20.29", "trialTime": 34198, "trial_type": "mouselab-mdp", "trial_index": 28, "time_elapsed": 1311187, "internal_node_id": "0.0-6.0-1.0-13.0"}}, {"uniqueid": "w20262211:a25964440", "current_trial": 29, "dateTime": 1693662498757, "trialdata": {"revealed_states": [], "clicked_states": [], "num_clicks_accrued": [0, 0, 0, 0, 0, 0, 0, 0, 0, 0, 0, 0, 0], "stateRewards": ["", -2, 2, -4, -4, -59, 88, 62, -3, 69, -15, -34, 1, -2, -5, 7, -54, -20, 78, -16, -74, -53, -21, 2, -4, 2, 13, -8, -44, 26, 9, 72, 4, 17], "withholdReward": false, "trial_id": "mdp_trial_15", "block": "test", "trialIndex": 18, "score": -19, "costs": 0, "simulationMode": [null, null, null, null, null], "rewards": [1, -2, -5, 7, -20], "path": ["0", "0", "12", "13", "14", "15", "17"], "rt": [632, 325, 197, 582, 194], "actions": ["right", "right", "right", "up", "right"], "actionTimes": [4039, 4893, 5640, 6750, 7511], "queries": {"click": {"state": {"target": [], "time": []}, "edge": {"target": [], "time": []}}, "mouseover": {"state": {"target": [], "time": []}, "edge": {"target": [], "time": []}}, "mouseout": {"state": {"target": ["2", "1", "23", "0"], "time": [1364, 1403, 1539, 2084]}, "edge": {"target": [], "time": []}}}, "displayed_time": "17.55", "trialTime": 20219, "trial_type": "mouselab-mdp", "trial_index": 29, "time_elapsed": 1332361, "internal_node_id": "0.0-6.0-1.0-14.0"}}, {"uniqueid": "w20262211:a25964440", "current_trial": 30, "dateTime": 1693662537445, "trialdata": {"revealed_states": [], "clicked_states": [], "num_clicks_accrued": [0, 0, 0, 0, 0, 0, 0, 0, 0, 0, 0, 0, 0], "stateRewards": ["", 2, -3, -8, 14, -7, -51, 73, 2, 36, 36, -43, -1, 3, -4, 1, 6, 87, -65, 15, 61, -42, -83, -1, 3, -2, -7, 30, -48, 35, 13, 26, 60, 78], "withholdReward": false, "trial_id": "mdp_trial_16", "block": "test", "trialIndex": 19, "score": -29, "costs": 0, "simulationMode": [null, null, null, null, null], "rewards": [-1, 3, -4, 15, -42], "path": ["0", "0", "12", "13", "14", "19", "21"], "rt": [635, 129, 94, 312, 71], "actions": ["right", "right", "right", "down", "down"], "actionTimes": [3200, 3887, 4550, 5403, 6068], "queries": {"click": {"state": {"target": [], "time": []}, "edge": {"target": [], "time": []}}, "mouseover": {"state": {"target": [], "time": []}, "edge": {"target": [], "time": []}}, "mouseout": {"state": {"target": ["0"], "time": [20579]}, "edge": {"target": [], "time": []}}}, "displayed_time": "16.97", "trialTime": 37882, "trial_type": "mouselab-mdp", "trial_index": 30, "time_elapsed": 1371050, "internal_node_id": "0.0-6.0-1.0-15.0"}}, {"uniqueid": "w20262211:a25964440", "current_trial": 31, "dateTime": 1693662560071, "trialdata": {"revealed_states": [], "clicked_states": [], "num_clicks_accrued": [0, 0, 0, 0, 0, 0, 0, 0, 0, 0, 0, 0, 0], "stateRewards": ["", -2, 2, -1, -6, 22, 6, 6, -5, 70, -42, 65, 1, 3, 5, -6, -67, -9, 3, 14, 7, -62, -13, -2, 4, 1, 16, 42, -21, -52, -8, 32, 53, 81], "withholdReward": false, "trial_id": "mdp_trial_17", "block": "test", "trialIndex": 20, "score": 15, "costs": 0, "simulationMode": [null, null, null, null, null], "rewards": [-2, 2, -1, -6, 22], "path": ["0", "0", "1", "2", "3", "4", "5"], "rt": [84, 365, 2547, 477, 223], "actions": ["up", "up", "up", "right", "up"], "actionTimes": [2754, 3668, 6790, 7800, 8593], "queries": {"click": {"state": {"target": [], "time": []}, "edge": {"target": [], "time": []}}, "mouseover": {"state": {"target": [], "time": []}, "edge": {"target": [], "time": []}}, "mouseout": {"state": {"target": ["2", "1"], "time": [903, 1001]}, "edge": {"target": [], "time": []}}}, "displayed_time": "17.26", "trialTime": 21958, "trial_type": "mouselab-mdp", "trial_index": 31, "time_elapsed": 1393675, "internal_node_id": "0.0-6.0-1.0-16.0"}}, {"uniqueid": "w20262211:a25964440", "current_trial": 32, "dateTime": 1693662580826, "trialdata": {"revealed_states": [], "clicked_states": [], "num_clicks_accrued": [0, 0, 0, 0, 0, 0, 0, 0, 0, 0, 0, 0, 0], "stateRewards": ["", -2, 2, 3, -7, -31, -33, 29, -8, -57, 50, -83, -1, -1, 5, 13, -23, -62, 25, 5, -66, -85, 14, 1, -2, -1, 16, 71, 33, -19, -14, 5, -43, 79], "withholdReward": false, "trial_id": "mdp_trial_18", "block": "test", "trialIndex": 21, "score": -35, "costs": 0, "simulationMode": [null, null, null, null, null], "rewards": [-2, 2, 3, -7, -31], "path": ["0", "0", "1", "2", "3", "4", "5"], "rt": [735, 276, 282, 122, 223], "actions": ["up", "up", "up", "right", "up"], "actionTimes": [4750, 5549, 6372, 7051, 7828], "queries": {"click": {"state": {"target": [], "time": []}, "edge": {"target": [], "time": []}}, "mouseover": {"state": {"target": [], "time": []}, "edge": {"target": [], "time": []}}, "mouseout": {"state": {"target": ["2", "1"], "time": [2299, 2377]}, "edge": {"target": [], "time": []}}}, "displayed_time": "18.39", "trialTime": 19877, "trial_type": "mouselab-mdp", "trial_index": 32, "time_elapsed": 1414431, "internal_node_id": "0.0-6.0-1.0-17.0"}}, {"uniqueid": "w20262211:a25964440", "current_trial": 33, "dateTime": 1693662601488, "trialdata": {"revealed_states": [], "clicked_states": [], "num_clicks_accrued": [0, 0, 0, 0, 0, 0, 0, 0, 0, 0, 0, 0, 0], "stateRewards": ["", -2, -1, 3, -3, 71, -58, -21, 7, -10, -75, -37, 2, 4, -1, -12, -79, -29, -48, 3, -41, -10, -30, -1, -2, 1, -15, 13, 66, 22, -1, -42, -86, -55], "withholdReward": false, "trial_id": "mdp_trial_19", "block": "test", "trialIndex": 22, "score": -3, "costs": 0, "simulationMode": [null, null, null, null, null], "rewards": [-2, -1, 3, 7, -10], "path": ["0", "0", "1", "2", "3", "8", "9"], "rt": [1384, 196, 213, 130, 183], "actions": ["up", "up", "up", "left", "up"], "actionTimes": [3600, 4328, 5141, 5807, 6576], "queries": {"click": {"state": {"target": [], "time": []}, "edge": {"target": [], "time": []}}, "mouseover": {"state": {"target": [], "time": []}, "edge": {"target": [], "time": []}}, "mouseout": {"state": {"target": [], "time": []}, "edge": {"target": [], "time": []}}}, "displayed_time": "16.53", "trialTime": 19962, "trial_type": "mouselab-mdp", "trial_index": 33, "time_elapsed": 1435093, "internal_node_id": "0.0-6.0-1.0-18.0"}}, {"uniqueid": "w20262211:a25964440", "current_trial": 34, "dateTime": 1693662622945, "trialdata": {"revealed_states": [], "clicked_states": [], "num_clicks_accrued": [0, 0, 0, 0, 0, 0, 0, 0, 0, 0, 0, 0, 0], "stateRewards": ["", -2, 3, 8, -9, 59, 41, -50, -1, 82, 66, 33, 2, -2, 7, 8, 1, -38, 12, -16, 24, -37, 67, 1, 4, -2, 5, 35, -83, 28, 8, -27, 69, -64], "withholdReward": false, "trial_id": "mdp_trial_20", "block": "test", "trialIndex": 23, "score": 59, "costs": 0, "simulationMode": [null, null, null, null, null], "rewards": [-2, 3, 8, -9, 59], "path": ["0", "0", "1", "2", "3", "4", "5"], "rt": [1339, 323, 262, 99, 504], "actions": ["up", "up", "up", "right", "up"], "actionTimes": [3582, 4460, 5238, 5891, 6958], "queries": {"click": {"state": {"target": [], "time": []}, "edge": {"target": [], "time": []}}, "mouseover": {"state": {"target": [], "time": []}, "edge": {"target": [], "time": []}}, "mouseout": {"state": {"target": [], "time": []}, "edge": {"target": [], "time": []}}}, "displayed_time": "16.61", "trialTime": 20480, "trial_type": "mouselab-mdp", "trial_index": 34, "time_elapsed": 1456550, "internal_node_id": "0.0-6.0-1.0-19.0"}}, {"uniqueid": "w20262211:a25964440", "current_trial": 35, "dateTime": 1693662644255, "trialdata": {"revealed_states": [], "clicked_states": [], "num_clicks_accrued": [0, 0, 0, 0, 0, 0, 0, 0, 0, 0, 0, 0, 0], "stateRewards": ["", 1, 1, 7, -11, 80, -20, -53, -14, 3, 31, 27, 2, -1, -8, -10, 33, 41, 86, 9, 78, -37, -13, -1, -2, -6, -8, -80, 75, 4, -16, -49, -74, 24], "withholdReward": false, "trial_id": "mdp_trial_21", "block": "test", "trialIndex": 24, "score": -2, "costs": 0, "simulationMode": [null, null, null, null, null], "rewards": [1, 1, 7, -14, 3], "path": ["0", "0", "1", "2", "3", "8", "9"], "rt": [799, 303, 302, 386, 224], "actions": ["up", "up", "up", "left", "up"], "actionTimes": [3497, 4353, 5188, 6116, 6894], "queries": {"click": {"state": {"target": [], "time": []}, "edge": {"target": [], "time": []}}, "mouseover": {"state": {"target": [], "time": []}, "edge": {"target": [], "time": []}}, "mouseout": {"state": {"target": [], "time": []}, "edge": {"target": [], "time": []}}}, "displayed_time": "16.91", "trialTime": 19425, "trial_type": "mouselab-mdp", "trial_index": 35, "time_elapsed": 1477860, "internal_node_id": "0.0-6.0-1.0-20.0"}}, {"uniqueid": "w20262211:a25964440", "current_trial": 36, "dateTime": 1693662663884, "trialdata": {"revealed_states": [], "clicked_states": [], "num_clicks_accrued": [0, 0, 0, 0, 0, 0, 0, 0, 0, 0, 0, 0, 0], "stateRewards": ["", -2, -4, -6, 12, -58, -70, -80, 2, 16, -88, -62, 1, 2, -5, 11, 77, -35, -44, -5, 18, -83, 87, 1, -3, -5, 13, -44, -21, -86, 10, -52, 8, 29], "withholdReward": false, "trial_id": "mdp_trial_22", "block": "test", "trialIndex": 25, "score": -58, "costs": 0, "simulationMode": [null, null, null, null, null], "rewards": [-2, -4, -6, 12, -58], "path": ["0", "0", "1", "2", "3", "4", "5"], "rt": [1864, 58, 149, 186, 172], "actions": ["up", "up", "up", "right", "up"], "actionTimes": [4008, 4637, 5337, 6059, 6787], "queries": {"click": {"state": {"target": [], "time": []}, "edge": {"target": [], "time": []}}, "mouseover": {"state": {"target": [], "time": []}, "edge": {"target": [], "time": []}}, "mouseout": {"state": {"target": [], "time": []}, "edge": {"target": [], "time": []}}}, "displayed_time": "16.50", "trialTime": 18664, "trial_type": "mouselab-mdp", "trial_index": 36, "time_elapsed": 1497488, "internal_node_id": "0.0-6.0-1.0-21.0"}}, {"uniqueid": "w20262211:a25964440", "current_trial": 37, "dateTime": 1693662685280, "trialdata": {"revealed_states": [], "clicked_states": [], "num_clicks_accrued": [0, 0, 0, 0, 0, 0, 0, 0, 0, 0, 0, 0, 0], "stateRewards": ["", -1, 1, 8, -8, -49, 62, -78, 16, 28, -81, 78, -2, -3, -1, -4, 67, 49, -2, -13, -16, -39, 83, 1, -4, 4, -5, -20, 7, 84, 7, -32, -59, 19], "withholdReward": false, "trial_id": "mdp_trial_23", "block": "test", "trialIndex": 26, "score": 62, "costs": 0, "simulationMode": [null, null, null, null, null], "rewards": [-1, 1, 8, -8, 62], "path": ["0", "0", "1", "2", "3", "4", "6"], "rt": [108, 480, 168, 127, 480], "actions": ["up", "up", "up", "right", "right"], "actionTimes": [2997, 4064, 4817, 5482, 6530], "queries": {"click": {"state": {"target": [], "time": []}, "edge": {"target": [], "time": []}}, "mouseover": {"state": {"target": [], "time": []}, "edge": {"target": [], "time": []}}, "mouseout": {"state": {"target": ["2", "1"], "time": [464, 728]}, "edge": {"target": [], "time": []}}}, "displayed_time": "17.19", "trialTime": 19339, "trial_type": "mouselab-mdp", "trial_index": 37, "time_elapsed": 1518884, "internal_node_id": "0.0-6.0-1.0-22.0"}}, {"uniqueid": "w20262211:a25964440", "current_trial": 38, "dateTime": 1693662726995, "trialdata": {"revealed_states": [], "clicked_states": [], "num_clicks_accrued": [0, 0, 0, 0, 0, 0, 0, 0, 0, 0, 0, 0, 0], "stateRewards": ["", 2, -2, -8, 9, -20, 55, -58, 14, 42, 2, 36, 1, -3, -5, 5, -58, 57, 60, 16, 57, 30, -70, -2, 1, 3, 10, 59, 23, 77, -13, -26, 88, -72], "withholdReward": false, "trial_id": "mdp_trial_24", "block": "test", "trialIndex": 27, "score": 56, "costs": 0, "simulationMode": [null, null, null, null, null], "rewards": [2, -2, -8, 9, 55], "path": ["0", "0", "1", "2", "3", "4", "6"], "rt": [56, 194, 964, 212, 209], "actions": ["up", "up", "up", "right", "right"], "actionTimes": [16974, 17761, 19272, 20015, 20757], "queries": {"click": {"state": {"target": [], "time": []}, "edge": {"target": [], "time": []}}, "mouseover": {"state": {"target": [], "time": []}, "edge": {"target": [], "time": []}}, "mouseout": {"state": {"target": ["0", "0", "18"], "time": [924, 980, 13726]}, "edge": {"target": [], "time": []}}}, "displayed_time": "31.31", "trialTime": 40909, "trial_type": "mouselab-mdp", "trial_index": 38, "time_elapsed": 1560599, "internal_node_id": "0.0-6.0-1.0-23.0"}}, {"uniqueid": "w20262211:a25964440", "current_trial": 39, "dateTime": 1693662750282, "trialdata": {"revealed_states": [], "clicked_states": [], "num_clicks_accrued": [0, 0, 0, 0, 0, 0, 0, 0, 0, 0, 0, 0, 0], "stateRewards": ["", 2, -4, 7, 3, 23, -42, 4, 7, -81, -33, 7, -2, -4, 5, -1, 50, -57, -14, -13, -14, 44, 55, -2, -2, 5, -2, 33, 1, 57, -13, -7, 58, 87], "withholdReward": false, "trial_id": "mdp_trial_25", "block": "test", "trialIndex": 28, "score": -34, "costs": 0, "simulationMode": [null, null, null, null, null], "rewards": [2, -4, 7, 3, -42], "path": ["0", "0", "1", "2", "3", "4", "6"], "rt": [1029, 232, 457, 110, 197], "actions": ["up", "up", "up", "right", "right"], "actionTimes": [5298, 6086, 7106, 7775, 8502], "queries": {"click": {"state": {"target": [], "time": []}, "edge": {"target": [], "time": []}}, "mouseover": {"state": {"target": [], "time": []}, "edge": {"target": [], "time": []}}, "mouseout": {"state": {"target": ["2", "2", "1"], "time": [1518, 1970, 2165]}, "edge": {"target": [], "time": []}}}, "displayed_time": "18.50", "trialTime": 22309, "trial_type": "mouselab-mdp", "trial_index": 39, "time_elapsed": 1583887, "internal_node_id": "0.0-6.0-1.0-24.0"}}, {"uniqueid": "w20262211:a25964440", "current_trial": 40, "dateTime": 1693662772138, "trialdata": {"revealed_states": [], "clicked_states": [], "num_clicks_accrued": [0, 0, 0, 0, 0, 0, 0, 0, 0, 0, 0, 0, 0], "stateRewards": ["", 2, 1, -3, 7, 46, 11, -36, 16, 71, 5, 1, 2, -2, -8, -3, -4, 6, 55, 7, 68, -54, 2, 1, 1, 6, -6, 42, -4, -84, -11, -65, 63, 25], "withholdReward": false, "trial_id": "mdp_trial_26", "block": "test", "trialIndex": 29, "score": 17, "costs": 0, "simulationMode": [null, null, null, null, null], "rewards": [2, 1, -3, 16, 1], "path": ["0", "0", "1", "2", "3", "8", "11"], "rt": [747, 127, 138, 61, 123], "actions": ["up", "up", "up", "left", "left"], "actionTimes": [2583, 3266, 3949, 4547, 5227], "queries": {"click": {"state": {"target": [], "time": []}, "edge": {"target": [], "time": []}}, "mouseover": {"state": {"target": [], "time": []}, "edge": {"target": [], "time": []}}, "mouseout": {"state": {"target": [], "time": []}, "edge": {"target": [], "time": []}}}, "displayed_time": "16.05", "trialTime": 21016, "trial_type": "mouselab-mdp", "trial_index": 40, "time_elapsed": 1605743, "internal_node_id": "0.0-6.0-1.0-25.0"}}, {"uniqueid": "w20262211:a25964440", "current_trial": 41, "dateTime": 1693662788893, "trialdata": {"revealed_states": [], "clicked_states": [], "num_clicks_accrued": [0, 0, 0, 0, 0, 0, 0, 0, 0, 0, 0, 0, 0], "stateRewards": ["", 1, 3, 3, -10, 52, 68, 59, 12, 7, 49, 21, -2, -3, -4, -2, -2, 63, 63, -4, 44, 43, -76, -2, -3, -6, 13, 48, 36, 12, -5, -36, -33, -11], "withholdReward": false, "trial_id": "mdp_trial_27", "block": "test", "trialIndex": 30, "score": 14, "costs": 0, "simulationMode": [null, null, null, null, null], "rewards": [-2, -3, -6, 13, 12], "path": ["0", "0", "23", "24", "25", "26", "29"], "rt": [2690, 749, 381, 206, 277], "actions": ["left", "left", "left", "up", "left"], "actionTimes": [4064, 5400, 6332, 7090, 7909], "queries": {"click": {"state": {"target": [], "time": []}, "edge": {"target": [], "time": []}}, "mouseover": {"state": {"target": [], "time": []}, "edge": {"target": [], "time": []}}, "mouseout": {"state": {"target": [], "time": []}, "edge": {"target": [], "time": []}}}, "displayed_time": "15.94", "trialTime": 15978, "trial_type": "mouselab-mdp", "trial_index": 41, "time_elapsed": 1622497, "internal_node_id": "0.0-6.0-1.0-26.0"}}, {"uniqueid": "w20262211:a25964440", "current_trial": 42, "dateTime": 1693662812053, "trialdata": {"revealed_states": [], "clicked_states": [], "num_clicks_accrued": [0, 0, 0, 0, 0, 0, 0, 0, 0, 0, 0, 0, 0], "stateRewards": ["", 1, -1, 8, -3, 38, 85, -20, -4, 8, 23, 73, 2, -4, 6, -13, 44, 7, -28, -11, -77, 45, -69, 1, -1, -7, -11, 75, -51, -87, 7, 36, -53, -26], "withholdReward": false, "trial_id": "mdp_trial_28", "block": "test", "trialIndex": 31, "score": -26, "costs": 0, "simulationMode": [null, null, null, null, null], "rewards": [1, -1, -7, 7, -26], "path": ["0", "0", "23", "24", "25", "30", "33"], "rt": [738, 155, 157, 124, 200], "actions": ["left", "left", "left", "down", "left"], "actionTimes": [4149, 4851, 5567, 6244, 6982], "queries": {"click": {"state": {"target": [], "time": []}, "edge": {"target": [], "time": []}}, "mouseover": {"state": {"target": [], "time": []}, "edge": {"target": [], "time": []}}, "mouseout": {"state": {"target": ["0"], "time": [20745]}, "edge": {"target": [], "time": []}}}, "displayed_time": "17.66", "trialTime": 22439, "trial_type": "mouselab-mdp", "trial_index": 42, "time_elapsed": 1645657, "internal_node_id": "0.0-6.0-1.0-27.0"}}, {"uniqueid": "w20262211:a25964440", "current_trial": 43, "dateTime": 1693662837561, "trialdata": {"revealed_states": [], "clicked_states": [], "num_clicks_accrued": [0, 0, 0, 0, 0, 0, 0, 0, 0, 0, 0, 0, 0], "stateRewards": ["", -2, -4, 4, -11, -63, -60, -7, 2, -14, 81, -43, -1, -1, -5, 7, 10, 69, 40, 8, -83, 52, 60, 1, 2, 5, -5, 16, 64, 14, -3, 29, 7, -51], "withholdReward": false, "trial_id": "mdp_trial_29", "block": "test", "trialIndex": 32, "score": 69, "costs": 0, "simulationMode": [null, null, null, null, null], "rewards": [-1, -1, -5, 7, 69], "path": ["0", "0", "12", "13", "14", "15", "17"], "rt": [860, 190, 122, 43, 68], "actions": ["right", "right", "right", "up", "right"], "actionTimes": [4365, 5093, 5799, 6406, 7019], "queries": {"click": {"state": {"target": [], "time": []}, "edge": {"target": [], "time": []}}, "mouseover": {"state": {"target": [], "time": []}, "edge": {"target": [], "time": []}}, "mouseout": {"state": {"target": ["2", "1"], "time": [1657, 1731]}, "edge": {"target": [], "time": []}}}, "displayed_time": "17.86", "trialTime": 24814, "trial_type": "mouselab-mdp", "trial_index": 43, "time_elapsed": 1671166, "internal_node_id": "0.0-6.0-1.0-28.0"}}, {"uniqueid": "w20262211:a25964440", "current_trial": 44, "dateTime": 1693662857962, "trialdata": {"revealed_states": [], "clicked_states": [], "num_clicks_accrued": [0, 0, 0, 0, 0, 0, 0, 0, 0, 0, 0, 0, 0], "stateRewards": ["", 1, 1, 4, 11, 83, -66, 18, -16, -23, 5, 25, 1, -3, 1, -12, 18, 24, -86, -11, -64, 36, 40, 2, 1, -6, 13, 55, 29, 72, -2, 81, -72, -41], "withholdReward": false, "trial_id": "mdp_trial_30", "block": "test", "trialIndex": 33, "score": -76, "costs": 0, "simulationMode": [null, null, null, null, null], "rewards": [1, -3, 1, -11, -64], "path": ["0", "0", "12", "13", "14", "19", "20"], "rt": [576, 527, 230, 520, 153], "actions": ["right", "right", "right", "down", "right"], "actionTimes": [2816, 3912, 4713, 5782, 6529], "queries": {"click": {"state": {"target": [], "time": []}, "edge": {"target": [], "time": []}}, "mouseover": {"state": {"target": [], "time": []}, "edge": {"target": [], "time": []}}, "mouseout": {"state": {"target": [], "time": []}, "edge": {"target": [], "time": []}}}, "displayed_time": "16.52", "trialTime": 19728, "trial_type": "mouselab-mdp", "trial_index": 44, "time_elapsed": 1691566, "internal_node_id": "0.0-6.0-1.0-29.0"}}, {"uniqueid": "w20262211:a25964440", "current_trial": 45, "dateTime": 1693662880231, "trialdata": {"revealed_states": [], "clicked_states": [], "num_clicks_accrued": [0, 0, 0, 0, 0, 0, 0, 0, 0, 0, 0, 0, 0], "stateRewards": ["", 1, 2, -3, -5, 66, -50, -47, -5, 1, 28, -27, 1, 1, -1, -6, 37, -25, 56, 1, -82, -66, -40, -1, -4, -7, 15, -61, -23, 26, 10, 14, -56, 29], "withholdReward": false, "trial_id": "mdp_trial_31", "block": "test", "trialIndex": 34, "score": 32, "costs": 0, "simulationMode": [null, null, null, null, null], "rewards": [1, 1, -1, -6, 37], "path": ["0", "0", "12", "13", "14", "15", "16"], "rt": [1209, 153, 221, 360, 154], "actions": ["right", "right", "right", "up", "up"], "actionTimes": [3465, 4167, 4915, 5843, 6523], "queries": {"click": {"state": {"target": [], "time": []}, "edge": {"target": [], "time": []}}, "mouseover": {"state": {"target": [], "time": []}, "edge": {"target": [], "time": []}}, "mouseout": {"state": {"target": [], "time": []}, "edge": {"target": [], "time": []}}}, "displayed_time": "16.76", "trialTime": 21508, "trial_type": "mouselab-mdp", "trial_index": 45, "time_elapsed": 1713836, "internal_node_id": "0.0-6.0-1.0-30.0"}}, {"uniqueid": "w20262211:a25964440", "current_trial": 46, "dateTime": 1693662902589, "trialdata": {"revealed_states": [], "clicked_states": [], "num_clicks_accrued": [0, 0, 0, 0, 0, 0, 0, 0, 0, 0, 0, 0, 0], "stateRewards": ["", -2, -3, -7, 7, -54, -69, -4, -14, -77, 22, 40, -2, -1, 5, 6, -35, 50, -60, 10, -28, 75, 57, 1, -4, -2, 2, 68, 34, -18, 12, 3, -21, -43], "withholdReward": false, "trial_id": "mdp_trial_32", "block": "test", "trialIndex": 35, "score": 87, "costs": 0, "simulationMode": [null, null, null, null, null], "rewards": [-2, -1, 5, 10, 75], "path": ["0", "0", "12", "13", "14", "19", "21"], "rt": [552, 72, 151, 222, 214], "actions": ["right", "right", "right", "down", "down"], "actionTimes": [2099, 2746, 3465, 4229, 4964], "queries": {"click": {"state": {"target": [], "time": []}, "edge": {"target": [], "time": []}}, "mouseover": {"state": {"target": [], "time": []}, "edge": {"target": [], "time": []}}, "mouseout": {"state": {"target": [], "time": []}, "edge": {"target": [], "time": []}}}, "displayed_time": "15.93", "trialTime": 21622, "trial_type": "mouselab-mdp", "trial_index": 46, "time_elapsed": 1736194, "internal_node_id": "0.0-6.0-1.0-31.0"}}, {"uniqueid": "w20262211:a25964440", "current_trial": 47, "dateTime": 1693662927448, "trialdata": {"revealed_states": [], "clicked_states": [], "num_clicks_accrued": [0, 0, 0, 0, 0, 0, 0, 0, 0, 0, 0, 0, 0], "stateRewards": ["", 1, 4, 5, -5, 58, -80, 75, 6, 25, -39, 46, 2, -2, 4, 2, 59, 31, -22, -12, -61, 15, 72, 1, -2, -7, 8, 77, 76, -23, -7, 71, -15, -3], "withholdReward": false, "trial_id": "mdp_trial_33", "block": "test", "trialIndex": 36, "score": -69, "costs": 0, "simulationMode": [null, null, null, null, null], "rewards": [2, -2, 4, -12, -61], "path": ["0", "0", "12", "13", "14", "19", "20"], "rt": [1333, 262, 707, 421, 244], "actions": ["right", "right", "right", "down", "right"], "actionTimes": [3204, 4018, 5283, 6232, 7051], "queries": {"click": {"state": {"target": [], "time": []}, "edge": {"target": [], "time": []}}, "mouseover": {"state": {"target": [], "time": []}, "edge": {"target": [], "time": []}}, "mouseout": {"state": {"target": ["0"], "time": [8102]}, "edge": {"target": [], "time": []}}}, "displayed_time": "16.01", "trialTime": 20130, "trial_type": "mouselab-mdp", "trial_index": 47, "time_elapsed": 1761053, "internal_node_id": "0.0-6.0-1.0-32.0"}}, {"uniqueid": "w20262211:a25964440", "current_trial": 48, "dateTime": 1693662951269, "trialdata": {"revealed_states": [], "clicked_states": [], "num_clicks_accrued": [0, 0, 0, 0, 0, 0, 0, 0, 0, 0, 0, 0, 0], "stateRewards": ["", 1, 1, -2, 7, -31, -6, 76, 1, -36, -16, -53, 2, 1, 7, 13, -47, -10, 47, -7, 72, 46, -56, -2, -2, -2, 11, -80, 44, 38, 16, 67, 85, -78], "withholdReward": false, "trial_id": "mdp_trial_34", "block": "test", "trialIndex": 37, "score": -24, "costs": 0, "simulationMode": [null, null, null, null, null], "rewards": [1, 1, -2, 7, -31], "path": ["0", "0", "1", "2", "3", "4", "5"], "rt": [2225, 204, 215, 92, 156], "actions": ["up", "up", "up", "right", "up"], "actionTimes": [5543, 6286, 7038, 7711, 8399], "queries": {"click": {"state": {"target": [], "time": []}, "edge": {"target": [], "time": []}}, "mouseover": {"state": {"target": [], "time": []}, "edge": {"target": [], "time": []}}, "mouseout": {"state": {"target": ["0"], "time": [20]}, "edge": {"target": [], "time": []}}}, "displayed_time": "17.57", "trialTime": 21915, "trial_type": "mouselab-mdp", "trial_index": 48, "time_elapsed": 1784874, "internal_node_id": "0.0-6.0-1.0-33.0"}}, {"uniqueid": "w20262211:a25964440", "current_trial": 49, "dateTime": 1693662994428, "trialdata": {"revealed_states": [], "clicked_states": [], "num_clicks_accrued": [0, 0, 0, 0, 0, 0, 0, 0, 0, 0, 0, 0, 0], "stateRewards": ["", 1, -3, -2, 14, 49, -40, -39, 2, 26, -61, 73, 1, -4, -8, 12, 79, 29, -65, -13, 55, -26, 27, -1, 3, 3, 9, -17, -60, -18, -8, 35, -88, 69], "withholdReward": false, "trial_id": "mdp_trial_35", "block": "test", "trialIndex": 38, "score": 24, "costs": 0, "simulationMode": [null, null, null, null, null], "rewards": [1, -3, -2, 2, 26], "path": ["0", "0", "1", "2", "3", "8", "9"], "rt": [1182, 407, 83, 179, 177], "actions": ["up", "up", "up", "left", "up"], "actionTimes": [3250, 4192, 4910, 5631, 6354], "queries": {"click": {"state": {"target": [], "time": []}, "edge": {"target": [], "time": []}}, "mouseover": {"state": {"target": [], "time": []}, "edge": {"target": [], "time": []}}, "mouseout": {"state": {"target": ["0"], "time": [1346]}, "edge": {"target": [], "time": []}}}, "displayed_time": "16.33", "trialTime": 42412, "trial_type": "mouselab-mdp", "trial_index": 49, "time_elapsed": 1828033, "internal_node_id": "0.0-6.0-1.0-34.0"}}, {"uniqueid": "w20262211:a25964440", "current_trial": 50, "dateTime": 1693663023372, "trialdata": {"revealed_states": [], "clicked_states": [], "num_clicks_accrued": [0, 0, 0, 0, 0, 0, 0, 0, 0, 0, 0, 0, 0], "stateRewards": ["", -1, 2, -6, 6, -82, -19, -39, -16, -83, 11, -33, -2, -2, 4, -6, -82, -1, -19, -6, -10, -67, -41, -2, 1, -7, 16, -23, -78, -52, 14, 31, -71, 74], "withholdReward": false, "trial_id": "mdp_trial_36", "block": "test", "trialIndex": 39, "score": -81, "costs": 0, "simulationMode": [null, null, null, null, null], "rewards": [-1, 2, -6, 6, -82], "path": ["0", "0", "1", "2", "3", "4", "5"], "rt": [2920, 319, 60, 174, 227], "actions": ["up", "up", "up", "right", "up"], "actionTimes": [4537, 5400, 6010, 6717, 7477], "queries": {"click": {"state": {"target": [], "time": []}, "edge": {"target": [], "time": []}}, "mouseover": {"state": {"target": [], "time": []}, "edge": {"target": [], "time": []}}, "mouseout": {"state": {"target": ["0"], "time": [704]}, "edge": {"target": [], "time": []}}}, "displayed_time": "15.94", "trialTime": 26233, "trial_type": "mouselab-mdp", "trial_index": 50, "time_elapsed": 1856977, "internal_node_id": "0.0-6.0-1.0-35.0"}}, {"uniqueid": "w20262211:a25964440", "current_trial": 51, "dateTime": 1693663042704, "trialdata": {"revealed_states": [], "clicked_states": [], "num_clicks_accrued": [0, 0, 0, 0, 0, 0, 0, 0, 0, 0, 0, 0, 0], "stateRewards": ["", -1, 2, 5, -6, 13, -64, -47, 8, -79, -80, -33, 1, 2, -2, -16, 56, -71, -10, 3, 29, 44, 85, -1, 4, 5, 4, -36, -56, 19, 8, 52, -13, -2], "withholdReward": false, "trial_id": "mdp_trial_37", "block": "test", "trialIndex": 40, "score": -64, "costs": 0, "simulationMode": [null, null, null, null, null], "rewards": [-1, 2, 5, -6, -64], "path": ["0", "0", "1", "2", "3", "4", "6"], "rt": [872, 99, 1452, 75, 118], "actions": ["up", "up", "up", "right", "right"], "actionTimes": [3084, 3744, 5734, 6407, 7040], "queries": {"click": {"state": {"target": [], "time": []}, "edge": {"target": [], "time": []}}, "mouseover": {"state": {"target": [], "time": []}, "edge": {"target": [], "time": []}}, "mouseout": {"state": {"target": ["0"], "time": [1743]}, "edge": {"target": [], "time": []}}}, "displayed_time": "16.55", "trialTime": 17438, "trial_type": "mouselab-mdp", "trial_index": 51, "time_elapsed": 1876308, "internal_node_id": "0.0-6.0-1.0-36.0"}}, {"uniqueid": "w20262211:a25964440", "current_trial": 52, "dateTime": 1693663066227, "trialdata": {"revealed_states": [], "clicked_states": [], "num_clicks_accrued": [0, 0, 0, 0, 0, 0, 0, 0, 0, 0, 0, 0, 0], "stateRewards": ["", -1, 4, 3, 12, -27, 34, -33, 3, -63, 1, 6, 2, 2, -6, -11, -77, -85, 68, -6, 51, 81, -60, -2, -2, 1, 15, 20, 15, 68, -10, -14, 6, -4], "withholdReward": false, "trial_id": "mdp_trial_38", "block": "test", "trialIndex": 41, "score": -68, "costs": 0, "simulationMode": [null, null, null, null, null], "rewards": [2, 2, -6, -6, -60], "path": ["0", "0", "12", "13", "14", "19", "22"], "rt": [491, 227, 224, 214, 816], "actions": ["right", "right", "right", "down", "left"], "actionTimes": [5913, 6696, 7497, 8238, 9621], "queries": {"click": {"state": {"target": [], "time": []}, "edge": {"target": [], "time": []}}, "mouseover": {"state": {"target": [], "time": []}, "edge": {"target": [], "time": []}}, "mouseout": {"state": {"target": ["0"], "time": [2525]}, "edge": {"target": [], "time": []}}}, "displayed_time": "20.09", "trialTime": 22160, "trial_type": "mouselab-mdp", "trial_index": 52, "time_elapsed": 1899832, "internal_node_id": "0.0-6.0-1.0-37.0"}}, {"uniqueid": "w20262211:a25964440", "current_trial": 53, "dateTime": 1693663090475, "trialdata": {"revealed_states": [], "clicked_states": [], "num_clicks_accrued": [0, 0, 0, 0, 0, 0, 0, 0, 0, 0, 0, 0, 0], "stateRewards": ["", 2, 3, -2, -8, -8, -41, 74, 15, -23, -80, 1, 1, 3, 3, -15, -63, -78, 67, 13, 75, -41, 86, 2, -2, 6, -3, -8, -49, 50, -6, 83, 74, 80], "withholdReward": false, "trial_id": "mdp_trial_39", "block": "test", "trialIndex": 42, "score": -86, "costs": 0, "simulationMode": [null, null, null, null, null], "rewards": [1, 3, 3, -15, -78], "path": ["0", "0", "12", "13", "14", "15", "17"], "rt": [704, 133, 126, 874, 168], "actions": ["right", "right", "right", "up", "right"], "actionTimes": [4063, 4782, 5465, 6947, 7704], "queries": {"click": {"state": {"target": [], "time": []}, "edge": {"target": [], "time": []}}, "mouseover": {"state": {"target": [], "time": []}, "edge": {"target": [], "time": []}}, "mouseout": {"state": {"target": ["1", "0"], "time": [1564, 2128]}, "edge": {"target": [], "time": []}}}, "displayed_time": "17.62", "trialTime": 23247, "trial_type": "mouselab-mdp", "trial_index": 53, "time_elapsed": 1924080, "internal_node_id": "0.0-6.0-1.0-38.0"}}, {"uniqueid": "w20262211:a25964440", "current_trial": 54, "dateTime": 1693663131898, "trialdata": {"revealed_states": [], "clicked_states": [], "num_clicks_accrued": [0, 0, 0, 0, 0, 0, 0, 0, 0, 0, 0, 0, 0], "stateRewards": ["", 2, 3, 8, 14, 69, -27, 17, 2, -71, -65, -10, 2, -3, 7, 8, 65, -10, 65, -12, 73, -12, 13, -2, -2, 6, 10, -79, -69, -18, 10, -85, 67, 74], "withholdReward": false, "trial_id": "mdp_trial_40", "block": "test", "trialIndex": 43, "score": 96, "costs": 0, "simulationMode": [null, null, null, null, null], "rewards": [2, 3, 8, 14, 69], "path": ["0", "0", "1", "2", "3", "4", "5"], "rt": [1944, 243, 277, 74, 262], "actions": ["up", "up", "up", "right", "up"], "actionTimes": [16100, 16883, 17691, 18342, 19141], "queries": {"click": {"state": {"target": [], "time": []}, "edge": {"target": [], "time": []}}, "mouseover": {"state": {"target": [], "time": []}, "edge": {"target": [], "time": []}}, "mouseout": {"state": {"target": ["0"], "time": [13141]}, "edge": {"target": [], "time": []}}}, "displayed_time": "28.68", "trialTime": 39126, "trial_type": "mouselab-mdp", "trial_index": 54, "time_elapsed": 1965502, "internal_node_id": "0.0-6.0-1.0-39.0"}}, {"uniqueid": "w20262211:a25964440", "current_trial": 55, "dateTime": 1693663321773, "trialdata": {"rt": 189859, "response": {"Q0": "$-16 to 16", "Q1": "$-32 to $32", "Q2": "$-88 to $88", "Q3": "The cost for clicking on nodes varied between nodes.", "Q4": "Slightly motivated"}, "question_order": [0, 1, 2, 3, 4], "trial_id": "final_quiz_control", "trial_type": "survey-multi-choice", "trial_index": 55, "time_elapsed": 2155376, "internal_node_id": "0.0-6.0-2.0"}}, {"uniqueid": "w20262211:a25964440", "current_trial": 56, "dateTime": 1693663478147, "trialdata": {"rt": 156334, "response": {"Q0": "I used a cautious and calculated strategy in the Web of Cash game. I started by exploring the first few steps of the web to get a sense of the values of the nodes. I then used the node inspector to reveal the values of some of the nodes", "Q1": "Yes, I did improve my strategy in the Web of Cash game over time. I did this by:\n\n    Practicing the game repeatedly. The more I played the game, the better I understood the mechanics and the more familiar I became with the different strategies that could be used", "Q2": "I found it somewhat difficult to improve my performance in the Web of Cash game. The game is complex and there are many different strategies that can be used. It takes time and effort to learn the game and to develop a successful strategy"}, "trial_id": "self_report_control", "trial_type": "survey-text", "trial_index": 56, "time_elapsed": 2311751, "internal_node_id": "0.0-6.0-3.0"}}, {"uniqueid": "w20262211:a25964440", "current_trial": 57, "dateTime": 1693663659195, "trialdata": {"rt": 181029, "response": {"Q0": "Neither disagree nor agree", "Q1": "Disagree", "Q2": "Neither disagree nor agree", "Q3": "Agree", "Q4": "Agree", "Q5": "Neither disagree nor agree", "Q6": "Disagree"}, "question_order": [0, 1, 2, 3, 4, 5, 6], "trial_id": "self_report_2", "trial_type": "survey-multi-choice", "trial_index": 57, "time_elapsed": 2492800, "internal_node_id": "0.0-6.0-4.0"}}, {"uniqueid": "w20262211:a25964440", "current_trial": 58, "dateTime": 1693663707775, "trialdata": {"rt": 48302, "response": {"gender": "male", "age": "57", "colorblind": "0", "effort": "0"}, "trial_type": "survey-html-form", "trial_index": 58, "time_elapsed": 2541380, "internal_node_id": "0.0-6.0-5.0"}}, {"uniqueid": "w20262211:a25964440", "current_trial": 59, "dateTime": 1693663742399, "trialdata": {"rt": 34602, "response": {"Q0": "Nothing ", "Q1": "No", "Q2": ""}, "trial_type": "survey-text", "trial_index": 59, "time_elapsed": 2576004, "internal_node_id": "0.0-6.0-6.0"}}, {"uniqueid": "w20262211:a25964440", "current_trial": 60, "dateTime": 1693663805121, "trialdata": {"rt": 62643, "stimulus": "<h1>Completion Code Instructions (1/2)</h1>\n<br><br><br><br>\nYou have reached the end of the experiment! The completion code consists of two parts: (1) a code with 2 characters (2) a code with 6 characters. On this page, you will receive the second part of the code. The first part of the completion code will be on the next page.\n<br><br>\nThe second part of your completion code is: <b>EWEK22</b>\n<br><br>\nPlease note this down. Then, press 'Next' in order to find the first part of your completion code. Once the data has been saved, you will receive this code either in this window or in the original browser window where you started the experiment.\n <br><br>\n<h2 style='color: red;'>Note: this is <strong>NOT</strong> the full completion code. Copy this down and click 'Next' to get the full completion code on the next page.</h2>", "response": 0, "trial_type": "html-button-response", "trial_index": 60, "time_elapsed": 2638726, "internal_node_id": "0.0-6.0-7.0"}}, {"uniqueid": "w20262211:a25964440", "current_trial": 61, "dateTime": 1693663806141, "trialdata": {"success": true, "trial_type": "fullscreen", "trial_index": 61, "time_elapsed": 2639746, "internal_node_id": "0.0-7.0"}}], "questiondata": {"params": {"CODE": "C6DMOQA6", "MIN_TIME": 14, "inspectCost": 1, "startTime": "Sat Sep 02 2023 14:26:05 GMT+0100 (British Summer Time)", "bonusRate": 0.002, "variance": "1_2_4_8_44", "branching": "31123"}, "final_score": -258}, "eventdata": [{"eventtype": "initialized", "value": null, "timestamp": 1693661164482, "interval": 0}, {"eventtype": "window_resize", "value": [1024, 640], "timestamp": 1693661164482, "interval": 0}, {"eventtype": "focus", "value": "on", "timestamp": 1693661164809, "interval": 327}, {"eventtype": "window_resize", "value": [1024, 640], "timestamp": 1693661164927, "interval": 118}, {"eventtype": "window_resize", "value": [1366, 768], "timestamp": 1693661171399, "interval": 6472}, {"eventtype": "focus", "value": "off", "timestamp": 1693661495013, "interval": 323614}, {"eventtype": "focus", "value": "on", "timestamp": 1693661495014, "interval": 1}, {"eventtype": "window_resize", "value": [1024, 640], "timestamp": 1693661518325, "interval": 23311}, {"eventtype": "focus", "value": "off", "timestamp": 1693661530055, "interval": 11730}, {"eventtype": "focus", "value": "on", "timestamp": 1693661586872, "interval": 56817}, {"eventtype": "focus", "value": "off", "timestamp": 1693661599447, "interval": 12575}, {"eventtype": "focus", "value": "on", "timestamp": 1693661621571, "interval": 22124}, {"eventtype": "focus", "value": "off", "timestamp": 1693661633556, "interval": 11985}, {"eventtype": "focus", "value": "on", "timestamp": 1693661640619, "interval": 7063}, {"eventtype": "focus", "value": "off", "timestamp": 1693661650681, "interval": 10062}, {"eventtype": "focus", "value": "on", "timestamp": 1693661658267, "interval": 7586}, {"eventtype": "focus", "value": "off", "timestamp": 1693661665877, "interval": 7610}, {"eventtype": "focus", "value": "on", "timestamp": 1693661673753, "interval": 7876}, {"eventtype": "focus", "value": "off", "timestamp": 1693661715256, "interval": 41503}, {"eventtype": "focus", "value": "on", "timestamp": 1693661733519, "interval": 18263}, {"eventtype": "focus", "value": "off", "timestamp": 1693661741909, "interval": 8390}, {"eventtype": "focus", "value": "on", "timestamp": 1693661748637, "interval": 6728}, {"eventtype": "focus", "value": "off", "timestamp": 1693661757791, "interval": 9154}, {"eventtype": "focus", "value": "on", "timestamp": 1693661774384, "interval": 16593}, {"eventtype": "focus", "value": "off", "timestamp": 1693661783254, "interval": 8870}, {"eventtype": "focus", "value": "on", "timestamp": 1693661792404, "interval": 9150}, {"eventtype": "focus", "value": "off", "timestamp": 1693661802000, "interval": 9596}, {"eventtype": "focus", "value": "on", "timestamp": 1693661815780, "interval": 13780}, {"eventtype": "focus", "value": "off", "timestamp": 1693661839278, "interval": 23498}, {"eventtype": "focus", "value": "on", "timestamp": 1693661854537, "interval": 15259}, {"eventtype": "focus", "value": "off", "timestamp": 1693661861874, "interval": 7337}, {"eventtype": "focus", "value": "on", "timestamp": 1693661904077, "interval": 42203}, {"eventtype": "focus", "value": "off", "timestamp": 1693661913505, "interval": 9428}, {"eventtype": "focus", "value": "on", "timestamp": 1693661929869, "interval": 16364}, {"eventtype": "focus", "value": "off", "timestamp": 1693661936787, "interval": 6918}, {"eventtype": "focus", "value": "on", "timestamp": 1693661950511, "interval": 13724}, {"eventtype": "focus", "value": "off", "timestamp": 1693662002457, "interval": 51946}, {"eventtype": "focus", "value": "on", "timestamp": 1693662032890, "interval": 30433}, {"eventtype": "window_resize", "value": [1366, 656], "timestamp": 1693662279195, "interval": 246305}, {"eventtype": "focus", "value": "off", "timestamp": 1693662687712, "interval": 408517}, {"eventtype": "focus", "value": "on", "timestamp": 1693662703173, "interval": 15461}, {"eventtype": "focus", "value": "off", "timestamp": 1693663154971, "interval": 451798}, {"eventtype": "focus", "value": "on", "timestamp": 1693663176257, "interval": 21286}, {"eventtype": "focus", "value": "off", "timestamp": 1693663184944, "interval": 8687}, {"eventtype": "focus", "value": "on", "timestamp": 1693663204466, "interval": 19522}, {"eventtype": "focus", "value": "off", "timestamp": 1693663219848, "interval": 15382}, {"eventtype": "focus", "value": "on", "timestamp": 1693663246337, "interval": 26489}, {"eventtype": "focus", "value": "off", "timestamp": 1693663255233, "interval": 8896}, {"eventtype": "focus", "value": "on", "timestamp": 1693663280434, "interval": 25201}, {"eventtype": "focus", "value": "off", "timestamp": 1693663294479, "interval": 14045}, {"eventtype": "focus", "value": "on", "timestamp": 1693663307581, "interval": 13102}, {"eventtype": "focus", "value": "off", "timestamp": 1693663333374, "interval": 25793}, {"eventtype": "focus", "value": "on", "timestamp": 1693663359851, "interval": 26477}, {"eventtype": "focus", "value": "off", "timestamp": 1693663390344, "interval": 30493}, {"eventtype": "focus", "value": "on", "timestamp": 1693663417705, "interval": 27361}, {"eventtype": "focus", "value": "off", "timestamp": 1693663430002, "interval": 12297}, {"eventtype": "focus", "value": "on", "timestamp": 1693663471192, "interval": 41190}, {"eventtype": "focus", "value": "off", "timestamp": 1693663493586, "interval": 22394}, {"eventtype": "focus", "value": "on", "timestamp": 1693663541072, "interval": 47486}, {"eventtype": "focus", "value": "off", "timestamp": 1693663547853, "interval": 6781}, {"eventtype": "focus", "value": "on", "timestamp": 1693663562027, "interval": 14174}, {"eventtype": "focus", "value": "off", "timestamp": 1693663568062, "interval": 6035}, {"eventtype": "focus", "value": "on", "timestamp": 1693663576376, "interval": 8314}, {"eventtype": "focus", "value": "off", "timestamp": 1693663581511, "interval": 5135}, {"eventtype": "focus", "value": "on", "timestamp": 1693663590288, "interval": 8777}, {"eventtype": "focus", "value": "off", "timestamp": 1693663592806, "interval": 2518}, {"eventtype": "focus", "value": "on", "timestamp": 1693663592853, "interval": 47}, {"eventtype": "focus", "value": "off", "timestamp": 1693663594396, "interval": 1543}, {"eventtype": "focus", "value": "on", "timestamp": 1693663610841, "interval": 16445}, {"eventtype": "focus", "value": "off", "timestamp": 1693663779081, "interval": 168240}, {"eventtype": "focus", "value": "on", "timestamp": 1693663784257, "interval": 5176}], "useragent": "Mozilla/5.0 (Windows NT 10.0; Win64; x64; rv:109.0) Gecko/20100101 Firefox/117.0", "mode": "live", "id": "w20262211:a25964440", "status": "user data saved", "Beginhit": "2023-09-02 13:25:59.185518", "Beginexp": "2023-09-02 13:26:12.259342", "Endhit": "2023-09-02 14:10:08.663984", "psiturkStatus": 3, "browser": "<redacted>", "platform": "windows", "language": "en-GB"}