{"condition": 1, "counterbalance": 0, "assignmentId": "a60328596", "workerId": "w14274734", "hitId": "h42626938", "currenttrial": 56, "bonus": 0, "data": [{"uniqueid": "w14274734:a60328596", "current_trial": 0, "dateTime": 1693480565321, "trialdata": {"success": true, "trial_type": "fullscreen", "trial_index": 0, "time_elapsed": 6348, "internal_node_id": "0.0-0.0"}}, {"uniqueid": "w14274734:a60328596", "current_trial": 1, "dateTime": 1693480590571, "trialdata": {"view_history": [{"page_index": 0, "viewing_time": 25246}], "rt": 25247, "trial_id": "exp_instructions_misaligned", "trial_type": "instructions", "trial_index": 1, "time_elapsed": 31599, "internal_node_id": "0.0-1.0"}}, {"uniqueid": "w14274734:a60328596", "current_trial": 2, "dateTime": 1693480805346, "trialdata": {"view_history": [{"page_index": 0, "viewing_time": 68347}, {"page_index": 1, "viewing_time": 75833}, {"page_index": 2, "viewing_time": 34351}, {"page_index": 3, "viewing_time": 36242}], "rt": 214773, "trial_id": "mouselab_instructions_1_misaligned", "trial_type": "instructions", "trial_index": 2, "time_elapsed": 246373, "internal_node_id": "0.0-2.0-1.0"}}, {"uniqueid": "w14274734:a60328596", "current_trial": 3, "dateTime": 1693480864537, "trialdata": {"revealed_states": [], "clicked_states": ["23", "12", "1", "2", "3", "4", "8", "11", "6"], "num_clicks_accrued": [0, 0, 0, 0, 0, 0, 0, 0, 0, 0, 0, 0, 0], "stateRewards": ["", 10, 10, 10, 10, 10, 10, 10, -10, -10, -10, -10, 10, 10, 10, 10, -10, 10, 10, 10, -10, -10, -10, 10, -10, 10, -10, 10, -10, -10, 10, -10, -10, -10], "withholdReward": false, "trial_id": "practice_1", "block": "test", "trialIndex": 0, "score": 49, "costs": -4.5, "simulationMode": [null, null, null, null, null], "rewards": [10, 10, 10, 10, 10], "path": ["0", "0", "1", "2", "3", "4", "6"], "rt": [46052, 356, 447, 1657, 174], "actions": ["up", "up", "up", "right", "right"], "actionTimes": [48724, 49591, 50561, 52736, 53422], "queries": {"click": {"state": {"target": ["23", "12", "1", "2", "3", "4", "8", "11", "6"], "time": [5784, 7129, 8168, 16862, 18232, 20576, 22361, 24390, 26755]}, "edge": {"target": [], "time": []}}, "mouseover": {"state": {"target": ["23", "12", "1", "0", "0", "0", "0", "7", "2", "3", "4", "8", "11", "11", "6", "6", "7", "4", "6", "15", "13", "1", "1", "1", "0", "1", "12"], "time": [5525, 6729, 7927, 8627, 9357, 13773, 16170, 16405, 16656, 17791, 20303, 21505, 22905, 24169, 24871, 25138, 33733, 33935, 34314, 34916, 40064, 40262, 40597, 41597, 44162, 45029, 46611]}, "edge": {"target": [], "time": []}}, "mouseout": {"state": {"target": ["1", "0", "23", "12", "12", "1", "1", "0", "0", "1", "0", "0", "7", "2", "3", "4", "8", "11", "11", "6", "6", "7", "4", "6", "15", "13", "1", "1", "1", "0", "1", "12"], "time": [1975, 3710, 6378, 7251, 7560, 8210, 8509, 8759, 9658, 11025, 13821, 16205, 16420, 17625, 20268, 20688, 22622, 23537, 24704, 24903, 27286, 33765, 34282, 34464, 34980, 40111, 40312, 40762, 42979, 44296, 45277, 47276]}, "edge": {"target": [], "time": []}}}, "displayed_time": "53.94", "trialTime": 57632, "trial_type": "mouselab-mdp", "trial_index": 3, "time_elapsed": 305564, "internal_node_id": "0.0-2.0-2.0-0.0"}}, {"uniqueid": "w14274734:a60328596", "current_trial": 4, "dateTime": 1693480896760, "trialdata": {"revealed_states": [], "clicked_states": ["12", "13", "14", "15", "18", "16"], "num_clicks_accrued": [0, 0, 0, 0, 0, 0, 0, 0, 0, 0, 0, 0, 0], "stateRewards": ["", 10, -10, -10, 10, 10, 10, 10, -10, 10, -10, -10, 10, 10, 10, 10, 10, -10, -10, -10, -10, -10, 10, -10, 10, 10, 10, -10, 10, -10, 10, -10, -10, 10], "withholdReward": false, "trial_id": "practice_2", "block": "test", "trialIndex": 1, "score": 50.5, "costs": -3, "simulationMode": [null, null, null, null, null], "rewards": [10, 10, 10, 10, 10], "path": ["0", "0", "12", "13", "14", "15", "16"], "rt": [19277, 183, 323, 503, 1269], "actions": ["right", "right", "right", "up", "up"], "actionTimes": [24900, 25623, 26463, 27476, 29258], "queries": {"click": {"state": {"target": ["12", "13", "14", "15", "18", "16"], "time": [8116, 9731, 12163, 14639, 16069, 17677]}, "edge": {"target": [], "time": []}}, "mouseover": {"state": {"target": ["12", "13", "13", "14", "15", "15", "18", "16", "17", "14", "13"], "time": [7493, 8462, 9527, 10028, 12744, 14124, 14978, 17012, 18739, 19538, 19673]}, "edge": {"target": [], "time": []}}, "mouseout": {"state": {"target": ["13", "12", "13", "13", "13", "14", "15", "15", "18", "16", "17", "14", "13"], "time": [4929, 8412, 9011, 9799, 9944, 12495, 13907, 14899, 16694, 18294, 19490, 19590, 19872]}, "edge": {"target": [], "time": []}}}, "displayed_time": "29.77", "trialTime": 32094, "trial_type": "mouselab-mdp", "trial_index": 4, "time_elapsed": 337787, "internal_node_id": "0.0-2.0-2.0-1.0"}}, {"uniqueid": "w14274734:a60328596", "current_trial": 5, "dateTime": 1693480942718, "trialdata": {"view_history": [{"page_index": 0, "viewing_time": 33347}, {"page_index": 1, "viewing_time": 12606}], "rt": 45953, "trial_id": "mouselab_instructions_2_misaligned", "trial_type": "instructions", "trial_index": 5, "time_elapsed": 383746, "internal_node_id": "0.0-2.0-3.0"}}, {"uniqueid": "w14274734:a60328596", "current_trial": 6, "dateTime": 1693480986366, "trialdata": {"rt": 43643, "response": {"Q0": "The cost for clicking on nodes may vary between nodes.", "Q1": "The better I perform the higher my bonus will be.", "Q2": "No, the amount of cash at each node of the web may be different each time.", "Q3": "To get the highest total score.", "Q4": "Only before moving the spider.", "Q5": "3 seconds"}, "question_order": [0, 1, 2, 3, 4, 5], "correct": {"Q0": "The cost for clicking on nodes may vary between nodes.", "Q1": "The better I perform the higher my bonus will be.", "Q2": "No, the amount of cash at each node of the web may be different each time.", "Q3": "To get the highest total score.", "Q4": "Only before moving the spider.", "Q5": "3 seconds"}, "trial_id": "mouselab_quiz_misaligned", "trial_type": "survey-multi-choice", "trial_index": 6, "time_elapsed": 427394, "internal_node_id": "0.0-2.0-4.0"}}, {"uniqueid": "w14274734:a60328596", "current_trial": 7, "dateTime": 1693480993936, "trialdata": {"rt": 7565, "response": {"Q0": "No"}, "question_order": [0], "trial_id": "repeat_check", "trial_type": "survey-multi-choice", "trial_index": 7, "time_elapsed": 434964, "internal_node_id": "0.0-4.0-0.0"}}, {"uniqueid": "w14274734:a60328596", "current_trial": 8, "dateTime": 1693481012111, "trialdata": {"rt": 18168, "stimulus": "\n<h1> Get ready to start the game! </h1>\n\nThank you for reading the instructions. Get ready start with the 40 rounds of this game.\n<br><br>\nIf you need to take a break, feel free to take one after the end of a round, before continuing to the next one.\n<br><br>\nRemember, the more money the spider gets, the bigger your bonus will be!\n<br><br>\n<div style='text-align: center;'>Press <code>space</code> to begin.</div>\n\n<br><br>\n(If, at any point, the <code>space</code> key does not take you to the next page, click once on the text and try again.)", "response": " ", "trial_id": "mdp_ready", "trial_type": "html-keyboard-response", "trial_index": 8, "time_elapsed": 453138, "internal_node_id": "0.0-6.0-0.0"}}, {"uniqueid": "w14274734:a60328596", "current_trial": 9, "dateTime": 1693481034715, "trialdata": {"revealed_states": [], "clicked_states": ["12", "13", "14", "15", "17"], "num_clicks_accrued": [0, 0, 0, 0, 0, 0, 0, 0, 0, 0, 0, 0, 0], "stateRewards": ["", -1, 4, -5, 9, 29, -75, -42, -16, 24, -28, -41, 2, -3, 1, 10, 60, 47, 55, -1, -53, 22, -40, 2, -3, -6, 4, -26, 44, 54, 15, -76, 42, 14], "withholdReward": false, "trial_id": "mdp_trial_1", "block": "test", "trialIndex": 2, "score": 52.25, "costs": -4.75, "simulationMode": [null, null, null, null, null], "rewards": [2, -3, 1, 10, 47], "path": ["0", "0", "12", "13", "14", "15", "17"], "rt": [11019, 120, 311, 315, 87], "actions": ["right", "right", "right", "up", "right"], "actionTimes": [13044, 13682, 14491, 15326, 15929], "queries": {"click": {"state": {"target": ["12", "13", "14", "15", "17"], "time": [4537, 5354, 5952, 7072, 7754]}, "edge": {"target": [], "time": []}}, "mouseover": {"state": {"target": ["1", "12", "13", "14", "15", "17", "18", "12", "0"], "time": [3442, 4310, 4862, 5716, 6848, 7529, 10427, 11707, 12273]}, "edge": {"target": [], "time": []}}, "mouseout": {"state": {"target": ["4", "7", "1", "12", "13", "14", "15", "17", "15", "18", "12", "0"], "time": [1276, 1408, 4078, 4796, 5664, 6730, 7228, 8079, 8262, 11590, 12223, 20435]}, "edge": {"target": [], "time": []}}}, "displayed_time": "16.44", "trialTime": 22463, "trial_type": "mouselab-mdp", "trial_index": 9, "time_elapsed": 475742, "internal_node_id": "0.0-6.0-1.0-0.0"}}, {"uniqueid": "w14274734:a60328596", "current_trial": 10, "dateTime": 1693481055300, "trialdata": {"revealed_states": [], "clicked_states": ["23", "24", "25", "26", "29"], "num_clicks_accrued": [0, 0, 0, 0, 0, 0, 0, 0, 0, 0, 0, 0, 0], "stateRewards": ["", -2, -1, -2, -15, 87, 57, 29, -10, 77, -80, -7, 1, -3, 6, 14, -11, 87, -59, 4, -71, 16, -11, 2, 2, -7, 2, -47, 61, 50, 14, -20, 17, 81], "withholdReward": false, "trial_id": "mdp_trial_2", "block": "test", "trialIndex": 3, "score": 44.25, "costs": -4.75, "simulationMode": [null, null, null, null, null], "rewards": [2, 2, -7, 2, 50], "path": ["0", "0", "23", "24", "25", "26", "29"], "rt": [8646, 93, 440, 167, 286], "actions": ["left", "left", "left", "up", "left"], "actionTimes": [10022, 10632, 11596, 12271, 13076], "queries": {"click": {"state": {"target": ["23", "24", "25", "26", "29"], "time": [2741, 3345, 3955, 4614, 5544]}, "edge": {"target": [], "time": []}}, "mouseover": {"state": {"target": ["23", "24", "25", "26", "29", "28", "28"], "time": [2454, 2973, 3656, 4339, 5242, 6990, 8701]}, "edge": {"target": [], "time": []}}, "mouseout": {"state": {"target": ["0", "23", "24", "24", "25", "26", "26", "29", "26", "28", "28"], "time": [2056, 2923, 3444, 3623, 4172, 4688, 5139, 5641, 6521, 8570, 9051]}, "edge": {"target": [], "time": []}}}, "displayed_time": "15.38", "trialTime": 20451, "trial_type": "mouselab-mdp", "trial_index": 10, "time_elapsed": 496327, "internal_node_id": "0.0-6.0-1.0-1.0"}}, {"uniqueid": "w14274734:a60328596", "current_trial": 11, "dateTime": 1693481082108, "trialdata": {"revealed_states": [], "clicked_states": ["1", "2", "3", "4", "5", "8", "9", "11"], "num_clicks_accrued": [0, 0, 0, 0, 0, 0, 0, 0, 0, 0, 0, 0, 0], "stateRewards": ["", 1, -1, -7, -7, -22, 15, -13, 13, 26, -32, 38, -1, 1, -7, -4, 16, -62, 86, 12, -54, 56, 64, -2, -1, 6, 14, -57, 37, 62, -6, -25, 50, -70], "withholdReward": false, "trial_id": "mdp_trial_3", "block": "test", "trialIndex": 4, "score": 33.4, "costs": -10.6, "simulationMode": [null, null, null, null, null], "rewards": [1, -1, -7, 13, 38], "path": ["0", "0", "1", "2", "3", "8", "11"], "rt": [16660, 134, 239, 600, 174], "actions": ["up", "up", "up", "left", "left"], "actionTimes": [20153, 20788, 21543, 22670, 23344], "queries": {"click": {"state": {"target": ["1", "2", "3", "4", "5", "8", "9", "11"], "time": [4732, 5237, 6018, 6718, 7616, 10824, 11645, 15757]}, "edge": {"target": [], "time": []}}, "mouseover": {"state": {"target": ["1", "1", "2", "3", "4", "5", "5", "8", "9", "11", "10"], "time": [4089, 4371, 5011, 5560, 6378, 6928, 7393, 9009, 11326, 15438, 16490]}, "edge": {"target": [], "time": []}}, "mouseout": {"state": {"target": ["22", "14", "13", "12", "0", "12", "0", "1", "1", "2", "3", "4", "5", "5", "3", "8", "9", "8", "11", "10", "7", "12"], "time": [1907, 2340, 2390, 2423, 2706, 2891, 3775, 4139, 4817, 5461, 6327, 6798, 6943, 7960, 8159, 11124, 12006, 12189, 16223, 16521, 24817, 25999]}, "edge": {"target": [], "time": []}}}, "displayed_time": "23.86", "trialTime": 26669, "trial_type": "mouselab-mdp", "trial_index": 11, "time_elapsed": 523136, "internal_node_id": "0.0-6.0-1.0-2.0"}}, {"uniqueid": "w14274734:a60328596", "current_trial": 12, "dateTime": 1693481099935, "trialdata": {"revealed_states": [], "clicked_states": ["12", "13", "14", "19", "21"], "num_clicks_accrued": [0, 0, 0, 0, 0, 0, 0, 0, 0, 0, 0, 0, 0], "stateRewards": ["", 1, -4, -4, 8, 1, -79, 68, -10, -79, 8, -74, -1, -3, -6, 14, 43, 23, 9, 5, -51, 63, 61, -2, 4, 6, -10, 69, -32, 57, 15, -80, -80, -77], "withholdReward": false, "trial_id": "mdp_trial_4", "block": "test", "trialIndex": 5, "score": 53.25, "costs": -4.75, "simulationMode": [null, null, null, null, null], "rewards": [-1, -3, -6, 5, 63], "path": ["0", "0", "12", "13", "14", "19", "21"], "rt": [8304, 132, 287, 34, 171], "actions": ["right", "right", "right", "down", "down"], "actionTimes": [10415, 11063, 11868, 12396, 13100], "queries": {"click": {"state": {"target": ["12", "13", "14", "19", "21"], "time": [3214, 3833, 4507, 5558, 6125]}, "edge": {"target": [], "time": []}}, "mouseover": {"state": {"target": ["12", "13", "14", "19", "21", "20"], "time": [2880, 3464, 4217, 5016, 5882, 8648]}, "edge": {"target": [], "time": []}}, "mouseout": {"state": {"target": ["12", "0", "12", "13", "14", "19", "21"], "time": [1334, 1512, 3397, 4183, 4967, 5815, 6468]}, "edge": {"target": [], "time": []}}}, "displayed_time": "16.11", "trialTime": 17677, "trial_type": "mouselab-mdp", "trial_index": 12, "time_elapsed": 540962, "internal_node_id": "0.0-6.0-1.0-3.0"}}, {"uniqueid": "w14274734:a60328596", "current_trial": 13, "dateTime": 1693481133533, "trialdata": {"revealed_states": [], "clicked_states": ["12", "13", "14", "19", "20", "22", "21", "23", "24", "25", "30", "33"], "num_clicks_accrued": [0, 0, 0, 0, 0, 0, 0, 0, 0, 0, 0, 0, 0], "stateRewards": ["", 2, 3, 3, 10, 19, -21, 6, 9, 54, 68, 16, 2, 2, -6, -8, 40, -2, -75, -2, -42, 55, 59, -1, 2, 4, -14, 11, -34, -30, -6, 61, -53, 13], "withholdReward": false, "trial_id": "mdp_trial_5", "block": "test", "trialIndex": 6, "score": 41.2, "costs": -13.8, "simulationMode": [null, null, null, null, null], "rewards": [2, 2, -6, -2, 59], "path": ["0", "0", "12", "13", "14", "19", "22"], "rt": [22866, 225, 283, 479, 586], "actions": ["right", "right", "right", "down", "left"], "actionTimes": [25690, 26425, 27219, 28212, 29316], "queries": {"click": {"state": {"target": ["12", "13", "14", "19", "20", "22", "21", "23", "24", "25", "30", "33"], "time": [3991, 4795, 5264, 6707, 7620, 11355, 14564, 18737, 19718, 20411, 21006, 21572]}, "edge": {"target": [], "time": []}}, "mouseover": {"state": {"target": ["12", "13", "14", "13", "14", "19", "19", "20", "22", "21", "23", "23", "23", "24", "24", "25", "30", "33"], "time": [3655, 4156, 4205, 4621, 5023, 5588, 6188, 6987, 9106, 12271, 17948, 18183, 18333, 19034, 19301, 20034, 20817, 21285]}, "edge": {"target": [], "time": []}}, "mouseout": {"state": {"target": ["20", "22", "0", "12", "13", "14", "13", "14", "19", "19", "20", "19", "22", "21", "23", "23", "23", "24", "24", "25", "25", "30", "30", "33"], "time": [1852, 1886, 2970, 4140, 4188, 4407, 4972, 5538, 5619, 6962, 7990, 9055, 11908, 15071, 17981, 18265, 19001, 19068, 19950, 20504, 20682, 21088, 21237, 22632]}, "edge": {"target": [], "time": []}}}, "displayed_time": "29.83", "trialTime": 33421, "trial_type": "mouselab-mdp", "trial_index": 13, "time_elapsed": 574560, "internal_node_id": "0.0-6.0-1.0-4.0"}}, {"uniqueid": "w14274734:a60328596", "current_trial": 14, "dateTime": 1693481162054, "trialdata": {"revealed_states": [], "clicked_states": ["1", "2", "7", "3", "4", "8", "11", "10", "9"], "num_clicks_accrued": [0, 0, 0, 0, 0, 0, 0, 0, 0, 0, 0, 0, 0], "stateRewards": ["", 2, -1, 1, 10, -52, 86, -22, -2, -14, -63, 38, 1, 3, 7, -8, 11, -32, -27, 9, -71, 40, -87, -2, -1, 5, -7, 12, 31, -57, 13, 86, -58, 29], "withholdReward": false, "trial_id": "mdp_trial_6", "block": "test", "trialIndex": 7, "score": 25.25, "costs": -12.75, "simulationMode": [null, null, null, null, null], "rewards": [2, -1, 1, -2, 38], "path": ["0", "0", "1", "2", "3", "8", "11"], "rt": [19890, 606, 92, 322, 122], "actions": ["up", "up", "up", "left", "left"], "actionTimes": [21481, 22603, 23204, 24036, 24667], "queries": {"click": {"state": {"target": ["1", "2", "7", "3", "4", "8", "11", "10", "9"], "time": [3208, 4010, 4893, 8331, 9153, 10242, 11072, 14301, 17727]}, "edge": {"target": [], "time": []}}, "mouseover": {"state": {"target": ["1", "2", "7", "3", "4", "8", "8", "11", "10", "3", "9", "8", "2", "7"], "time": [2881, 3503, 4634, 5867, 8851, 9736, 9917, 10766, 13297, 15396, 16362, 19180, 19966, 20081]}, "edge": {"target": [], "time": []}}, "mouseout": {"state": {"target": ["0", "1", "2", "7", "3", "4", "3", "8", "8", "11", "10", "3", "9", "8", "2", "7"], "time": [2398, 3384, 4485, 5606, 8735, 9670, 9715, 9786, 10564, 12798, 14679, 15696, 18815, 19631, 20048, 20097]}, "edge": {"target": [], "time": []}}}, "displayed_time": "25.18", "trialTime": 28348, "trial_type": "mouselab-mdp", "trial_index": 14, "time_elapsed": 603081, "internal_node_id": "0.0-6.0-1.0-5.0"}}, {"uniqueid": "w14274734:a60328596", "current_trial": 15, "dateTime": 1693481180933, "trialdata": {"revealed_states": [], "clicked_states": ["23", "24", "25", "30", "33"], "num_clicks_accrued": [0, 0, 0, 0, 0, 0, 0, 0, 0, 0, 0, 0, 0], "stateRewards": ["", -2, -3, -5, 8, 27, 11, 43, -6, -24, -87, 69, -2, 1, 1, 9, 19, 48, -37, 9, -14, 45, 62, 1, 2, 1, 16, -81, -41, 22, 4, -6, -63, 47], "withholdReward": false, "trial_id": "mdp_trial_7", "block": "test", "trialIndex": 8, "score": 50.25, "costs": -4.75, "simulationMode": [null, null, null, null, null], "rewards": [1, 2, 1, 4, 47], "path": ["0", "0", "23", "24", "25", "30", "33"], "rt": [10128, 359, 367, 440, 672], "actions": ["left", "left", "left", "down", "left"], "actionTimes": [12605, 13485, 14359, 15299, 16481], "queries": {"click": {"state": {"target": ["23", "24", "25", "30", "33"], "time": [3707, 4403, 6024, 7763, 8502]}, "edge": {"target": [], "time": []}}, "mouseover": {"state": {"target": ["1", "23", "24", "25", "30", "33", "31"], "time": [3144, 3324, 4012, 4979, 7107, 8208, 11457]}, "edge": {"target": [], "time": []}}, "mouseout": {"state": {"target": ["18", "0", "1", "23", "24", "25", "30", "33", "30"], "time": [1242, 2911, 3227, 3962, 4782, 6975, 8142, 9008, 11305]}, "edge": {"target": [], "time": []}}}, "displayed_time": "16.99", "trialTime": 18731, "trial_type": "mouselab-mdp", "trial_index": 15, "time_elapsed": 621960, "internal_node_id": "0.0-6.0-1.0-6.0"}}, {"uniqueid": "w14274734:a60328596", "current_trial": 16, "dateTime": 1693481204622, "trialdata": {"revealed_states": [], "clicked_states": ["12", "13", "14", "15", "18", "17", "16"], "num_clicks_accrued": [0, 0, 0, 0, 0, 0, 0, 0, 0, 0, 0, 0, 0], "stateRewards": ["", 1, 1, 1, 15, -76, 52, -32, 14, -57, 37, 49, 1, -4, -3, 6, 83, -76, 25, 9, 36, -1, -17, -1, 4, 4, -2, -22, -21, 58, -15, -57, 49, -24], "withholdReward": false, "trial_id": "mdp_trial_8", "block": "test", "trialIndex": 9, "score": 73.95, "costs": -9.05, "simulationMode": [null, null, null, null, null], "rewards": [1, -4, -3, 6, 83], "path": ["0", "0", "12", "13", "14", "15", "16"], "rt": [15726, 291, 312, 441, 85], "actions": ["right", "right", "right", "up", "up"], "actionTimes": [18067, 18870, 19691, 20655, 21253], "queries": {"click": {"state": {"target": ["12", "13", "14", "15", "18", "17", "16"], "time": [4362, 5187, 6335, 7394, 8207, 11400, 14340]}, "edge": {"target": [], "time": []}}, "mouseover": {"state": {"target": ["12", "13", "14", "15", "18", "17", "16"], "time": [3737, 4733, 5667, 7165, 8001, 10385, 13232]}, "edge": {"target": [], "time": []}}, "mouseout": {"state": {"target": ["31", "23", "1", "12", "13", "14", "15", "18", "15", "17", "16"], "time": [1548, 1563, 1614, 4650, 5616, 6966, 7784, 9583, 10184, 12015, 14951]}, "edge": {"target": [], "time": []}}}, "displayed_time": "21.77", "trialTime": 23516, "trial_type": "mouselab-mdp", "trial_index": 16, "time_elapsed": 645649, "internal_node_id": "0.0-6.0-1.0-7.0"}}, {"uniqueid": "w14274734:a60328596", "current_trial": 17, "dateTime": 1693481243249, "trialdata": {"revealed_states": [], "clicked_states": ["23", "24", "25", "26", "27", "28", "29", "32", "30", "17"], "num_clicks_accrued": [0, 0, 0, 0, 0, 0, 0, 0, 0, 0, 0, 0, 0], "stateRewards": ["", -2, -3, 8, -4, -30, 31, 69, 9, 66, 87, 64, -2, 2, 8, 5, 47, 16, -39, -8, -54, 51, -19, 1, -2, -2, -11, -25, -26, 43, -9, 19, -84, 86], "withholdReward": false, "trial_id": "mdp_trial_9", "block": "test", "trialIndex": 10, "score": 14.099999999999998, "costs": -14.900000000000002, "simulationMode": [null, null, null, null, null], "rewards": [1, -2, -2, -11, 43], "path": ["0", "0", "23", "24", "25", "26", "29"], "rt": [25460, 56, 330, 751, 114], "actions": ["left", "left", "left", "up", "left"], "actionTimes": [29989, 30557, 31396, 32667, 33297], "queries": {"click": {"state": {"target": ["23", "24", "25", "26", "27", "28", "29", "32", "30", "17"], "time": [5662, 6506, 7333, 8811, 9483, 12603, 15519, 19768, 22898, 25572]}, "edge": {"target": [], "time": []}}, "mouseover": {"state": {"target": ["23", "24", "25", "30", "26", "27", "28", "26", "29", "26", "25", "30", "32", "30", "31", "12", "13", "14", "17", "15", "14"], "time": [5306, 6009, 7092, 7793, 8522, 9158, 10908, 13024, 13525, 16556, 17157, 17555, 18452, 20353, 23688, 24917, 24966, 25015, 25166, 26417, 26917]}, "edge": {"target": [], "time": []}}, "mouseout": {"state": {"target": ["18", "12", "0", "23", "23", "24", "25", "30", "25", "26", "27", "26", "28", "26", "29", "26", "25", "30", "32", "30", "30", "31", "12", "13", "14", "17", "15"], "time": [3789, 3921, 4921, 5747, 5927, 6961, 7709, 8404, 8454, 8898, 9942, 10346, 12940, 13225, 16424, 16772, 17389, 17989, 20103, 23087, 23387, 24717, 24932, 24999, 25048, 26052, 26634]}, "edge": {"target": [], "time": []}}}, "displayed_time": "33.81", "trialTime": 38460, "trial_type": "mouselab-mdp", "trial_index": 17, "time_elapsed": 684276, "internal_node_id": "0.0-6.0-1.0-8.0"}}, {"uniqueid": "w14274734:a60328596", "current_trial": 18, "dateTime": 1693481271846, "trialdata": {"revealed_states": [], "clicked_states": ["1", "2", "3", "4", "6", "8", "11", "9", "5"], "num_clicks_accrued": [0, 0, 0, 0, 0, 0, 0, 0, 0, 0, 0, 0, 0], "stateRewards": ["", 1, -1, 8, 4, 76, -33, -17, -3, -1, -54, -74, -2, 2, -5, 13, -51, 63, 83, 1, 84, 29, -36, 2, -1, 7, -12, -10, -44, -43, -14, 8, -69, 19], "withholdReward": false, "trial_id": "mdp_trial_10", "block": "test", "trialIndex": 11, "score": 75.25, "costs": -12.75, "simulationMode": [null, null, null, null, null], "rewards": [1, -1, 8, 4, 76], "path": ["0", "0", "1", "2", "3", "4", "5"], "rt": [19395, 282, 803, 334, 850], "actions": ["up", "up", "up", "right", "up"], "actionTimes": [21138, 21934, 23255, 24102, 25469], "queries": {"click": {"state": {"target": ["1", "2", "3", "4", "6", "8", "11", "9", "5"], "time": [2885, 3905, 4716, 5758, 6666, 9642, 10598, 13814, 16885]}, "edge": {"target": [], "time": []}}, "mouseover": {"state": {"target": ["1", "2", "2", "3", "4", "6", "8", "11", "9", "5", "4", "7"], "time": [2622, 3159, 3693, 4375, 5159, 6261, 7793, 10322, 12971, 14691, 19104, 19786]}, "edge": {"target": [], "time": []}}, "mouseout": {"state": {"target": ["14", "13", "12", "0", "1", "2", "2", "3", "4", "6", "4", "3", "8", "11", "8", "9", "5", "4"], "time": [708, 738, 755, 2423, 3125, 3176, 3956, 5042, 5766, 7359, 7442, 7642, 10073, 12489, 12606, 14339, 18155, 19454]}, "edge": {"target": [], "time": []}}}, "displayed_time": "25.99", "trialTime": 28436, "trial_type": "mouselab-mdp", "trial_index": 18, "time_elapsed": 712873, "internal_node_id": "0.0-6.0-1.0-9.0"}}, {"uniqueid": "w14274734:a60328596", "current_trial": 19, "dateTime": 1693481301743, "trialdata": {"revealed_states": [], "clicked_states": ["1", "2", "3", "4", "5", "7", "6", "11"], "num_clicks_accrued": [0, 0, 0, 0, 0, 0, 0, 0, 0, 0, 0, 0, 0], "stateRewards": ["", 2, 4, 4, 9, -88, -10, 44, 16, -54, 64, 78, 1, 2, 5, 16, 80, 36, 7, -4, 9, -47, -70, -1, -3, 6, -16, 11, 80, 28, 8, -1, 34, -17], "withholdReward": false, "trial_id": "mdp_trial_11", "block": "test", "trialIndex": 12, "score": 92.8, "costs": -11.200000000000001, "simulationMode": [null, null, null, null, null], "rewards": [2, 4, 4, 16, 78], "path": ["0", "0", "1", "2", "3", "8", "11"], "rt": [20065, 134, 122, 387, 146], "actions": ["up", "up", "up", "left", "left"], "actionTimes": [21923, 22564, 23202, 24083, 24741], "queries": {"click": {"state": {"target": ["1", "2", "3", "4", "5", "7", "6", "11"], "time": [2917, 3619, 4706, 5991, 6961, 10269, 13510, 17303]}, "edge": {"target": [], "time": []}}, "mouseover": {"state": {"target": ["1", "2", "3", "4", "5", "7", "6", "4", "3", "8", "11", "8", "9"], "time": [2618, 3203, 4320, 5453, 6623, 7670, 10883, 15281, 15714, 16695, 16962, 18230, 19813]}, "edge": {"target": [], "time": []}}, "mouseout": {"state": {"target": ["7", "0", "0", "1", "2", "3", "4", "4", "5", "4", "7", "6", "6", "4", "3", "8", "11", "8", "9"], "time": [899, 1035, 2367, 3102, 4085, 5370, 6093, 6386, 7303, 7503, 10682, 13998, 15197, 15465, 16628, 16928, 17347, 19646, 26175]}, "edge": {"target": [], "time": []}}}, "displayed_time": "25.26", "trialTime": 29720, "trial_type": "mouselab-mdp", "trial_index": 19, "time_elapsed": 742771, "internal_node_id": "0.0-6.0-1.0-10.0"}}, {"uniqueid": "w14274734:a60328596", "current_trial": 20, "dateTime": 1693481337445, "trialdata": {"revealed_states": [], "clicked_states": ["23", "24", "25", "30", "33", "31", "32", "27", "29", "28"], "num_clicks_accrued": [0, 0, 0, 0, 0, 0, 0, 0, 0, 0, 0, 0, 0], "stateRewards": ["", -1, -3, -3, 1, -38, 2, -53, -2, -1, -81, 70, -1, 1, -5, -9, 46, 15, 35, -1, -22, 38, 59, -2, 4, -8, 13, 1, -83, -43, 4, 76, 13, 48], "withholdReward": false, "trial_id": "mdp_trial_12", "block": "test", "trialIndex": 13, "score": 58.5, "costs": -15.500000000000002, "simulationMode": [null, null, null, null, null], "rewards": [-2, 4, -8, 4, 76], "path": ["0", "0", "23", "24", "25", "30", "31"], "rt": [27795, 304, 113, 580, 339], "actions": ["left", "left", "left", "down", "right"], "actionTimes": [29423, 30224, 30848, 31933, 32791], "queries": {"click": {"state": {"target": ["23", "24", "25", "30", "33", "31", "32", "27", "29", "28"], "time": [3481, 4116, 5083, 6510, 7315, 11176, 14739, 18574, 21970, 26260]}, "edge": {"target": [], "time": []}}, "mouseover": {"state": {"target": ["23", "23", "24", "25", "30", "33", "31", "32", "24", "27", "29", "26", "28", "28"], "time": [2609, 3095, 3795, 4778, 6292, 6894, 10640, 13960, 18105, 18357, 20640, 25085, 25168, 25703]}, "edge": {"target": [], "time": []}}, "mouseout": {"state": {"target": ["1", "23", "23", "0", "23", "23", "24", "25", "30", "30", "33", "30", "31", "32", "31", "24", "27", "29", "29", "26", "28", "28", "28"], "time": [928, 993, 1177, 2578, 2643, 3678, 4578, 6078, 6527, 6844, 8360, 9076, 13044, 16259, 18055, 18137, 20156, 24005, 24654, 25152, 25235, 26393, 26771]}, "edge": {"target": [], "time": []}}}, "displayed_time": "33.29", "trialTime": 35559, "trial_type": "mouselab-mdp", "trial_index": 20, "time_elapsed": 778473, "internal_node_id": "0.0-6.0-1.0-11.0"}}, {"uniqueid": "w14274734:a60328596", "current_trial": 21, "dateTime": 1693481369234, "trialdata": {"revealed_states": [], "clicked_states": ["20", "17", "16", "18", "22", "21"], "num_clicks_accrued": [0, 0, 0, 0, 0, 0, 0, 0, 0, 0, 0, 0, 0], "stateRewards": ["", -2, -1, -6, -14, -55, 78, -13, 11, 14, -71, 59, 2, 2, 6, -6, 9, 38, 14, 7, 85, 11, 68, 1, -4, -1, -3, -63, -85, 9, -2, 63, -86, -10], "withholdReward": false, "trial_id": "mdp_trial_13", "block": "test", "trialIndex": 14, "score": 89.1, "costs": -12.9, "simulationMode": [null, null, null, null, null], "rewards": [2, 2, 6, 7, 85], "path": ["0", "0", "12", "13", "14", "19", "20"], "rt": [22304, 92, 65, 532, 722], "actions": ["right", "right", "right", "down", "right"], "actionTimes": [24314, 24927, 25501, 26534, 27773], "queries": {"click": {"state": {"target": ["20", "17", "16", "18", "22", "21"], "time": [3957, 7505, 10820, 14011, 17146, 20301]}, "edge": {"target": [], "time": []}}, "mouseover": {"state": {"target": ["12", "13", "14", "20", "17", "16", "18", "13", "22", "21", "19", "13", "12", "13"], "time": [2941, 3089, 3257, 3673, 4642, 8208, 11473, 14773, 15173, 17757, 22203, 22569, 23069, 23682]}, "edge": {"target": [], "time": []}}, "mouseout": {"state": {"target": ["0", "12", "13", "14", "20", "17", "16", "18", "13", "22", "21", "19", "13", "12", "13"], "time": [2342, 3058, 3191, 3374, 4242, 7824, 11290, 14607, 14990, 17507, 21569, 22386, 22786, 23650, 23699]}, "edge": {"target": [], "time": []}}}, "displayed_time": "28.29", "trialTime": 31641, "trial_type": "mouselab-mdp", "trial_index": 21, "time_elapsed": 810261, "internal_node_id": "0.0-6.0-1.0-12.0"}}, {"uniqueid": "w14274734:a60328596", "current_trial": 22, "dateTime": 1693481397631, "trialdata": {"revealed_states": [], "clicked_states": ["5", "6", "7", "11", "9", "10"], "num_clicks_accrued": [0, 0, 0, 0, 0, 0, 0, 0, 0, 0, 0, 0, 0], "stateRewards": ["", 2, -1, -4, -13, 74, 77, 3, 2, -43, -2, -11, 2, 3, 7, 11, -26, -29, -33, -3, -3, -13, -3, 1, 3, -7, 14, -59, 33, 9, -5, 34, 79, 68], "withholdReward": false, "trial_id": "mdp_trial_14", "block": "test", "trialIndex": 15, "score": 48.1, "costs": -12.9, "simulationMode": [null, null, null, null, null], "rewards": [2, -1, -4, -13, 77], "path": ["0", "0", "1", "2", "3", "4", "6"], "rt": [21029, 81, 78, 356, 615], "actions": ["up", "up", "up", "right", "right"], "actionTimes": [21313, 21915, 22512, 23390, 24517], "queries": {"click": {"state": {"target": ["5", "6", "7", "11", "9", "10"], "time": [1856, 4634, 7647, 11114, 14290, 17447]}, "edge": {"target": [], "time": []}}, "mouseover": {"state": {"target": ["1", "4", "5", "6", "7", "4", "3", "11", "9", "9", "8", "10"], "time": [1036, 1319, 1636, 2224, 5439, 8572, 8874, 9641, 12521, 12721, 14904, 15237]}, "edge": {"target": [], "time": []}}, "mouseout": {"state": {"target": ["23", "0", "1", "4", "5", "6", "7", "4", "3", "11", "9", "9", "8"], "time": [null, 36, 1169, 1436, 2140, 5173, 8439, 8607, 8989, 11243, 12553, 14821, 15020]}, "edge": {"target": [], "time": []}}}, "displayed_time": "25.03", "trialTime": 26863, "trial_type": "mouselab-mdp", "trial_index": 22, "time_elapsed": 838659, "internal_node_id": "0.0-6.0-1.0-13.0"}}, {"uniqueid": "w14274734:a60328596", "current_trial": 23, "dateTime": 1693481426564, "trialdata": {"revealed_states": [], "clicked_states": ["20", "17", "16", "18", "22"], "num_clicks_accrued": [0, 0, 0, 0, 0, 0, 0, 0, 0, 0, 0, 0, 0], "stateRewards": ["", 1, 1, -3, 7, 49, 78, 26, -5, 26, 48, -43, -1, -3, 2, -5, 4, -1, -60, 10, -35, 51, 81, -2, 1, -7, -5, -39, -86, -54, 4, -3, 74, 77], "withholdReward": false, "trial_id": "mdp_trial_15", "block": "test", "trialIndex": 16, "score": 78.25, "costs": -10.75, "simulationMode": [null, null, null, null, null], "rewards": [-1, -3, 2, 10, 81], "path": ["0", "0", "12", "13", "14", "19", "22"], "rt": [18537, 38, 642, 516, 899], "actions": ["right", "right", "right", "down", "left"], "actionTimes": [20893, 21447, 22617, 23647, 25057], "queries": {"click": {"state": {"target": ["20", "17", "16", "18", "22"], "time": [3733, 7146, 10419, 13643, 16859]}, "edge": {"target": [], "time": []}}, "mouseover": {"state": {"target": ["22", "19", "20", "20", "17", "16", "18", "13", "22", "21"], "time": [2995, 3032, 3111, 3412, 4281, 9664, 12230, 14444, 14761, 18409]}, "edge": {"target": [], "time": []}}, "mouseout": {"state": {"target": ["10", "23", "0", "22", "19", "20", "20", "17", "17", "16", "18", "13", "22", "22"], "time": [1428, 1495, 2878, 3013, 3078, 3178, 3948, 7616, 9563, 10881, 14311, 14612, 16974, 18328]}, "edge": {"target": [], "time": []}}}, "displayed_time": "25.57", "trialTime": 28714, "trial_type": "mouselab-mdp", "trial_index": 23, "time_elapsed": 867591, "internal_node_id": "0.0-6.0-1.0-14.0"}}, {"uniqueid": "w14274734:a60328596", "current_trial": 24, "dateTime": 1693481452212, "trialdata": {"revealed_states": [], "clicked_states": ["32", "31", "33", "27", "29"], "num_clicks_accrued": [0, 0, 0, 0, 0, 0, 0, 0, 0, 0, 0, 0, 0], "stateRewards": ["", 1, -3, -6, -5, 47, 80, -29, 11, -71, 10, -29, -2, 3, -6, 12, 2, -78, -6, 8, 34, -16, -5, -1, 3, 3, -13, 84, -36, -62, -3, -27, 66, 15], "withholdReward": false, "trial_id": "mdp_trial_16", "block": "test", "trialIndex": 17, "score": 65.25, "costs": -10.75, "simulationMode": [null, null, null, null, null], "rewards": [-1, 3, 3, -13, 84], "path": ["0", "0", "23", "24", "25", "26", "27"], "rt": [17760, 382, 40, 637, 657], "actions": ["left", "left", "left", "up", "up"], "actionTimes": [19534, 20436, 20993, 22154, 23326], "queries": {"click": {"state": {"target": ["32", "31", "33", "27", "29"], "time": [3118, 6299, 9381, 13250, 16062]}, "edge": {"target": [], "time": []}}, "mouseover": {"state": {"target": ["23", "24", "30", "32", "32", "31", "30", "33", "25", "27", "29", "26"], "time": [2222, 2259, 2573, 2609, 2906, 3810, 6825, 7176, 12585, 12935, 15058, 17506]}, "edge": {"target": [], "time": []}}, "mouseout": {"state": {"target": ["21", "12", "23", "24", "30", "32", "32", "31", "30", "33", "25", "27", "29", "26", "27", "27"], "time": [806, 1372, 2258, 2276, 2590, 2789, 3560, 6759, 6909, 12519, 12619, 13774, 17407, 17655, 17788, 18022]}, "edge": {"target": [], "time": []}}}, "displayed_time": "23.84", "trialTime": 25449, "trial_type": "mouselab-mdp", "trial_index": 24, "time_elapsed": 893239, "internal_node_id": "0.0-6.0-1.0-15.0"}}, {"uniqueid": "w14274734:a60328596", "current_trial": 25, "dateTime": 1693481474703, "trialdata": {"revealed_states": [], "clicked_states": ["6", "5", "7", "10"], "num_clicks_accrued": [0, 0, 0, 0, 0, 0, 0, 0, 0, 0, 0, 0, 0], "stateRewards": ["", 1, -1, 4, -2, -75, -75, 84, -9, -60, -79, 59, 2, -4, 8, 9, -17, -82, 80, 14, -4, 49, 49, -1, 3, 6, -11, -33, 34, 55, 9, -57, 5, 59], "withholdReward": false, "trial_id": "mdp_trial_17", "block": "test", "trialIndex": 18, "score": 77.4, "costs": -8.6, "simulationMode": [null, null, null, null, null, null], "rewards": [1, -1, 4, -2, 84], "path": ["0", "0", "1", "2", "3", "4", "7"], "rt": [12381, 198, 103, 18, 417, 688], "actions": ["up", "up", "up", "up", "right", "down"], "actionTimes": [14681, 14880, 15517, 16062, 17007, 18212], "queries": {"click": {"state": {"target": ["6", "5", "7", "10"], "time": [3620, 6760, 9731, 12839]}, "edge": {"target": [], "time": []}}, "mouseover": {"state": {"target": ["1", "7", "6", "5", "4", "7", "2", "10", "8"], "time": [2858, 3242, 3358, 4580, 7210, 7344, 10245, 11028, 13379]}, "edge": {"target": [], "time": []}}, "mouseout": {"state": {"target": ["28", "23", "1", "7", "6", "5", "4", "7", "2", "10", "8"], "time": [1309, 1675, 2875, 3292, 3897, 7144, 7277, 10161, 10477, 13260, 13678]}, "edge": {"target": [], "time": []}}}, "displayed_time": "18.71", "trialTime": 22302, "trial_type": "mouselab-mdp", "trial_index": 25, "time_elapsed": 915731, "internal_node_id": "0.0-6.0-1.0-16.0"}}, {"uniqueid": "w14274734:a60328596", "current_trial": 26, "dateTime": 1693481492913, "trialdata": {"revealed_states": [], "clicked_states": ["7", "10"], "num_clicks_accrued": [0, 0, 0, 0, 0, 0, 0, 0, 0, 0, 0, 0, 0], "stateRewards": ["", 1, -2, -8, -13, 4, 34, -84, -4, -49, 88, -70, -1, 3, -4, 10, -77, 13, -34, 15, -21, -16, 27, 1, -2, 8, -8, -6, 38, -26, 6, -15, 66, -3], "withholdReward": false, "trial_id": "mdp_trial_18", "block": "test", "trialIndex": 19, "score": 70.7, "costs": -4.3, "simulationMode": [null, null, null, null, null], "rewards": [1, -2, -8, -4, 88], "path": ["0", "0", "1", "2", "3", "8", "10"], "rt": [9009, 143, 1052, 417, 535], "actions": ["up", "up", "up", "left", "down"], "actionTimes": [10952, 11609, 13168, 14099, 15149], "queries": {"click": {"state": {"target": ["7", "10"], "time": [3367, 6559]}, "edge": {"target": [], "time": []}}, "mouseover": {"state": {"target": ["1", "7", "4", "6", "4", "2", "10", "9"], "time": [2715, 2916, 3834, 4003, 4317, 4384, 4634, 7719]}, "edge": {"target": [], "time": []}}, "mouseout": {"state": {"target": ["8", "10", "1", "1", "7", "4", "6", "4", "2", "10"], "time": [949, 1265, 1465, 2799, 3471, 3884, 4267, 4334, 4417, 7052]}, "edge": {"target": [], "time": []}}}, "displayed_time": "15.95", "trialTime": 18026, "trial_type": "mouselab-mdp", "trial_index": 26, "time_elapsed": 933941, "internal_node_id": "0.0-6.0-1.0-17.0"}}, {"uniqueid": "w14274734:a60328596", "current_trial": 27, "dateTime": 1693481513119, "trialdata": {"revealed_states": [], "clicked_states": ["21", "32"], "num_clicks_accrued": [0, 0, 0, 0, 0, 0, 0, 0, 0, 0, 0, 0, 0], "stateRewards": ["", -1, 4, 3, 12, -27, 34, -33, 3, -63, 1, 6, 2, 2, -6, -11, -77, -85, 68, -6, 51, 81, -60, -2, -2, 1, 15, 20, 15, 68, -10, -14, 6, -4], "withholdReward": false, "trial_id": "mdp_trial_19", "block": "test", "trialIndex": 20, "score": 68.7, "costs": -4.3, "simulationMode": [null, null, null, null, null], "rewards": [2, 2, -6, -6, 81], "path": ["0", "0", "12", "13", "14", "19", "21"], "rt": [8939, 8, 506, 439, 469], "actions": ["right", "right", "right", "down", "down"], "actionTimes": [10812, 11333, 12364, 13320, 14301], "queries": {"click": {"state": {"target": ["21", "32"], "time": [3431, 6848]}, "edge": {"target": [], "time": []}}, "mouseover": {"state": {"target": ["12", "13", "13", "22", "21", "32", "31"], "time": [2440, 2606, 2706, 3073, 3139, 4244, 7577]}, "edge": {"target": [], "time": []}}, "mouseout": {"state": {"target": ["9", "8", "10", "12", "13", "13", "22", "21", "32"], "time": [1007, 1156, 1190, 2556, 2623, 2756, 3106, 3610, 7160]}, "edge": {"target": [], "time": []}}}, "displayed_time": "15.87", "trialTime": 20012, "trial_type": "mouselab-mdp", "trial_index": 27, "time_elapsed": 954146, "internal_node_id": "0.0-6.0-1.0-18.0"}}, {"uniqueid": "w14274734:a60328596", "current_trial": 28, "dateTime": 1693481548254, "trialdata": {"revealed_states": [], "clicked_states": ["6", "16", "21", "20", "33", "31"], "num_clicks_accrued": [0, 0, 0, 0, 0, 0, 0, 0, 0, 0, 0, 0, 0], "stateRewards": ["", -2, 1, -7, -8, -37, -76, -87, 11, 30, -63, 80, -1, 4, 2, -1, 42, 17, 52, -3, -75, -80, -68, 2, -3, -5, -15, -48, 82, 24, -7, 5, -22, -71], "withholdReward": false, "trial_id": "mdp_trial_20", "block": "test", "trialIndex": 21, "score": 33.1, "costs": -12.9, "simulationMode": [null, null, null, null, null], "rewards": [-1, 4, 2, -1, 42], "path": ["0", "0", "12", "13", "14", "15", "16"], "rt": [25011, 117, 333, 738, 49], "actions": ["right", "right", "right", "up", "up"], "actionTimes": [26656, 27286, 28134, 29389, 29946], "queries": {"click": {"state": {"target": ["6", "16", "21", "20", "33", "31"], "time": [3803, 6929, 10318, 14033, 18039, 22153]}, "edge": {"target": [], "time": []}}, "mouseover": {"state": {"target": ["0", "14", "19", "21", "21", "19", "14", "6", "16", "15", "14", "19", "21", "20", "19", "22", "31", "30", "33", "31"], "time": [2117, 2417, 2518, 2554, 2817, 3151, 3186, 3584, 4389, 7802, 8052, 8253, 8471, 13680, 17366, 17413, 17663, 17730, 17820, 21745]}, "edge": {"target": [], "time": []}}, "mouseout": {"state": {"target": ["31", "0", "0", "14", "19", "21", "21", "19", "14", "6", "16", "15", "14", "19", "21", "20", "19", "22", "31", "30", "33", "31"], "time": [817, 1734, 2137, 2501, 2537, 2584, 3117, 3168, 3203, 4088, 7652, 7970, 8187, 8363, 13513, 17346, 17396, 17432, 17696, 17762, 18147, 25660]}, "edge": {"target": [], "time": []}}}, "displayed_time": "30.46", "trialTime": 34949, "trial_type": "mouselab-mdp", "trial_index": 28, "time_elapsed": 989282, "internal_node_id": "0.0-6.0-1.0-19.0"}}, {"uniqueid": "w14274734:a60328596", "current_trial": 29, "dateTime": 1693481582689, "trialdata": {"revealed_states": [], "clicked_states": ["10", "7", "5", "9", "27", "11", "6"], "num_clicks_accrued": [0, 0, 0, 0, 0, 0, 0, 0, 0, 0, 0, 0, 0], "stateRewards": ["", 2, -1, 8, -2, -16, 69, -39, -7, -13, -27, -86, 2, -2, 2, 13, -34, -16, -20, -5, 19, 81, 32, -2, -1, 2, -14, 20, 80, 58, 4, 70, 12, 73], "withholdReward": false, "trial_id": "mdp_trial_21", "block": "test", "trialIndex": 22, "score": 60.95, "costs": -15.05, "simulationMode": [null, null, null, null, null], "rewards": [2, -1, 8, -2, 69], "path": ["0", "0", "1", "2", "3", "4", "6"], "rt": [25643, 115, 299, 258, 434], "actions": ["up", "up", "up", "right", "right"], "actionTimes": [27153, 27774, 28590, 29356, 30316], "queries": {"click": {"state": {"target": ["10", "7", "5", "9", "27", "11", "6"], "time": [2605, 5780, 8822, 11984, 16287, 20010, 23392]}, "edge": {"target": [], "time": []}}, "mouseover": {"state": {"target": ["1", "2", "10", "7", "4", "5", "9", "11", "27", "11", "8", "3", "6"], "time": [2029, 2081, 2463, 3503, 6216, 6350, 9748, 15408, 15824, 19741, 20412, 20477, 21963]}, "edge": {"target": [], "time": []}}, "mouseout": {"state": {"target": ["18", "0", "1", "2", "10", "7", "4", "5", "9", "11", "27", "11", "8", "3", "6"], "time": [829, 1912, 2064, 2196, 2757, 6131, 6299, 9234, 15325, 15691, 18907, 20364, 20461, 20494, 25218]}, "edge": {"target": [], "time": []}}}, "displayed_time": "30.83", "trialTime": 34140, "trial_type": "mouselab-mdp", "trial_index": 29, "time_elapsed": 1023716, "internal_node_id": "0.0-6.0-1.0-20.0"}}, {"uniqueid": "w14274734:a60328596", "current_trial": 30, "dateTime": 1693481605991, "trialdata": {"revealed_states": [], "clicked_states": ["1", "2", "3", "4", "6", "7", "5"], "num_clicks_accrued": [0, 0, 0, 0, 0, 0, 0, 0, 0, 0, 0, 0, 0], "stateRewards": ["", 2, 3, -1, 16, -78, -11, 46, 2, -20, 79, -67, 2, 3, 2, 11, -83, -42, -58, -11, -67, -22, 55, 2, -1, -1, -16, -83, -82, 23, -11, -29, 13, 13], "withholdReward": false, "trial_id": "mdp_trial_22", "block": "test", "trialIndex": 23, "score": 56.95, "costs": -9.05, "simulationMode": [null, null, null, null, null, null], "rewards": [2, 3, -1, 16, 46], "path": ["0", "0", "1", "2", "3", "4", "7"], "rt": [15000, 255, 125, 50, 324, 834], "actions": ["up", "up", "up", "up", "right", "down"], "actionTimes": [16704, 16961, 17622, 18184, 19040, 20395], "queries": {"click": {"state": {"target": ["1", "2", "3", "4", "6", "7", "5"], "time": [3120, 4037, 5660, 7048, 7846, 11038, 14189]}, "edge": {"target": [], "time": []}}, "mouseover": {"state": {"target": ["1", "1", "2", "3", "4", "6", "7", "4", "5"], "time": [2247, 2613, 3536, 5129, 6367, 7484, 8467, 11733, 12417]}, "edge": {"target": [], "time": []}}, "mouseout": {"state": {"target": ["16", "15", "18", "1", "1", "2", "3", "4", "6", "7", "4"], "time": [464, 930, 996, 2381, 3225, 4818, 6235, 7402, 8335, 11516, 11917]}, "edge": {"target": [], "time": []}}}, "displayed_time": "20.91", "trialTime": 23021, "trial_type": "mouselab-mdp", "trial_index": 30, "time_elapsed": 1047018, "internal_node_id": "0.0-6.0-1.0-21.0"}}, {"uniqueid": "w14274734:a60328596", "current_trial": 31, "dateTime": 1693481626021, "trialdata": {"revealed_states": [], "clicked_states": ["1", "2", "3", "4", "7", "5"], "num_clicks_accrued": [0, 0, 0, 0, 0, 0, 0, 0, 0, 0, 0, 0, 0], "stateRewards": ["", -2, 3, -1, -9, 44, 48, -37, -3, 71, -39, 87, -1, 3, -4, 4, -21, 59, -15, -8, -1, 28, -38, 2, 4, 4, 8, -85, -72, -63, 14, 58, 63, -46], "withholdReward": false, "trial_id": "mdp_trial_23", "block": "test", "trialIndex": 24, "score": 28.1, "costs": -6.9, "simulationMode": [null, null, null, null, null], "rewards": [-2, 3, -1, -9, 44], "path": ["0", "0", "1", "2", "3", "4", "5"], "rt": [11993, 60, 70, 226, 66], "actions": ["up", "up", "up", "right", "up"], "actionTimes": [14307, 14890, 15467, 16209, 16795], "queries": {"click": {"state": {"target": ["1", "2", "3", "4", "7", "5"], "time": [3237, 3893, 4726, 5935, 6694, 9857]}, "edge": {"target": [], "time": []}}, "mouseover": {"state": {"target": ["1", "2", "3", "4", "7", "5", "6"], "time": [2780, 3570, 4304, 5301, 6250, 7799, 10468]}, "edge": {"target": [], "time": []}}, "mouseout": {"state": {"target": ["5", "4", "1", "2", "3", "4", "7", "5"], "time": [1347, 1381, 3325, 4249, 5134, 6216, 7133, 10249]}, "edge": {"target": [], "time": []}}}, "displayed_time": "17.31", "trialTime": 19810, "trial_type": "mouselab-mdp", "trial_index": 31, "time_elapsed": 1067049, "internal_node_id": "0.0-6.0-1.0-22.0"}}, {"uniqueid": "w14274734:a60328596", "current_trial": 32, "dateTime": 1693481645992, "trialdata": {"revealed_states": [], "clicked_states": ["1", "10", "11", "9"], "num_clicks_accrued": [0, 0, 0, 0, 0, 0, 0, 0, 0, 0, 0, 0, 0], "stateRewards": ["", 2, -3, -2, 14, -4, 85, 46, 15, -28, 41, 31, -1, -1, -1, 5, 62, 79, 57, 12, -73, -64, 86, -1, 1, -3, -5, 68, 11, -32, 8, -80, -21, -56], "withholdReward": false, "trial_id": "mdp_trial_24", "block": "test", "trialIndex": 25, "score": 46.8, "costs": -6.199999999999999, "simulationMode": [null, null, null, null, null, null], "rewards": [2, -3, -2, 15, 41], "path": ["0", "0", "1", "2", "3", "8", "10"], "rt": [11219, 924, 136, 289, 405, 110], "actions": ["up", "up", "up", "up", "left", "down"], "actionTimes": [14503, 15428, 16082, 16884, 17802, 18424], "queries": {"click": {"state": {"target": ["1", "10", "11", "9"], "time": [4183, 5579, 9247, 12317]}, "edge": {"target": [], "time": []}}, "mouseover": {"state": {"target": ["1", "10", "11", "9"], "time": [3896, 5068, 5968, 9732]}, "edge": {"target": [], "time": []}}, "mouseout": {"state": {"target": ["6", "0", "0", "1", "10", "11", "9"], "time": [2297, 2531, 3580, 4384, 5868, 9614, 12815]}, "edge": {"target": [], "time": []}}}, "displayed_time": "18.95", "trialTime": 19754, "trial_type": "mouselab-mdp", "trial_index": 32, "time_elapsed": 1087019, "internal_node_id": "0.0-6.0-1.0-23.0"}}, {"uniqueid": "w14274734:a60328596", "current_trial": 33, "dateTime": 1693481664418, "trialdata": {"revealed_states": [], "clicked_states": ["32", "31", "33"], "num_clicks_accrued": [0, 0, 0, 0, 0, 0, 0, 0, 0, 0, 0, 0, 0], "stateRewards": ["", 1, -2, 7, -14, 88, -56, -44, -14, 64, -51, -57, -2, 3, -4, -9, -11, 19, -77, -1, 68, 75, -67, -1, 1, -2, 5, -37, 70, -34, -10, -72, 63, -41], "withholdReward": false, "trial_id": "mdp_trial_25", "block": "test", "trialIndex": 26, "score": 44.55, "costs": -6.449999999999999, "simulationMode": [null, null, null, null, null, null], "rewards": [-1, 1, -2, -10, 63], "path": ["0", "0", "23", "24", "25", "30", "32"], "rt": [10168, 214, 102, 150, 411, 114], "actions": ["left", "left", "left", "left", "down", "down"], "actionTimes": [12616, 12831, 13465, 14145, 15070, 15691], "queries": {"click": {"state": {"target": ["32", "31", "33"], "time": [4594, 7914, 11283]}, "edge": {"target": [], "time": []}}, "mouseover": {"state": {"target": ["23", "24", "31", "32", "31", "30", "33", "30"], "time": [3440, 3790, 4023, 4356, 5892, 8377, 10711, 11743]}, "edge": {"target": [], "time": []}}, "mouseout": {"state": {"target": ["8", "1", "23", "24", "31", "32", "31", "30", "33", "30"], "time": [1391, 1490, 3458, 3957, 4174, 4793, 8294, 8511, 11693, 11811]}, "edge": {"target": [], "time": []}}}, "displayed_time": "16.45", "trialTime": 18198, "trial_type": "mouselab-mdp", "trial_index": 33, "time_elapsed": 1105446, "internal_node_id": "0.0-6.0-1.0-24.0"}}, {"uniqueid": "w14274734:a60328596", "current_trial": 34, "dateTime": 1693481684792, "trialdata": {"revealed_states": [], "clicked_states": ["5", "7", "20"], "num_clicks_accrued": [0, 0, 0, 0, 0, 0, 0, 0, 0, 0, 0, 0, 0], "stateRewards": ["", -2, -3, -6, -7, 9, 16, 65, 5, -41, 20, -25, -1, -4, 1, -11, -49, -4, 71, 1, 39, -62, 52, -2, -3, 7, -9, -28, -70, 84, 8, 24, -58, 82], "withholdReward": false, "trial_id": "mdp_trial_26", "block": "test", "trialIndex": 27, "score": 40.55, "costs": -6.449999999999999, "simulationMode": [null, null, null, null, null], "rewards": [-2, -3, -6, -7, 65], "path": ["0", "0", "1", "2", "3", "4", "7"], "rt": [11054, 57, 305, 109, 531], "actions": ["up", "up", "up", "right", "down"], "actionTimes": [12502, 13076, 13901, 14525, 15576], "queries": {"click": {"state": {"target": ["5", "7", "20"], "time": [2834, 6044, 9272]}, "edge": {"target": [], "time": []}}, "mouseover": {"state": {"target": ["7", "6", "6", "5", "4", "7", "16", "17", "20"], "time": [2196, 2262, 2363, 2579, 3152, 3884, 6683, 6952, 7434]}, "edge": {"target": [], "time": []}}, "mouseout": {"state": {"target": ["31", "0", "7", "6", "6", "5", "4", "7", "16", "17", "20"], "time": [663, 1112, 2230, 2296, 2496, 3100, 3216, 6469, 6733, 7136, 9734]}, "edge": {"target": [], "time": []}}}, "displayed_time": "16.08", "trialTime": 20100, "trial_type": "mouselab-mdp", "trial_index": 34, "time_elapsed": 1125820, "internal_node_id": "0.0-6.0-1.0-25.0"}}, {"uniqueid": "w14274734:a60328596", "current_trial": 35, "dateTime": 1693481710754, "trialdata": {"revealed_states": [], "clicked_states": [], "num_clicks_accrued": [0, 0, 0, 0, 0, 0, 0, 0, 0, 0, 0, 0, 0], "stateRewards": ["", -1, -4, -1, -5, -28, -23, -15, -15, -38, 59, -87, 2, 2, -5, 9, -55, -39, -71, -6, 85, -85, -11, -1, -2, 5, -10, 1, 25, 41, -4, 69, -35, 86], "withholdReward": false, "trial_id": "mdp_trial_27", "block": "test", "trialIndex": 28, "score": -108, "costs": 0, "simulationMode": [null, null, null, null, null], "rewards": [-1, -4, -1, -15, -87], "path": ["0", "0", "1", "2", "3", "8", "11"], "rt": [13241, 1482, 255, 551, 816], "actions": ["up", "up", "up", "left", "left"], "actionTimes": [15685, 17687, 18459, 19523, 20855], "queries": {"click": {"state": {"target": [], "time": []}, "edge": {"target": [], "time": []}}, "mouseover": {"state": {"target": ["1", "7", "7", "1", "7", "12"], "time": [4870, 5235, 5552, 9168, 9351, 10867]}, "edge": {"target": [], "time": []}}, "mouseout": {"state": {"target": ["20", "22", "23", "28", "1", "7", "7", "1", "7", "12"], "time": [1620, 1653, 1703, 1888, 5102, 5270, 7518, 9188, 10251, 10954]}, "edge": {"target": [], "time": []}}}, "displayed_time": "21.37", "trialTime": 25693, "trial_type": "mouselab-mdp", "trial_index": 35, "time_elapsed": 1151781, "internal_node_id": "0.0-6.0-1.0-26.0"}}, {"uniqueid": "w14274734:a60328596", "current_trial": 36, "dateTime": 1693481735200, "trialdata": {"revealed_states": [], "clicked_states": ["7", "10", "9", "5"], "num_clicks_accrued": [0, 0, 0, 0, 0, 0, 0, 0, 0, 0, 0, 0, 0], "stateRewards": ["", 2, 3, 8, 14, 69, -27, 17, 2, -71, -65, -10, 2, -3, 7, 8, 65, -10, 65, -12, 73, -12, 13, -2, -2, 6, 10, -79, -69, -18, 10, -85, 67, 74], "withholdReward": false, "trial_id": "mdp_trial_28", "block": "test", "trialIndex": 29, "score": 87.4, "costs": -8.6, "simulationMode": [null, null, null, null, null], "rewards": [2, 3, 8, 14, 69], "path": ["0", "0", "1", "2", "3", "4", "5"], "rt": [14869, 135, 479, 103, 537], "actions": ["up", "up", "up", "right", "up"], "actionTimes": [16104, 16760, 17753, 18377, 19429], "queries": {"click": {"state": {"target": ["7", "10", "9", "5"], "time": [2095, 5515, 8980, 12125]}, "edge": {"target": [], "time": []}}, "mouseover": {"state": {"target": ["7", "2", "10", "8", "9", "5", "18", "15", "17"], "time": [1910, 2401, 2782, 5965, 6232, 9778, 13309, 13359, 13875]}, "edge": {"target": [], "time": []}}, "mouseout": {"state": {"target": ["12", "0", "7", "2", "10", "8", "9", "5", "18", "15", "17", "13", "12"], "time": [626, 793, 2340, 2615, 5880, 6048, 9445, 12960, 13326, 13378, 23019, 23386, 23435]}, "edge": {"target": [], "time": []}}}, "displayed_time": "19.94", "trialTime": 24204, "trial_type": "mouselab-mdp", "trial_index": 36, "time_elapsed": 1176228, "internal_node_id": "0.0-6.0-1.0-27.0"}}, {"uniqueid": "w14274734:a60328596", "current_trial": 37, "dateTime": 1693481752921, "trialdata": {"revealed_states": [], "clicked_states": ["7", "5", "6"], "num_clicks_accrued": [0, 0, 0, 0, 0, 0, 0, 0, 0, 0, 0, 0, 0], "stateRewards": ["", 1, 2, -3, -5, 66, -50, -47, -5, 1, 28, -27, 1, 1, -1, -6, 37, -25, 56, 1, -82, -66, -40, -1, -4, -7, 15, -61, -23, 26, 10, 14, -56, 29], "withholdReward": false, "trial_id": "mdp_trial_29", "block": "test", "trialIndex": 30, "score": 54.55, "costs": -6.449999999999999, "simulationMode": [null, null, null, null, null, null], "rewards": [1, 2, -3, -5, 66], "path": ["0", "0", "1", "2", "3", "4", "5"], "rt": [8664, 164, 102, 585, 111, 23], "actions": ["up", "up", "up", "up", "right", "up"], "actionTimes": [10247, 10413, 11047, 12164, 12788, 13329], "queries": {"click": {"state": {"target": ["7", "5", "6"], "time": [2475, 6047, 9276]}, "edge": {"target": [], "time": []}}, "mouseover": {"state": {"target": ["7", "4", "5", "6"], "time": [2240, 2845, 2945, 6460]}, "edge": {"target": [], "time": []}}, "mouseout": {"state": {"target": ["7", "4", "5"], "time": [2761, 2880, 6394]}, "edge": {"target": [], "time": []}}}, "displayed_time": "15.58", "trialTime": 17414, "trial_type": "mouselab-mdp", "trial_index": 37, "time_elapsed": 1193949, "internal_node_id": "0.0-6.0-1.0-28.0"}}, {"uniqueid": "w14274734:a60328596", "current_trial": 38, "dateTime": 1693481772441, "trialdata": {"revealed_states": [], "clicked_states": ["14", "20", "21"], "num_clicks_accrued": [0, 0, 0, 0, 0, 0, 0, 0, 0, 0, 0, 0, 0], "stateRewards": ["", 2, 4, 7, -6, -76, -81, 2, 5, -66, -3, 36, -2, -4, 6, -2, -69, 4, -49, -6, 67, 38, -67, 2, 1, 1, 6, -68, -21, 52, -16, -16, 6, -70], "withholdReward": false, "trial_id": "mdp_trial_30", "block": "test", "trialIndex": 31, "score": 55.75, "costs": -5.25, "simulationMode": [null, null, null, null, null, null], "rewards": [-2, -4, 6, -6, 67], "path": ["0", "0", "12", "13", "14", "19", "20"], "rt": [6767, 167, 118, 573, 403, 333], "actions": ["right", "right", "right", "right", "down", "right"], "actionTimes": [8602, 8771, 9418, 10524, 11448, 12296], "queries": {"click": {"state": {"target": ["14", "20", "21"], "time": [3390, 4158, 7336]}, "edge": {"target": [], "time": []}}, "mouseover": {"state": {"target": ["13", "14", "14", "20", "21", "19", "14"], "time": [2578, 2727, 3044, 3849, 4866, 7782, 7847]}, "edge": {"target": [], "time": []}}, "mouseout": {"state": {"target": ["6", "4", "2", "0", "13", "14", "14", "20", "21", "19", "14"], "time": [1145, 1162, 1195, 2311, 2711, 2744, 3634, 4701, 7699, 7834, 7883]}, "edge": {"target": [], "time": []}}}, "displayed_time": "15.84", "trialTime": 19261, "trial_type": "mouselab-mdp", "trial_index": 38, "time_elapsed": 1213469, "internal_node_id": "0.0-6.0-1.0-29.0"}}, {"uniqueid": "w14274734:a60328596", "current_trial": 39, "dateTime": 1693481797042, "trialdata": {"revealed_states": [], "clicked_states": ["32", "31"], "num_clicks_accrued": [0, 0, 0, 0, 0, 0, 0, 0, 0, 0, 0, 0, 0], "stateRewards": ["", -1, 4, -8, 12, 14, 69, -8, 5, -72, -14, 56, -1, -1, -1, 9, 67, 19, 11, -9, -88, -58, 3, 2, -4, -8, 4, 62, 77, -74, 5, -31, 65, 88], "withholdReward": false, "trial_id": "mdp_trial_31", "block": "test", "trialIndex": 32, "score": 55.7, "costs": -4.3, "simulationMode": [null, null, null, null, null, null], "rewards": [2, -4, -8, 5, 65], "path": ["0", "0", "23", "24", "25", "30", "32"], "rt": [6508, 164, 51, 846, 421, 505], "actions": ["left", "left", "left", "left", "down", "down"], "actionTimes": [9654, 9819, 10403, 11784, 12717, 13736], "queries": {"click": {"state": {"target": ["32", "31"], "time": [4299, 8716]}, "edge": {"target": [], "time": []}}, "mouseover": {"state": {"target": ["0", "31", "30", "33", "32", "31"], "time": [3446, 3545, 3582, 3616, 4062, 4816]}, "edge": {"target": [], "time": []}}, "mouseout": {"state": {"target": ["14", "1", "0", "31", "30", "33", "32", "31", "24"], "time": [2295, 2512, 3495, 3563, 3599, 3662, 4532, 9116, 17141]}, "edge": {"target": [], "time": []}}}, "displayed_time": "17.15", "trialTime": 24370, "trial_type": "mouselab-mdp", "trial_index": 39, "time_elapsed": 1238070, "internal_node_id": "0.0-6.0-1.0-30.0"}}, {"uniqueid": "w14274734:a60328596", "current_trial": 40, "dateTime": 1693481818553, "trialdata": {"revealed_states": [], "clicked_states": [], "num_clicks_accrued": [0, 0, 0, 0, 0, 0, 0, 0, 0, 0, 0, 0, 0], "stateRewards": ["", -1, 1, -2, 5, 73, 15, 61, 8, 7, 38, 76, 2, 2, -4, -6, -6, -26, 43, -5, -45, -85, -35, -2, 1, -4, 15, -10, 69, 72, -11, 84, -49, -38], "withholdReward": false, "trial_id": "mdp_trial_32", "block": "test", "trialIndex": 33, "score": 79, "costs": 0, "simulationMode": [null, null, null, null, null], "rewards": [-2, 1, -4, 15, 69], "path": ["0", "0", "23", "24", "25", "26", "28"], "rt": [8503, 831, 305, 655, 416], "actions": ["left", "left", "left", "up", "right"], "actionTimes": [12856, 14208, 15026, 16195, 17125], "queries": {"click": {"state": {"target": [], "time": []}, "edge": {"target": [], "time": []}}, "mouseover": {"state": {"target": ["0", "1", "28"], "time": [6855, 7403, 8070]}, "edge": {"target": [], "time": []}}, "mouseout": {"state": {"target": ["22", "0", "0", "0", "0", "1", "28"], "time": [2038, 2171, 2355, 6837, 7221, 7736, 10169]}, "edge": {"target": [], "time": []}}}, "displayed_time": "18.35", "trialTime": 21232, "trial_type": "mouselab-mdp", "trial_index": 40, "time_elapsed": 1259581, "internal_node_id": "0.0-6.0-1.0-31.0"}}, {"uniqueid": "w14274734:a60328596", "current_trial": 41, "dateTime": 1693481836659, "trialdata": {"revealed_states": [], "clicked_states": ["12", "14", "19", "20", "21"], "num_clicks_accrued": [0, 0, 0, 0, 0, 0, 0, 0, 0, 0, 0, 0, 0], "stateRewards": ["", 1, -3, -2, 14, 49, -40, -39, 2, 26, -61, 73, 1, -4, -8, 12, 79, 29, -65, -13, 55, -26, 27, -1, 3, 3, 9, -17, -60, -18, -8, 35, -88, 69], "withholdReward": false, "trial_id": "mdp_trial_33", "block": "test", "trialIndex": 34, "score": 24.45, "costs": -6.550000000000001, "simulationMode": [null, null, null, null, null, null], "rewards": [1, -4, -8, -13, 55], "path": ["0", "0", "12", "13", "14", "19", "20"], "rt": [8049, 198, 137, 3, 311, 316], "actions": ["right", "right", "right", "right", "down", "right"], "actionTimes": [10389, 10588, 11256, 11789, 12626, 13464], "queries": {"click": {"state": {"target": ["12", "14", "19", "20", "21"], "time": [3479, 4278, 5011, 5693, 8521]}, "edge": {"target": [], "time": []}}, "mouseover": {"state": {"target": ["12", "13", "12", "13", "14", "14", "19", "20", "21"], "time": [2766, 2898, 3314, 3686, 3751, 4083, 4735, 5284, 6253]}, "edge": {"target": [], "time": []}}, "mouseout": {"state": {"target": ["0", "12", "13", "12", "13", "14", "14", "19", "20", "19", "21", "20"], "time": [2014, 2831, 3081, 3651, 3735, 3784, 4638, 5235, 6053, 6135, 9264, 9465]}, "edge": {"target": [], "time": []}}}, "displayed_time": "16.34", "trialTime": 17737, "trial_type": "mouselab-mdp", "trial_index": 41, "time_elapsed": 1277686, "internal_node_id": "0.0-6.0-1.0-32.0"}}, {"uniqueid": "w14274734:a60328596", "current_trial": 42, "dateTime": 1693481853950, "trialdata": {"revealed_states": [], "clicked_states": ["18", "16", "17"], "num_clicks_accrued": [0, 0, 0, 0, 0, 0, 0, 0, 0, 0, 0, 0, 0], "stateRewards": ["", -1, 3, -7, 16, -32, -74, -48, 2, 10, 15, -30, 1, 1, -2, 10, 12, -83, 67, 13, -66, 47, 65, -2, 4, 2, -14, -8, -57, 24, 9, 65, 12, 46], "withholdReward": false, "trial_id": "mdp_trial_34", "block": "test", "trialIndex": 35, "score": 70.55, "costs": -6.449999999999999, "simulationMode": [null, null, null, null, null, null], "rewards": [1, 1, -2, 10, 67], "path": ["0", "0", "12", "13", "14", "15", "18"], "rt": [9108, 186, 3, 90, 666, 580], "actions": ["right", "right", "right", "right", "up", "left"], "actionTimes": [11745, 11936, 12473, 13092, 14283, 15384], "queries": {"click": {"state": {"target": ["18", "16", "17"], "time": [4365, 7429, 10669]}, "edge": {"target": [], "time": []}}, "mouseover": {"state": {"target": ["12", "12", "13", "15", "18", "15", "16", "17"], "time": [3150, 3500, 3783, 3850, 4150, 4640, 4957, 7720]}, "edge": {"target": [], "time": []}}, "mouseout": {"state": {"target": ["20", "22", "0", "12", "12", "13", "15", "18", "15", "16", "17"], "time": [1501, 1617, 3067, 3200, 3733, 3801, 3950, 4588, 4706, 7687, 11019]}, "edge": {"target": [], "time": []}}}, "displayed_time": "16.64", "trialTime": 17021, "trial_type": "mouselab-mdp", "trial_index": 42, "time_elapsed": 1294977, "internal_node_id": "0.0-6.0-1.0-33.0"}}, {"uniqueid": "w14274734:a60328596", "current_trial": 43, "dateTime": 1693481873212, "trialdata": {"revealed_states": [], "clicked_states": ["11", "9", "5"], "num_clicks_accrued": [0, 0, 0, 0, 0, 0, 0, 0, 0, 0, 0, 0, 0], "stateRewards": ["", -1, 1, -5, -6, -78, 47, -13, 12, 48, -88, 20, 2, -3, -2, 13, -20, 37, -57, 14, -38, 30, 31, -2, -2, 8, 2, -23, 78, 28, 12, -74, -88, 8], "withholdReward": false, "trial_id": "mdp_trial_35", "block": "test", "trialIndex": 36, "score": 48.55, "costs": -6.449999999999999, "simulationMode": [null, null, null, null, null, null], "rewards": [-1, 1, -5, 12, 48], "path": ["0", "0", "1", "2", "3", "8", "9"], "rt": [8978, 217, 81, 42, 539, 602], "actions": ["up", "up", "up", "up", "left", "up"], "actionTimes": [12008, 12228, 12837, 13395, 14443, 15555], "queries": {"click": {"state": {"target": ["11", "9", "5"], "time": [4337, 7413, 10503]}, "edge": {"target": [], "time": []}}, "mouseover": {"state": {"target": ["1", "2", "11", "8", "9", "5", "5", "4"], "time": [3517, 3683, 4234, 4702, 4835, 8302, 8572, 11070]}, "edge": {"target": [], "time": []}}, "mouseout": {"state": {"target": ["24", "0", "0", "1", "2", "11", "8", "9", "5", "5", "4"], "time": [2151, 2450, 3400, 3583, 3767, 4622, 4754, 7755, 8352, 11003, 11153]}, "edge": {"target": [], "time": []}}}, "displayed_time": "17.03", "trialTime": 19039, "trial_type": "mouselab-mdp", "trial_index": 43, "time_elapsed": 1314239, "internal_node_id": "0.0-6.0-1.0-34.0"}}, {"uniqueid": "w14274734:a60328596", "current_trial": 44, "dateTime": 1693481892078, "trialdata": {"revealed_states": [], "clicked_states": ["20", "17"], "num_clicks_accrued": [0, 0, 0, 0, 0, 0, 0, 0, 0, 0, 0, 0, 0], "stateRewards": ["", -2, 1, -3, -16, -39, -52, 30, -7, -41, -59, 11, 2, 1, 8, 2, -11, -26, -42, -13, 87, -59, -48, -1, -1, -1, 16, -79, 31, 50, -1, -84, 34, -82], "withholdReward": false, "trial_id": "mdp_trial_36", "block": "test", "trialIndex": 37, "score": 80.7, "costs": -4.3, "simulationMode": [null, null, null, null, null, null], "rewards": [2, 1, 8, -13, 87], "path": ["0", "0", "12", "13", "14", "19", "20"], "rt": [5894, 182, 19, 556, 402, 349], "actions": ["right", "right", "right", "right", "down", "right"], "actionTimes": [8529, 8713, 9262, 10348, 11261, 12124], "queries": {"click": {"state": {"target": ["20", "17"], "time": [3797, 6923]}, "edge": {"target": [], "time": []}}, "mouseover": {"state": {"target": ["12", "20", "17", "15"], "time": [3054, 3520, 4275, 7457]}, "edge": {"target": [], "time": []}}, "mouseout": {"state": {"target": ["2", "0", "0", "12", "20", "17", "15"], "time": [1454, 1854, 2954, 3088, 3992, 7375, 7908]}, "edge": {"target": [], "time": []}}}, "displayed_time": "16.64", "trialTime": 18632, "trial_type": "mouselab-mdp", "trial_index": 44, "time_elapsed": 1333105, "internal_node_id": "0.0-6.0-1.0-35.0"}}, {"uniqueid": "w14274734:a60328596", "current_trial": 45, "dateTime": 1693481925839, "trialdata": {"revealed_states": [], "clicked_states": ["9", "5", "21", "32", "33", "29", "27"], "num_clicks_accrued": [0, 0, 0, 0, 0, 0, 0, 0, 0, 0, 0, 0, 0], "stateRewards": ["", -1, -4, 8, 8, -68, 47, 24, -7, -61, 49, -69, -1, -1, 8, -7, 42, 1, -45, -11, 10, -63, -6, 1, 4, 6, -16, 79, -37, -58, -12, 81, 18, -53], "withholdReward": false, "trial_id": "mdp_trial_37", "block": "test", "trialIndex": 38, "score": 58.95, "costs": -15.05, "simulationMode": [null, null, null, null, null], "rewards": [1, 4, 6, -16, 79], "path": ["0", "0", "23", "24", "25", "26", "27"], "rt": [25935, 123, 79, 813, 479], "actions": ["left", "left", "left", "up", "up"], "actionTimes": [27530, 28168, 28758, 30089, 31072], "queries": {"click": {"state": {"target": ["9", "5", "21", "32", "33", "29", "27"], "time": [2693, 6225, 9434, 12513, 15854, 19500, 23403]}, "edge": {"target": [], "time": []}}, "mouseover": {"state": {"target": ["1", "2", "8", "9", "5", "5", "5", "6", "15", "21", "32", "33", "30", "31", "31", "25", "26", "29", "26", "26", "27"], "time": [2098, 2165, 2281, 2465, 3284, 5252, 5947, 6568, 6603, 7285, 10432, 15219, 16366, 16478, 19042, 19125, 19192, 19325, 20229, 22775, 23124]}, "edge": {"target": [], "time": []}}, "mouseout": {"state": {"target": ["1", "23", "0", "1", "2", "8", "9", "5", "5", "5", "6", "15", "21", "32", "33", "30", "31", "31", "25", "26", "29", "26", "26", "27"], "time": [881, 1064, 1998, 2148, 2214, 2364, 2936, 4268, 5797, 6552, 6587, 6618, 9918, 13366, 16248, 16475, 16542, 19060, 19143, 19242, 20045, 20347, 22824, 26806]}, "edge": {"target": [], "time": []}}}, "displayed_time": "31.60", "trialTime": 33476, "trial_type": "mouselab-mdp", "trial_index": 45, "time_elapsed": 1366866, "internal_node_id": "0.0-6.0-1.0-36.0"}}, {"uniqueid": "w14274734:a60328596", "current_trial": 46, "dateTime": 1693481961762, "trialdata": {"revealed_states": [], "clicked_states": ["5", "9", "17", "16", "21", "32", "31"], "num_clicks_accrued": [0, 0, 0, 0, 0, 0, 0, 0, 0, 0, 0, 0, 0], "stateRewards": ["", 1, -1, 1, 13, 31, -56, 72, 2, 41, 5, 63, -2, -3, -2, 3, -71, -26, 52, 13, -31, 24, -67, 2, -2, 5, 4, 66, 43, 72, 9, 86, -26, 44], "withholdReward": false, "trial_id": "mdp_trial_38", "block": "test", "trialIndex": 39, "score": -27.05, "costs": -15.05, "simulationMode": [null, null, null, null, null], "rewards": [2, -2, 5, 9, -26], "path": ["0", "0", "23", "24", "25", "30", "32"], "rt": [25950, 17, 344, 553, 97], "actions": ["left", "left", "left", "down", "down"], "actionTimes": [27782, 28314, 29187, 30262, 30873], "queries": {"click": {"state": {"target": ["5", "9", "17", "16", "21", "32", "31"], "time": [2883, 6064, 9529, 12681, 15906, 19779, 23627]}, "edge": {"target": [], "time": []}}, "mouseover": {"state": {"target": ["1", "7", "6", "5", "9", "9", "4", "6", "16", "17", "16", "19", "21", "22", "12", "1", "2", "3", "9", "2", "12", "22", "32", "31", "30", "33", "30"], "time": [2148, 2204, 2248, 2582, 3288, 3587, 6866, 6915, 7032, 7383, 10918, 14266, 15166, 16399, 16434, 16482, 16516, 16651, 16851, 17184, 17349, 17449, 19560, 23241, 25846, 26294, 27007]}, "edge": {"target": [], "time": []}}, "mouseout": {"state": {"target": ["0", "1", "7", "6", "5", "9", "9", "4", "6", "16", "17", "16", "17", "19", "21", "22", "12", "1", "2", "3", "9", "2", "12", "22", "32", "31", "31", "30", "33", "30"], "time": [1565, 2184, 2221, 2283, 3239, 3320, 6616, 6899, 6933, 7116, 10584, 13151, 14024, 14417, 16366, 16418, 16449, 16499, 16566, 16783, 17100, 17215, 17400, 17562, 20045, 24630, 25711, 26013, 26940, 27074]}, "edge": {"target": [], "time": []}}}, "displayed_time": "31.38", "trialTime": 35628, "trial_type": "mouselab-mdp", "trial_index": 46, "time_elapsed": 1402790, "internal_node_id": "0.0-6.0-1.0-37.0"}}, {"uniqueid": "w14274734:a60328596", "current_trial": 47, "dateTime": 1693482002672, "trialdata": {"revealed_states": [], "clicked_states": ["23", "31", "33", "32", "27", "29", "9", "5"], "num_clicks_accrued": [0, 0, 0, 0, 0, 0, 0, 0, 0, 0, 0, 0, 0], "stateRewards": ["", 2, 3, -3, 4, 72, -28, 34, -12, 57, -64, -15, 2, 1, -4, -15, 2, 49, 31, -1, -42, -58, 31, -2, 1, -2, -13, -75, -19, -22, -6, 61, 10, -56], "withholdReward": false, "trial_id": "mdp_trial_39", "block": "test", "trialIndex": 40, "score": 63.2, "costs": -14.8, "simulationMode": [null, null, null, null, null], "rewards": [2, 3, -3, 4, 72], "path": ["0", "0", "1", "2", "3", "4", "5"], "rt": [29003, 787, 669, 223, 490], "actions": ["up", "up", "up", "right", "up"], "actionTimes": [31940, 33244, 34426, 35164, 36165], "queries": {"click": {"state": {"target": ["23", "31", "33", "32", "27", "29", "9", "5"], "time": [3802, 4858, 8684, 12243, 15618, 18850, 23992, 27386]}, "edge": {"target": [], "time": []}}, "mouseover": {"state": {"target": ["23", "24", "25", "31", "30", "33", "32", "30", "25", "27", "29", "29", "27", "11", "9", "9", "5"], "time": [3512, 4062, 4250, 4616, 5353, 5813, 9082, 12765, 12796, 13266, 16496, 16903, 22839, 23355, 23606, 23788, 26921]}, "edge": {"target": [], "time": []}}, "mouseout": {"state": {"target": ["19", "20", "13", "12", "0", "23", "24", "25", "31", "30", "33", "32", "30", "25", "27", "29", "29", "27", "11", "9", "9", "5", "2"], "time": [1796, 2029, 2262, 2379, 3462, 4018, 4151, 4284, 5305, 5465, 9016, 12697, 12781, 12832, 16396, 16597, 22756, 22940, 23389, 23672, 24908, 30236, 39366]}, "edge": {"target": [], "time": []}}}, "displayed_time": "36.68", "trialTime": 40564, "trial_type": "mouselab-mdp", "trial_index": 47, "time_elapsed": 1443700, "internal_node_id": "0.0-6.0-1.0-38.0"}}, {"uniqueid": "w14274734:a60328596", "current_trial": 48, "dateTime": 1693482026874, "trialdata": {"revealed_states": [], "clicked_states": ["5", "9", "17", "6", "11"], "num_clicks_accrued": [0, 0, 0, 0, 0, 0, 0, 0, 0, 0, 0, 0, 0], "stateRewards": ["", 2, 3, -3, 12, -43, 81, -82, -15, 58, -7, -75, -1, -1, 3, -5, 50, -25, -8, 4, 66, 65, -66, 2, -4, 2, -1, -10, 10, 37, 11, 88, -37, 8], "withholdReward": false, "trial_id": "mdp_trial_40", "block": "test", "trialIndex": 41, "score": 84.25, "costs": -10.75, "simulationMode": [null, null, null, null, null, null], "rewards": [2, 3, -3, 12, 81], "path": ["0", "0", "1", "2", "3", "4", "6"], "rt": [15721, 254, 450, 522, 198, 584], "actions": ["up", "up", "up", "up", "right", "right"], "actionTimes": [17191, 17453, 18434, 19469, 20178, 21280], "queries": {"click": {"state": {"target": ["5", "9", "17", "6", "11"], "time": [2395, 5516, 8954, 12069, 15018]}, "edge": {"target": [], "time": []}}, "mouseover": {"state": {"target": ["1", "2", "4", "5", "9", "6", "17", "16", "6", "4", "3", "11", "10"], "time": [1915, 1968, 2065, 2132, 2978, 6069, 6650, 9454, 9884, 12534, 12600, 13035, 15883]}, "edge": {"target": [], "time": []}}, "mouseout": {"state": {"target": ["2", "23", "0", "1", "2", "4", "5", "9", "6", "17", "16", "6", "4", "3", "11", "10"], "time": [515, 732, 1848, 1949, 2015, 2083, 2654, 5935, 6086, 9318, 9535, 12517, 12567, 12633, 15716, 15900]}, "edge": {"target": [], "time": []}}}, "displayed_time": "21.80", "trialTime": 23899, "trial_type": "mouselab-mdp", "trial_index": 48, "time_elapsed": 1467901, "internal_node_id": "0.0-6.0-1.0-39.0"}}, {"uniqueid": "w14274734:a60328596", "current_trial": 49, "dateTime": 1693482080187, "trialdata": {"rt": 53306, "response": {"Q0": "$-2 to $2", "Q1": "$-4 to $4", "Q2": "$-16 to $16", "Q3": "The cost for clicking on nodes varied between nodes.", "Q4": "Very motivated"}, "question_order": [0, 1, 2, 3, 4], "trial_id": "final_quiz_control", "trial_type": "survey-multi-choice", "trial_index": 49, "time_elapsed": 1521214, "internal_node_id": "0.0-6.0-2.0"}}, {"uniqueid": "w14274734:a60328596", "current_trial": 50, "dateTime": 1693482208771, "trialdata": {"rt": 128573, "response": {"Q0": "i clicked on the nodes at the end first to see which would provide me with the highest award.", "Q1": "i only pressed the nodes at the end as opposed to the entire line leading to the end", "Q2": "slightly difficult, I did not know what to expect and every move is unpredictable as there was no identified pattern"}, "trial_id": "self_report_control", "trial_type": "survey-text", "trial_index": 50, "time_elapsed": 1649799, "internal_node_id": "0.0-6.0-3.0"}}, {"uniqueid": "w14274734:a60328596", "current_trial": 51, "dateTime": 1693482267899, "trialdata": {"rt": 59124, "response": {"Q0": "Strongly disagree", "Q1": "Disagree", "Q2": "Strongly agree", "Q3": "Neither disagree nor agree", "Q4": "Neither disagree nor agree", "Q5": "Agree", "Q6": "Strongly disagree"}, "question_order": [0, 1, 2, 3, 4, 5, 6], "trial_id": "self_report_2", "trial_type": "survey-multi-choice", "trial_index": 51, "time_elapsed": 1708927, "internal_node_id": "0.0-6.0-4.0"}}, {"uniqueid": "w14274734:a60328596", "current_trial": 52, "dateTime": 1693482295192, "trialdata": {"rt": 27287, "response": {"gender": "female", "age": "30", "colorblind": "0", "effort": "0"}, "trial_type": "survey-html-form", "trial_index": 52, "time_elapsed": 1736220, "internal_node_id": "0.0-6.0-5.0"}}, {"uniqueid": "w14274734:a60328596", "current_trial": 53, "dateTime": 1693482320671, "trialdata": {"rt": 25474, "response": {"Q0": "No", "Q1": "No", "Q2": "None"}, "trial_type": "survey-text", "trial_index": 53, "time_elapsed": 1761699, "internal_node_id": "0.0-6.0-6.0"}}, {"uniqueid": "w14274734:a60328596", "current_trial": 54, "dateTime": 1693482373015, "trialdata": {"rt": 52339, "stimulus": "<h1>Completion Code Instructions (1/2)</h1>\n<br><br><br><br>\nYou have reached the end of the experiment! The completion code consists of two parts: (1) a code with 2 characters (2) a code with 6 characters. On this page, you will receive the second part of the code. The first part of the completion code will be on the next page.\n<br><br>\nThe second part of your completion code is: <b>EWEK22</b>\n<br><br>\nPlease note this down. Then, press 'Finish HIT' in order to find the first part of your completion code. Once the data has been saved, you will receive this code either in this window or in the original browser window where you started the experiment.\n", "response": 0, "trial_type": "html-button-response", "trial_index": 54, "time_elapsed": 1814042, "internal_node_id": "0.0-6.0-7.0"}}, {"uniqueid": "w14274734:a60328596", "current_trial": 55, "dateTime": 1693482374020, "trialdata": {"success": true, "trial_type": "fullscreen", "trial_index": 55, "time_elapsed": 1815048, "internal_node_id": "0.0-7.0"}}], "questiondata": {"params": {"CODE": "C6DMOQA6", "MIN_TIME": 14, "inspectCost": 1, "startTime": "Thu Aug 31 2023 13:15:55 GMT+0200 (South Africa Standard Time)", "bonusRate": 0.002, "variance": "1_2_4_8_44", "branching": "31123"}, "final_score": 2050.95}, "eventdata": [{"eventtype": "initialized", "value": null, "timestamp": 1693480554254, "interval": 0}, {"eventtype": "window_resize", "value": [1032, 608], "timestamp": 1693480554254, "interval": 0}, {"eventtype": "window_resize", "value": [1032, 608], "timestamp": 1693480554980, "interval": 726}, {"eventtype": "window_resize", "value": [1280, 720], "timestamp": 1693480564529, "interval": 9549}, {"eventtype": "window_resize", "value": [1032, 608], "timestamp": 1693482373281, "interval": 1808752}], "useragent": "Mozilla/5.0 (Windows NT 10.0; Win64; x64) AppleWebKit/537.36 (KHTML, like Gecko) Chrome/116.0.0.0 Safari/537.36", "mode": "live", "id": "w14274734:a60328596", "status": "user data saved", "Beginhit": "2023-08-31 11:15:51.016803", "Beginexp": "2023-08-31 11:16:07.928182", "Endhit": "2023-08-31 11:46:18.514729", "psiturkStatus": 3, "browser": "<redacted>", "platform": "windows", "language": "en-US"}