{"condition": 1, "counterbalance": 0, "assignmentId": "a13957287", "workerId": "w44406383", "hitId": "h35332555", "currenttrial": 56, "bonus": 0, "data": [{"uniqueid": "w44406383:a13957287", "current_trial": 0, "dateTime": 1693564626036, "trialdata": {"success": true, "trial_type": "fullscreen", "trial_index": 0, "time_elapsed": 4810, "internal_node_id": "0.0-0.0"}}, {"uniqueid": "w44406383:a13957287", "current_trial": 1, "dateTime": 1693564634787, "trialdata": {"view_history": [{"page_index": 0, "viewing_time": 8750}], "rt": 8750, "trial_id": "exp_instructions_misaligned", "trial_type": "instructions", "trial_index": 1, "time_elapsed": 13562, "internal_node_id": "0.0-1.0"}}, {"uniqueid": "w44406383:a13957287", "current_trial": 2, "dateTime": 1693564875656, "trialdata": {"view_history": [{"page_index": 0, "viewing_time": 66915}, {"page_index": 1, "viewing_time": 65255}, {"page_index": 0, "viewing_time": 1438}, {"page_index": 1, "viewing_time": 2745}, {"page_index": 2, "viewing_time": 78618}, {"page_index": 3, "viewing_time": 25901}], "rt": 240872, "trial_id": "mouselab_instructions_1_misaligned", "trial_type": "instructions", "trial_index": 2, "time_elapsed": 254431, "internal_node_id": "0.0-2.0-1.0"}}, {"uniqueid": "w44406383:a13957287", "current_trial": 3, "dateTime": 1693564925000, "trialdata": {"revealed_states": [], "clicked_states": ["1", "2", "3", "12", "13", "14", "23", "24", "25", "15", "19", "22", "21", "20"], "num_clicks_accrued": [0, 0, 0, 0, 0, 0, 0, 0, 0, 0, 0, 0, 0], "stateRewards": ["", 10, -10, -10, -10, 10, -10, 10, 10, 10, -10, 10, -10, -10, 10, -10, -10, 10, -10, 10, 10, -10, -10, -10, -10, -10, 10, -10, -10, 10, -10, -10, 10, 10], "withholdReward": false, "trial_id": "practice_1", "block": "test", "trialIndex": 0, "score": 6.5, "costs": -7, "simulationMode": [null, null, null, null, null], "rewards": [-10, -10, 10, 10, 10], "path": ["0", "0", "12", "13", "14", "19", "20"], "rt": [40936, 207, 125, 200, 178], "actions": ["right", "right", "right", "down", "right"], "actionTimes": [42587, 43300, 43934, 44641, 45336], "queries": {"click": {"state": {"target": ["1", "2", "3", "12", "13", "14", "23", "24", "25", "15", "19", "22", "21", "20"], "time": [5886, 7681, 9831, 13963, 15553, 17347, 22132, 23415, 24766, 31499, 33382, 36432, 37832, 39236]}, "edge": {"target": [], "time": []}}, "mouseover": {"state": {"target": ["1", "2", "3", "4", "7", "12", "13", "14", "22", "23", "24", "25", "3", "7", "18", "15", "14", "19", "21", "22", "21", "20"], "time": [2676, 6556, 8858, 11523, 13358, 13541, 14791, 17009, 21340, 21907, 22807, 24091, 27310, 28059, 28175, 29577, 32357, 32658, 35376, 35808, 36890, 38342]}, "edge": {"target": [], "time": []}}, "mouseout": {"state": {"target": ["12", "0", "1", "2", "3", "4", "7", "12", "13", "14", "14", "14", "22", "23", "24", "25", "24", "3", "7", "18", "15", "14", "19", "21", "22", "21", "20", "20"], "time": [null, 2291, 6356, 8574, 11340, 13322, 13391, 14573, 16788, 20342, 20926, 21258, 21375, 22622, 23973, 26789, 26938, 27959, 28108, 28209, 32071, 32509, 35094, 35723, 36804, 38192, 39576, 46725]}, "edge": {"target": [], "time": []}}}, "displayed_time": "45.84", "trialTime": 48435, "trial_type": "mouselab-mdp", "trial_index": 3, "time_elapsed": 303774, "internal_node_id": "0.0-2.0-2.0-0.0"}}, {"uniqueid": "w44406383:a13957287", "current_trial": 4, "dateTime": 1693564962888, "trialdata": {"revealed_states": [], "clicked_states": ["1", "2", "3", "12", "13", "14", "23", "24", "25", "26", "30", "27", "29", "28"], "num_clicks_accrued": [0, 0, 0, 0, 0, 0, 0, 0, 0, 0, 0, 0, 0], "stateRewards": ["", 10, -10, 10, 10, -10, 10, 10, 10, -10, -10, 10, 10, -10, 10, -10, 10, 10, 10, 10, 10, 10, 10, 10, 10, 10, -10, 10, -10, 10, -10, -10, 10, -10], "withholdReward": false, "trial_id": "practice_2", "block": "test", "trialIndex": 1, "score": 26.5, "costs": -7, "simulationMode": [null, null, null, null, null], "rewards": [10, 10, 10, -10, 10], "path": ["0", "0", "23", "24", "25", "26", "27"], "rt": [29606, 391, 205, 173, 202], "actions": ["left", "left", "left", "up", "up"], "actionTimes": [32453, 33353, 34068, 34754, 35466], "queries": {"click": {"state": {"target": ["1", "2", "3", "12", "13", "14", "23", "24", "25", "26", "30", "27", "29", "28"], "time": [4442, 6776, 8504, 11688, 13071, 14408, 17537, 18889, 20257, 23053, 24554, 27524, 28823, 30192]}, "edge": {"target": [], "time": []}}, "mouseover": {"state": {"target": ["1", "2", "3", "7", "12", "13", "14", "12", "23", "23", "24", "25", "23", "26", "30", "25", "27", "29", "26", "28"], "time": [3431, 4964, 7497, 10932, 11415, 12331, 13562, 17012, 17163, 17363, 18129, 19428, 21649, 22561, 24228, 26312, 27097, 28046, 29095, 29195]}, "edge": {"target": [], "time": []}}, "mouseout": {"state": {"target": ["0", "1", "2", "3", "7", "12", "13", "14", "13", "12", "23", "23", "24", "25", "24", "23", "24", "25", "26", "25", "30", "25", "27", "29", "26", "28"], "time": [3314, 4847, 7380, 10882, 10963, 12162, 13445, 16946, 16981, 17028, 17213, 17979, 19331, 20812, 20981, 21663, 21798, 22448, 23928, 24131, 26280, 26347, 27929, 29062, 29145, 30645]}, "edge": {"target": [], "time": []}}}, "displayed_time": "35.98", "trialTime": 37778, "trial_type": "mouselab-mdp", "trial_index": 4, "time_elapsed": 341662, "internal_node_id": "0.0-2.0-2.0-1.0"}}, {"uniqueid": "w44406383:a13957287", "current_trial": 5, "dateTime": 1693564985794, "trialdata": {"view_history": [{"page_index": 0, "viewing_time": 16252}, {"page_index": 1, "viewing_time": 6652}], "rt": 22904, "trial_id": "mouselab_instructions_2_misaligned", "trial_type": "instructions", "trial_index": 5, "time_elapsed": 364569, "internal_node_id": "0.0-2.0-3.0"}}, {"uniqueid": "w44406383:a13957287", "current_trial": 6, "dateTime": 1693565007379, "trialdata": {"rt": 21580, "response": {"Q0": "The cost for clicking on nodes may vary between nodes.", "Q1": "The better I perform the higher my bonus will be.", "Q2": "No, the amount of cash at each node of the web may be different each time.", "Q3": "To get the highest total score.", "Q4": "Only before moving the spider.", "Q5": "3 seconds"}, "question_order": [0, 1, 2, 3, 4, 5], "correct": {"Q0": "The cost for clicking on nodes may vary between nodes.", "Q1": "The better I perform the higher my bonus will be.", "Q2": "No, the amount of cash at each node of the web may be different each time.", "Q3": "To get the highest total score.", "Q4": "Only before moving the spider.", "Q5": "3 seconds"}, "trial_id": "mouselab_quiz_misaligned", "trial_type": "survey-multi-choice", "trial_index": 6, "time_elapsed": 386154, "internal_node_id": "0.0-2.0-4.0"}}, {"uniqueid": "w44406383:a13957287", "current_trial": 7, "dateTime": 1693565011510, "trialdata": {"rt": 4122, "response": {"Q0": "No"}, "question_order": [0], "trial_id": "repeat_check", "trial_type": "survey-multi-choice", "trial_index": 7, "time_elapsed": 390284, "internal_node_id": "0.0-4.0-0.0"}}, {"uniqueid": "w44406383:a13957287", "current_trial": 8, "dateTime": 1693565018338, "trialdata": {"rt": 6822, "stimulus": "\n<h1> Get ready to start the game! </h1>\n\nThank you for reading the instructions. Get ready start with the 40 rounds of this game.\n<br><br>\nIf you need to take a break, feel free to take one after the end of a round, before continuing to the next one.\n<br><br>\nRemember, the more money the spider gets, the bigger your bonus will be!\n<br><br>\n<div style='text-align: center;'>Press <code>space</code> to begin.</div>\n\n<br><br>\n(If, at any point, the <code>space</code> key does not take you to the next page, click once on the text and try again.)", "response": " ", "trial_id": "mdp_ready", "trial_type": "html-keyboard-response", "trial_index": 8, "time_elapsed": 397113, "internal_node_id": "0.0-6.0-0.0"}}, {"uniqueid": "w44406383:a13957287", "current_trial": 9, "dateTime": 1693565041757, "trialdata": {"revealed_states": [], "clicked_states": ["1", "2", "3", "12", "13", "14", "23", "24", "25"], "num_clicks_accrued": [0, 0, 0, 0, 0, 0, 0, 0, 0, 0, 0, 0, 0], "stateRewards": ["", -2, -3, 7, -13, 60, 9, 37, -6, 37, 20, 1, 2, -2, -8, 6, -80, -31, -10, -7, 70, -65, -44, -1, 1, 7, 6, -11, 73, -85, 16, -21, 47, 34], "withholdReward": false, "trial_id": "mdp_trial_1", "block": "test", "trialIndex": 2, "score": -1.1499999999999986, "costs": -3.1499999999999995, "simulationMode": [null, null, null, null, null], "rewards": [-1, 1, 7, 6, -11], "path": ["0", "0", "23", "24", "25", "26", "27"], "rt": [16669, 359, 197, 248, 166], "actions": ["left", "left", "left", "up", "up"], "actionTimes": [17961, 18831, 19535, 20287, 20971], "queries": {"click": {"state": {"target": ["1", "2", "3", "12", "13", "14", "23", "24", "25"], "time": [2080, 3141, 4211, 5895, 7249, 8176, 9342, 10057, 10740]}, "edge": {"target": [], "time": []}}, "mouseover": {"state": {"target": ["1", "2", "3", "7", "12", "13", "14", "22", "23", "24", "25", "10", "26", "28", "1"], "time": [1755, 2719, 3786, 4853, 5251, 6303, 7704, 8887, 9170, 9886, 10571, 11954, 13789, 16204, 16539]}, "edge": {"target": [], "time": []}}, "mouseout": {"state": {"target": ["3", "1", "1", "2", "3", "7", "12", "13", "14", "22", "23", "24", "25", "24", "10", "24", "25", "25", "26", "28", "1"], "time": [355, 704, 2436, 3653, 4736, 4919, 6218, 7621, 8587, 8905, 9785, 10487, 11087, 11170, 11988, 12722, 13119, 13536, 16156, 16285, 16706]}, "edge": {"target": [], "time": []}}}, "displayed_time": "21.49", "trialTime": 23302, "trial_type": "mouselab-mdp", "trial_index": 9, "time_elapsed": 420531, "internal_node_id": "0.0-6.0-1.0-0.0"}}, {"uniqueid": "w44406383:a13957287", "current_trial": 10, "dateTime": 1693565062733, "trialdata": {"revealed_states": [], "clicked_states": ["23", "24", "25", "1", "2", "3", "12", "13", "14", "26", "30", "32"], "num_clicks_accrued": [0, 0, 0, 0, 0, 0, 0, 0, 0, 0, 0, 0, 0], "stateRewards": ["", -1, -3, -5, -14, -13, -47, 79, 8, -60, -64, 41, -1, 2, 3, 13, -46, 61, -79, -11, -64, -65, 23, 1, -2, 6, -14, 46, 32, 21, 7, 75, -66, 15], "withholdReward": false, "trial_id": "mdp_trial_2", "block": "test", "trialIndex": 3, "score": 78.6, "costs": -8.399999999999999, "simulationMode": [null, null, null, null, null, null], "rewards": [1, -2, 6, 7, 75], "path": ["0", "0", "23", "24", "25", "30", "31"], "rt": [12990, 553, 48, 84, 142, 211], "actions": ["left", "left", "left", "left", "down", "right"], "actionTimes": [14114, 14669, 15226, 15845, 16503, 17206], "queries": {"click": {"state": {"target": ["23", "24", "25", "1", "2", "3", "12", "13", "14", "26", "30", "32"], "time": [1766, 2848, 3847, 5153, 5847, 6514, 7481, 8047, 8535, 9649, 10581, 11414]}, "edge": {"target": [], "time": []}}, "mouseover": {"state": {"target": ["0", "23", "24", "25", "0", "1", "2", "3", "12", "12", "13", "14", "22", "23", "28", "26", "25", "30", "32", "32", "33"], "time": [1546, 1645, 2294, 3360, 4694, 4826, 5610, 6360, 6927, 7261, 7860, 8410, 8811, 8943, 9075, 9178, 10028, 10244, 11094, 11295, 11844]}, "edge": {"target": [], "time": []}}, "mouseout": {"state": {"target": ["0", "0", "23", "24", "25", "0", "1", "2", "3", "12", "12", "13", "14", "22", "23", "28", "26", "25", "30", "32", "32", "33", "30", "31"], "time": [812, 1579, 2144, 3294, 4259, 4760, 5461, 6226, 6827, 6961, 7725, 8310, 8777, 8843, 8961, 9112, 9961, 10094, 11060, 11144, 11794, 13261, 18261, 18379]}, "edge": {"target": [], "time": []}}}, "displayed_time": "17.71", "trialTime": 20868, "trial_type": "mouselab-mdp", "trial_index": 10, "time_elapsed": 441507, "internal_node_id": "0.0-6.0-1.0-1.0"}}, {"uniqueid": "w44406383:a13957287", "current_trial": 11, "dateTime": 1693565093844, "trialdata": {"revealed_states": [], "clicked_states": ["23", "24", "25", "1", "2", "3", "12", "13", "14", "26", "27", "28"], "num_clicks_accrued": [0, 0, 0, 0, 0, 0, 0, 0, 0, 0, 0, 0, 0], "stateRewards": ["", 1, -2, 4, 7, -43, -83, -60, -5, -86, -80, 83, -1, -2, 6, 11, -15, 21, 13, 9, 29, -49, 11, -1, 4, -6, -11, 87, 40, 63, -8, -39, -11, 62], "withholdReward": false, "trial_id": "mdp_trial_3", "block": "test", "trialIndex": 4, "score": 64, "costs": -9, "simulationMode": [null, null, null, null, null, null], "rewards": [-1, 4, -6, -11, 87], "path": ["0", "0", "23", "24", "25", "26", "27"], "rt": [11026, 650, 161, 140, 164, 136], "actions": ["left", "left", "left", "left", "up", "up"], "actionTimes": [12539, 13191, 13876, 14538, 15229, 15883], "queries": {"click": {"state": {"target": ["23", "24", "25", "1", "2", "3", "12", "13", "14", "26", "27", "28"], "time": [2238, 2718, 3185, 4002, 4534, 5068, 5852, 6335, 6755, 7785, 8318, 11220]}, "edge": {"target": [], "time": []}}, "mouseover": {"state": {"target": ["23", "24", "25", "1", "1", "2", "3", "12", "13", "14", "22", "25", "26", "27", "29", "28", "26"], "time": [2033, 2613, 3012, 3481, 3879, 4497, 4931, 5680, 6149, 6631, 7015, 7231, 7381, 8198, 8698, 9631, 11864]}, "edge": {"target": [], "time": []}}, "mouseout": {"state": {"target": ["0", "23", "24", "25", "1", "1", "2", "3", "12", "13", "14", "22", "25", "26", "27", "29", "26", "28"], "time": [1767, 2532, 2979, 3397, 3497, 4298, 4847, 5281, 6098, 6581, 6948, 7048, 7248, 7798, 8598, 9281, 9480, 11798]}, "edge": {"target": [], "time": []}}}, "displayed_time": "16.40", "trialTime": 30999, "trial_type": "mouselab-mdp", "trial_index": 11, "time_elapsed": 472618, "internal_node_id": "0.0-6.0-1.0-2.0"}}, {"uniqueid": "w44406383:a13957287", "current_trial": 12, "dateTime": 1693565116170, "trialdata": {"revealed_states": [], "clicked_states": ["23", "24", "25", "1", "2", "3", "12", "13", "14", "4", "8", "11", "9", "10"], "num_clicks_accrued": [0, 0, 0, 0, 0, 0, 0, 0, 0, 0, 0, 0, 0], "stateRewards": ["", 2, -1, 3, -12, -83, 6, -33, 9, 28, 24, -50, -2, -1, -2, -5, -87, 37, 82, 12, 80, -5, 10, -2, -3, -6, 9, 22, -1, 16, 9, 77, -62, 58], "withholdReward": false, "trial_id": "mdp_trial_4", "block": "test", "trialIndex": 5, "score": 28.3, "costs": -12.7, "simulationMode": [null, null, null, null, null], "rewards": [2, -1, 3, 9, 28], "path": ["0", "0", "1", "2", "3", "8", "9"], "rt": [16608, 381, 145, 120, 176], "actions": ["up", "up", "up", "left", "up"], "actionTimes": [17744, 18633, 19298, 19922, 20598], "queries": {"click": {"state": {"target": ["23", "24", "25", "1", "2", "3", "12", "13", "14", "4", "8", "11", "9", "10"], "time": [1800, 2309, 2825, 3857, 4375, 4959, 5658, 6123, 6524, 7425, 8157, 8762, 11607, 14458]}, "edge": {"target": [], "time": []}}, "mouseover": {"state": {"target": ["23", "24", "25", "1", "2", "3", "12", "13", "14", "18", "7", "5", "4", "8", "11", "9", "9", "8", "10"], "time": [1536, 2169, 2669, 3619, 4202, 4852, 5385, 5985, 6385, 6885, 6919, 7185, 7252, 7985, 8552, 9252, 10519, 12001, 12285]}, "edge": {"target": [], "time": []}}, "mouseout": {"state": {"target": ["26", "28", "12", "0", "23", "24", "25", "1", "2", "3", "2", "12", "13", "14", "18", "7", "5", "4", "4", "3", "8", "11", "9", "9", "8", "10"], "time": [485, 520, 637, 1488, 2085, 2621, 3335, 4119, 4719, 5269, 5318, 5935, 6336, 6871, 6902, 6935, 7202, 7719, 7902, 7952, 8502, 9169, 10452, 11936, 12085, 14952]}, "edge": {"target": [], "time": []}}}, "displayed_time": "21.10", "trialTime": 22213, "trial_type": "mouselab-mdp", "trial_index": 12, "time_elapsed": 494944, "internal_node_id": "0.0-6.0-1.0-3.0"}}, {"uniqueid": "w44406383:a13957287", "current_trial": 13, "dateTime": 1693565151887, "trialdata": {"revealed_states": [], "clicked_states": ["23", "24", "25", "1", "2", "3", "12", "13", "14", "15", "16", "18", "17", "20", "19"], "num_clicks_accrued": [0, 0, 0, 0, 0, 0, 0, 0, 0, 0, 0, 0, 0], "stateRewards": ["", -1, 3, 2, 9, 41, 4, -46, -12, -54, -87, -25, 2, 3, -1, 11, -77, 12, -33, -9, -32, 35, 72, 1, 3, -7, 4, 37, 65, -73, 6, 77, -43, 8], "withholdReward": false, "trial_id": "mdp_trial_5", "block": "test", "trialIndex": 6, "score": 12.149999999999999, "costs": -14.850000000000001, "simulationMode": [null, null, null, null, null], "rewards": [2, 3, -1, 11, 12], "path": ["0", "0", "12", "13", "14", "15", "17"], "rt": [23672, 195, 51, 329, 89], "actions": ["right", "right", "right", "up", "right"], "actionTimes": [26767, 27479, 28022, 28883, 29492], "queries": {"click": {"state": {"target": ["23", "24", "25", "1", "2", "3", "12", "13", "14", "15", "16", "18", "17", "20", "19"], "time": [3692, 4241, 4757, 5440, 5991, 6507, 7190, 7690, 8143, 9105, 9973, 13126, 16313, 19474, 22595]}, "edge": {"target": [], "time": []}}, "mouseover": {"state": {"target": ["23", "24", "25", "1", "2", "3", "12", "13", "14", "15", "16", "18", "18", "15", "17", "20", "19", "21"], "time": [3467, 4083, 4619, 5150, 5816, 6366, 6883, 7483, 8016, 8719, 9502, 10533, 12970, 13486, 13670, 17533, 20252, 23085]}, "edge": {"target": [], "time": []}}, "mouseout": {"state": {"target": ["2", "1", "0", "23", "24", "25", "24", "1", "2", "3", "2", "12", "13", "14", "15", "16", "15", "18", "18", "15", "17", "20", "19", "21"], "time": [1720, 1887, 3421, 4019, 4566, 5016, 5051, 5733, 6266, 6700, 6783, 7418, 7969, 8633, 9419, 10333, 10469, 12820, 13436, 13550, 17117, 20185, 23021, 30620]}, "edge": {"target": [], "time": []}}}, "displayed_time": "30.00", "trialTime": 35596, "trial_type": "mouselab-mdp", "trial_index": 13, "time_elapsed": 530662, "internal_node_id": "0.0-6.0-1.0-4.0"}}, {"uniqueid": "w44406383:a13957287", "current_trial": 14, "dateTime": 1693565174361, "trialdata": {"revealed_states": [], "clicked_states": ["23", "24", "25", "1", "2", "3", "12", "13", "14", "26", "30", "28", "27", "29"], "num_clicks_accrued": [0, 0, 0, 0, 0, 0, 0, 0, 0, 0, 0, 0, 0], "stateRewards": ["", -2, 2, -4, -4, -59, 88, 62, -3, 69, -15, -34, 1, -2, -5, 7, -54, -20, 78, -16, -74, -53, -21, 2, -4, 2, 13, -8, -44, 26, 9, 72, 4, 17], "withholdReward": false, "trial_id": "mdp_trial_6", "block": "test", "trialIndex": 7, "score": 26.3, "costs": -12.7, "simulationMode": [null, null, null, null, null], "rewards": [2, -4, 2, 13, 26], "path": ["0", "0", "23", "24", "25", "26", "29"], "rt": [17357, 58, 26, 104, 46], "actions": ["left", "left", "left", "up", "left"], "actionTimes": [18613, 19190, 19724, 20335, 20893], "queries": {"click": {"state": {"target": ["23", "24", "25", "1", "2", "3", "12", "13", "14", "26", "30", "28", "27", "29"], "time": [1769, 2233, 2784, 3567, 4017, 4483, 5300, 5783, 6317, 8137, 8801, 9703, 12503, 15370]}, "edge": {"target": [], "time": []}}, "mouseover": {"state": {"target": ["23", "24", "25", "1", "2", "3", "12", "13", "14", "0", "26", "25", "30", "28", "27", "27", "29"], "time": [1614, 2114, 2613, 3430, 3879, 4345, 4830, 5597, 6213, 7230, 8046, 8497, 8514, 9580, 10080, 10313, 13231]}, "edge": {"target": [], "time": []}}, "mouseout": {"state": {"target": ["0", "23", "24", "25", "24", "1", "2", "3", "3", "12", "13", "14", "12", "0", "26", "25", "30", "26", "28", "27", "27", "29"], "time": [1532, 2046, 2545, 2963, 3013, 3830, 4297, 4582, 4714, 5564, 6113, 6647, 7212, 7247, 8462, 8513, 9230, 9327, 10030, 10164, 12981, 15897]}, "edge": {"target": [], "time": []}}}, "displayed_time": "21.41", "trialTime": 22363, "trial_type": "mouselab-mdp", "trial_index": 14, "time_elapsed": 553135, "internal_node_id": "0.0-6.0-1.0-5.0"}}, {"uniqueid": "w44406383:a13957287", "current_trial": 15, "dateTime": 1693565195062, "trialdata": {"revealed_states": [], "clicked_states": ["23", "24", "25", "1", "2", "3", "12", "13", "14", "19", "21", "20", "22"], "num_clicks_accrued": [0, 0, 0, 0, 0, 0, 0, 0, 0, 0, 0, 0, 0], "stateRewards": ["", -2, 2, -1, -6, 22, 6, 6, -5, 70, -42, 65, 1, 3, 5, -6, -67, -9, 3, 14, 7, -62, -13, -2, 4, 1, 16, 42, -21, -52, -8, 32, 53, 81], "withholdReward": false, "trial_id": "mdp_trial_7", "block": "test", "trialIndex": 8, "score": 18.85, "costs": -11.15, "simulationMode": [null, null, null, null, null], "rewards": [1, 3, 5, 14, 7], "path": ["0", "0", "12", "13", "14", "19", "20"], "rt": [15476, 9, 27, 33, 92], "actions": ["right", "right", "right", "down", "right"], "actionTimes": [16686, 17202, 17754, 18308, 18934], "queries": {"click": {"state": {"target": ["23", "24", "25", "1", "2", "3", "12", "13", "14", "19", "21", "20", "22"], "time": [1765, 2296, 2729, 3563, 4062, 4528, 5279, 5712, 6145, 7012, 7647, 10530, 13396]}, "edge": {"target": [], "time": []}}, "mouseover": {"state": {"target": ["0", "23", "24", "25", "1", "2", "3", "12", "12", "13", "14", "19", "21", "20", "19", "22", "19"], "time": [1494, 1594, 2158, 2592, 3258, 3958, 4425, 4791, 5157, 5525, 6041, 6841, 7391, 8224, 10859, 11026, 14009]}, "edge": {"target": [], "time": []}}, "mouseout": {"state": {"target": ["24", "0", "0", "23", "24", "25", "24", "1", "2", "3", "2", "12", "12", "13", "14", "19", "21", "20", "19", "22"], "time": [493, 1059, 1508, 2076, 2542, 3023, 3092, 3825, 4341, 4709, 4758, 4825, 5475, 5958, 6391, 7357, 7959, 10825, 10941, 13959]}, "edge": {"target": [], "time": []}}}, "displayed_time": "19.44", "trialTime": 20575, "trial_type": "mouselab-mdp", "trial_index": 15, "time_elapsed": 573836, "internal_node_id": "0.0-6.0-1.0-6.0"}}, {"uniqueid": "w44406383:a13957287", "current_trial": 16, "dateTime": 1693565220158, "trialdata": {"revealed_states": [], "clicked_states": ["1", "2", "3", "12", "13", "14", "23", "24", "25", "8", "11", "4", "6", "5", "7"], "num_clicks_accrued": [0, 0, 0, 0, 0, 0, 0, 0, 0, 0, 0, 0, 0], "stateRewards": ["", 1, 1, 5, 6, -29, -7, 3, -16, 9, -46, 65, -1, 4, -1, -16, -63, -77, -87, 8, 80, -50, 43, -1, -1, -5, 5, -38, -71, -62, 9, 81, -50, -52], "withholdReward": false, "trial_id": "mdp_trial_8", "block": "test", "trialIndex": 9, "score": 41.15, "costs": -14.850000000000001, "simulationMode": [null, null, null, null, null, null], "rewards": [1, 1, 5, -16, 65], "path": ["0", "0", "1", "2", "3", "8", "11"], "rt": [18734, 867, 597, 98, 53, 81], "actions": ["up", "up", "up", "up", "left", "left"], "actionTimes": [19702, 20571, 21677, 22293, 22866, 23461], "queries": {"click": {"state": {"target": ["1", "2", "3", "12", "13", "14", "23", "24", "25", "8", "11", "4", "6", "5", "7"], "time": [1503, 1933, 2583, 3499, 3999, 4432, 5132, 5599, 5982, 6849, 7401, 10267, 11299, 14317, 17453]}, "edge": {"target": [], "time": []}}, "mouseover": {"state": {"target": ["1", "2", "3", "12", "13", "14", "0", "23", "24", "25", "28", "8", "11", "3", "9", "4", "6", "5", "5", "4", "7"], "time": [1346, 1864, 2463, 2946, 3779, 4329, 4747, 4829, 5496, 5912, 6279, 6679, 7295, 7712, 8012, 8996, 11062, 11860, 14196, 14645, 14796]}, "edge": {"target": [], "time": []}}, "mouseout": {"state": {"target": ["19", "0", "0", "1", "2", "3", "2", "12", "13", "14", "13", "12", "0", "23", "24", "25", "28", "8", "11", "8", "3", "9", "4", "6", "5", "5", "4"], "time": [363, 463, 1281, 1746, 2245, 2846, 2879, 3712, 4263, 4629, 4696, 4726, 4778, 5479, 5845, 6229, 6312, 7162, 7629, 7696, 7761, 8579, 10795, 11745, 14011, 14577, 14713]}, "edge": {"target": [], "time": []}}}, "displayed_time": "23.98", "trialTime": 24974, "trial_type": "mouselab-mdp", "trial_index": 16, "time_elapsed": 598932, "internal_node_id": "0.0-6.0-1.0-7.0"}}, {"uniqueid": "w44406383:a13957287", "current_trial": 17, "dateTime": 1693565236892, "trialdata": {"revealed_states": [], "clicked_states": ["1", "2", "3", "4", "6"], "num_clicks_accrued": [0, 0, 0, 0, 0, 0, 0, 0, 0, 0, 0, 0, 0], "stateRewards": ["", -1, 4, 3, 12, -27, 34, -33, 3, -63, 1, 6, 2, 2, -6, -11, -77, -85, 68, -6, 51, 81, -60, -2, -2, 1, 15, 20, 15, 68, -10, -14, 6, -4], "withholdReward": false, "trial_id": "mdp_trial_9", "block": "test", "trialIndex": 10, "score": 47.25, "costs": -4.75, "simulationMode": [null, null, null, null, null], "rewards": [-1, 4, 3, 12, 34], "path": ["0", "0", "1", "2", "3", "4", "6"], "rt": [6978, 29, 98, 14, 77], "actions": ["up", "up", "up", "right", "right"], "actionTimes": [8183, 8721, 9339, 9872, 10469], "queries": {"click": {"state": {"target": ["1", "2", "3", "4", "6"], "time": [1850, 2446, 3013, 3599, 4263]}, "edge": {"target": [], "time": []}}, "mouseover": {"state": {"target": ["1", "2", "3", "4", "6", "5"], "time": [1627, 2357, 2908, 3408, 4059, 4842]}, "edge": {"target": [], "time": []}}, "mouseout": {"state": {"target": ["7", "1", "2", "3", "4", "6"], "time": [627, 2160, 2810, 3342, 3993, 4726]}, "edge": {"target": [], "time": []}}}, "displayed_time": "15.21", "trialTime": 16621, "trial_type": "mouselab-mdp", "trial_index": 17, "time_elapsed": 615666, "internal_node_id": "0.0-6.0-1.0-8.0"}}, {"uniqueid": "w44406383:a13957287", "current_trial": 18, "dateTime": 1693565258927, "trialdata": {"revealed_states": [], "clicked_states": ["23", "24", "25", "1", "2", "3", "12", "13", "14", "26", "30", "31", "32", "33"], "num_clicks_accrued": [0, 0, 0, 0, 0, 0, 0, 0, 0, 0, 0, 0, 0], "stateRewards": ["", -1, -1, 4, -16, -75, 81, -51, -7, -84, 73, -30, -2, 1, -3, -16, -77, 33, 14, 1, 45, 87, -66, 2, 2, -5, -7, -19, -17, 79, -3, 8, 49, 47], "withholdReward": false, "trial_id": "mdp_trial_10", "block": "test", "trialIndex": 11, "score": 32.3, "costs": -12.7, "simulationMode": [null, null, null, null, null, null], "rewards": [2, 2, -5, -3, 49], "path": ["0", "0", "23", "24", "25", "30", "32"], "rt": [13786, 2220, 37, 7, 126, 134], "actions": ["left", "left", "left", "left", "down", "down"], "actionTimes": [15863, 18084, 18629, 19150, 19803, 20446], "queries": {"click": {"state": {"target": ["23", "24", "25", "1", "2", "3", "12", "13", "14", "26", "30", "31", "32", "33"], "time": [2599, 3013, 3464, 4113, 4596, 4996, 5629, 6063, 6463, 7146, 7880, 9030, 11914, 14966]}, "edge": {"target": [], "time": []}}, "mouseover": {"state": {"target": ["23", "24", "25", "1", "2", "3", "12", "12", "13", "14", "23", "26", "25", "30", "31", "24", "31", "32", "33"], "time": [2428, 2876, 3342, 3926, 4509, 4925, 5276, 5525, 5940, 6390, 6825, 6942, 7459, 7559, 8276, 8659, 8842, 9343, 12643]}, "edge": {"target": [], "time": []}}, "mouseout": {"state": {"target": ["5", "4", "1", "23", "24", "25", "24", "1", "2", "3", "2", "12", "12", "13", "14", "13", "23", "26", "25", "30", "31", "24", "31", "32"], "time": [1411, 1460, 1743, 2825, 3275, 3725, 3776, 4425, 4859, 5176, 5225, 5324, 5643, 6342, 6759, 6776, 6858, 7426, 7475, 8225, 8609, 8793, 9243, 12457]}, "edge": {"target": [], "time": []}}}, "displayed_time": "20.96", "trialTime": 21922, "trial_type": "mouselab-mdp", "trial_index": 18, "time_elapsed": 637701, "internal_node_id": "0.0-6.0-1.0-9.0"}}, {"uniqueid": "w44406383:a13957287", "current_trial": 19, "dateTime": 1693565297090, "trialdata": {"revealed_states": [], "clicked_states": ["23", "24", "25", "1", "2", "3", "12", "13", "14", "26", "27", "32", "30"], "num_clicks_accrued": [0, 0, 0, 0, 0, 0, 0, 0, 0, 0, 0, 0, 0], "stateRewards": ["", -2, 2, -2, -7, -50, -62, -45, 7, 36, -24, -72, -1, -1, 8, -1, -67, 20, -52, 2, 35, -50, 80, -1, 1, 6, -6, -70, 6, 88, 8, -47, 74, -19], "withholdReward": false, "trial_id": "mdp_trial_11", "block": "test", "trialIndex": 12, "score": 77.45, "costs": -10.55, "simulationMode": [null, null, null, null, null], "rewards": [-1, 1, 6, 8, 74], "path": ["0", "0", "23", "24", "25", "30", "32"], "rt": [13687, 57, 630, 185, 85], "actions": ["left", "left", "left", "down", "down"], "actionTimes": [14899, 15475, 16613, 17303, 17902], "queries": {"click": {"state": {"target": ["23", "24", "25", "1", "2", "3", "12", "13", "14", "26", "27", "32", "30"], "time": [1675, 2039, 2420, 3154, 3671, 4171, 4890, 5271, 5620, 6454, 7304, 10424, 13746]}, "edge": {"target": [], "time": []}}, "mouseover": {"state": {"target": ["23", "24", "25", "1", "1", "2", "3", "12", "13", "14", "24", "26", "27", "29", "30", "32", "30"], "time": [1500, 1951, 2334, 2651, 3050, 3626, 4117, 4734, 5183, 5484, 5951, 6298, 7182, 7635, 8232, 8534, 11282]}, "edge": {"target": [], "time": []}}, "mouseout": {"state": {"target": ["33", "30", "31", "0", "23", "24", "25", "24", "1", "1", "2", "3", "2", "12", "13", "14", "24", "26", "26", "27", "29", "30", "32"], "time": [651, 701, 732, 1434, 1884, 2300, 2567, 2601, 2665, 3417, 4018, 4432, 4500, 4953, 5450, 5782, 5966, 6835, 7034, 7550, 8151, 8350, 11150]}, "edge": {"target": [], "time": []}}}, "displayed_time": "18.42", "trialTime": 38044, "trial_type": "mouselab-mdp", "trial_index": 19, "time_elapsed": 675864, "internal_node_id": "0.0-6.0-1.0-10.0"}}, {"uniqueid": "w44406383:a13957287", "current_trial": 20, "dateTime": 1693565322632, "trialdata": {"revealed_states": [], "clicked_states": ["23", "24", "25", "1", "2", "3", "12", "13", "14", "15", "16", "19", "21", "20"], "num_clicks_accrued": [0, 0, 0, 0, 0, 0, 0, 0, 0, 0, 0, 0, 0], "stateRewards": ["", 2, -1, 1, 10, -52, 86, -22, -2, -14, -63, 38, 1, 3, 7, -8, 11, -32, -27, 9, -71, 40, -87, -2, -1, 5, -7, 12, 31, -57, 13, 86, -58, 29], "withholdReward": false, "trial_id": "mdp_trial_12", "block": "test", "trialIndex": 13, "score": 47.3, "costs": -12.700000000000001, "simulationMode": [null, null, null, null, null, null], "rewards": [1, 3, 7, 9, 40], "path": ["0", "0", "12", "13", "14", "19", "21"], "rt": [16546, 2939, 311, 66, 66, 50], "actions": ["right", "right", "right", "right", "down", "down"], "actionTimes": [18119, 21059, 21889, 22462, 23043, 23612], "queries": {"click": {"state": {"target": ["23", "24", "25", "1", "2", "3", "12", "13", "14", "15", "16", "19", "21", "20"], "time": [2033, 2415, 2814, 3864, 4348, 4847, 5730, 6214, 6630, 7933, 8647, 11953, 13536, 17017]}, "edge": {"target": [], "time": []}}, "mouseover": {"state": {"target": ["23", "24", "25", "1", "1", "2", "3", "12", "12", "13", "14", "19", "15", "16", "19", "20", "21", "20"], "time": [1861, 2376, 2677, 3060, 3727, 4143, 4693, 5125, 5527, 6124, 6526, 6942, 7327, 8242, 9294, 12627, 13159, 14194]}, "edge": {"target": [], "time": []}}, "mouseout": {"state": {"target": ["30", "31", "0", "23", "24", "25", "24", "1", "1", "2", "3", "12", "12", "13", "14", "19", "14", "15", "16", "15", "14", "19", "20", "21", "20", "19", "22"], "time": [908, 978, 1812, 2294, 2627, 2994, 3027, 3094, 4060, 4609, 5060, 5174, 6026, 6443, 6859, 7210, 7293, 8143, 8976, 9060, 9175, 12494, 12894, 14092, 24813, 24862, 24895]}, "edge": {"target": [], "time": []}}}, "displayed_time": "24.13", "trialTime": 25411, "trial_type": "mouselab-mdp", "trial_index": 20, "time_elapsed": 701406, "internal_node_id": "0.0-6.0-1.0-11.0"}}, {"uniqueid": "w44406383:a13957287", "current_trial": 21, "dateTime": 1693565348689, "trialdata": {"revealed_states": [], "clicked_states": ["23", "24", "25", "1", "2", "3", "12", "13", "14", "26", "30", "27", "29", "28"], "num_clicks_accrued": [0, 0, 0, 0, 0, 0, 0, 0, 0, 0, 0, 0, 0], "stateRewards": ["", 1, 1, -7, -9, -44, 24, -83, -15, 44, -24, 72, -2, -3, 4, -5, 57, 55, 29, -11, 22, 12, -25, -1, 2, 7, 12, 33, -8, 47, -4, 8, 50, -4], "withholdReward": false, "trial_id": "mdp_trial_13", "block": "test", "trialIndex": 14, "score": 54.3, "costs": -12.7, "simulationMode": [null, null, null, null, null], "rewards": [-1, 2, 7, 12, 47], "path": ["0", "0", "23", "24", "25", "26", "29"], "rt": [18566, 78, 28, 46, 37], "actions": ["left", "left", "left", "up", "left"], "actionTimes": [21721, 22305, 22839, 23405, 23965], "queries": {"click": {"state": {"target": ["23", "24", "25", "1", "2", "3", "12", "13", "14", "26", "30", "27", "29", "28"], "time": [4851, 5331, 5748, 6530, 7247, 7847, 8730, 9196, 9599, 10647, 11546, 12313, 15407, 18647]}, "edge": {"target": [], "time": []}}, "mouseover": {"state": {"target": ["1", "23", "24", "25", "1", "2", "3", "12", "13", "14", "25", "26", "25", "30", "24", "27", "29", "26", "28"], "time": [3677, 4708, 5209, 5609, 6111, 7009, 7659, 8461, 9026, 9462, 10027, 10525, 11208, 11309, 11992, 12193, 12742, 15742, 15927]}, "edge": {"target": [], "time": []}}, "mouseout": {"state": {"target": ["0", "1", "23", "24", "25", "24", "1", "2", "3", "12", "13", "14", "13", "25", "26", "26", "25", "30", "24", "27", "29", "26"], "time": [3562, 4562, 5159, 5561, 5928, 5977, 6927, 7575, 8092, 8994, 9394, 9828, 9877, 10260, 11010, 11126, 11259, 11874, 12009, 12659, 15709, 15825]}, "edge": {"target": [], "time": []}}}, "displayed_time": "24.49", "trialTime": 25916, "trial_type": "mouselab-mdp", "trial_index": 21, "time_elapsed": 727463, "internal_node_id": "0.0-6.0-1.0-12.0"}}, {"uniqueid": "w44406383:a13957287", "current_trial": 22, "dateTime": 1693565373771, "trialdata": {"revealed_states": [], "clicked_states": ["1", "2", "3", "23", "24", "25", "12", "13", "14", "15", "19", "16", "18", "17"], "num_clicks_accrued": [0, 0, 0, 0, 0, 0, 0, 0, 0, 0, 0, 0, 0], "stateRewards": ["", 1, -2, -8, -3, 31, -84, -55, -14, 15, -58, 17, -2, -3, 7, 7, -12, 48, 67, 4, -44, -68, 46, 2, 3, -5, -7, 76, 27, 5, 11, 57, 52, 59], "withholdReward": false, "trial_id": "mdp_trial_14", "block": "test", "trialIndex": 15, "score": 63.3, "costs": -12.7, "simulationMode": [null, null, null, null, null], "rewards": [-2, -3, 7, 7, 67], "path": ["0", "0", "12", "13", "14", "15", "18"], "rt": [19199, 90, 74, 110, 61], "actions": ["right", "right", "right", "up", "left"], "actionTimes": [20506, 21113, 21697, 22314, 22882], "queries": {"click": {"state": {"target": ["1", "2", "3", "23", "24", "25", "12", "13", "14", "15", "19", "16", "18", "17"], "time": [1861, 2259, 2758, 3459, 3925, 4358, 5208, 5691, 6125, 9114, 10112, 11093, 14166, 17299]}, "edge": {"target": [], "time": []}}, "mouseover": {"state": {"target": ["1", "2", "3", "23", "23", "24", "25", "12", "13", "12", "13", "14", "0", "23", "26", "18", "15", "18", "1", "26", "28", "18", "15", "16", "14", "19", "14", "16", "18", "15", "17"], "time": [1688, 2172, 2637, 3239, 3353, 3803, 4255, 4671, 4703, 5054, 5621, 6070, 6555, 6621, 7038, 7522, 7638, 7872, 7972, 8373, 8588, 8673, 8720, 9654, 9819, 9889, 10657, 11023, 11522, 14472, 14539]}, "edge": {"target": [], "time": []}}, "mouseout": {"state": {"target": ["28", "0", "1", "2", "3", "2", "1", "23", "23", "24", "25", "24", "23", "12", "13", "12", "13", "14", "13", "12", "0", "23", "24", "26", "18", "15", "18", "1", "26", "28", "18", "15", "16", "15", "14", "19", "14", "15", "16", "18", "15", "17"], "time": [440, 1557, 2089, 2522, 2938, 3003, 3054, 3253, 3754, 4221, 4587, 4623, 4637, 4687, 4972, 5537, 6021, 6438, 6504, 6554, 6588, 6903, 6937, 7170, 7590, 7771, 7920, 7988, 8571, 8605, 8687, 9553, 9738, 9788, 9839, 10623, 10673, 10738, 11456, 14456, 14503, 23974]}, "edge": {"target": [], "time": []}}}, "displayed_time": "23.39", "trialTime": 24944, "trial_type": "mouselab-mdp", "trial_index": 22, "time_elapsed": 752545, "internal_node_id": "0.0-6.0-1.0-13.0"}}, {"uniqueid": "w44406383:a13957287", "current_trial": 23, "dateTime": 1693565408048, "trialdata": {"revealed_states": [], "clicked_states": ["23", "24", "25", "1", "2", "3", "12", "13", "14", "15", "19", "16", "18", "17", "20", "21", "22"], "num_clicks_accrued": [0, 0, 0, 0, 0, 0, 0, 0, 0, 0, 0, 0, 0], "stateRewards": ["", -2, 1, -3, -16, -39, -52, 30, -7, -41, -59, 11, 2, 1, 8, 2, -11, -26, -42, -13, 87, -59, -48, -1, -1, -1, 16, -79, 31, 50, -1, -84, 34, -82], "withholdReward": false, "trial_id": "mdp_trial_15", "block": "test", "trialIndex": 16, "score": 65.85, "costs": -19.15, "simulationMode": [null, null, null, null, null, null], "rewards": [2, 1, 8, -13, 87], "path": ["0", "0", "12", "13", "14", "19", "20"], "rt": [22471, 5553, 102, 101, 67, 82], "actions": ["right", "right", "right", "right", "down", "right"], "actionTimes": [23722, 29276, 29886, 30501, 31084, 31682], "queries": {"click": {"state": {"target": ["23", "24", "25", "1", "2", "3", "12", "13", "14", "15", "19", "16", "18", "17", "20", "21", "22"], "time": [1771, 2386, 2936, 3619, 4322, 4904, 5787, 6438, 6970, 7703, 8404, 9369, 12442, 15573, 19587, 22611, 25839]}, "edge": {"target": [], "time": []}}, "mouseover": {"state": {"target": ["23", "24", "25", "1", "2", "3", "12", "13", "14", "15", "19", "16", "18", "15", "17", "20", "21", "21", "22"], "time": [1567, 2213, 2796, 3331, 3930, 4648, 5213, 6316, 6816, 7482, 8133, 9266, 9783, 12782, 12950, 19551, 19981, 20382, 25334]}, "edge": {"target": [], "time": []}}, "mouseout": {"state": {"target": ["0", "23", "24", "25", "24", "1", "2", "3", "12", "13", "13", "14", "15", "14", "19", "14", "15", "16", "18", "15", "17", "20", "20", "21", "21", "22"], "time": [1067, 2132, 2746, 3180, 3213, 3865, 4565, 5132, 5884, 6448, 6766, 7430, 7998, 8063, 8751, 8915, 9097, 9700, 12746, 12830, 19266, 19592, 19949, 20065, 23050, 32818]}, "edge": {"target": [], "time": []}}}, "displayed_time": "32.20", "trialTime": 34181, "trial_type": "mouselab-mdp", "trial_index": 23, "time_elapsed": 786822, "internal_node_id": "0.0-6.0-1.0-14.0"}}, {"uniqueid": "w44406383:a13957287", "current_trial": 24, "dateTime": 1693565432073, "trialdata": {"revealed_states": [], "clicked_states": ["23", "24", "25", "1", "2", "3", "12", "13", "14", "15", "16", "19", "17", "18"], "num_clicks_accrued": [0, 0, 0, 0, 0, 0, 0, 0, 0, 0, 0, 0, 0], "stateRewards": ["", 1, 1, -3, 2, 22, -25, -11, -5, 50, 49, 3, 1, -1, 8, 14, -85, -30, 57, -6, -39, -16, 59, -2, -1, 5, 5, 59, -16, 8, 4, 67, 56, -9], "withholdReward": false, "trial_id": "mdp_trial_16", "block": "test", "trialIndex": 17, "score": 66.3, "costs": -12.700000000000001, "simulationMode": [null, null, null, null, null], "rewards": [1, -1, 8, 14, 57], "path": ["0", "0", "12", "13", "14", "15", "18"], "rt": [18783, 65, 86, 239, 38], "actions": ["right", "right", "right", "up", "left"], "actionTimes": [19767, 20343, 20928, 21681, 22230], "queries": {"click": {"state": {"target": ["23", "24", "25", "1", "2", "3", "12", "13", "14", "15", "16", "19", "17", "18"], "time": [1615, 2379, 2745, 3595, 4128, 4662, 5545, 6028, 6530, 7445, 8212, 11881, 12812, 15800]}, "edge": {"target": [], "time": []}}, "mouseover": {"state": {"target": ["23", "24", "25", "1", "1", "2", "3", "12", "12", "13", "14", "15", "16", "18", "14", "19", "17", "15", "18", "14", "20"], "time": [1426, 2259, 2625, 3107, 3457, 4041, 4542, 5007, 5356, 5874, 6391, 7174, 7891, 8724, 11543, 11727, 12442, 13175, 13291, 16508, 16925]}, "edge": {"target": [], "time": []}}, "mouseout": {"state": {"target": ["0", "23", "24", "25", "24", "1", "1", "2", "3", "12", "12", "13", "14", "14", "15", "16", "18", "14", "19", "17", "15", "18", "14", "20", "21"], "time": [1341, 1891, 2558, 2975, 3008, 3225, 3891, 4457, 4923, 5075, 5791, 6358, 6907, 7108, 7456, 8591, 11411, 11593, 12241, 13141, 13241, 16376, 16542, 23077, 23192]}, "edge": {"target": [], "time": []}}}, "displayed_time": "22.76", "trialTime": 23897, "trial_type": "mouselab-mdp", "trial_index": 24, "time_elapsed": 810847, "internal_node_id": "0.0-6.0-1.0-15.0"}}, {"uniqueid": "w44406383:a13957287", "current_trial": 25, "dateTime": 1693565456562, "trialdata": {"revealed_states": [], "clicked_states": ["23", "24", "25", "1", "2", "3", "12", "13", "14", "26", "30", "28", "27", "29"], "num_clicks_accrued": [0, 0, 0, 0, 0, 0, 0, 0, 0, 0, 0, 0, 0], "stateRewards": ["", -2, 2, 3, -7, 76, 63, 21, 15, 35, -8, -44, 1, 1, -2, -12, 23, 24, 76, -9, 46, 66, -49, -2, -1, 7, 12, 40, -71, -45, -6, 38, -49, 46], "withholdReward": false, "trial_id": "mdp_trial_17", "block": "test", "trialIndex": 18, "score": 43.3, "costs": -12.7, "simulationMode": [null, null, null, null, null], "rewards": [-2, -1, 7, 12, 40], "path": ["0", "0", "23", "24", "25", "26", "27"], "rt": [18121, 347, 107, 93, 117], "actions": ["left", "left", "left", "up", "up"], "actionTimes": [20277, 21146, 21771, 22374, 22999], "queries": {"click": {"state": {"target": ["23", "24", "25", "1", "2", "3", "12", "13", "14", "26", "30", "28", "27", "29"], "time": [3261, 3621, 3971, 4637, 5119, 5601, 6470, 6920, 7303, 8602, 9350, 10067, 13154, 17186]}, "edge": {"target": [], "time": []}}, "mouseover": {"state": {"target": ["0", "23", "24", "25", "1", "2", "3", "12", "13", "14", "24", "26", "25", "30", "28", "27", "29", "26", "29"], "time": [2680, 2914, 3515, 3847, 4331, 4981, 5398, 5948, 6781, 7181, 8015, 8482, 8947, 9096, 9796, 10450, 13614, 16749, 17099]}, "edge": {"target": [], "time": []}}, "mouseout": {"state": {"target": ["0", "0", "0", "23", "24", "25", "24", "1", "2", "3", "2", "12", "13", "14", "24", "26", "25", "30", "28", "27", "29", "26"], "time": [1629, 2599, 2832, 3448, 3815, 4148, 4214, 4914, 5364, 5815, 5864, 6748, 7128, 7532, 8082, 8895, 8980, 9696, 10347, 13464, 16715, 17032]}, "edge": {"target": [], "time": []}}}, "displayed_time": "23.51", "trialTime": 24358, "trial_type": "mouselab-mdp", "trial_index": 25, "time_elapsed": 835335, "internal_node_id": "0.0-6.0-1.0-16.0"}}, {"uniqueid": "w44406383:a13957287", "current_trial": 26, "dateTime": 1693565485159, "trialdata": {"revealed_states": [], "clicked_states": ["1", "2", "3", "23", "24", "25", "12", "13", "14", "26", "30", "32", "33", "31"], "num_clicks_accrued": [0, 0, 0, 0, 0, 0, 0, 0, 0, 0, 0, 0, 0], "stateRewards": ["", 2, -3, -4, -1, 25, -16, 16, 10, -71, -20, -55, 1, 3, -4, -9, 1, 32, 11, -6, 32, -50, -41, -1, 4, 4, -8, 7, -81, 70, 2, -52, 45, -10], "withholdReward": false, "trial_id": "mdp_trial_18", "block": "test", "trialIndex": 19, "score": 41.3, "costs": -12.7, "simulationMode": [null, null, null, null, null, null], "rewards": [-1, 4, 4, 2, 45], "path": ["0", "0", "23", "24", "25", "30", "32"], "rt": [14921, 1214, 167, 87, 108, 65], "actions": ["left", "left", "left", "left", "down", "down"], "actionTimes": [22147, 23363, 24062, 24664, 25286, 25858], "queries": {"click": {"state": {"target": ["1", "2", "3", "23", "24", "25", "12", "13", "14", "26", "30", "32", "33", "31"], "time": [7716, 8132, 8632, 9380, 9881, 10331, 11514, 11966, 12431, 13433, 14064, 15014, 18071, 21051]}, "edge": {"target": [], "time": []}}, "mouseover": {"state": {"target": ["1", "2", "3", "23", "23", "24", "25", "12", "12", "13", "14", "22", "26", "25", "30", "32", "33", "30", "31"], "time": [7611, 8044, 8461, 9077, 9144, 9760, 10260, 10709, 11408, 11811, 12377, 12826, 13343, 13760, 13877, 14893, 15427, 18412, 18545]}, "edge": {"target": [], "time": []}}, "mouseout": {"state": {"target": ["29", "26", "23", "1", "4", "7", "0", "1", "2", "3", "2", "1", "23", "23", "24", "24", "25", "24", "23", "12", "12", "13", "14", "22", "26", "25", "30", "32", "33", "30", "31"], "time": [477, 512, 743, 1594, 6362, 6409, 7045, 7977, 8408, 8825, 8876, 8927, 9093, 9394, 9979, 10176, 10543, 10593, 10610, 11043, 11760, 12277, 12793, 12860, 13711, 13794, 14511, 15360, 18379, 18463, 26817]}, "edge": {"target": [], "time": []}}}, "displayed_time": "26.38", "trialTime": 28469, "trial_type": "mouselab-mdp", "trial_index": 26, "time_elapsed": 863933, "internal_node_id": "0.0-6.0-1.0-17.0"}}, {"uniqueid": "w44406383:a13957287", "current_trial": 27, "dateTime": 1693565639747, "trialdata": {"revealed_states": [], "clicked_states": ["23", "24", "25", "1", "2", "3", "12", "13", "14", "26", "30", "27", "29", "28", "31", "32", "33"], "num_clicks_accrued": [0, 0, 0, 0, 0, 0, 0, 0, 0, 0, 0, 0, 0], "stateRewards": ["", 1, 2, -5, 14, 54, -14, -25, 16, -5, -87, 78, -1, 1, 3, -3, 52, 53, 53, -10, 73, -69, -48, 2, 3, 1, 8, -62, -7, 85, 7, 82, 52, -28], "withholdReward": false, "trial_id": "mdp_trial_19", "block": "test", "trialIndex": 20, "score": 79.85, "costs": -19.15, "simulationMode": [null, null, null, null, null], "rewards": [2, 3, 1, 8, 85], "path": ["0", "0", "23", "24", "25", "26", "29"], "rt": [26016, 1, 550, 124, 25], "actions": ["left", "left", "left", "up", "left"], "actionTimes": [30992, 31514, 32596, 33237, 33771], "queries": {"click": {"state": {"target": ["23", "24", "25", "1", "2", "3", "12", "13", "14", "26", "30", "27", "29", "28", "31", "32", "33"], "time": [6207, 6618, 7035, 7718, 8199, 8652, 9418, 9885, 10286, 11032, 11653, 12466, 15589, 18767, 21821, 24851, 27938]}, "edge": {"target": [], "time": []}}, "mouseover": {"state": {"target": ["0", "23", "24", "25", "1", "2", "3", "12", "13", "14", "24", "26", "25", "30", "25", "27", "29", "26", "28", "24", "31", "32", "33"], "time": [5847, 5929, 6463, 6929, 7496, 8096, 8546, 9029, 9779, 10112, 10679, 10829, 11363, 11479, 12043, 12313, 12863, 15896, 16112, 19212, 19345, 22362, 25326]}, "edge": {"target": [], "time": []}}, "mouseout": {"state": {"target": ["0", "0", "23", "24", "25", "24", "1", "2", "3", "2", "12", "13", "14", "24", "26", "25", "30", "30", "25", "27", "29", "26", "28", "24", "31", "32", "33"], "time": [646, 5860, 6363, 6896, 7262, 7295, 7996, 8446, 8829, 8912, 9696, 10079, 10446, 10697, 11312, 11412, 11963, 12030, 12063, 12779, 15863, 15946, 19161, 19262, 22229, 25212, 152968]}, "edge": {"target": [], "time": []}}}, "displayed_time": "34.28", "trialTime": 154458, "trial_type": "mouselab-mdp", "trial_index": 27, "time_elapsed": 1018521, "internal_node_id": "0.0-6.0-1.0-18.0"}}, {"uniqueid": "w44406383:a13957287", "current_trial": 28, "dateTime": 1693565663631, "trialdata": {"revealed_states": [], "clicked_states": ["23", "24", "25", "1", "2", "3", "12", "13", "14", "4", "8", "9", "11", "10"], "num_clicks_accrued": [0, 0, 0, 0, 0, 0, 0, 0, 0, 0, 0, 0, 0], "stateRewards": ["", -2, 2, 8, -6, -25, 3, 87, 2, -62, -2, 74, -2, -1, 2, -1, 79, 49, -37, -14, 5, 67, -9, -1, 2, -2, 5, 15, 38, 32, -14, -38, -38, 30], "withholdReward": false, "trial_id": "mdp_trial_20", "block": "test", "trialIndex": 21, "score": 71.3, "costs": -12.7, "simulationMode": [null, null, null, null, null], "rewards": [-2, 2, 8, 2, 74], "path": ["0", "0", "1", "2", "3", "8", "11"], "rt": [17722, 476, 177, 160, 143], "actions": ["up", "up", "up", "left", "left"], "actionTimes": [19154, 20147, 20832, 21498, 22148], "queries": {"click": {"state": {"target": ["23", "24", "25", "1", "2", "3", "12", "13", "14", "4", "8", "9", "11", "10"], "time": [2024, 2390, 3173, 4223, 4790, 5506, 6423, 6975, 7456, 8223, 8790, 9590, 12525, 15664]}, "edge": {"target": [], "time": []}}, "mouseover": {"state": {"target": ["0", "23", "24", "25", "25", "1", "2", "3", "12", "13", "14", "7", "4", "4", "3", "8", "9", "11", "10"], "time": [1754, 1920, 2335, 2702, 3035, 3819, 4602, 5436, 6052, 6785, 7385, 7868, 7951, 8135, 8519, 8603, 9436, 10020, 13186]}, "edge": {"target": [], "time": []}}, "mouseout": {"state": {"target": ["23", "0", "23", "24", "25", "25", "24", "23", "1", "2", "3", "12", "13", "14", "7", "4", "4", "3", "8", "8", "9", "9", "11", "10", "10", "23"], "time": [487, 1837, 2284, 2684, 2767, 3470, 3518, 3585, 4535, 5186, 5869, 6752, 7268, 7768, 7901, 7967, 8502, 8554, 9120, 9386, 9604, 9870, 12903, 16087, 23371, 23505]}, "edge": {"target": [], "time": []}}}, "displayed_time": "22.65", "trialTime": 23729, "trial_type": "mouselab-mdp", "trial_index": 28, "time_elapsed": 1042405, "internal_node_id": "0.0-6.0-1.0-19.0"}}, {"uniqueid": "w44406383:a13957287", "current_trial": 29, "dateTime": 1693565689920, "trialdata": {"revealed_states": [], "clicked_states": ["23", "24", "25", "1", "2", "3", "12", "13", "14", "26", "30", "27", "29", "28"], "num_clicks_accrued": [0, 0, 0, 0, 0, 0, 0, 0, 0, 0, 0, 0, 0], "stateRewards": ["", 2, 1, -3, 7, 46, 11, -36, 16, 71, 5, 1, 2, -2, -8, -3, -4, 6, 55, 7, 68, -54, 2, 1, 1, 6, -6, 42, -4, -84, -11, -65, 63, 25], "withholdReward": false, "trial_id": "mdp_trial_21", "block": "test", "trialIndex": 22, "score": 31.3, "costs": -12.7, "simulationMode": [null, null, null, null, null], "rewards": [1, 1, 6, -6, 42], "path": ["0", "0", "23", "24", "25", "26", "27"], "rt": [18019, 450, 33, 154, 93], "actions": ["left", "left", "left", "up", "up"], "actionTimes": [19848, 20817, 21366, 22037, 22643], "queries": {"click": {"state": {"target": ["23", "24", "25", "1", "2", "3", "12", "13", "14", "26", "30", "27", "29", "28"], "time": [2358, 2771, 3157, 4105, 4539, 4973, 5990, 6405, 6838, 8123, 8771, 10374, 13323, 16459]}, "edge": {"target": [], "time": []}}, "mouseover": {"state": {"target": ["23", "24", "25", "1", "1", "2", "3", "12", "12", "13", "14", "19", "22", "24", "26", "25", "30", "31", "32", "27", "29", "26", "28", "9", "9"], "time": [2202, 2666, 3016, 3500, 3917, 4484, 4884, 5351, 5834, 6267, 6717, 7167, 7201, 7534, 7884, 8399, 8566, 9267, 9566, 10084, 10784, 13681, 13749, 16935, 17235]}, "edge": {"target": [], "time": []}}, "mouseout": {"state": {"target": ["0", "23", "24", "25", "1", "1", "2", "3", "12", "12", "13", "14", "19", "22", "24", "26", "25", "30", "31", "32", "27", "27", "29", "26", "28", "9", "9", "28", "27"], "time": [2168, 2634, 2963, 3367, 3584, 4300, 4851, 5235, 5667, 6217, 6700, 7084, 7184, 7217, 7600, 8350, 8484, 9116, 9433, 9816, 10453, 10601, 13667, 13716, 16801, 17000, 18434, 24835, 25683]}, "edge": {"target": [], "time": []}}}, "displayed_time": "23.15", "trialTime": 26149, "trial_type": "mouselab-mdp", "trial_index": 29, "time_elapsed": 1068694, "internal_node_id": "0.0-6.0-1.0-20.0"}}, {"uniqueid": "w44406383:a13957287", "current_trial": 30, "dateTime": 1693565717721, "trialdata": {"revealed_states": [], "clicked_states": ["1", "2", "3", "23", "24", "25", "12", "13", "14", "26", "30", "31", "32", "33"], "num_clicks_accrued": [0, 0, 0, 0, 0, 0, 0, 0, 0, 0, 0, 0, 0], "stateRewards": ["", -1, 3, -7, 16, -32, -74, -48, 2, 10, 15, -30, 1, 1, -2, 10, 12, -83, 67, 13, -66, 47, 65, -2, 4, 2, -14, -8, -57, 24, 9, 65, 12, 46], "withholdReward": false, "trial_id": "mdp_trial_22", "block": "test", "trialIndex": 23, "score": 65.3, "costs": -12.7, "simulationMode": [null, null, null, null, null], "rewards": [-2, 4, 2, 9, 65], "path": ["0", "0", "23", "24", "25", "30", "31"], "rt": [18425, 316, 118, 8, 94], "actions": ["left", "left", "left", "down", "right"], "actionTimes": [19620, 20451, 21086, 21610, 22228], "queries": {"click": {"state": {"target": ["1", "2", "3", "23", "24", "25", "12", "13", "14", "26", "30", "31", "32", "33"], "time": [2245, 2605, 3006, 3943, 4373, 4821, 6593, 7055, 7409, 8412, 9539, 10371, 13424, 16511]}, "edge": {"target": [], "time": []}}, "mouseover": {"state": {"target": ["1", "2", "3", "0", "23", "24", "25", "12", "12", "13", "14", "19", "22", "24", "25", "26", "25", "30", "31", "32", "33"], "time": [1699, 2468, 2918, 3334, 3668, 4251, 4700, 5800, 6251, 6834, 7284, 7751, 7901, 8017, 8068, 8201, 8769, 8859, 10033, 10668, 13884]}, "edge": {"target": [], "time": []}}, "mouseout": {"state": {"target": ["23", "0", "1", "2", "3", "1", "0", "23", "24", "25", "12", "12", "13", "14", "19", "22", "24", "25", "26", "25", "30", "31", "32", "33"], "time": [666, 1586, 2417, 2834, 3201, 3284, 3367, 4234, 4601, 5134, 6033, 6799, 7250, 7650, 7884, 7917, 8059, 8083, 8718, 8818, 9933, 10618, 13768, 23403]}, "edge": {"target": [], "time": []}}}, "displayed_time": "22.73", "trialTime": 27667, "trial_type": "mouselab-mdp", "trial_index": 30, "time_elapsed": 1096495, "internal_node_id": "0.0-6.0-1.0-21.0"}}, {"uniqueid": "w44406383:a13957287", "current_trial": 31, "dateTime": 1693565741222, "trialdata": {"revealed_states": [], "clicked_states": ["23", "24", "25", "1", "2", "3", "12", "13", "14", "19", "15", "20", "21", "22"], "num_clicks_accrued": [0, 0, 0, 0, 0, 0, 0, 0, 0, 0, 0, 0, 0], "stateRewards": ["", -2, -3, 4, 1, 33, -53, 15, 9, -12, 61, -6, -2, 4, 6, -11, 47, -43, -7, -11, 46, 23, -28, -1, -1, 3, -10, 11, 76, -76, 10, 18, -38, 87], "withholdReward": false, "trial_id": "mdp_trial_23", "block": "test", "trialIndex": 24, "score": 30.3, "costs": -12.7, "simulationMode": [null, null, null, null, null], "rewards": [-2, 4, 6, -11, 46], "path": ["0", "0", "12", "13", "14", "19", "20"], "rt": [17595, 88, 43, 91, 124], "actions": ["right", "right", "right", "down", "right"], "actionTimes": [18670, 19277, 19832, 20447, 21062], "queries": {"click": {"state": {"target": ["23", "24", "25", "1", "2", "3", "12", "13", "14", "19", "15", "20", "21", "22"], "time": [1961, 2325, 2743, 3392, 3842, 4242, 5026, 5575, 6059, 6776, 7675, 9243, 12300, 15413]}, "edge": {"target": [], "time": []}}, "mouseover": {"state": {"target": ["0", "23", "24", "25", "1", "2", "3", "12", "13", "14", "19", "15", "16", "15", "22", "12", "13", "20", "21", "22", "14", "15", "15", "18"], "time": [1474, 1823, 2220, 2655, 3071, 3721, 4155, 4538, 5372, 5988, 6404, 7171, 7238, 7538, 8571, 8739, 8822, 9038, 9803, 12840, 16005, 16056, 16339, 16523]}, "edge": {"target": [], "time": []}}, "mouseout": {"state": {"target": ["0", "0", "23", "24", "25", "1", "2", "3", "2", "12", "13", "14", "19", "14", "15", "16", "15", "19", "22", "12", "13", "14", "20", "21", "22", "14", "15", "15", "18"], "time": [971, 1757, 2188, 2622, 2905, 3655, 4088, 4404, 4471, 5038, 5887, 6305, 7104, 7138, 7187, 7471, 8088, 8505, 8622, 8789, 8837, 8906, 9655, 12639, 15923, 16022, 16089, 16372, 22973]}, "edge": {"target": [], "time": []}}}, "displayed_time": "21.57", "trialTime": 23371, "trial_type": "mouselab-mdp", "trial_index": 31, "time_elapsed": 1119996, "internal_node_id": "0.0-6.0-1.0-22.0"}}, {"uniqueid": "w44406383:a13957287", "current_trial": 32, "dateTime": 1693565762666, "trialdata": {"revealed_states": [], "clicked_states": ["23", "24", "25", "1", "2", "3", "12", "13", "14", "4", "8", "26", "30", "15", "19", "22"], "num_clicks_accrued": [0, 0, 0, 0, 0, 0, 0, 0, 0, 0, 0, 0, 0], "stateRewards": ["", 2, -3, 5, -14, -63, -9, -24, -11, -54, -43, 68, 2, -2, -4, 7, -64, 30, 47, 12, -74, 11, 86, 1, -3, 3, 10, -71, -42, -52, -1, -29, -16, 69], "withholdReward": false, "trial_id": "mdp_trial_24", "block": "test", "trialIndex": 25, "score": 79.4, "costs": -14.600000000000001, "simulationMode": [null, null, null, null, null], "rewards": [2, -2, -4, 12, 86], "path": ["0", "0", "12", "13", "14", "19", "22"], "rt": [15984, 198, 59, 57, 131], "actions": ["right", "right", "right", "down", "left"], "actionTimes": [17099, 17799, 18376, 18941, 19582], "queries": {"click": {"state": {"target": ["23", "24", "25", "1", "2", "3", "12", "13", "14", "4", "8", "26", "30", "15", "19", "22"], "time": [1606, 1970, 2287, 3371, 3970, 4404, 5555, 5987, 6387, 7488, 7970, 9272, 9854, 10737, 11320, 12971]}, "edge": {"target": [], "time": []}}, "mouseover": {"state": {"target": ["23", "24", "25", "1", "2", "3", "12", "13", "14", "19", "22", "4", "3", "8", "10", "28", "26", "25", "30", "0", "15", "15", "14", "19", "22", "28", "1", "13", "21", "22", "21"], "time": [1466, 1899, 2184, 2950, 3850, 4316, 4934, 5849, 6300, 6750, 6883, 7400, 7683, 7766, 8384, 8884, 9168, 9581, 9783, 10250, 10334, 10600, 11050, 11133, 11650, 11787, 12016, 12117, 12635, 12883, 13416]}, "edge": {"target": [], "time": []}}, "mouseout": {"state": {"target": ["0", "23", "24", "25", "24", "1", "2", "3", "12", "13", "14", "19", "22", "4", "3", "8", "10", "28", "26", "25", "30", "0", "15", "15", "14", "19", "22", "28", "1", "13", "19", "21", "22", "21"], "time": [416, 1850, 2150, 2533, 2583, 3716, 4217, 4817, 5766, 6248, 6682, 6850, 6899, 7651, 7717, 8233, 8850, 8950, 9548, 9634, 9865, 10267, 10434, 11000, 11084, 11617, 11666, 11934, 12050, 12166, 12501, 12800, 13199, 20520]}, "edge": {"target": [], "time": []}}}, "displayed_time": "20.10", "trialTime": 21311, "trial_type": "mouselab-mdp", "trial_index": 32, "time_elapsed": 1141441, "internal_node_id": "0.0-6.0-1.0-23.0"}}, {"uniqueid": "w44406383:a13957287", "current_trial": 33, "dateTime": 1693565788989, "trialdata": {"revealed_states": [], "clicked_states": ["23", "24", "25", "1", "2", "3", "12", "13", "14", "4", "8", "15", "19", "22", "21", "20"], "num_clicks_accrued": [0, 0, 0, 0, 0, 0, 0, 0, 0, 0, 0, 0, 0], "stateRewards": ["", 1, 4, 7, -16, -84, -6, -46, -12, -7, -49, -26, -1, 2, -4, 2, 22, 37, -64, 1, 88, -13, -10, 1, -4, -2, 5, 2, -10, -34, 9, 66, 55, 38], "withholdReward": false, "trial_id": "mdp_trial_25", "block": "test", "trialIndex": 26, "score": 70.2, "costs": -15.8, "simulationMode": [null, null, null, null, null], "rewards": [-1, 2, -4, 1, 88], "path": ["0", "0", "12", "13", "14", "19", "20"], "rt": [19920, 25, 547, 66, 138], "actions": ["right", "right", "right", "down", "right"], "actionTimes": [21820, 22362, 23418, 24003, 24659], "queries": {"click": {"state": {"target": ["23", "24", "25", "1", "2", "3", "12", "13", "14", "4", "8", "15", "19", "22", "21", "20"], "time": [2444, 2777, 3174, 4025, 4558, 4940, 5691, 6123, 6492, 7162, 7725, 9343, 9924, 11892, 14792, 17608]}, "edge": {"target": [], "time": []}}, "mouseover": {"state": {"target": ["23", "24", "25", "1", "2", "3", "12", "13", "14", "18", "4", "8", "10", "2", "15", "14", "19", "22", "4", "6", "18", "13", "22", "21", "20", "17"], "time": [2255, 2669, 3136, 3869, 4420, 4887, 5370, 5986, 6370, 6770, 6904, 7519, 8136, 8868, 9239, 9620, 9836, 10904, 11285, 11372, 11471, 11518, 11771, 12286, 15419, 18320]}, "edge": {"target": [], "time": []}}, "mouseout": {"state": {"target": ["0", "23", "24", "25", "24", "1", "2", "3", "2", "12", "13", "14", "18", "4", "3", "8", "10", "2", "15", "14", "19", "19", "22", "4", "6", "18", "13", "22", "21", "20", "17"], "time": [1652, 2619, 3069, 3419, 3518, 4106, 4770, 5170, 5254, 5937, 6319, 6720, 6786, 7437, 7487, 8086, 8854, 8905, 9570, 9686, 9938, 10503, 11138, 11338, 11405, 11485, 11568, 12236, 15336, 18103, 21370]}, "edge": {"target": [], "time": []}}}, "displayed_time": "25.17", "trialTime": 26188, "trial_type": "mouselab-mdp", "trial_index": 33, "time_elapsed": 1167764, "internal_node_id": "0.0-6.0-1.0-24.0"}}, {"uniqueid": "w44406383:a13957287", "current_trial": 34, "dateTime": 1693565830235, "trialdata": {"revealed_states": [], "clicked_states": ["23", "24", "25", "1", "2", "3", "12", "13", "14", "15", "19", "22", "4", "8", "26", "30", "27", "29", "28", "31", "32", "33"], "num_clicks_accrued": [0, 0, 0, 0, 0, 0, 0, 0, 0, 0, 0, 0, 0], "stateRewards": ["", -1, 2, -6, 6, -82, -19, -39, -16, -83, 11, -33, -2, -2, 4, -6, -82, -1, -19, -6, -10, -67, -41, -2, 1, -7, 16, -23, -78, -52, 14, 31, -71, 74], "withholdReward": false, "trial_id": "mdp_trial_26", "block": "test", "trialIndex": 27, "score": 52.50000000000001, "costs": -27.499999999999993, "simulationMode": [null, null, null, null, null], "rewards": [-2, 1, -7, 14, 74], "path": ["0", "0", "23", "24", "25", "30", "33"], "rt": [33989, 138, 44, 45, 19], "actions": ["left", "left", "left", "down", "left"], "actionTimes": [37405, 38059, 38614, 39182, 39723], "queries": {"click": {"state": {"target": ["23", "24", "25", "1", "2", "3", "12", "13", "14", "15", "19", "22", "4", "8", "26", "30", "27", "29", "28", "31", "32", "33"], "time": [3943, 4308, 4691, 5758, 6141, 6541, 7224, 7641, 8074, 9392, 10509, 11458, 15044, 15946, 16677, 17359, 18175, 21196, 24212, 27025, 30095, 33234]}, "edge": {"target": [], "time": []}}, "mouseover": {"state": {"target": ["23", "24", "25", "1", "1", "2", "3", "12", "13", "14", "18", "4", "15", "15", "19", "22", "21", "14", "18", "4", "3", "8", "26", "25", "30", "27", "29", "26", "28", "24", "30", "31", "32", "33", "25", "8", "8", "9"], "time": [3755, 4202, 4621, 5054, 5652, 6037, 6437, 6854, 7537, 7956, 8553, 8820, 9071, 9252, 9853, 11186, 12087, 14536, 14570, 14888, 15423, 15854, 16388, 17088, 17205, 17970, 18772, 21590, 21722, 24654, 24772, 25022, 27788, 30806, 33606, 33722, 34137, 34452]}, "edge": {"target": [], "time": []}}, "mouseout": {"state": {"target": ["14", "0", "23", "24", "25", "24", "1", "1", "2", "3", "2", "12", "13", "14", "13", "18", "4", "15", "15", "14", "19", "22", "21", "14", "18", "4", "3", "8", "26", "25", "30", "27", "29", "26", "28", "24", "30", "31", "32", "33", "25", "8", "8", "9"], "time": [572, 3706, 4169, 4586, 4854, 4887, 5321, 5971, 6320, 6704, 6753, 7503, 7870, 8470, 8520, 8570, 8920, 9103, 9752, 9803, 11154, 12005, 14239, 14554, 14604, 15124, 15506, 16255, 17039, 17137, 17688, 18621, 21553, 21623, 24605, 24670, 24920, 27637, 30506, 33573, 33638, 33752, 34156, 36689]}, "edge": {"target": [], "time": []}}}, "displayed_time": "40.22", "trialTime": 41100, "trial_type": "mouselab-mdp", "trial_index": 34, "time_elapsed": 1209009, "internal_node_id": "0.0-6.0-1.0-25.0"}}, {"uniqueid": "w44406383:a13957287", "current_trial": 35, "dateTime": 1693565877249, "trialdata": {"revealed_states": [], "clicked_states": ["23", "24", "25", "1", "2", "3", "12", "13", "14", "15", "19", "4", "8", "26", "30", "22", "21", "20", "9", "11", "10", "27", "29", "28", "31"], "num_clicks_accrued": [0, 0, 0, 0, 0, 0, 0, 0, 0, 0, 0, 0, 0], "stateRewards": ["", -2, -1, 3, -3, 71, -58, -21, 7, -10, -75, -37, 2, 4, -1, -12, -79, -29, -48, 3, -41, -10, -30, -1, -2, 1, -15, 13, 66, 22, -1, -42, -86, -55], "withholdReward": false, "trial_id": "mdp_trial_27", "block": "test", "trialIndex": 28, "score": 15.050000000000011, "costs": -33.94999999999999, "simulationMode": [null, null, null, null, null], "rewards": [-1, -2, 1, -15, 66], "path": ["0", "0", "23", "24", "25", "26", "28"], "rt": [41052, 14, 84, 43, 891], "actions": ["left", "left", "left", "up", "right"], "actionTimes": [42000, 42534, 43138, 43697, 45109], "queries": {"click": {"state": {"target": ["23", "24", "25", "1", "2", "3", "12", "13", "14", "15", "19", "4", "8", "26", "30", "22", "21", "20", "9", "11", "10", "27", "29", "28", "31"], "time": [1410, 1710, 2009, 2707, 3124, 3475, 4556, 4923, 5223, 5774, 6323, 7190, 7740, 8457, 8974, 10892, 13791, 16913, 19708, 22845, 25882, 29392, 32511, 35828, 38930]}, "edge": {"target": [], "time": []}}, "mouseover": {"state": {"target": ["23", "24", "25", "1", "1", "2", "3", "12", "13", "14", "15", "19", "16", "6", "4", "3", "8", "28", "26", "25", "30", "31", "22", "19", "22", "21", "20", "13", "1", "10", "8", "9", "11", "10", "3", "5", "27", "29", "26", "28", "24", "31"], "time": [1188, 1654, 1937, 2337, 2651, 3037, 3401, 4451, 4852, 5153, 5601, 6169, 6702, 6869, 7051, 7502, 7569, 8102, 8269, 8686, 8818, 9585, 10020, 10053, 10537, 11471, 14303, 17421, 17487, 17571, 17671, 17835, 20553, 23637, 26421, 26519, 29238, 30004, 33004, 33134, 36338, 36404]}, "edge": {"target": [], "time": []}}, "mouseout": {"state": {"target": ["12", "1", "23", "24", "25", "1", "1", "2", "3", "2", "12", "13", "14", "15", "14", "19", "15", "16", "6", "4", "3", "8", "28", "26", "25", "30", "31", "22", "19", "22", "21", "20", "13", "1", "10", "8", "9", "11", "10", "3", "5", "27", "29", "26", "28", "24", "31"], "time": [405, 654, 1603, 1904, 2220, 2422, 3001, 3352, 3651, 3704, 4802, 5102, 5568, 5953, 6086, 6602, 6670, 6769, 6951, 7485, 7536, 8017, 8136, 8635, 8750, 9403, 9953, 10036, 10085, 11387, 14253, 17370, 17435, 17503, 17604, 17737, 20320, 23487, 26369, 26455, 28641, 29920, 32972, 33055, 36304, 36371, 45804]}, "edge": {"target": [], "time": []}}}, "displayed_time": "45.62", "trialTime": 46879, "trial_type": "mouselab-mdp", "trial_index": 35, "time_elapsed": 1256023, "internal_node_id": "0.0-6.0-1.0-26.0"}}, {"uniqueid": "w44406383:a13957287", "current_trial": 36, "dateTime": 1693565897586, "trialdata": {"revealed_states": [], "clicked_states": ["23", "24", "25", "1", "2", "3", "12", "13", "14", "4", "8", "6", "5"], "num_clicks_accrued": [0, 0, 0, 0, 0, 0, 0, 0, 0, 0, 0, 0, 0], "stateRewards": ["", 1, 1, 4, 11, 83, -66, 18, -16, -23, 5, 25, 1, -3, 1, -12, 18, 24, -86, -11, -64, 36, 40, 2, 1, -6, 13, 55, 29, 72, -2, 81, -72, -41], "withholdReward": false, "trial_id": "mdp_trial_28", "block": "test", "trialIndex": 29, "score": 89.45, "costs": -10.549999999999999, "simulationMode": [null, null, null, null, null], "rewards": [1, 1, 4, 11, 83], "path": ["0", "0", "1", "2", "3", "4", "5"], "rt": [13467, 44, 46, 572, 89], "actions": ["up", "up", "up", "right", "up"], "actionTimes": [14589, 15141, 15710, 16804, 17405], "queries": {"click": {"state": {"target": ["23", "24", "25", "1", "2", "3", "12", "13", "14", "4", "8", "6", "5"], "time": [1536, 1836, 2235, 3054, 3452, 3837, 4653, 5051, 5603, 6353, 6803, 7471, 10658]}, "edge": {"target": [], "time": []}}, "mouseover": {"state": {"target": ["23", "24", "25", "1", "2", "3", "12", "13", "14", "18", "4", "8", "3", "6", "5", "4", "7"], "time": [1446, 1764, 2164, 2716, 3330, 3729, 4515, 4964, 5464, 5898, 6248, 6745, 7131, 7265, 7997, 11015, 11698]}, "edge": {"target": [], "time": []}}, "mouseout": {"state": {"target": ["0", "0", "23", "24", "25", "24", "1", "2", "3", "2", "12", "13", "14", "18", "4", "3", "8", "3", "4", "6", "5", "4", "7"], "time": [565, 1346, 1714, 2132, 2448, 2481, 3281, 3466, 4062, 4099, 4898, 5332, 5813, 5915, 6598, 6665, 7098, 7148, 7215, 7518, 10964, 11062, 18366]}, "edge": {"target": [], "time": []}}}, "displayed_time": "17.91", "trialTime": 20193, "trial_type": "mouselab-mdp", "trial_index": 36, "time_elapsed": 1276360, "internal_node_id": "0.0-6.0-1.0-27.0"}}, {"uniqueid": "w44406383:a13957287", "current_trial": 37, "dateTime": 1693565917203, "trialdata": {"revealed_states": [], "clicked_states": ["23", "24", "25", "1", "2", "3", "12", "13", "14", "15", "19", "20"], "num_clicks_accrued": [0, 0, 0, 0, 0, 0, 0, 0, 0, 0, 0, 0, 0], "stateRewards": ["", -2, -1, -6, -14, -55, 78, -13, 11, 14, -71, 59, 2, 2, 6, -6, 9, 38, 14, 7, 85, 11, 68, 1, -4, -1, -3, -63, -85, 9, -2, 63, -86, -10], "withholdReward": false, "trial_id": "mdp_trial_29", "block": "test", "trialIndex": 30, "score": 93.6, "costs": -8.399999999999999, "simulationMode": [null, null, null, null, null], "rewards": [2, 2, 6, 7, 85], "path": ["0", "0", "12", "13", "14", "19", "20"], "rt": [10253, 376, 54, 565, 123], "actions": ["right", "right", "right", "down", "right"], "actionTimes": [11451, 12331, 12892, 13986, 14627], "queries": {"click": {"state": {"target": ["23", "24", "25", "1", "2", "3", "12", "13", "14", "15", "19", "20"], "time": [1626, 1929, 2259, 3042, 3459, 3892, 4578, 4959, 5244, 6292, 7007, 7590]}, "edge": {"target": [], "time": []}}, "mouseover": {"state": {"target": ["23", "24", "25", "1", "2", "3", "12", "13", "14", "18", "15", "19", "20", "21"], "time": [1402, 1837, 2187, 2938, 3372, 3771, 4205, 4854, 5122, 5637, 6154, 6720, 7420, 8002]}, "edge": {"target": [], "time": []}}, "mouseout": {"state": {"target": ["0", "23", "24", "25", "24", "1", "2", "3", "3", "12", "13", "14", "18", "15", "14", "19", "20", "21", "19"], "time": [1371, 1771, 2138, 2471, 2538, 3321, 3737, 3907, 4104, 4589, 4971, 5572, 6105, 6569, 6619, 7369, 7920, 10987, 15422]}, "edge": {"target": [], "time": []}}}, "displayed_time": "15.21", "trialTime": 19465, "trial_type": "mouselab-mdp", "trial_index": 37, "time_elapsed": 1295977, "internal_node_id": "0.0-6.0-1.0-28.0"}}, {"uniqueid": "w44406383:a13957287", "current_trial": 38, "dateTime": 1693565963764, "trialdata": {"revealed_states": [], "clicked_states": ["23", "24", "25", "1", "2", "3", "12", "13", "14", "26", "30", "27", "29", "28", "8", "4", "6", "5", "7", "9", "11", "10"], "num_clicks_accrued": [0, 0, 0, 0, 0, 0, 0, 0, 0, 0, 0, 0, 0], "stateRewards": ["", -2, -4, -2, 10, -8, -15, -47, 7, -84, 53, 5, -1, 2, -7, 3, 83, 31, 47, -1, 30, -8, 69, 2, -4, -1, 8, -7, 12, -8, -8, -13, 30, -84], "withholdReward": false, "trial_id": "mdp_trial_30", "block": "test", "trialIndex": 31, "score": 23.30000000000001, "costs": -28.699999999999992, "simulationMode": [null, null, null, null, null], "rewards": [-2, -4, -2, 7, 53], "path": ["0", "0", "1", "2", "3", "8", "10"], "rt": [40376, 542, 86, 522, 123], "actions": ["up", "up", "up", "left", "down"], "actionTimes": [41561, 42620, 43199, 44235, 44870], "queries": {"click": {"state": {"target": ["23", "24", "25", "1", "2", "3", "12", "13", "14", "26", "30", "27", "29", "28", "8", "4", "6", "5", "7", "9", "11", "10"], "time": [1535, 1848, 2249, 2964, 3415, 3815, 4515, 4933, 5385, 6549, 7182, 7965, 11174, 14117, 19500, 21437, 22333, 25520, 28518, 31675, 34855, 38154]}, "edge": {"target": [], "time": []}}, "mouseover": {"state": {"target": ["23", "24", "25", "1", "2", "3", "12", "12", "13", "14", "24", "26", "25", "30", "25", "27", "29", "26", "28", "24", "31", "22", "31", "24", "9", "8", "3", "4", "7", "6", "5", "4", "7", "3", "9", "11", "10"], "time": [1412, 1761, 2177, 2761, 3326, 3727, 4128, 4427, 4845, 5177, 6079, 6412, 6759, 6861, 7560, 7777, 8511, 11646, 11912, 14645, 14794, 15995, 16678, 17529, 19078, 19360, 19862, 19929, 21929, 22094, 22813, 25829, 25994, 28979, 29213, 32596, 35546]}, "edge": {"target": [], "time": []}}, "mouseout": {"state": {"target": ["0", "23", "24", "25", "24", "1", "2", "3", "12", "12", "13", "14", "24", "26", "25", "30", "25", "26", "27", "29", "26", "28", "24", "31", "22", "31", "24", "28", "9", "8", "3", "4", "7", "6", "5", "4", "7", "3", "9", "11", "10", "10"], "time": [1077, 1727, 2148, 2426, 2478, 3261, 3661, 4044, 4161, 4811, 5128, 5862, 6112, 6728, 6811, 7511, 7578, 7644, 8244, 11577, 11678, 14595, 14678, 15861, 16211, 17495, 17544, 19027, 19094, 19829, 19894, 21829, 22045, 22679, 25779, 25879, 28879, 29029, 32128, 35229, 45680, 45711]}, "edge": {"target": [], "time": []}}}, "displayed_time": "45.38", "trialTime": 46417, "trial_type": "mouselab-mdp", "trial_index": 38, "time_elapsed": 1342538, "internal_node_id": "0.0-6.0-1.0-29.0"}}, {"uniqueid": "w44406383:a13957287", "current_trial": 39, "dateTime": 1693565980619, "trialdata": {"revealed_states": [], "clicked_states": ["23", "24", "25", "1", "2", "3", "12", "13", "14", "26", "30", "31"], "num_clicks_accrued": [0, 0, 0, 0, 0, 0, 0, 0, 0, 0, 0, 0, 0], "stateRewards": ["", -1, -4, 8, 8, -68, 47, 24, -7, -61, 49, -69, -1, -1, 8, -7, 42, 1, -45, -11, 10, -63, -6, 1, 4, 6, -16, 79, -37, -58, -12, 81, 18, -53], "withholdReward": false, "trial_id": "mdp_trial_31", "block": "test", "trialIndex": 32, "score": 71.6, "costs": -8.399999999999999, "simulationMode": [null, null, null, null, null], "rewards": [1, 4, 6, -12, 81], "path": ["0", "0", "23", "24", "25", "30", "31"], "rt": [11430, 43, 43, 20, 62], "actions": ["left", "left", "left", "down", "right"], "actionTimes": [12974, 13534, 14100, 14642, 15219], "queries": {"click": {"state": {"target": ["23", "24", "25", "1", "2", "3", "12", "13", "14", "26", "30", "31"], "time": [1996, 2860, 3277, 4061, 4510, 4927, 5827, 6327, 6711, 7527, 8145, 8927]}, "edge": {"target": [], "time": []}}, "mouseover": {"state": {"target": ["23", "24", "25", "24", "25", "1", "2", "3", "12", "13", "14", "0", "23", "24", "26", "26", "25", "30", "31", "32"], "time": [1808, 2455, 2573, 2739, 3173, 3739, 4389, 4873, 5257, 6157, 6588, 6990, 7007, 7039, 7140, 7423, 7873, 8040, 8723, 9324]}, "edge": {"target": [], "time": []}}, "mouseout": {"state": {"target": ["0", "0", "23", "24", "25", "24", "25", "24", "1", "2", "3", "12", "13", "14", "13", "12", "0", "23", "24", "26", "26", "26", "25", "30", "31", "32"], "time": [941, 1756, 2173, 2521, 2690, 3155, 3556, 3606, 4339, 4807, 5123, 6074, 6539, 6907, 6957, 6973, 7007, 7023, 7055, 7241, 7541, 7823, 7923, 8522, 9289, 12425]}, "edge": {"target": [], "time": []}}}, "displayed_time": "15.72", "trialTime": 16719, "trial_type": "mouselab-mdp", "trial_index": 39, "time_elapsed": 1359394, "internal_node_id": "0.0-6.0-1.0-30.0"}}, {"uniqueid": "w44406383:a13957287", "current_trial": 40, "dateTime": 1693566006871, "trialdata": {"revealed_states": [], "clicked_states": ["23", "24", "25", "1", "2", "3", "12", "13", "14", "26", "30", "27", "29", "28"], "num_clicks_accrued": [0, 0, 0, 0, 0, 0, 0, 0, 0, 0, 0, 0, 0], "stateRewards": ["", 1, 2, 7, 13, 88, -71, 27, 3, 60, 5, -53, -2, 2, -6, -1, -30, 79, 47, -4, -14, 46, 68, 1, 1, 8, 10, -14, 86, 48, -11, -67, -44, 5], "withholdReward": false, "trial_id": "mdp_trial_32", "block": "test", "trialIndex": 33, "score": 93.3, "costs": -12.7, "simulationMode": [null, null, null, null, null], "rewards": [1, 1, 8, 10, 86], "path": ["0", "0", "23", "24", "25", "26", "28"], "rt": [18099, 82, 53, 89, 88], "actions": ["left", "left", "left", "up", "right"], "actionTimes": [19248, 19826, 20396, 20999, 21598], "queries": {"click": {"state": {"target": ["23", "24", "25", "1", "2", "3", "12", "13", "14", "26", "30", "27", "29", "28"], "time": [1615, 1914, 2205, 2922, 3317, 3629, 4481, 4864, 5715, 6646, 7763, 8562, 11414, 15535]}, "edge": {"target": [], "time": []}}, "mouseover": {"state": {"target": ["23", "24", "25", "1", "2", "3", "12", "13", "14", "25", "26", "25", "30", "25", "27", "29", "26", "28", "24", "31"], "time": [1461, 1848, 2114, 2694, 3228, 3509, 4043, 4773, 5659, 6159, 6459, 6959, 7059, 8107, 8408, 9025, 11859, 11909, 15976, 16093]}, "edge": {"target": [], "time": []}}, "mouseout": {"state": {"target": ["0", "23", "24", "25", "24", "1", "2", "3", "12", "13", "13", "14", "13", "25", "26", "25", "30", "25", "26", "27", "29", "26", "28", "24"], "time": [1410, 1793, 2075, 2443, 2541, 3176, 3477, 3926, 4727, 5043, 5542, 5976, 6010, 6176, 6926, 6993, 8058, 8125, 8208, 8941, 11826, 11892, 15926, 16026]}, "edge": {"target": [], "time": []}}}, "displayed_time": "22.11", "trialTime": 26123, "trial_type": "mouselab-mdp", "trial_index": 40, "time_elapsed": 1385646, "internal_node_id": "0.0-6.0-1.0-31.0"}}, {"uniqueid": "w44406383:a13957287", "current_trial": 41, "dateTime": 1693566031935, "trialdata": {"revealed_states": [], "clicked_states": ["23", "24", "25", "1", "2", "3", "12", "13", "14", "26", "30", "32", "31", "33"], "num_clicks_accrued": [0, 0, 0, 0, 0, 0, 0, 0, 0, 0, 0, 0, 0], "stateRewards": ["", -2, -3, -6, -7, 9, 16, 65, 5, -41, 20, -25, -1, -4, 1, -11, -49, -4, 71, 1, 39, -62, 52, -2, -3, 7, -9, -28, -70, 84, 8, 24, -58, 82], "withholdReward": false, "trial_id": "mdp_trial_33", "block": "test", "trialIndex": 34, "score": 79.3, "costs": -12.7, "simulationMode": [null, null, null, null, null], "rewards": [-2, -3, 7, 8, 82], "path": ["0", "0", "23", "24", "25", "30", "33"], "rt": [19471, 58, 69, 77, 93], "actions": ["left", "left", "left", "down", "left"], "actionTimes": [20982, 21560, 22138, 22729, 23313], "queries": {"click": {"state": {"target": ["23", "24", "25", "1", "2", "3", "12", "13", "14", "26", "30", "32", "31", "33"], "time": [2059, 2508, 2823, 3592, 4124, 4523, 5291, 5658, 5991, 7105, 9561, 10858, 13943, 17178]}, "edge": {"target": [], "time": []}}, "mouseover": {"state": {"target": ["23", "24", "25", "1", "2", "3", "12", "13", "14", "25", "26", "25", "30", "32", "31", "30", "33", "25", "26", "27", "26"], "time": [1802, 2452, 2734, 3452, 4050, 4469, 4935, 5521, 5886, 6568, 6735, 7435, 7536, 10719, 11352, 14335, 14485, 18085, 18219, 18818, 20503]}, "edge": {"target": [], "time": []}}, "mouseout": {"state": {"target": ["31", "0", "23", "24", "25", "24", "1", "2", "3", "2", "12", "13", "14", "25", "26", "26", "25", "30", "32", "31", "30", "33", "25", "26", "27", "26", "28"], "time": [1069, 1752, 2387, 2702, 3002, 3065, 3918, 4352, 4702, 4802, 5452, 5852, 6285, 6585, 7110, 7401, 7468, 10401, 11185, 14302, 14385, 18019, 18102, 18285, 20470, 24619, 24668]}, "edge": {"target": [], "time": []}}}, "displayed_time": "23.82", "trialTime": 24895, "trial_type": "mouselab-mdp", "trial_index": 41, "time_elapsed": 1410710, "internal_node_id": "0.0-6.0-1.0-32.0"}}, {"uniqueid": "w44406383:a13957287", "current_trial": 42, "dateTime": 1693566052359, "trialdata": {"revealed_states": [], "clicked_states": ["23", "24", "25", "1", "2", "3", "12", "13", "14", "26", "30", "31", "32"], "num_clicks_accrued": [0, 0, 0, 0, 0, 0, 0, 0, 0, 0, 0, 0, 0], "stateRewards": ["", -1, -3, 4, -10, -5, 79, -87, -2, 53, 29, -20, -2, -1, -5, 10, 27, 86, 46, -16, -29, 40, 3, 2, 4, -1, -6, 37, 79, -29, 7, 86, -62, 29], "withholdReward": false, "trial_id": "mdp_trial_34", "block": "test", "trialIndex": 35, "score": 87.45, "costs": -10.549999999999999, "simulationMode": [null, null, null, null, null, null], "rewards": [2, 4, -1, 7, 86], "path": ["0", "0", "23", "24", "25", "30", "31"], "rt": [13176, 1197, 268, 70, 19, 93], "actions": ["left", "left", "left", "left", "down", "right"], "actionTimes": [14068, 15267, 16073, 16649, 17181, 17788], "queries": {"click": {"state": {"target": ["23", "24", "25", "1", "2", "3", "12", "13", "14", "26", "30", "31", "32"], "time": [1417, 1683, 2018, 2716, 3500, 4232, 5332, 5799, 6115, 6949, 9219, 10068, 13153]}, "edge": {"target": [], "time": []}}, "mouseover": {"state": {"target": ["23", "24", "25", "1", "2", "3", "12", "13", "14", "25", "26", "25", "30", "30", "31", "32"], "time": [1246, 1627, 1911, 2562, 3395, 3846, 4995, 5694, 5994, 6529, 6811, 7177, 7244, 7561, 9961, 10478]}, "edge": {"target": [], "time": []}}, "mouseout": {"state": {"target": ["23", "24", "25", "24", "23", "1", "2", "3", "2", "12", "13", "14", "25", "26", "26", "25", "30", "30", "31", "32"], "time": [1578, 1880, 2279, 2345, 2378, 2978, 3678, 4512, 4561, 5594, 5978, 6328, 6777, 7015, 7144, 7210, 7361, 9845, 10411, 19113]}, "edge": {"target": [], "time": []}}}, "displayed_time": "18.30", "trialTime": 20278, "trial_type": "mouselab-mdp", "trial_index": 42, "time_elapsed": 1431133, "internal_node_id": "0.0-6.0-1.0-33.0"}}, {"uniqueid": "w44406383:a13957287", "current_trial": 43, "dateTime": 1693566077154, "trialdata": {"revealed_states": [], "clicked_states": ["23", "24", "25", "1", "2", "3", "12", "13", "14", "4", "8", "9", "11", "10"], "num_clicks_accrued": [0, 0, 0, 0, 0, 0, 0, 0, 0, 0, 0, 0, 0], "stateRewards": ["", 1, -1, -7, -7, -22, 15, -13, 13, 26, -32, 38, -1, 1, -7, -4, 16, -62, 86, 12, -54, 56, 64, -2, -1, 6, 14, -57, 37, 62, -6, -25, 50, -70], "withholdReward": false, "trial_id": "mdp_trial_35", "block": "test", "trialIndex": 36, "score": 31.3, "costs": -12.7, "simulationMode": [null, null, null, null, null], "rewards": [1, -1, -7, 13, 38], "path": ["0", "0", "1", "2", "3", "8", "11"], "rt": [18581, 45, 82, 436, 125], "actions": ["up", "up", "up", "left", "left"], "actionTimes": [20111, 20667, 21253, 22208, 22847], "queries": {"click": {"state": {"target": ["23", "24", "25", "1", "2", "3", "12", "13", "14", "4", "8", "9", "11", "10"], "time": [1960, 2310, 2643, 3426, 3843, 4243, 5159, 5542, 6359, 9078, 10160, 11177, 14094, 16976]}, "edge": {"target": [], "time": []}}, "mouseover": {"state": {"target": ["23", "24", "25", "1", "2", "3", "12", "12", "13", "14", "19", "7", "18", "4", "4", "3", "8", "9", "11", "10"], "time": [1856, 2221, 2555, 3138, 3738, 4138, 4521, 4754, 5421, 6254, 6838, 8008, 8257, 8758, 8957, 9421, 9571, 10888, 11621, 14771]}, "edge": {"target": [], "time": []}}, "mouseout": {"state": {"target": ["0", "23", "24", "25", "24", "1", "2", "3", "2", "12", "12", "13", "14", "19", "13", "7", "18", "4", "4", "3", "8", "9", "11", "10", "0"], "time": [1790, 2154, 2521, 2888, 2938, 3671, 4072, 4438, 4471, 4571, 5388, 5803, 6689, 6854, 7021, 8040, 8305, 8771, 9404, 9471, 10854, 11521, 14571, 23756, 23824]}, "edge": {"target": [], "time": []}}}, "displayed_time": "23.36", "trialTime": 24651, "trial_type": "mouselab-mdp", "trial_index": 43, "time_elapsed": 1455928, "internal_node_id": "0.0-6.0-1.0-34.0"}}, {"uniqueid": "w44406383:a13957287", "current_trial": 44, "dateTime": 1693566102048, "trialdata": {"revealed_states": [], "clicked_states": ["23", "24", "25", "1", "2", "3", "12", "13", "14", "26", "30", "33", "32", "31"], "num_clicks_accrued": [0, 0, 0, 0, 0, 0, 0, 0, 0, 0, 0, 0, 0], "stateRewards": ["", -1, -3, 1, 13, -64, -29, 12, -4, -33, 50, 56, 2, -3, 4, 11, -64, -58, -55, 12, 47, 38, -25, -2, 2, 5, -15, 85, 7, 84, 10, 8, 57, 26], "withholdReward": false, "trial_id": "mdp_trial_36", "block": "test", "trialIndex": 37, "score": 59.3, "costs": -12.7, "simulationMode": [null, null, null, null, null, null], "rewards": [-2, 2, 5, 10, 57], "path": ["0", "0", "23", "24", "25", "30", "32"], "rt": [19415, 606, 79, 72, 109, 172], "actions": ["left", "left", "left", "left", "down", "down"], "actionTimes": [20405, 21012, 21610, 22186, 22807, 23469], "queries": {"click": {"state": {"target": ["23", "24", "25", "1", "2", "3", "12", "13", "14", "26", "30", "33", "32", "31"], "time": [1421, 1788, 2205, 3122, 3554, 4040, 4840, 5354, 5786, 8239, 9537, 11190, 14105, 18173]}, "edge": {"target": [], "time": []}}, "mouseover": {"state": {"target": ["23", "24", "25", "1", "2", "3", "12", "13", "14", "23", "26", "26", "25", "30", "32", "33", "32", "31"], "time": [1284, 1634, 2131, 2634, 3465, 3934, 4648, 5264, 5716, 6417, 6998, 7818, 9232, 9382, 10497, 10784, 12181, 14731]}, "edge": {"target": [], "time": []}}, "mouseout": {"state": {"target": ["0", "23", "24", "25", "24", "1", "2", "3", "12", "13", "14", "23", "26", "26", "25", "30", "32", "33", "32"], "time": [1215, 1598, 2097, 2464, 2514, 3397, 3884, 4331, 5150, 5634, 6135, 6447, 7417, 9083, 9299, 10231, 10733, 11865, 14497]}, "edge": {"target": [], "time": []}}}, "displayed_time": "23.98", "trialTime": 24754, "trial_type": "mouselab-mdp", "trial_index": 44, "time_elapsed": 1480822, "internal_node_id": "0.0-6.0-1.0-35.0"}}, {"uniqueid": "w44406383:a13957287", "current_trial": 45, "dateTime": 1693566134120, "trialdata": {"revealed_states": [], "clicked_states": ["23", "24", "25", "1", "2", "3", "12", "13", "14", "4", "5", "6", "7", "8", "9", "11", "10"], "num_clicks_accrued": [0, 0, 0, 0, 0, 0, 0, 0, 0, 0, 0, 0, 0], "stateRewards": ["", 2, 4, 4, 9, -88, -10, 44, 16, -54, 64, 78, 1, 2, 5, 16, 80, 36, 7, -4, 9, -47, -70, -1, -3, 6, -16, 11, 80, 28, 8, -1, 34, -17], "withholdReward": false, "trial_id": "mdp_trial_37", "block": "test", "trialIndex": 38, "score": 84.85, "costs": -19.15, "simulationMode": [null, null, null, null, null, null], "rewards": [2, 4, 4, 16, 78], "path": ["0", "0", "1", "2", "3", "8", "11"], "rt": [26196, 533, 303, 115, 44, 55], "actions": ["up", "up", "up", "up", "left", "left"], "actionTimes": [27238, 27773, 28600, 29230, 29792, 30370], "queries": {"click": {"state": {"target": ["23", "24", "25", "1", "2", "3", "12", "13", "14", "4", "5", "6", "7", "8", "9", "11", "10"], "time": [1519, 1834, 2117, 3151, 3634, 4134, 5051, 5418, 6218, 7318, 8602, 12024, 15143, 18139, 19590, 22759, 25755]}, "edge": {"target": [], "time": []}}, "mouseover": {"state": {"target": ["23", "24", "25", "1", "2", "3", "12", "13", "14", "7", "4", "3", "8", "5", "6", "7", "8", "9", "11", "10"], "time": [1364, 1748, 2045, 2614, 3530, 4047, 4479, 5295, 6097, 6881, 6995, 7664, 7745, 8531, 9098, 12616, 15914, 19198, 19999, 23282]}, "edge": {"target": [], "time": []}}, "mouseout": {"state": {"target": ["31", "0", "0", "23", "24", "25", "24", "1", "2", "3", "12", "13", "14", "7", "4", "3", "8", "5", "6", "7", "8", "9", "11", "10"], "time": [440, 532, 1315, 1713, 1997, 2378, 2431, 3447, 3962, 4346, 5133, 5500, 6413, 6897, 7647, 7713, 8362, 8962, 12499, 15512, 18798, 19949, 23113, 31199]}, "edge": {"target": [], "time": []}}}, "displayed_time": "30.88", "trialTime": 31924, "trial_type": "mouselab-mdp", "trial_index": 45, "time_elapsed": 1512894, "internal_node_id": "0.0-6.0-1.0-36.0"}}, {"uniqueid": "w44406383:a13957287", "current_trial": 46, "dateTime": 1693566168187, "trialdata": {"revealed_states": [], "clicked_states": ["23", "24", "25", "1", "2", "3", "12", "13", "14", "26", "30", "32", "31", "33", "29", "27", "28"], "num_clicks_accrued": [0, 0, 0, 0, 0, 0, 0, 0, 0, 0, 0, 0, 0], "stateRewards": ["", 1, -4, -4, 8, 1, -79, 68, -10, -79, 8, -74, -1, -3, -6, 14, 43, 23, 9, 5, -51, 63, 61, -2, 4, 6, -10, 69, -32, 57, 15, -80, -80, -77], "withholdReward": false, "trial_id": "mdp_trial_38", "block": "test", "trialIndex": 39, "score": 47.85, "costs": -19.15, "simulationMode": [null, null, null, null, null], "rewards": [-2, 4, 6, -10, 69], "path": ["0", "0", "23", "24", "25", "26", "27"], "rt": [28118, 124, 50, 69, 76], "actions": ["left", "left", "left", "up", "up"], "actionTimes": [29651, 30286, 30846, 31447, 32037], "queries": {"click": {"state": {"target": ["23", "24", "25", "1", "2", "3", "12", "13", "14", "26", "30", "32", "31", "33", "29", "27", "28"], "time": [2098, 2465, 2848, 3731, 4216, 5082, 5965, 6399, 6748, 8632, 10385, 11335, 14337, 17149, 20368, 23334, 26587]}, "edge": {"target": [], "time": []}}, "mouseover": {"state": {"target": ["0", "23", "24", "25", "1", "2", "3", "12", "13", "14", "1", "28", "26", "25", "30", "32", "31", "31", "30", "33", "26", "29", "27", "28"], "time": [1846, 1929, 2394, 2760, 3427, 4111, 5010, 5460, 6310, 6661, 7495, 7962, 8546, 8978, 9194, 11178, 11678, 12329, 14878, 14945, 18161, 18844, 20895, 23812]}, "edge": {"target": [], "time": []}}, "mouseout": {"state": {"target": ["1", "0", "23", "24", "25", "24", "1", "2", "3", "2", "12", "13", "14", "13", "12", "1", "28", "26", "25", "30", "32", "31", "31", "30", "33", "26", "29", "27", "28", "23"], "time": [1178, 1860, 2327, 2711, 3130, 3178, 4027, 4528, 5310, 5360, 6276, 6611, 7077, 7178, 7278, 7528, 8030, 8928, 9027, 11028, 11579, 11778, 14845, 14912, 17927, 18177, 20696, 23729, 32946, 32995]}, "edge": {"target": [], "time": []}}}, "displayed_time": "32.55", "trialTime": 33922, "trial_type": "mouselab-mdp", "trial_index": 46, "time_elapsed": 1546961, "internal_node_id": "0.0-6.0-1.0-37.0"}}, {"uniqueid": "w44406383:a13957287", "current_trial": 47, "dateTime": 1693566203602, "trialdata": {"revealed_states": [], "clicked_states": ["1", "2", "3", "23", "24", "25", "12", "13", "14", "15", "19", "4", "8", "26", "30", "9", "11", "10", "5", "6", "7"], "num_clicks_accrued": [0, 0, 0, 0, 0, 0, 0, 0, 0, 0, 0, 0, 0], "stateRewards": ["", 2, -3, -2, 14, -4, 85, 46, 15, -28, 41, 31, -1, -1, -1, 5, 62, 79, 57, 12, -73, -64, 86, -1, 1, -3, -5, 68, 11, -32, 8, -80, -21, -56], "withholdReward": false, "trial_id": "mdp_trial_39", "block": "test", "trialIndex": 40, "score": 70.65, "costs": -25.349999999999994, "simulationMode": [null, null, null, null, null, null], "rewards": [2, -3, -2, 14, 85], "path": ["0", "0", "1", "2", "3", "4", "6"], "rt": [28946, 665, 123, 84, 374, 96], "actions": ["up", "up", "up", "up", "right", "right"], "actionTimes": [30130, 30796, 31452, 32059, 32952, 33555], "queries": {"click": {"state": {"target": ["1", "2", "3", "23", "24", "25", "12", "13", "14", "15", "19", "4", "8", "26", "30", "9", "11", "10", "5", "6", "7"], "time": [1882, 2302, 2766, 3733, 4252, 4633, 5666, 6047, 6397, 7497, 8197, 9648, 10297, 11097, 11680, 13166, 16218, 19441, 22737, 25818, 28886]}, "edge": {"target": [], "time": []}}, "mouseover": {"state": {"target": ["1", "2", "3", "23", "24", "25", "12", "13", "14", "19", "15", "19", "18", "4", "3", "8", "26", "25", "30", "24", "2", "7", "7", "9", "11", "10", "3", "5", "6", "7"], "time": [1761, 2226, 2661, 3344, 4178, 4578, 5528, 5961, 6309, 6793, 7376, 7859, 9176, 9593, 10010, 10142, 10909, 11409, 11491, 12060, 12226, 12276, 12392, 12811, 13645, 16694, 19778, 20192, 23229, 26176]}, "edge": {"target": [], "time": []}}, "mouseout": {"state": {"target": ["0", "1", "2", "3", "2", "1", "23", "24", "25", "24", "12", "13", "14", "19", "14", "15", "14", "19", "14", "18", "4", "3", "8", "8", "26", "25", "30", "24", "2", "7", "7", "8", "9", "11", "10", "3", "5", "6", "7", "6", "18", "12"], "time": [1628, 2144, 2578, 3011, 3077, 3161, 4094, 4477, 4928, 5028, 5892, 6260, 6676, 7143, 7264, 7676, 7792, 9010, 9093, 9226, 9993, 10060, 10380, 10643, 11359, 11443, 12010, 12109, 12259, 12343, 12442, 12693, 13444, 16511, 19727, 19827, 23128, 26109, 32641, 34429, 34561, 34576]}, "edge": {"target": [], "time": []}}}, "displayed_time": "34.06", "trialTime": 35269, "trial_type": "mouselab-mdp", "trial_index": 47, "time_elapsed": 1582376, "internal_node_id": "0.0-6.0-1.0-38.0"}}, {"uniqueid": "w44406383:a13957287", "current_trial": 48, "dateTime": 1693566236118, "trialdata": {"revealed_states": [], "clicked_states": ["23", "24", "25", "1", "2", "3", "12", "13", "14", "15", "19", "21", "22", "20", "17", "16", "18"], "num_clicks_accrued": [0, 0, 0, 0, 0, 0, 0, 0, 0, 0, 0, 0, 0], "stateRewards": ["", -2, -4, 2, 10, -17, 18, 73, 11, -32, 23, -13, -2, -4, 7, 12, -25, 66, -23, 15, 40, -76, -9, 1, 2, -7, -5, -20, 24, 3, -5, 16, -73, 70], "withholdReward": false, "trial_id": "mdp_trial_40", "block": "test", "trialIndex": 41, "score": 59.85, "costs": -19.15, "simulationMode": [null, null, null, null, null], "rewards": [-2, -4, 7, 12, 66], "path": ["0", "0", "12", "13", "14", "15", "17"], "rt": [27210, 48, 4, 10, 19], "actions": ["right", "right", "right", "up", "right"], "actionTimes": [28454, 29013, 29534, 30073, 30615], "queries": {"click": {"state": {"target": ["23", "24", "25", "1", "2", "3", "12", "13", "14", "15", "19", "21", "22", "20", "17", "16", "18"], "time": [1702, 2035, 2354, 3600, 3966, 4400, 5201, 6117, 6450, 7351, 8206, 9250, 12322, 15421, 18491, 22505, 25350]}, "edge": {"target": [], "time": []}}, "mouseover": {"state": {"target": ["23", "24", "25", "1", "1", "2", "3", "12", "12", "13", "14", "13", "14", "15", "19", "21", "22", "19", "20", "17", "16", "18", "15", "17"], "time": [1514, 1914, 2281, 2831, 3480, 3847, 4296, 4662, 4962, 5712, 5829, 5994, 6345, 7162, 7979, 9146, 9729, 12648, 12763, 16112, 19231, 23114, 26147, 26729]}, "edge": {"target": [], "time": []}}, "mouseout": {"state": {"target": ["0", "23", "24", "25", "1", "1", "2", "3", "3", "12", "12", "13", "14", "13", "14", "14", "15", "14", "19", "21", "22", "19", "20", "17", "16", "18", "15", "17"], "time": [1482, 1864, 2229, 2609, 3080, 3779, 4229, 4413, 4577, 4696, 5299, 5779, 5946, 6296, 6778, 7096, 7680, 7746, 8513, 9563, 12613, 12697, 15745, 19032, 23030, 26112, 26596, 31531]}, "edge": {"target": [], "time": []}}}, "displayed_time": "31.13", "trialTime": 32370, "trial_type": "mouselab-mdp", "trial_index": 48, "time_elapsed": 1614892, "internal_node_id": "0.0-6.0-1.0-39.0"}}, {"uniqueid": "w44406383:a13957287", "current_trial": 49, "dateTime": 1693566283563, "trialdata": {"rt": 47440, "response": {"Q0": "$-16 to 16", "Q1": "$-32 to $32", "Q2": "$-88 to $88", "Q3": "The cost for clicking on nodes varied between nodes.", "Q4": "Very motivated"}, "question_order": [0, 1, 2, 3, 4], "trial_id": "final_quiz_control", "trial_type": "survey-multi-choice", "trial_index": 49, "time_elapsed": 1662338, "internal_node_id": "0.0-6.0-2.0"}}, {"uniqueid": "w44406383:a13957287", "current_trial": 50, "dateTime": 1693566502084, "trialdata": {"rt": 218516, "response": {"Q0": "Generally, I would explore each of the initial 3 branches, and choose the most positive branch from there. Then I would click each of the two nodes that would branch out from there and follow the highest of the two paths, clicking each of the 3 final nodes. Then I would either choose the highest path, or if none off the paths were very satisfying I would move to the next best path so far. ", "Q1": "Not significantly. In later rounds I found I tended to get options where none of the 3 final nodes were good options so I more often had to backtrack to the next best path.", "Q2": "I was happy that my initial strategy was reasonable so I didn't focus too much on trying to improve. I think I might have found it difficult to decide on the fly how to improve my strategy."}, "trial_id": "self_report_control", "trial_type": "survey-text", "trial_index": 50, "time_elapsed": 1880858, "internal_node_id": "0.0-6.0-3.0"}}, {"uniqueid": "w44406383:a13957287", "current_trial": 51, "dateTime": 1693566543752, "trialdata": {"rt": 41666, "response": {"Q0": "Strongly agree", "Q1": "Strongly disagree", "Q2": "Agree", "Q3": "Strongly agree", "Q4": "Neither disagree nor agree", "Q5": "Strongly agree", "Q6": "Strongly disagree"}, "question_order": [0, 1, 2, 3, 4, 5, 6], "trial_id": "self_report_2", "trial_type": "survey-multi-choice", "trial_index": 51, "time_elapsed": 1922527, "internal_node_id": "0.0-6.0-4.0"}}, {"uniqueid": "w44406383:a13957287", "current_trial": 52, "dateTime": 1693566561152, "trialdata": {"rt": 17393, "response": {"gender": "female", "age": "23", "colorblind": "0", "effort": "0"}, "trial_type": "survey-html-form", "trial_index": 52, "time_elapsed": 1939927, "internal_node_id": "0.0-6.0-5.0"}}, {"uniqueid": "w44406383:a13957287", "current_trial": 53, "dateTime": 1693566598135, "trialdata": {"rt": 36980, "response": {"Q0": "It was a little hard to follow the written instructions to begin with, but I picked up the mechanics of the game very quickly once I began", "Q1": "No", "Q2": "Was very fun! Thanks"}, "trial_type": "survey-text", "trial_index": 53, "time_elapsed": 1976910, "internal_node_id": "0.0-6.0-6.0"}}, {"uniqueid": "w44406383:a13957287", "current_trial": 54, "dateTime": 1693566612954, "trialdata": {"rt": 14814, "stimulus": "<h1>Completion Code Instructions (1/2)</h1>\n<br><br><br><br>\nYou have reached the end of the experiment! The completion code consists of two parts: (1) a code with 2 characters (2) a code with 6 characters. On this page, you will receive the second part of the code. The first part of the completion code will be on the next page.\n<br><br>\nThe second part of your completion code is: <b>EWEK22</b>\n<br><br>\nPlease note this down. Then, press 'Finish HIT' in order to find the first part of your completion code. Once the data has been saved, you will receive this code either in this window or in the original browser window where you started the experiment.\n", "response": 0, "trial_type": "html-button-response", "trial_index": 54, "time_elapsed": 1991728, "internal_node_id": "0.0-6.0-7.0"}}, {"uniqueid": "w44406383:a13957287", "current_trial": 55, "dateTime": 1693566613959, "trialdata": {"success": true, "trial_type": "fullscreen", "trial_index": 55, "time_elapsed": 1992734, "internal_node_id": "0.0-7.0"}}], "questiondata": {"params": {"CODE": "C6DMOQA6", "MIN_TIME": 14, "inspectCost": 1, "startTime": "Fri Sep 01 2023 22:36:59 GMT+1200 (New Zealand Standard Time)", "bonusRate": 0.002, "variance": "1_2_4_8_44", "branching": "31123"}, "final_score": 2193.85}, "eventdata": [{"eventtype": "initialized", "value": null, "timestamp": 1693564618407, "interval": 0}, {"eventtype": "window_resize", "value": [1024, 761], "timestamp": 1693564618407, "interval": 0}, {"eventtype": "window_resize", "value": [1024, 761], "timestamp": 1693564619004, "interval": 597}, {"eventtype": "window_resize", "value": [1440, 900], "timestamp": 1693564625303, "interval": 6299}, {"eventtype": "focus", "value": "off", "timestamp": 1693565522098, "interval": 896795}, {"eventtype": "focus", "value": "on", "timestamp": 1693565638219, "interval": 116121}, {"eventtype": "window_resize", "value": [1024, 761], "timestamp": 1693566613198, "interval": 974979}], "useragent": "Mozilla/5.0 (Macintosh; Intel Mac OS X 10_15_7) AppleWebKit/537.36 (KHTML, like Gecko) Chrome/116.0.0.0 Safari/537.36", "mode": "live", "id": "w44406383:a13957287", "status": "user data saved", "Beginhit": "2023-09-01 10:37:44.726566", "Beginexp": "2023-09-01 10:37:54.755947", "Endhit": "2023-09-01 11:11:03.526587", "psiturkStatus": 3, "browser": "<redacted>", "platform": "macos", "language": "en-US"}