{"condition": 0, "counterbalance": 0, "assignmentId": "a98597973", "workerId": "w41434252", "hitId": "h59535601", "currenttrial": 55, "bonus": 0, "data": [{"uniqueid": "w41434252:a98597973", "current_trial": 0, "dateTime": 1691142346503, "trialdata": {"success": true, "trial_type": "fullscreen", "trial_index": 0, "time_elapsed": 4196, "internal_node_id": "0.0-0.0"}}, {"uniqueid": "w41434252:a98597973", "current_trial": 1, "dateTime": 1691142368387, "trialdata": {"view_history": [{"page_index": 0, "viewing_time": 21874}], "rt": 21875, "trial_id": "exp_instructions_control", "trial_type": "instructions", "trial_index": 1, "time_elapsed": 26081, "internal_node_id": "0.0-1.0"}}, {"uniqueid": "w41434252:a98597973", "current_trial": 2, "dateTime": 1691142372102, "trialdata": {"success": true, "trial_type": "fullscreen", "trial_index": 2, "time_elapsed": 29795, "internal_node_id": "0.0-2.0-0.0"}}, {"uniqueid": "w41434252:a98597973", "current_trial": 3, "dateTime": 1691142592226, "trialdata": {"view_history": [{"page_index": 0, "viewing_time": 60067}, {"page_index": 1, "viewing_time": 63181}, {"page_index": 2, "viewing_time": 57825}, {"page_index": 3, "viewing_time": 39046}], "rt": 220121, "trial_id": "mouselab_instructions_1_control", "trial_type": "instructions", "trial_index": 3, "time_elapsed": 249920, "internal_node_id": "0.0-2.0-1.0"}}, {"uniqueid": "w41434252:a98597973", "current_trial": 4, "dateTime": 1691142607355, "trialdata": {"revealed_states": [], "clicked_states": [], "num_clicks_accrued": [0, 0, 0, 0, 0, 0, 0, 0, 0, 0, 0, 0, 0], "stateRewards": ["", 10, -10, -10, -10, 10, 10, 10, 10, -10, 10, -10, -10, 10, -10, -10, -10, 10, -10, 10, -10, 10, -10, 10, -10, -10, 10, 10, 10, -10, -10, -10, -10, 10], "withholdReward": false, "trial_id": "practice_1", "block": "test", "trialIndex": 0, "score": -6.5, "costs": 0, "simulationMode": [null, null, null, null, null], "rewards": [10, -10, -10, -10, 10], "path": ["0", "0", "1", "2", "3", "4", "5"], "rt": [3149, 474, 470, 1162, 682], "actions": ["up", "up", "up", "right", "up"], "actionTimes": [6721, 7714, 8706, 10384, 11586], "queries": {"click": {"state": {"target": [], "time": []}, "edge": {"target": [], "time": []}}, "mouseover": {"state": {"target": [], "time": []}, "edge": {"target": [], "time": []}}, "mouseout": {"state": {"target": ["23"], "time": [2614]}, "edge": {"target": [], "time": []}}}, "displayed_time": "12.10", "trialTime": 14561, "trial_type": "mouselab-mdp", "trial_index": 4, "time_elapsed": 265048, "internal_node_id": "0.0-2.0-2.0-0.0"}}, {"uniqueid": "w41434252:a98597973", "current_trial": 5, "dateTime": 1691142635212, "trialdata": {"revealed_states": [], "clicked_states": ["8", "26", "27", "15", "21", "32", "5", "6"], "num_clicks_accrued": [0, 0, 0, 0, 0, 0, 0, 0, 0, 0, 0, 0, 0], "stateRewards": ["", -10, -10, -10, -10, -10, -10, 10, -10, 10, 10, 10, -10, -10, 10, -10, 10, -10, -10, -10, 10, -10, -10, 10, -10, 10, -10, -10, -10, -10, -10, -10, -10, -10], "withholdReward": false, "trial_id": "practice_2", "block": "test", "trialIndex": 1, "score": -10.5, "costs": -4, "simulationMode": [null, null, null, null, null], "rewards": [-10, -10, 10, -10, 10], "path": ["0", "0", "12", "13", "14", "15", "16"], "rt": [18467, 475, 109, 200, 27], "actions": ["right", "right", "right", "up", "up"], "actionTimes": [21321, 22339, 22955, 23679, 24224], "queries": {"click": {"state": {"target": ["8", "26", "27", "15", "21", "32", "5", "6"], "time": [6246, 8548, 10278, 11400, 13529, 15040, 16353, 17815]}, "edge": {"target": [], "time": []}}, "mouseover": {"state": {"target": ["2", "4", "7", "1", "2", "8", "10", "28", "25", "26", "28", "27", "17", "15", "14", "19", "21", "32", "30", "25", "9", "5", "6", "7", "2", "3", "4"], "time": [4207, 4275, 4458, 4893, 5243, 5810, 7076, 7444, 7510, 8011, 9262, 9710, 10843, 11127, 12046, 13060, 13226, 14576, 15594, 15614, 15677, 16011, 16894, 18562, 18711, 18778, 19193]}, "edge": {"target": [], "time": []}}, "mouseout": {"state": {"target": ["0", "0", "2", "4", "7", "1", "2", "8", "10", "28", "25", "26", "28", "27", "17", "15", "14", "19", "21", "32", "30", "25", "9", "5", "6", "7", "2", "3", "4", "22"], "time": [1708, 4123, 4242, 4341, 4593, 5144, 5594, 7028, 7429, 7461, 7977, 9194, 9565, 10677, 10927, 11979, 12994, 13109, 14078, 15252, 15610, 15626, 15693, 16810, 18510, 18610, 18744, 18877, 19210, 27159]}, "edge": {"target": [], "time": []}}}, "displayed_time": "24.76", "trialTime": 27614, "trial_type": "mouselab-mdp", "trial_index": 5, "time_elapsed": 292905, "internal_node_id": "0.0-2.0-2.0-1.0"}}, {"uniqueid": "w41434252:a98597973", "current_trial": 6, "dateTime": 1691142670853, "trialdata": {"view_history": [{"page_index": 0, "viewing_time": 28298}, {"page_index": 1, "viewing_time": 7336}], "rt": 35635, "trial_id": "mouselab_instructions_2_control", "trial_type": "instructions", "trial_index": 6, "time_elapsed": 328547, "internal_node_id": "0.0-2.0-3.0"}}, {"uniqueid": "w41434252:a98597973", "current_trial": 7, "dateTime": 1691142710762, "trialdata": {"rt": 39899, "response": {"Q0": "The cost for clicking on nodes may vary between nodes.", "Q1": "The better I perform the higher my bonus will be.", "Q2": "No, the amount of cash at each node of the web may be different each time.", "Q3": "To get the highest total score.", "Q4": "Only before moving the spider.", "Q5": "3 seconds"}, "question_order": [0, 1, 2, 3, 4, 5], "correct": {"Q0": "The cost for clicking on nodes may vary between nodes.", "Q1": "The better I perform the higher my bonus will be.", "Q2": "No, the amount of cash at each node of the web may be different each time.", "Q3": "To get the highest total score.", "Q4": "Only before moving the spider.", "Q5": "3 seconds"}, "trial_id": "mouselab_quiz_control", "trial_type": "survey-multi-choice", "trial_index": 7, "time_elapsed": 368455, "internal_node_id": "0.0-2.0-4.0"}}, {"uniqueid": "w41434252:a98597973", "current_trial": 8, "dateTime": 1691142728465, "trialdata": {"rt": 17686, "stimulus": "\n<h1> Get ready to start the game! </h1>\n\nThank you for reading the instructions. Get ready start with the 40 rounds of this game.\n<br><br>\nIf you need to take a break, feel free to take one after the end of a round, before continuing to the next one.\n<br><br>\nRemember, the more money the spider gets, the bigger your bonus will be!\n<br><br>\n<div style='text-align: center;'>Press <code>space</code> to begin.</div>\n\n<br><br>\n(If, at any point, the <code>space</code> key does not take you to the next page, click once on the text and try again.)", "response": " ", "trial_id": "mdp_ready", "trial_type": "html-keyboard-response", "trial_index": 8, "time_elapsed": 386159, "internal_node_id": "0.0-4.0-0.0"}}, {"uniqueid": "w41434252:a98597973", "current_trial": 9, "dateTime": 1691142748695, "trialdata": {"revealed_states": [], "clicked_states": ["5", "21", "32", "27"], "num_clicks_accrued": [0, 0, 0, 0, 0, 0, 0, 0, 0, 0, 0, 0, 0], "stateRewards": ["", -2, 4, -3, -13, 63, -36, 62, 11, 78, 34, -51, 2, -2, 8, -6, -40, -18, 31, 9, 64, 39, 79, 1, 4, -4, 15, -12, 76, 73, -10, -77, 86, -4], "withholdReward": false, "trial_id": "mdp_trial_1", "block": "test", "trialIndex": 2, "score": 71.4, "costs": -5.6, "simulationMode": [null, null, null, null, null], "rewards": [1, 4, -4, -10, 86], "path": ["0", "0", "23", "24", "25", "30", "32"], "rt": [10770, 400, 327, 499, 63], "actions": ["left", "left", "left", "down", "down"], "actionTimes": [14347, 15266, 16108, 17129, 17712], "queries": {"click": {"state": {"target": ["5", "21", "32", "27"], "time": [4787, 6611, 8398, 10688]}, "edge": {"target": [], "time": []}}, "mouseover": {"state": {"target": ["1", "2", "3", "5", "16", "19", "21", "32", "30", "25", "26", "27", "11", "11", "27", "9", "3", "2", "1", "12", "13", "14", "19", "21"], "time": [4063, 4101, 4130, 4479, 5245, 5328, 5368, 8112, 9211, 9278, 9328, 9377, 9460, 9627, 10095, 11395, 11945, 12012, 12077, 12879, 12911, 12977, 13028, 13294]}, "edge": {"target": [], "time": []}}, "mouseout": {"state": {"target": ["0", "1", "2", "3", "5", "16", "19", "21", "32", "30", "25", "26", "27", "11", "11", "27", "9", "3", "2", "1", "12", "13", "14", "19", "21"], "time": [3227, 4098, 4127, 4144, 5163, 5279, 5345, 7146, 9178, 9244, 9294, 9361, 9411, 9494, 9944, 11312, 11411, 11994, 12044, 12094, 12896, 12943, 12993, 13144, 13377]}, "edge": {"target": [], "time": []}}}, "displayed_time": "18.21", "trialTime": 19996, "trial_type": "mouselab-mdp", "trial_index": 9, "time_elapsed": 406388, "internal_node_id": "0.0-4.0-1.0-0.0"}}, {"uniqueid": "w41434252:a98597973", "current_trial": 10, "dateTime": 1691142767505, "trialdata": {"revealed_states": [], "clicked_states": ["5", "21", "32"], "num_clicks_accrued": [0, 0, 0, 0, 0, 0, 0, 0, 0, 0, 0, 0, 0], "stateRewards": ["", 2, -1, 8, -2, -16, 69, -39, -7, -13, -27, -86, 2, -2, 2, 13, -34, -16, -20, -5, 19, 81, 32, -2, -1, 2, -14, 20, 80, 58, 4, 70, 12, 73], "withholdReward": false, "trial_id": "mdp_trial_2", "block": "test", "trialIndex": 3, "score": -88.2, "costs": -4.199999999999999, "simulationMode": [null, null, null, null, null], "rewards": [2, -1, 8, -7, -86], "path": ["0", "0", "1", "2", "3", "8", "11"], "rt": [10051, 237, 251, 284, 317], "actions": ["up", "up", "up", "left", "left"], "actionTimes": [13167, 13923, 14689, 15489, 16322], "queries": {"click": {"state": {"target": ["5", "21", "32"], "time": [4423, 7324, 9872]}, "edge": {"target": [], "time": []}}, "mouseover": {"state": {"target": ["1", "2", "3", "5", "17", "20", "21", "21", "31", "32", "32", "30", "25", "26", "27", "8", "3", "16", "17"], "time": [3666, 3717, 3753, 3832, 5051, 5734, 6266, 6882, 8350, 8750, 9185, 10766, 10800, 10833, 10883, 12316, 12336, 12400, 12434]}, "edge": {"target": [], "time": []}}, "mouseout": {"state": {"target": ["21", "19", "14", "17", "20", "19", "22", "0", "1", "2", "3", "5", "17", "20", "21", "21", "31", "32", "32", "30", "25", "26", "27", "8", "3", "16"], "time": [733, 781, 799, 882, 1115, 2386, 2415, 3633, 3699, 3749, 3799, 4918, 5084, 6182, 6717, 8184, 8685, 8950, 10750, 10783, 10817, 10850, 12284, 12333, 12350, 12416]}, "edge": {"target": [], "time": []}}}, "displayed_time": "17.12", "trialTime": 18545, "trial_type": "mouselab-mdp", "trial_index": 10, "time_elapsed": 425198, "internal_node_id": "0.0-4.0-1.0-1.0"}}, {"uniqueid": "w41434252:a98597973", "current_trial": 11, "dateTime": 1691142790104, "trialdata": {"revealed_states": [], "clicked_states": [], "num_clicks_accrued": [0, 0, 0, 0, 0, 0, 0, 0, 0, 0, 0, 0, 0], "stateRewards": ["", 1, -4, 6, -3, 40, 76, -51, 5, -24, -63, 44, -2, -2, 8, 1, 76, -85, -58, 10, 59, 20, 11, -2, 3, -3, 3, -82, -10, 54, -7, -57, -6, -32], "withholdReward": false, "trial_id": "mdp_trial_3", "block": "test", "trialIndex": 4, "score": 81, "costs": 0, "simulationMode": [null, null, null, null, null], "rewards": [-2, -2, 8, 1, 76], "path": ["0", "0", "12", "13", "14", "15", "16"], "rt": [1058, 313, 211, 249, 267], "actions": ["right", "right", "right", "up", "up"], "actionTimes": [8023, 8843, 9560, 10315, 11084], "queries": {"click": {"state": {"target": [], "time": []}, "edge": {"target": [], "time": []}}, "mouseover": {"state": {"target": [], "time": []}, "edge": {"target": [], "time": []}}, "mouseout": {"state": {"target": ["17", "16", "18", "12"], "time": [664, 6029, 6079, 6463]}, "edge": {"target": [], "time": []}}}, "displayed_time": "21.00", "trialTime": 22340, "trial_type": "mouselab-mdp", "trial_index": 11, "time_elapsed": 447797, "internal_node_id": "0.0-4.0-1.0-2.0"}}, {"uniqueid": "w41434252:a98597973", "current_trial": 12, "dateTime": 1691142808091, "trialdata": {"revealed_states": [], "clicked_states": [], "num_clicks_accrued": [0, 0, 0, 0, 0, 0, 0, 0, 0, 0, 0, 0, 0], "stateRewards": ["", -1, -2, -8, 8, -27, -82, 19, -14, -62, 4, 1, -2, 2, 6, 10, 73, -51, -2, 2, 73, -48, 54, -1, 2, -4, 11, -25, 47, 86, 15, 33, 43, -42], "withholdReward": false, "trial_id": "mdp_trial_4", "block": "test", "trialIndex": 5, "score": -17, "costs": 0, "simulationMode": [null, null, null, null, null], "rewards": [-1, 2, -4, 11, -25], "path": ["0", "0", "23", "24", "25", "26", "27"], "rt": [1624, 348, 719, 1110, 306], "actions": ["left", "left", "left", "up", "up"], "actionTimes": [4010, 4858, 6094, 7702, 8533], "queries": {"click": {"state": {"target": [], "time": []}, "edge": {"target": [], "time": []}}, "mouseover": {"state": {"target": [], "time": []}, "edge": {"target": [], "time": []}}, "mouseout": {"state": {"target": ["0", "13", "19", "21"], "time": [16938, 17034, 17084, 17134]}, "edge": {"target": [], "time": []}}}, "displayed_time": "16.42", "trialTime": 17753, "trial_type": "mouselab-mdp", "trial_index": 12, "time_elapsed": 465784, "internal_node_id": "0.0-4.0-1.0-3.0"}}, {"uniqueid": "w41434252:a98597973", "current_trial": 13, "dateTime": 1691142826215, "trialdata": {"revealed_states": [], "clicked_states": [], "num_clicks_accrued": [0, 0, 0, 0, 0, 0, 0, 0, 0, 0, 0, 0, 0], "stateRewards": ["", 2, 3, -1, 16, -78, -11, 46, 2, -20, 79, -67, 2, 3, 2, 11, -83, -42, -58, -11, -67, -22, 55, 2, -1, -1, -16, -83, -82, 23, -11, -29, 13, 13], "withholdReward": false, "trial_id": "mdp_trial_5", "block": "test", "trialIndex": 6, "score": 2, "costs": 0, "simulationMode": [null, null, null, null, null], "rewards": [2, -1, -1, -11, 13], "path": ["0", "0", "23", "24", "25", "30", "32"], "rt": [1001, 295, 170, 48, 146], "actions": ["left", "left", "left", "down", "down"], "actionTimes": [3127, 3928, 4604, 5166, 5813], "queries": {"click": {"state": {"target": [], "time": []}, "edge": {"target": [], "time": []}}, "mouseover": {"state": {"target": [], "time": []}, "edge": {"target": [], "time": []}}, "mouseout": {"state": {"target": ["0", "1", "2", "18", "7", "4", "5", "16", "18", "13", "0"], "time": [6695, 6712, 6746, 7096, 8914, 8947, 8998, 9246, 10385, 10447, 10797]}, "edge": {"target": [], "time": []}}}, "displayed_time": "16.15", "trialTime": 17902, "trial_type": "mouselab-mdp", "trial_index": 13, "time_elapsed": 483908, "internal_node_id": "0.0-4.0-1.0-4.0"}}, {"uniqueid": "w41434252:a98597973", "current_trial": 14, "dateTime": 1691142848544, "trialdata": {"revealed_states": [], "clicked_states": [], "num_clicks_accrued": [0, 0, 0, 0, 0, 0, 0, 0, 0, 0, 0, 0, 0], "stateRewards": ["", -2, -3, 1, -14, 48, -49, 67, -1, -35, -48, 3, -2, 1, -4, -5, 86, -84, 39, 1, 48, 41, -42, -1, -4, 2, -7, 18, -86, 17, 7, -9, 57, -69], "withholdReward": false, "trial_id": "mdp_trial_6", "block": "test", "trialIndex": 7, "score": 37, "costs": 0, "simulationMode": [null, null, null, null, null], "rewards": [-2, 1, -4, 1, 41], "path": ["0", "0", "12", "13", "14", "19", "21"], "rt": [749, 1302, 329, 724, 224], "actions": ["right", "right", "right", "down", "down"], "actionTimes": [2936, 4743, 5569, 6816, 7547], "queries": {"click": {"state": {"target": [], "time": []}, "edge": {"target": [], "time": []}}, "mouseover": {"state": {"target": [], "time": []}, "edge": {"target": [], "time": []}}, "mouseout": {"state": {"target": [], "time": []}, "edge": {"target": [], "time": []}}}, "displayed_time": "16.22", "trialTime": 22058, "trial_type": "mouselab-mdp", "trial_index": 14, "time_elapsed": 506238, "internal_node_id": "0.0-4.0-1.0-5.0"}}, {"uniqueid": "w41434252:a98597973", "current_trial": 15, "dateTime": 1691142865558, "trialdata": {"revealed_states": [], "clicked_states": [], "num_clicks_accrued": [0, 0, 0, 0, 0, 0, 0, 0, 0, 0, 0, 0, 0], "stateRewards": ["", -2, 3, -5, -7, 66, 43, -60, -4, -70, -75, 4, -1, 2, 2, -13, 54, 11, -40, -1, 77, 32, 15, -2, 3, -8, -9, -35, 83, -27, 6, -74, -34, 44], "withholdReward": false, "trial_id": "mdp_trial_7", "block": "test", "trialIndex": 8, "score": -71, "costs": 0, "simulationMode": [null, null, null, null, null], "rewards": [-2, 3, -5, -7, -60], "path": ["0", "0", "1", "2", "3", "4", "7"], "rt": [759, 214, 298, 99, 290], "actions": ["up", "up", "up", "right", "down"], "actionTimes": [2283, 3010, 3806, 4423, 5230], "queries": {"click": {"state": {"target": [], "time": []}, "edge": {"target": [], "time": []}}, "mouseover": {"state": {"target": [], "time": []}, "edge": {"target": [], "time": []}}, "mouseout": {"state": {"target": ["0", "3", "2", "1", "0", "10", "3", "7", "12"], "time": [335, 519, 702, 900, 14954, 15072, 15119, 15253, 15286]}, "edge": {"target": [], "time": []}}}, "displayed_time": "15.54", "trialTime": 16701, "trial_type": "mouselab-mdp", "trial_index": 15, "time_elapsed": 523251, "internal_node_id": "0.0-4.0-1.0-6.0"}}, {"uniqueid": "w41434252:a98597973", "current_trial": 16, "dateTime": 1691142889395, "trialdata": {"revealed_states": [], "clicked_states": ["11", "29", "32", "17"], "num_clicks_accrued": [0, 0, 0, 0, 0, 0, 0, 0, 0, 0, 0, 0, 0], "stateRewards": ["", -2, -3, -7, 7, -54, -69, -4, -14, -77, 22, 40, -2, -1, 5, 6, -35, 50, -60, 10, -28, 75, 57, 1, -4, -2, 2, 68, 34, -18, 12, 3, -21, -43], "withholdReward": false, "trial_id": "mdp_trial_8", "block": "test", "trialIndex": 9, "score": 8.399999999999999, "costs": -5.6, "simulationMode": [null, null, null, null, null], "rewards": [-2, -3, -7, -14, 40], "path": ["0", "0", "1", "2", "3", "8", "11"], "rt": [11880, 5168, 341, 252, 236], "actions": ["up", "up", "up", "left", "left"], "actionTimes": [13802, 19482, 20337, 21096, 21844], "queries": {"click": {"state": {"target": ["11", "29", "32", "17"], "time": [3168, 5905, 8109, 10974]}, "edge": {"target": [], "time": []}}, "mouseover": {"state": {"target": ["10", "9", "8", "11", "27", "29", "29", "30", "32", "30", "28", "2", "15", "17", "17"], "time": [2191, 2592, 2674, 2892, 3740, 4142, 5308, 6492, 6534, 9110, 9175, 9225, 10145, 10191, 10691]}, "edge": {"target": [], "time": []}}, "mouseout": {"state": {"target": ["23", "1", "0", "10", "9", "8", "11", "27", "29", "29", "30", "32", "30", "28", "2", "15", "17", "17", "14", "18", "6"], "time": [556, 724, 2126, 2208, 2641, 2692, 3384, 3776, 4875, 6409, 6513, 9093, 9127, 9192, 9245, 10161, 10426, 11811, 16726, 16758, 16825]}, "edge": {"target": [], "time": []}}}, "displayed_time": "22.36", "trialTime": 23543, "trial_type": "mouselab-mdp", "trial_index": 16, "time_elapsed": 547088, "internal_node_id": "0.0-4.0-1.0-7.0"}}, {"uniqueid": "w41434252:a98597973", "current_trial": 17, "dateTime": 1691142911928, "trialdata": {"revealed_states": [], "clicked_states": ["32", "31", "33", "29", "27"], "num_clicks_accrued": [0, 0, 0, 0, 0, 0, 0, 0, 0, 0, 0, 0, 0], "stateRewards": ["", 1, 4, 7, -16, -84, -6, -46, -12, -7, -49, -26, -1, 2, -4, 2, 22, 37, -64, 1, 88, -13, -10, 1, -4, -2, 5, 2, -10, -34, 9, 66, 55, 38], "withholdReward": false, "trial_id": "mdp_trial_9", "block": "test", "trialIndex": 10, "score": 63, "costs": -7, "simulationMode": [null, null, null, null, null], "rewards": [1, -4, -2, 9, 66], "path": ["0", "0", "23", "24", "25", "30", "31"], "rt": [14380, 224, 310, 582, 825], "actions": ["left", "left", "left", "down", "right"], "actionTimes": [16384, 17107, 17923, 19029, 20373], "queries": {"click": {"state": {"target": ["32", "31", "33", "29", "27"], "time": [3313, 5951, 7996, 9935, 12961]}, "edge": {"target": [], "time": []}}, "mouseover": {"state": {"target": ["31", "32", "32", "33", "30", "31", "30", "33", "29", "29", "27", "27", "11", "8", "3", "2", "1", "0"], "time": [2443, 2643, 2892, 3843, 5325, 5426, 6693, 6794, 8693, 9227, 10478, 12577, 13594, 13644, 13778, 13829, 13894, 14094]}, "edge": {"target": [], "time": []}}, "mouseout": {"state": {"target": ["6", "7", "1", "1", "12", "0", "31", "32", "32", "33", "30", "31", "30", "33", "29", "29", "27", "27", "11", "8", "3", "2", "1", "0"], "time": [393, 425, 476, 692, 842, 2394, 2493, 2709, 3728, 5260, 5376, 6677, 6761, 8644, 8710, 10428, 12393, 13562, 13613, 13710, 13794, 13863, 13945, 14144]}, "edge": {"target": [], "time": []}}}, "displayed_time": "20.90", "trialTime": 22261, "trial_type": "mouselab-mdp", "trial_index": 17, "time_elapsed": 569621, "internal_node_id": "0.0-4.0-1.0-8.0"}}, {"uniqueid": "w41434252:a98597973", "current_trial": 18, "dateTime": 1691142928160, "trialdata": {"revealed_states": [], "clicked_states": ["6", "9"], "num_clicks_accrued": [0, 0, 0, 0, 0, 0, 0, 0, 0, 0, 0, 0, 0], "stateRewards": ["", -1, 4, -8, 12, 14, 69, -8, 5, -72, -14, 56, -1, -1, -1, 9, 67, 19, 11, -9, -88, -58, 3, 2, -4, -8, 4, 62, 77, -74, 5, -31, 65, 88], "withholdReward": false, "trial_id": "mdp_trial_10", "block": "test", "trialIndex": 11, "score": 73.2, "costs": -2.8, "simulationMode": [null, null, null, null, null], "rewards": [-1, 4, -8, 12, 69], "path": ["0", "0", "1", "2", "3", "4", "6"], "rt": [7281, 262, 137, 210, 313], "actions": ["up", "up", "up", "right", "right"], "actionTimes": [8564, 9342, 9983, 10691, 11527], "queries": {"click": {"state": {"target": ["6", "9"], "time": [3376, 5781]}, "edge": {"target": [], "time": []}}, "mouseover": {"state": {"target": ["31", "30", "25", "26", "27", "8", "3", "6", "16", "4", "9"], "time": [2042, 2109, 2143, 2176, 2226, 2475, 2510, 3126, 4344, 4443, 4794]}, "edge": {"target": [], "time": []}}, "mouseout": {"state": {"target": ["0", "0", "31", "30", "25", "26", "27", "8", "3", "6", "16", "4", "9"], "time": [574, 1961, 2076, 2125, 2160, 2193, 2359, 2493, 2559, 3598, 4376, 4479, 7511]}, "edge": {"target": [], "time": []}}}, "displayed_time": "15.30", "trialTime": 16010, "trial_type": "mouselab-mdp", "trial_index": 18, "time_elapsed": 585853, "internal_node_id": "0.0-4.0-1.0-9.0"}}, {"uniqueid": "w41434252:a98597973", "current_trial": 19, "dateTime": 1691142944902, "trialdata": {"revealed_states": [], "clicked_states": ["17"], "num_clicks_accrued": [0, 0, 0, 0, 0, 0, 0, 0, 0, 0, 0, 0, 0], "stateRewards": ["", -1, -1, 7, -15, -43, -21, -84, -9, -45, -66, 2, 1, -2, 2, 8, -27, 44, -52, -5, -84, 11, 53, 1, 4, -4, 16, 83, -82, -15, -16, 68, -43, 81], "withholdReward": false, "trial_id": "mdp_trial_11", "block": "test", "trialIndex": 12, "score": 51.6, "costs": -1.4, "simulationMode": [null, null, null, null, null], "rewards": [1, -2, 2, 8, 44], "path": ["0", "0", "12", "13", "14", "15", "17"], "rt": [4259, 201, 106, 446, 124], "actions": ["right", "right", "right", "up", "right"], "actionTimes": [5849, 6559, 7171, 8140, 8767], "queries": {"click": {"state": {"target": ["17"], "time": [2953]}, "edge": {"target": [], "time": []}}, "mouseover": {"state": {"target": ["1", "7", "17", "20"], "time": [2023, 2072, 2674, 3774]}, "edge": {"target": [], "time": []}}, "mouseout": {"state": {"target": ["15", "13", "12", "0", "1", "7", "17", "20", "22", "13", "20"], "time": [623, 689, 896, 1998, 2038, 2089, 3691, 3811, 10340, 10374, 10590]}, "edge": {"target": [], "time": []}}}, "displayed_time": "15.61", "trialTime": 16499, "trial_type": "mouselab-mdp", "trial_index": 19, "time_elapsed": 602595, "internal_node_id": "0.0-4.0-1.0-10.0"}}, {"uniqueid": "w41434252:a98597973", "current_trial": 20, "dateTime": 1691142961871, "trialdata": {"revealed_states": [], "clicked_states": ["32", "5", "9"], "num_clicks_accrued": [0, 0, 0, 0, 0, 0, 0, 0, 0, 0, 0, 0, 0], "stateRewards": ["", 1, 2, -8, 9, 18, -83, -11, 6, -64, -48, 17, -2, -2, -5, -3, -24, -3, -86, -2, 48, -41, -22, -2, 4, 7, 8, 81, 13, -48, 10, 61, 19, 57], "withholdReward": false, "trial_id": "mdp_trial_12", "block": "test", "trialIndex": 13, "score": 33.8, "costs": -4.199999999999999, "simulationMode": [null, null, null, null, null], "rewards": [-2, 4, 7, 10, 19], "path": ["0", "0", "23", "24", "25", "30", "32"], "rt": [10841, 298, 129, 295, 206], "actions": ["left", "left", "left", "down", "down"], "actionTimes": [12418, 13222, 13865, 14666, 15393], "queries": {"click": {"state": {"target": ["32", "5", "9"], "time": [3134, 7409, 9571]}, "edge": {"target": [], "time": []}}, "mouseover": {"state": {"target": ["0", "32", "30", "28", "8", "5", "9", "6"], "time": [2314, 2834, 6051, 6102, 6167, 7234, 9017, 10401]}, "edge": {"target": [], "time": []}}, "mouseout": {"state": {"target": ["0", "32", "30", "28", "8", "5", "5", "9", "5", "6"], "time": [2334, 6024, 6068, 6109, 6184, 7628, 8736, 10170, 10267, 10551]}, "edge": {"target": [], "time": []}}}, "displayed_time": "15.89", "trialTime": 16695, "trial_type": "mouselab-mdp", "trial_index": 20, "time_elapsed": 619564, "internal_node_id": "0.0-4.0-1.0-11.0"}}, {"uniqueid": "w41434252:a98597973", "current_trial": 21, "dateTime": 1691142983367, "trialdata": {"revealed_states": [], "clicked_states": ["21", "5"], "num_clicks_accrued": [0, 0, 0, 0, 0, 0, 0, 0, 0, 0, 0, 0, 0], "stateRewards": ["", 2, -4, 4, 9, 69, 9, -75, 12, -86, 66, 25, -1, 3, 2, -13, -88, -3, 1, 4, -69, 49, -84, 2, -1, 4, 2, -18, -81, -52, -15, -69, -54, 25], "withholdReward": false, "trial_id": "mdp_trial_13", "block": "test", "trialIndex": 14, "score": 77.2, "costs": -2.8, "simulationMode": [null, null, null, null, null], "rewards": [2, -4, 4, 9, 69], "path": ["0", "0", "1", "2", "3", "4", "5"], "rt": [7208, 144, 317, 103, 80], "actions": ["up", "up", "up", "right", "up"], "actionTimes": [9405, 10068, 10875, 11484, 12058], "queries": {"click": {"state": {"target": ["21", "5"], "time": [4035, 6436]}, "edge": {"target": [], "time": []}}, "mouseover": {"state": {"target": ["20", "21", "21", "5", "9", "6"], "time": [3024, 3291, 3742, 5209, 7958, 8741]}, "edge": {"target": [], "time": []}}, "mouseout": {"state": {"target": ["18", "12", "0", "20", "21", "21", "5", "9", "6"], "time": [1290, 1556, 2449, 3257, 3340, 4656, 6649, 8574, 8758]}, "edge": {"target": [], "time": []}}}, "displayed_time": "16.20", "trialTime": 21215, "trial_type": "mouselab-mdp", "trial_index": 21, "time_elapsed": 641060, "internal_node_id": "0.0-4.0-1.0-12.0"}}, {"uniqueid": "w41434252:a98597973", "current_trial": 22, "dateTime": 1691143001203, "trialdata": {"revealed_states": [], "clicked_states": ["27", "9", "5"], "num_clicks_accrued": [0, 0, 0, 0, 0, 0, 0, 0, 0, 0, 0, 0, 0], "stateRewards": ["", -2, -2, -7, -13, -10, 49, -68, -1, 84, 70, 88, 1, 4, 4, 12, -57, 25, 30, 8, -1, -77, 57, 2, 3, 2, 3, -18, -80, 23, -15, -41, 70, 11], "withholdReward": false, "trial_id": "mdp_trial_14", "block": "test", "trialIndex": 15, "score": 67.8, "costs": -4.199999999999999, "simulationMode": [null, null, null, null, null], "rewards": [-2, -2, -7, -1, 84], "path": ["0", "0", "1", "2", "3", "8", "9"], "rt": [8686, 208, 136, 254, 156], "actions": ["up", "up", "up", "left", "up"], "actionTimes": [10755, 11483, 12115, 12897, 13552], "queries": {"click": {"state": {"target": ["27", "9", "5"], "time": [4026, 5994, 7927]}, "edge": {"target": [], "time": []}}, "mouseover": {"state": {"target": ["23", "30", "29", "27", "27", "11", "9", "5"], "time": [2359, 2474, 2640, 3139, 3775, 4758, 4856, 6739]}, "edge": {"target": [], "time": []}}, "mouseout": {"state": {"target": ["23", "30", "29", "27", "27", "11", "9", "5", "2", "1"], "time": [2390, 2507, 3075, 3305, 4725, 4793, 6406, 14827, 14890, 14908]}, "edge": {"target": [], "time": []}}}, "displayed_time": "16.08", "trialTime": 17582, "trial_type": "mouselab-mdp", "trial_index": 22, "time_elapsed": 658895, "internal_node_id": "0.0-4.0-1.0-13.0"}}, {"uniqueid": "w41434252:a98597973", "current_trial": 23, "dateTime": 1691143022771, "trialdata": {"revealed_states": [], "clicked_states": ["32", "21", "16", "27", "5", "9"], "num_clicks_accrued": [0, 0, 0, 0, 0, 0, 0, 0, 0, 0, 0, 0, 0], "stateRewards": ["", -1, 1, -5, -6, -78, 47, -13, 12, 48, -88, 20, 2, -3, -2, 13, -20, 37, -57, 14, -38, 30, 31, -2, -2, 8, 2, -23, 78, 28, 12, -74, -88, 8], "withholdReward": false, "trial_id": "mdp_trial_15", "block": "test", "trialIndex": 16, "score": 46.6, "costs": -8.4, "simulationMode": [null, null, null, null, null], "rewards": [-1, 1, -5, 12, 48], "path": ["0", "0", "1", "2", "3", "8", "9"], "rt": [15214, 143, 319, 202, 94], "actions": ["up", "up", "up", "left", "up"], "actionTimes": [17048, 17700, 18542, 19242, 19851], "queries": {"click": {"state": {"target": ["32", "21", "16", "27", "5", "9"], "time": [2787, 4835, 7195, 9895, 12042, 14249]}, "edge": {"target": [], "time": []}}, "mouseover": {"state": {"target": ["0", "32", "23", "1", "14", "19", "21", "19", "14", "15", "16", "16", "10", "27", "11", "9", "5", "9"], "time": [2104, 2435, 3602, 3637, 3718, 3770, 4020, 6370, 6403, 6453, 6503, 6799, 9192, 9584, 11217, 11267, 11566, 13986]}, "edge": {"target": [], "time": []}}, "mouseout": {"state": {"target": ["0", "0", "32", "23", "1", "14", "19", "21", "19", "14", "15", "16", "16", "16", "10", "27", "11", "9", "5", "9", "8", "10", "23"], "time": [1400, 2121, 3536, 3619, 3652, 3753, 3969, 5043, 6386, 6419, 6485, 6552, 7414, 8687, 9219, 11185, 11235, 11284, 13237, 20788, 20823, 20852, 20885]}, "edge": {"target": [], "time": []}}}, "displayed_time": "20.37", "trialTime": 21297, "trial_type": "mouselab-mdp", "trial_index": 23, "time_elapsed": 680464, "internal_node_id": "0.0-4.0-1.0-14.0"}}, {"uniqueid": "w41434252:a98597973", "current_trial": 24, "dateTime": 1691143049844, "trialdata": {"revealed_states": [], "clicked_states": ["27", "32", "17", "20", "21", "16", "5", "9"], "num_clicks_accrued": [0, 0, 0, 0, 0, 0, 0, 0, 0, 0, 0, 0, 0], "stateRewards": ["", 1, 1, -3, 2, 22, -25, -11, -5, 50, 49, 3, 1, -1, 8, 14, -85, -30, 57, -6, -39, -16, 59, -2, -1, 5, 5, 59, -16, 8, 4, 67, 56, -9], "withholdReward": false, "trial_id": "mdp_trial_16", "block": "test", "trialIndex": 17, "score": 54.8, "costs": -11.200000000000001, "simulationMode": [null, null, null, null, null], "rewards": [-2, -1, 5, 5, 59], "path": ["0", "0", "23", "24", "25", "26", "27"], "rt": [20400, 72, 575, 208, 232], "actions": ["left", "left", "left", "up", "up"], "actionTimes": [21823, 22419, 23506, 24233, 24976], "queries": {"click": {"state": {"target": ["27", "32", "17", "20", "21", "16", "5", "9"], "time": [2926, 5055, 8451, 10546, 12685, 14869, 17145, 19203]}, "edge": {"target": [], "time": []}}, "mouseover": {"state": {"target": ["23", "24", "28", "27", "32", "31", "0", "12", "15", "17", "20", "20", "21", "14", "15", "16", "4", "5", "9"], "time": [2109, 2158, 2192, 2591, 4009, 7058, 7142, 7175, 7461, 7809, 9644, 10194, 12209, 13910, 13941, 13976, 16642, 16775, 18512]}, "edge": {"target": [], "time": []}}, "mouseout": {"state": {"target": ["0", "23", "24", "28", "27", "32", "31", "0", "12", "15", "17", "20", "20", "21", "14", "15", "16", "4", "5", "9"], "time": [2077, 2141, 2175, 2242, 3659, 6929, 7076, 7159, 7193, 7725, 9326, 9693, 11993, 13826, 13928, 13959, 16424, 16708, 18060, 20836]}, "edge": {"target": [], "time": []}}}, "displayed_time": "25.49", "trialTime": 26860, "trial_type": "mouselab-mdp", "trial_index": 24, "time_elapsed": 707537, "internal_node_id": "0.0-4.0-1.0-15.0"}}, {"uniqueid": "w41434252:a98597973", "current_trial": 25, "dateTime": 1691143066889, "trialdata": {"revealed_states": [], "clicked_states": ["33", "28", "11"], "num_clicks_accrued": [0, 0, 0, 0, 0, 0, 0, 0, 0, 0, 0, 0, 0], "stateRewards": ["", 1, -2, 4, 7, -43, -83, -60, -5, -86, -80, 83, -1, -2, 6, 11, -15, 21, 13, 9, 29, -49, 11, -1, 4, -6, -11, 87, 40, 63, -8, -39, -11, 62], "withholdReward": false, "trial_id": "mdp_trial_17", "block": "test", "trialIndex": 18, "score": 76.8, "costs": -4.199999999999999, "simulationMode": [null, null, null, null, null], "rewards": [1, -2, 4, -5, 83], "path": ["0", "0", "1", "2", "3", "8", "11"], "rt": [9775, 223, 154, 213, 129], "actions": ["up", "up", "up", "left", "left"], "actionTimes": [11691, 12413, 13092, 13800, 14447], "queries": {"click": {"state": {"target": ["33", "28", "11"], "time": [4115, 6267, 8685]}, "edge": {"target": [], "time": []}}, "mouseover": {"state": {"target": ["23", "24", "26", "33", "33", "29", "27", "28", "28", "11", "5", "6"], "time": [2486, 2535, 2717, 3183, 3633, 4851, 5286, 5552, 5784, 8268, 9518, 9685]}, "edge": {"target": [], "time": []}}, "mouseout": {"state": {"target": ["7", "0", "23", "24", "26", "33", "33", "29", "27", "28", "28", "11", "5", "6", "0"], "time": [966, 1334, 2518, 2584, 3067, 3233, 4801, 5252, 5316, 5603, 8185, 9435, 9534, 15287, 15416]}, "edge": {"target": [], "time": []}}}, "displayed_time": "15.92", "trialTime": 16797, "trial_type": "mouselab-mdp", "trial_index": 25, "time_elapsed": 724582, "internal_node_id": "0.0-4.0-1.0-16.0"}}, {"uniqueid": "w41434252:a98597973", "current_trial": 26, "dateTime": 1691143083190, "trialdata": {"revealed_states": [], "clicked_states": ["7", "18", "28"], "num_clicks_accrued": [0, 0, 0, 0, 0, 0, 0, 0, 0, 0, 0, 0, 0], "stateRewards": ["", 2, -4, -8, -15, 71, -43, -41, 7, -17, 20, 67, -1, -1, -4, 6, 37, -24, -47, 9, 34, 57, 45, 1, 2, -4, -5, -23, 88, -5, 13, -40, 43, 44], "withholdReward": false, "trial_id": "mdp_trial_18", "block": "test", "trialIndex": 19, "score": 77.8, "costs": -4.199999999999999, "simulationMode": [null, null, null, null, null], "rewards": [1, 2, -4, -5, 88], "path": ["0", "0", "23", "24", "25", "26", "28"], "rt": [10119, 252, 305, 443, 179], "actions": ["left", "left", "left", "up", "right"], "actionTimes": [11742, 12509, 13328, 14282, 14985], "queries": {"click": {"state": {"target": ["7", "18", "28"], "time": [2905, 6871, 9076]}, "edge": {"target": [], "time": []}}, "mouseover": {"state": {"target": ["1", "7", "6", "7", "2", "10", "8", "9", "9", "8", "15", "15", "14", "20", "19", "14", "15", "15", "18", "28", "24", "30", "26", "23"], "time": [2003, 2035, 2250, 2402, 3737, 3856, 3967, 4067, 4335, 4551, 4718, 5220, 5368, 6038, 6205, 6224, 6269, 6568, 6601, 8334, 10751, 10902, 11151, 11268]}, "edge": {"target": [], "time": []}}, "mouseout": {"state": {"target": ["1", "7", "6", "7", "2", "10", "8", "9", "9", "8", "7", "15", "15", "14", "20", "19", "14", "15", "15", "18", "28", "28", "24", "30", "26", "28"], "time": [2019, 2051, 2335, 3700, 3803, 3868, 4037, 4083, 4518, 4585, 4668, 4919, 5285, 5935, 6083, 6219, 6251, 6285, 6585, 7720, 9295, 10700, 10785, 11085, 11201, 11235]}, "edge": {"target": [], "time": []}}}, "displayed_time": "15.63", "trialTime": 16099, "trial_type": "mouselab-mdp", "trial_index": 26, "time_elapsed": 740883, "internal_node_id": "0.0-4.0-1.0-17.0"}}, {"uniqueid": "w41434252:a98597973", "current_trial": 27, "dateTime": 1691143099971, "trialdata": {"revealed_states": [], "clicked_states": ["29"], "num_clicks_accrued": [0, 0, 0, 0, 0, 0, 0, 0, 0, 0, 0, 0, 0], "stateRewards": ["", -1, -1, 4, -16, -75, 81, -51, -7, -84, 73, -30, -2, 1, -3, -16, -77, 33, 14, 1, 45, 87, -66, 2, 2, -5, -7, -19, -17, 79, -3, 8, 49, 47], "withholdReward": false, "trial_id": "mdp_trial_19", "block": "test", "trialIndex": 20, "score": 69.6, "costs": -1.4, "simulationMode": [null, null, null, null, null], "rewards": [2, 2, -5, -7, 79], "path": ["0", "0", "23", "24", "25", "26", "29"], "rt": [9059, 16, 4, 153, 92], "actions": ["left", "left", "left", "up", "left"], "actionTimes": [10951, 11487, 12033, 12709, 13300], "queries": {"click": {"state": {"target": ["29"], "time": [3578]}, "edge": {"target": [], "time": []}}, "mouseover": {"state": {"target": ["28", "26", "29", "31", "11", "8", "8", "3", "4", "6", "7", "2", "10"], "time": [2686, 2969, 3052, 4786, 4919, 6152, 6319, 6370, 6769, 6986, 7519, 7954, 8219]}, "edge": {"target": [], "time": []}}, "mouseout": {"state": {"target": ["23", "1", "28", "26", "29", "31", "11", "8", "8", "3", "4", "6", "7", "2", "10"], "time": [953, 1068, 2885, 3036, 3797, 4820, 4952, 6219, 6352, 6452, 6869, 7404, 7939, 7986, 10387]}, "edge": {"target": [], "time": []}}}, "displayed_time": "15.91", "trialTime": 16566, "trial_type": "mouselab-mdp", "trial_index": 27, "time_elapsed": 757665, "internal_node_id": "0.0-4.0-1.0-18.0"}}, {"uniqueid": "w41434252:a98597973", "current_trial": 28, "dateTime": 1691143117471, "trialdata": {"revealed_states": [], "clicked_states": ["29", "6", "17", "20", "22"], "num_clicks_accrued": [0, 0, 0, 0, 0, 0, 0, 0, 0, 0, 0, 0, 0], "stateRewards": ["", -2, -3, -5, 8, 27, 11, 43, -6, -24, -87, 69, -2, 1, 1, 9, 19, 48, -37, 9, -14, 45, 62, 1, 2, 1, 16, -81, -41, 22, 4, -6, -63, 47], "withholdReward": false, "trial_id": "mdp_trial_20", "block": "test", "trialIndex": 21, "score": 64, "costs": -7, "simulationMode": [null, null, null, null, null], "rewards": [-2, 1, 1, 9, 62], "path": ["0", "0", "12", "13", "14", "19", "22"], "rt": [11220, 166, 319, 100, 652], "actions": ["right", "right", "right", "down", "left"], "actionTimes": [12616, 13303, 14123, 14737, 15910], "queries": {"click": {"state": {"target": ["29", "6", "17", "20", "22"], "time": [2216, 3879, 5804, 7739, 9704]}, "edge": {"target": [], "time": []}}, "mouseover": {"state": {"target": ["23", "24", "29", "27", "5", "6", "6", "17", "20", "21", "22", "32", "31"], "time": [1558, 1613, 1964, 2617, 2714, 2797, 3082, 5066, 6349, 8582, 8782, 10665, 11915]}, "edge": {"target": [], "time": []}}, "mouseout": {"state": {"target": ["1", "12", "0", "23", "24", "29", "27", "5", "6", "6", "17", "17", "20", "21", "22", "32", "31"], "time": [580, 831, 1555, 1597, 1663, 2599, 2635, 2730, 3017, 4583, 6027, 6266, 8417, 8715, 10199, 11883, 11964]}, "edge": {"target": [], "time": []}}}, "displayed_time": "16.43", "trialTime": 17275, "trial_type": "mouselab-mdp", "trial_index": 28, "time_elapsed": 775164, "internal_node_id": "0.0-4.0-1.0-19.0"}}, {"uniqueid": "w41434252:a98597973", "current_trial": 29, "dateTime": 1691143134452, "trialdata": {"revealed_states": [], "clicked_states": ["5", "17", "20"], "num_clicks_accrued": [0, 0, 0, 0, 0, 0, 0, 0, 0, 0, 0, 0, 0], "stateRewards": ["", -1, 3, -5, -2, -13, -9, -34, -7, -81, 32, 35, -2, -2, 1, -14, -32, 81, 7, 4, 82, 56, -8, -1, 3, -8, 6, -24, -24, -53, 2, 38, 61, 54], "withholdReward": false, "trial_id": "mdp_trial_21", "block": "test", "trialIndex": 22, "score": 78.8, "costs": -4.199999999999999, "simulationMode": [null, null, null, null, null, null], "rewards": [-2, -2, 1, 4, 82], "path": ["0", "0", "12", "13", "14", "19", "20"], "rt": [7365, 555, 309, 277, 217, 402], "actions": ["right", "right", "right", "right", "down", "right"], "actionTimes": [9438, 9999, 10809, 11609, 12350, 13267], "queries": {"click": {"state": {"target": ["5", "17", "20"], "time": [3096, 6477, 8289]}, "edge": {"target": [], "time": []}}, "mouseover": {"state": {"target": ["1", "3", "5", "6", "6", "16", "17", "20", "20"], "time": [2526, 2577, 2693, 3613, 4160, 5695, 6062, 7447, 7894]}, "edge": {"target": [], "time": []}}, "mouseout": {"state": {"target": ["31", "24", "28", "4", "0", "1", "3", "5", "6", "6", "16", "17", "20", "20", "21"], "time": [576, 612, 644, 843, 2497, 2545, 2611, 3494, 3813, 5278, 5728, 7129, 7611, 16083, 16145]}, "edge": {"target": [], "time": []}}}, "displayed_time": "16.07", "trialTime": 16721, "trial_type": "mouselab-mdp", "trial_index": 29, "time_elapsed": 792145, "internal_node_id": "0.0-4.0-1.0-20.0"}}, {"uniqueid": "w41434252:a98597973", "current_trial": 30, "dateTime": 1691143160386, "trialdata": {"revealed_states": [], "clicked_states": ["27", "32", "21", "20", "16", "5", "9", "11", "6"], "num_clicks_accrued": [0, 0, 0, 0, 0, 0, 0, 0, 0, 0, 0, 0, 0], "stateRewards": ["", 2, 2, 3, -15, 23, -14, 73, -7, -32, -20, -6, 1, 1, -5, -12, 73, 6, -84, 11, -81, -57, 13, -2, -1, -4, -8, -52, -58, 49, 13, 5, -41, -41], "withholdReward": false, "trial_id": "mdp_trial_22", "block": "test", "trialIndex": 23, "score": 45.4, "costs": -12.600000000000001, "simulationMode": [null, null, null, null, null], "rewards": [1, 1, -5, -12, 73], "path": ["0", "0", "12", "13", "14", "15", "16"], "rt": [19818, 190, 206, 91, 167], "actions": ["right", "right", "right", "up", "up"], "actionTimes": [21592, 22299, 22995, 23582, 24243], "queries": {"click": {"state": {"target": ["27", "32", "21", "20", "16", "5", "9", "11", "6"], "time": [3135, 5455, 7405, 9357, 11115, 13028, 14864, 16968, 19072]}, "edge": {"target": [], "time": []}}, "mouseover": {"state": {"target": ["23", "26", "27", "29", "29", "33", "32", "31", "23", "1", "18", "15", "20", "21", "20", "16", "6", "5", "9", "11", "6", "6"], "time": [2357, 2605, 2853, 3739, 4088, 4338, 5089, 5941, 5975, 6006, 6040, 6071, 6305, 6689, 8321, 10121, 12122, 12588, 14006, 16472, 17724, 18822]}, "edge": {"target": [], "time": []}}, "mouseout": {"state": {"target": ["0", "23", "26", "27", "29", "29", "33", "32", "31", "23", "1", "18", "15", "20", "21", "20", "16", "16", "6", "5", "9", "11", "6", "6"], "time": [1354, 2406, 2686, 3674, 3904, 4203, 4822, 5669, 5960, 5992, 6024, 6065, 6087, 6322, 8022, 9790, 11824, 12090, 12158, 13249, 16291, 17658, 17740, 25331]}, "edge": {"target": [], "time": []}}}, "displayed_time": "24.76", "trialTime": 25650, "trial_type": "mouselab-mdp", "trial_index": 30, "time_elapsed": 818080, "internal_node_id": "0.0-4.0-1.0-21.0"}}, {"uniqueid": "w41434252:a98597973", "current_trial": 31, "dateTime": 1691143183105, "trialdata": {"revealed_states": [], "clicked_states": ["9", "29"], "num_clicks_accrued": [0, 0, 0, 0, 0, 0, 0, 0, 0, 0, 0, 0, 0], "stateRewards": ["", -2, -3, 1, -7, 39, -67, 16, 5, -20, 73, 66, -1, 4, 5, -3, 23, -68, -87, -8, 3, -3, 17, 1, -4, -2, -13, -32, 34, 61, -5, -11, -18, 12], "withholdReward": false, "trial_id": "mdp_trial_23", "block": "test", "trialIndex": 24, "score": 40.2, "costs": -2.8, "simulationMode": [null, null, null, null, null], "rewards": [1, -4, -2, -13, 61], "path": ["0", "0", "23", "24", "25", "26", "29"], "rt": [5646, 78, 131, 270, 139], "actions": ["left", "left", "left", "up", "left"], "actionTimes": [7230, 7824, 8475, 9265, 9918], "queries": {"click": {"state": {"target": ["9", "29"], "time": [2468, 4504]}, "edge": {"target": [], "time": []}}, "mouseover": {"state": {"target": ["10", "8", "9", "11", "27", "29", "30", "32"], "time": [1923, 1959, 2124, 3090, 3173, 3626, 5128, 5241]}, "edge": {"target": [], "time": []}}, "mouseout": {"state": {"target": ["10", "8", "9", "11", "27", "29", "30"], "time": [1939, 1974, 2683, 3142, 3291, 4976, 5142]}, "edge": {"target": [], "time": []}}}, "displayed_time": "15.61", "trialTime": 22502, "trial_type": "mouselab-mdp", "trial_index": 31, "time_elapsed": 840798, "internal_node_id": "0.0-4.0-1.0-22.0"}}, {"uniqueid": "w41434252:a98597973", "current_trial": 32, "dateTime": 1691143206056, "trialdata": {"revealed_states": [], "clicked_states": ["27", "5", "16", "17", "21", "32", "33", "29"], "num_clicks_accrued": [0, 0, 0, 0, 0, 0, 0, 0, 0, 0, 0, 0, 0], "stateRewards": ["", 2, 3, -3, 12, -43, 81, -82, -15, 58, -7, -75, -1, -1, 3, -5, 50, -25, -8, 4, 66, 65, -66, 2, -4, 2, -1, -10, 10, 37, 11, 88, -37, 8], "withholdReward": false, "trial_id": "mdp_trial_24", "block": "test", "trialIndex": 25, "score": 58.8, "costs": -11.200000000000001, "simulationMode": [null, null, null, null, null], "rewards": [-1, -1, 3, 4, 65], "path": ["0", "0", "12", "13", "14", "19", "21"], "rt": [16576, 134, 186, 146, 223], "actions": ["right", "right", "right", "down", "down"], "actionTimes": [19197, 19849, 20550, 21192, 21935], "queries": {"click": {"state": {"target": ["27", "5", "16", "17", "21", "32", "33", "29"], "time": [3943, 5906, 7867, 9520, 11263, 13011, 14817, 16776]}, "edge": {"target": [], "time": []}}, "mouseover": {"state": {"target": ["23", "24", "25", "26", "27", "9", "5", "5", "16", "17", "20", "21", "31", "32", "32", "33", "29", "26", "28", "23"], "time": [3225, 3276, 3342, 3376, 3608, 4574, 4744, 5026, 6741, 8727, 10157, 10435, 11859, 12326, 12528, 13942, 15661, 17777, 17893, 18059]}, "edge": {"target": [], "time": []}}, "mouseout": {"state": {"target": ["32", "25", "24", "0", "0", "23", "24", "25", "26", "27", "9", "5", "5", "16", "17", "20", "21", "31", "32", "32", "33", "29", "26", "28", "23"], "time": [1125, 1274, 1357, 1851, 3192, 3258, 3309, 3359, 3410, 4168, 4591, 4793, 6391, 8325, 10043, 10376, 11744, 12193, 12342, 13660, 15360, 17760, 17842, 17976, 18109]}, "edge": {"target": [], "time": []}}}, "displayed_time": "22.43", "trialTime": 22672, "trial_type": "mouselab-mdp", "trial_index": 32, "time_elapsed": 863749, "internal_node_id": "0.0-4.0-1.0-23.0"}}, {"uniqueid": "w41434252:a98597973", "current_trial": 33, "dateTime": 1691143227840, "trialdata": {"revealed_states": [], "clicked_states": ["27", "32", "5", "21", "16", "18", "11"], "num_clicks_accrued": [0, 0, 0, 0, 0, 0, 0, 0, 0, 0, 0, 0, 0], "stateRewards": ["", -1, -3, -5, -14, -13, -47, 79, 8, -60, -64, 41, -1, 2, 3, 13, -46, 61, -79, -11, -64, -65, 23, 1, -2, 6, -14, 46, 32, 21, 7, 75, -66, 15], "withholdReward": false, "trial_id": "mdp_trial_25", "block": "test", "trialIndex": 26, "score": 27.2, "costs": -9.8, "simulationMode": [null, null, null, null, null], "rewards": [1, -2, 6, -14, 46], "path": ["0", "0", "23", "24", "25", "26", "27"], "rt": [15850, 330, 223, 70, 104], "actions": ["left", "left", "left", "up", "up"], "actionTimes": [17526, 18377, 19109, 19700, 20316], "queries": {"click": {"state": {"target": ["27", "32", "5", "21", "16", "18", "11"], "time": [3090, 4716, 6247, 8203, 10396, 12427, 14837]}, "edge": {"target": [], "time": []}}, "mouseover": {"state": {"target": ["28", "27", "29", "32", "30", "25", "11", "5", "20", "21", "19", "17", "17", "17", "16", "18", "2", "10", "11"], "time": [2161, 2779, 3830, 4378, 5295, 5316, 5362, 5813, 7011, 7280, 8680, 8764, 9094, 9663, 9895, 11794, 13081, 13646, 14063]}, "edge": {"target": [], "time": []}}, "mouseout": {"state": {"target": ["0", "28", "27", "29", "32", "30", "25", "11", "5", "20", "21", "19", "17", "17", "17", "16", "16", "18", "18", "2", "10"], "time": [2029, 2195, 3613, 4080, 5280, 5312, 5332, 5379, 6462, 7030, 8663, 8694, 8794, 9295, 9761, 10606, 11597, 12655, 12946, 13529, 13828]}, "edge": {"target": [], "time": []}}}, "displayed_time": "20.82", "trialTime": 21527, "trial_type": "mouselab-mdp", "trial_index": 33, "time_elapsed": 885533, "internal_node_id": "0.0-4.0-1.0-24.0"}}, {"uniqueid": "w41434252:a98597973", "current_trial": 34, "dateTime": 1691143257063, "trialdata": {"revealed_states": [], "clicked_states": ["5"], "num_clicks_accrued": [0, 0, 0, 0, 0, 0, 0, 0, 0, 0, 0, 0, 0], "stateRewards": ["", 1, 2, -5, 14, 54, -14, -25, 16, -5, -87, 78, -1, 1, 3, -3, 52, 53, 53, -10, 73, -69, -48, 2, 3, 1, 8, -62, -7, 85, 7, 82, 52, -28], "withholdReward": false, "trial_id": "mdp_trial_26", "block": "test", "trialIndex": 27, "score": 64.6, "costs": -1.4, "simulationMode": [null, null, null, null, null], "rewards": [1, 2, -5, 14, 54], "path": ["0", "0", "1", "2", "3", "4", "5"], "rt": [4074, 4, 42, 564, 647], "actions": ["up", "up", "up", "right", "up"], "actionTimes": [5974, 6476, 7031, 8118, 9270], "queries": {"click": {"state": {"target": ["5"], "time": [3084]}, "edge": {"target": [], "time": []}}, "mouseover": {"state": {"target": ["10", "8", "9", "5", "9", "9"], "time": [2419, 2455, 2485, 2835, 3851, 4319]}, "edge": {"target": [], "time": []}}, "mouseout": {"state": {"target": ["11", "9", "6", "7", "0", "10", "8", "9", "5", "9", "9", "0"], "time": [835, 868, 1017, 1268, 2369, 2452, 2468, 2502, 3767, 3934, 11206, 11385]}, "edge": {"target": [], "time": []}}}, "displayed_time": "15.92", "trialTime": 28974, "trial_type": "mouselab-mdp", "trial_index": 34, "time_elapsed": 914757, "internal_node_id": "0.0-4.0-1.0-25.0"}}, {"uniqueid": "w41434252:a98597973", "current_trial": 35, "dateTime": 1691143299776, "trialdata": {"revealed_states": [], "clicked_states": ["5", "32", "21", "17"], "num_clicks_accrued": [0, 0, 0, 0, 0, 0, 0, 0, 0, 0, 0, 0, 0], "stateRewards": ["", -1, -4, -3, 1, -45, -67, -24, 14, 32, 22, 22, -1, 1, -5, -7, 72, 84, -79, -5, 19, -40, -2, -1, -2, 8, -3, 84, -25, -28, 11, 64, -66, 77], "withholdReward": false, "trial_id": "mdp_trial_27", "block": "test", "trialIndex": 28, "score": 66.4, "costs": -5.6, "simulationMode": [null, null, null, null, null], "rewards": [-1, 1, -5, -7, 84], "path": ["0", "0", "12", "13", "14", "15", "17"], "rt": [9818, 323, 318, 281, 303], "actions": ["right", "right", "right", "up", "right"], "actionTimes": [11972, 12801, 13631, 14407, 15230], "queries": {"click": {"state": {"target": ["5", "32", "21", "17"], "time": [3209, 5201, 7163, 9200]}, "edge": {"target": [], "time": []}}, "mouseover": {"state": {"target": ["2", "3", "5", "3", "10", "28", "30", "32", "31", "19", "21", "19", "17", "16"], "time": [2476, 2500, 2909, 3709, 3742, 3792, 4127, 4194, 5709, 5844, 5943, 7595, 7809, 9733]}, "edge": {"target": [], "time": []}}, "mouseout": {"state": {"target": ["31", "0", "2", "3", "5", "3", "10", "28", "30", "32", "31", "19", "21", "19", "17"], "time": [1224, 2424, 2494, 2510, 3675, 3725, 3758, 3808, 4175, 5677, 5727, 5876, 7377, 7627, 9626]}, "edge": {"target": [], "time": []}}}, "displayed_time": "16.17", "trialTime": 42475, "trial_type": "mouselab-mdp", "trial_index": 35, "time_elapsed": 957469, "internal_node_id": "0.0-4.0-1.0-26.0"}}, {"uniqueid": "w41434252:a98597973", "current_trial": 36, "dateTime": 1691143321220, "trialdata": {"revealed_states": [], "clicked_states": ["5", "9", "27", "32", "21", "17", "16"], "num_clicks_accrued": [0, 0, 0, 0, 0, 0, 0, 0, 0, 0, 0, 0, 0], "stateRewards": ["", 1, 4, -8, -5, -15, -7, 21, 13, -30, 40, -65, 1, 1, 5, -14, 35, 27, -38, -11, 36, -58, -47, -2, 4, -3, 13, -16, -49, 22, 15, -56, -44, -10], "withholdReward": false, "trial_id": "mdp_trial_28", "block": "test", "trialIndex": 29, "score": 18.2, "costs": -9.8, "simulationMode": [null, null, null, null, null], "rewards": [1, 1, 5, -14, 35], "path": ["0", "0", "12", "13", "14", "15", "16"], "rt": [16101, 19, 137, 59, 83], "actions": ["right", "right", "right", "up", "up"], "actionTimes": [17360, 17882, 18547, 19104, 19731], "queries": {"click": {"state": {"target": ["5", "9", "27", "32", "21", "17", "16"], "time": [2518, 4475, 6422, 8377, 10930, 12933, 15096]}, "edge": {"target": [], "time": []}}, "mouseover": {"state": {"target": ["2", "5", "9", "11", "27", "26", "32", "0", "19", "19", "21", "19", "17", "16", "16"], "time": [1823, 2256, 3238, 5139, 5491, 6960, 7458, 9756, 9839, 10423, 10607, 11657, 11773, 13691, 14124]}, "edge": {"target": [], "time": []}}, "mouseout": {"state": {"target": ["16", "12", "2", "5", "9", "11", "27", "26", "32", "0", "19", "19", "21", "19", "17", "16", "16"], "time": [391, 772, 1840, 3056, 5072, 5192, 6941, 6990, 8595, 9773, 10207, 10539, 11638, 11688, 13151, 13907, 15321]}, "edge": {"target": [], "time": []}}}, "displayed_time": "20.23", "trialTime": 21150, "trial_type": "mouselab-mdp", "trial_index": 36, "time_elapsed": 978912, "internal_node_id": "0.0-4.0-1.0-27.0"}}, {"uniqueid": "w41434252:a98597973", "current_trial": 37, "dateTime": 1691143350508, "trialdata": {"revealed_states": [], "clicked_states": ["9", "27", "32", "21", "16", "17", "20", "33"], "num_clicks_accrued": [0, 0, 0, 0, 0, 0, 0, 0, 0, 0, 0, 0, 0], "stateRewards": ["", 2, -4, 7, 3, 23, -42, 4, 7, -81, -33, 7, -2, -4, 5, -1, 50, -57, -14, -13, -14, 44, 55, -2, -2, 5, -2, 33, 1, 57, -13, -7, 58, 87], "withholdReward": false, "trial_id": "mdp_trial_29", "block": "test", "trialIndex": 30, "score": 63.8, "costs": -11.200000000000001, "simulationMode": [null, null, null, null, null], "rewards": [-2, -2, 5, -13, 87], "path": ["0", "0", "23", "24", "25", "30", "33"], "rt": [20170, 16, 179, 110, 267], "actions": ["left", "left", "left", "down", "left"], "actionTimes": [25279, 25821, 26514, 27147, 27920], "queries": {"click": {"state": {"target": ["9", "27", "32", "21", "16", "17", "20", "33"], "time": [6103, 8072, 10192, 12873, 15331, 17785, 19922, 22478]}, "edge": {"target": [], "time": []}}, "mouseover": {"state": {"target": ["10", "8", "9", "11", "27", "29", "27", "26", "25", "30", "32", "12", "13", "19", "21", "19", "14", "15", "16", "17", "20", "19", "31", "30", "30", "33", "29"], "time": [5482, 5549, 5834, 6600, 6664, 6832, 7131, 8453, 8516, 8568, 8680, 10749, 10769, 10817, 11200, 14150, 14199, 14800, 14932, 17565, 19501, 20552, 21233, 21332, 22034, 22199, 23249]}, "edge": {"target": [], "time": []}}, "mouseout": {"state": {"target": ["18", "12", "10", "1", "0", "10", "8", "9", "11", "27", "29", "27", "26", "25", "30", "32", "12", "13", "19", "21", "19", "14", "15", "16", "17", "17", "20", "19", "31", "30", "30", "33"], "time": [1485, 1564, 4064, 4298, 5419, 5516, 5798, 6585, 6617, 6714, 7117, 8449, 8467, 8550, 8599, 10650, 10765, 10784, 10866, 14116, 14168, 14233, 14882, 17133, 17998, 19284, 20548, 20567, 21299, 21882, 22069, 23151]}, "edge": {"target": [], "time": []}}}, "displayed_time": "28.44", "trialTime": 28996, "trial_type": "mouselab-mdp", "trial_index": 37, "time_elapsed": 1008201, "internal_node_id": "0.0-4.0-1.0-28.0"}}, {"uniqueid": "w41434252:a98597973", "current_trial": 38, "dateTime": 1691143367550, "trialdata": {"revealed_states": [], "clicked_states": ["9", "28", "31", "22", "17"], "num_clicks_accrued": [0, 0, 0, 0, 0, 0, 0, 0, 0, 0, 0, 0, 0], "stateRewards": ["", -2, 1, -7, 9, 8, 25, 61, -7, -17, 69, -81, 1, 4, -4, -11, 16, 67, 44, 3, 6, -45, -54, -2, 3, 6, -11, -15, 32, -47, 3, -39, -6, -88], "withholdReward": false, "trial_id": "mdp_trial_30", "block": "test", "trialIndex": 31, "score": 50, "costs": -7, "simulationMode": [null, null, null, null, null], "rewards": [1, 4, -4, -11, 67], "path": ["0", "0", "12", "13", "14", "15", "17"], "rt": [10773, 13, 129, 81, 47], "actions": ["right", "right", "right", "up", "right"], "actionTimes": [13054, 13578, 14228, 14844, 15413], "queries": {"click": {"state": {"target": ["9", "28", "31", "22", "17"], "time": [3232, 5102, 6818, 8348, 10401]}, "edge": {"target": [], "time": []}}, "mouseover": {"state": {"target": ["9", "11", "27", "28", "24", "31", "23", "13", "22", "13", "17", "17", "20", "21"], "time": [2880, 3697, 4029, 4628, 5648, 5780, 7348, 7447, 7564, 9013, 9681, 9780, 11280, 11498]}, "edge": {"target": [], "time": []}}, "mouseout": {"state": {"target": ["29", "27", "2", "12", "9", "11", "27", "28", "24", "31", "23", "13", "22", "13", "17", "17", "17", "20", "21"], "time": [797, 831, 896, 1445, 3613, 3945, 4497, 5579, 5682, 7315, 7365, 7514, 8999, 9029, 9697, 10615, 11147, 11368, 11864]}, "edge": {"target": [], "time": []}}}, "displayed_time": "16.28", "trialTime": 16771, "trial_type": "mouselab-mdp", "trial_index": 38, "time_elapsed": 1025243, "internal_node_id": "0.0-4.0-1.0-29.0"}}, {"uniqueid": "w41434252:a98597973", "current_trial": 39, "dateTime": 1691143385360, "trialdata": {"revealed_states": [], "clicked_states": ["9", "5"], "num_clicks_accrued": [0, 0, 0, 0, 0, 0, 0, 0, 0, 0, 0, 0, 0], "stateRewards": ["", -2, -3, -3, 9, 79, 67, 22, -15, -56, 27, -85, -2, 4, -4, -15, -20, -32, 60, 15, 71, 57, 17, 1, 2, -8, 15, -37, -81, 82, 15, 21, -3, 2], "withholdReward": false, "trial_id": "mdp_trial_31", "block": "test", "trialIndex": 32, "score": 77.2, "costs": -2.8, "simulationMode": [null, null, null, null, null], "rewards": [-2, -3, -3, 9, 79], "path": ["0", "0", "1", "2", "3", "4", "5"], "rt": [5998, 436, 300, 109, 120], "actions": ["up", "up", "up", "right", "up"], "actionTimes": [7869, 8810, 9624, 10229, 10860], "queries": {"click": {"state": {"target": ["9", "5"], "time": [3135, 5183]}, "edge": {"target": [], "time": []}}, "mouseover": {"state": {"target": ["10", "8", "9", "5", "6"], "time": [2435, 2485, 2902, 4763, 5986]}, "edge": {"target": [], "time": []}}, "mouseout": {"state": {"target": ["0", "10", "8", "9", "5", "6", "7"], "time": [2353, 2452, 2518, 3852, 5854, 11620, 11655]}, "edge": {"target": [], "time": []}}}, "displayed_time": "15.90", "trialTime": 17535, "trial_type": "mouselab-mdp", "trial_index": 39, "time_elapsed": 1043053, "internal_node_id": "0.0-4.0-1.0-30.0"}}, {"uniqueid": "w41434252:a98597973", "current_trial": 40, "dateTime": 1691143408521, "trialdata": {"revealed_states": [], "clicked_states": ["27", "29", "21", "17", "16"], "num_clicks_accrued": [0, 0, 0, 0, 0, 0, 0, 0, 0, 0, 0, 0, 0], "stateRewards": ["", -2, -4, -2, 10, -8, -15, -47, 7, -84, 53, 5, -1, 2, -7, 3, 83, 31, 47, -1, 30, -8, 69, 2, -4, -1, 8, -7, 12, -8, -8, -13, 30, -84], "withholdReward": false, "trial_id": "mdp_trial_32", "block": "test", "trialIndex": 33, "score": 73, "costs": -7, "simulationMode": [null, null, null, null, null], "rewards": [-1, 2, -7, 3, 83], "path": ["0", "0", "12", "13", "14", "15", "16"], "rt": [15405, 154, 81, 46, 1452], "actions": ["right", "right", "right", "up", "up"], "actionTimes": [18077, 18753, 19355, 19920, 21910], "queries": {"click": {"state": {"target": ["27", "29", "21", "17", "16"], "time": [4715, 7079, 11395, 13509, 15417]}, "edge": {"target": [], "time": []}}, "mouseover": {"state": {"target": ["23", "26", "27", "28", "26", "29", "25", "30", "32", "31", "23", "18", "15", "17", "20", "19", "12", "13", "14", "20", "21", "19", "17", "16", "4", "5", "6"], "time": [3119, 3370, 4520, 6001, 6052, 6636, 7621, 7691, 7726, 9453, 9487, 9536, 9557, 9590, 10322, 10345, 10553, 10587, 10608, 10669, 11136, 12069, 12212, 14605, 17203, 17286, 17538]}, "edge": {"target": [], "time": []}}, "mouseout": {"state": {"target": ["10", "1", "0", "23", "26", "27", "28", "26", "29", "25", "30", "32", "31", "23", "18", "15", "17", "20", "19", "12", "13", "14", "20", "21", "19", "17", "16", "4", "5", "6"], "time": [1702, 1902, 3021, 3187, 3436, 5704, 6020, 6120, 7605, 7661, 7711, 9421, 9470, 9503, 9554, 9587, 9607, 10338, 10356, 10570, 10603, 10636, 10688, 12054, 12104, 14489, 16719, 17221, 17520, 17554]}, "edge": {"target": [], "time": []}}}, "displayed_time": "22.42", "trialTime": 22863, "trial_type": "mouselab-mdp", "trial_index": 40, "time_elapsed": 1066214, "internal_node_id": "0.0-4.0-1.0-31.0"}}, {"uniqueid": "w41434252:a98597973", "current_trial": 41, "dateTime": 1691143425000, "trialdata": {"revealed_states": [], "clicked_states": ["9", "5"], "num_clicks_accrued": [0, 0, 0, 0, 0, 0, 0, 0, 0, 0, 0, 0, 0], "stateRewards": ["", -1, -2, -1, -10, -57, 73, -72, -16, 75, -14, -46, -2, -3, -7, -1, -61, -60, 76, -4, 50, 4, 14, 2, 2, -7, 12, -65, -32, 15, -8, -76, -25, -61], "withholdReward": false, "trial_id": "mdp_trial_33", "block": "test", "trialIndex": 34, "score": 52.2, "costs": -2.8, "simulationMode": [null, null, null, null, null], "rewards": [-1, -2, -1, -16, 75], "path": ["0", "0", "1", "2", "3", "8", "9"], "rt": [4619, 206, 171, 487, 178], "actions": ["up", "up", "up", "left", "up"], "actionTimes": [6193, 6911, 7592, 8588, 9283], "queries": {"click": {"state": {"target": ["9", "5"], "time": [2665, 4376]}, "edge": {"target": [], "time": []}}, "mouseover": {"state": {"target": ["10", "9", "5"], "time": [2033, 2400, 3519]}, "edge": {"target": [], "time": []}}, "mouseout": {"state": {"target": ["16", "18", "12", "10", "9", "5", "5"], "time": [583, 650, 782, 2067, 2876, 4611, 10215]}, "edge": {"target": [], "time": []}}}, "displayed_time": "15.61", "trialTime": 16207, "trial_type": "mouselab-mdp", "trial_index": 41, "time_elapsed": 1082694, "internal_node_id": "0.0-4.0-1.0-32.0"}}, {"uniqueid": "w41434252:a98597973", "current_trial": 42, "dateTime": 1691143441175, "trialdata": {"revealed_states": [], "clicked_states": ["5", "9"], "num_clicks_accrued": [0, 0, 0, 0, 0, 0, 0, 0, 0, 0, 0, 0, 0], "stateRewards": ["", -2, 2, -1, -6, 22, 6, 6, -5, 70, -42, 65, 1, 3, 5, -6, -67, -9, 3, 14, 7, -62, -13, -2, 4, 1, 16, 42, -21, -52, -8, 32, 53, 81], "withholdReward": false, "trial_id": "mdp_trial_34", "block": "test", "trialIndex": 35, "score": 61.2, "costs": -2.8, "simulationMode": [null, null, null, null, null], "rewards": [-2, 2, -1, -5, 70], "path": ["0", "0", "1", "2", "3", "8", "9"], "rt": [6170, 129, 155, 10, 135], "actions": ["up", "up", "up", "left", "up"], "actionTimes": [7588, 8220, 8883, 9389, 10063], "queries": {"click": {"state": {"target": ["5", "9"], "time": [2957, 4959]}, "edge": {"target": [], "time": []}}, "mouseover": {"state": {"target": ["1", "2", "4", "6", "16", "6", "5", "9", "9", "17", "21"], "time": [1841, 1875, 1940, 1961, 2290, 2360, 2637, 4174, 4608, 5908, 6391]}, "edge": {"target": [], "time": []}}, "mouseout": {"state": {"target": ["0", "1", "2", "4", "6", "16", "6", "5", "9", "9", "5", "17"], "time": [1810, 1858, 1906, 1957, 1976, 2323, 2388, 4075, 4341, 5168, 5509, 5941]}, "edge": {"target": [], "time": []}}}, "displayed_time": "15.43", "trialTime": 15856, "trial_type": "mouselab-mdp", "trial_index": 42, "time_elapsed": 1098869, "internal_node_id": "0.0-4.0-1.0-33.0"}}, {"uniqueid": "w41434252:a98597973", "current_trial": 43, "dateTime": 1691143477030, "trialdata": {"revealed_states": [], "clicked_states": ["5", "21", "32", "33", "28", "7", "6", "11", "9", "10", "27", "29"], "num_clicks_accrued": [0, 0, 0, 0, 0, 0, 0, 0, 0, 0, 0, 0, 0], "stateRewards": ["", -2, 1, -3, -16, -39, -52, 30, -7, -41, -59, 11, 2, 1, 8, 2, -11, -26, -42, -13, 87, -59, -48, -1, -1, -1, 16, -79, 31, 50, -1, -84, 34, -82], "withholdReward": false, "trial_id": "mdp_trial_35", "block": "test", "trialIndex": 36, "score": 46.2, "costs": -16.8, "simulationMode": [null, null, null, null, null], "rewards": [-1, -1, -1, 16, 50], "path": ["0", "0", "23", "24", "25", "26", "29"], "rt": [30081, 100, 179, 138, 60], "actions": ["left", "left", "left", "up", "left"], "actionTimes": [32203, 32830, 33521, 34190, 34754], "queries": {"click": {"state": {"target": ["5", "21", "32", "33", "28", "7", "6", "11", "9", "10", "27", "29"], "time": [4355, 7576, 9580, 11734, 13711, 16379, 18946, 20970, 23382, 25391, 27397, 29370]}, "edge": {"target": [], "time": []}}, "mouseover": {"state": {"target": ["1", "16", "17", "17", "15", "6", "5", "9", "14", "19", "21", "32", "33", "27", "28", "10", "6", "7", "6", "2", "11", "9", "10", "27", "29", "26", "24"], "time": [2673, 2757, 2940, 3156, 3707, 3773, 3840, 4895, 7058, 7092, 7157, 8807, 10441, 12774, 13025, 14457, 14956, 16048, 18658, 19556, 19705, 23056, 24340, 26107, 28174, 30957, 31023]}, "edge": {"target": [], "time": []}}, "mouseout": {"state": {"target": ["21", "0", "1", "16", "17", "17", "15", "6", "5", "9", "5", "14", "19", "21", "32", "33", "27", "28", "10", "6", "7", "6", "2", "11", "9", "9", "10", "27", "29", "26", "24"], "time": [657, 2625, 2688, 2774, 3073, 3657, 3723, 3790, 4567, 6458, 6607, 7074, 7123, 8324, 10193, 12708, 12824, 14441, 14474, 15592, 16603, 19455, 19588, 22941, 23606, 23923, 25957, 28007, 30940, 30973, 31073]}, "edge": {"target": [], "time": []}}}, "displayed_time": "35.26", "trialTime": 35593, "trial_type": "mouselab-mdp", "trial_index": 43, "time_elapsed": 1134723, "internal_node_id": "0.0-4.0-1.0-34.0"}}, {"uniqueid": "w41434252:a98597973", "current_trial": 44, "dateTime": 1691143493207, "trialdata": {"revealed_states": [], "clicked_states": ["5", "9"], "num_clicks_accrued": [0, 0, 0, 0, 0, 0, 0, 0, 0, 0, 0, 0, 0], "stateRewards": ["", 1, 2, -3, -5, 66, -50, -47, -5, 1, 28, -27, 1, 1, -1, -6, 37, -25, 56, 1, -82, -66, -40, -1, -4, -7, 15, -61, -23, 26, 10, 14, -56, 29], "withholdReward": false, "trial_id": "mdp_trial_36", "block": "test", "trialIndex": 37, "score": 58.2, "costs": -2.8, "simulationMode": [null, null, null, null, null, null], "rewards": [1, 2, -3, -5, 66], "path": ["0", "0", "1", "2", "3", "4", "5"], "rt": [5195, 417, 371, 107, 758, 166], "actions": ["up", "up", "up", "up", "right", "up"], "actionTimes": [6850, 7274, 8161, 8783, 10061, 10741], "queries": {"click": {"state": {"target": ["5", "9"], "time": [2810, 6088]}, "edge": {"target": [], "time": []}}, "mouseover": {"state": {"target": ["1", "2", "4", "5", "9"], "time": [2071, 2105, 2238, 2571, 3539]}, "edge": {"target": [], "time": []}}, "mouseout": {"state": {"target": ["2", "1", "0", "1", "2", "4", "5"], "time": [737, 1003, 2040, 2088, 2155, 2538, 3256]}, "edge": {"target": [], "time": []}}}, "displayed_time": "15.67", "trialTime": 15902, "trial_type": "mouselab-mdp", "trial_index": 44, "time_elapsed": 1150901, "internal_node_id": "0.0-4.0-1.0-35.0"}}, {"uniqueid": "w41434252:a98597973", "current_trial": 45, "dateTime": 1691143510384, "trialdata": {"revealed_states": [], "clicked_states": ["17", "5"], "num_clicks_accrued": [0, 0, 0, 0, 0, 0, 0, 0, 0, 0, 0, 0, 0], "stateRewards": ["", 2, -1, 3, -12, -83, 6, -33, 9, 28, 24, -50, -2, -1, -2, -5, -87, 37, 82, 12, 80, -5, 10, -2, -3, -6, 9, 22, -1, 16, 9, 77, -62, 58], "withholdReward": false, "trial_id": "mdp_trial_37", "block": "test", "trialIndex": 38, "score": 24.2, "costs": -2.8, "simulationMode": [null, null, null, null, null], "rewards": [-2, -1, -2, -5, 37], "path": ["0", "0", "12", "13", "14", "15", "17"], "rt": [7299, 455, 397, 237, 222], "actions": ["right", "right", "right", "up", "right"], "actionTimes": [9430, 10411, 11302, 12059, 12793], "queries": {"click": {"state": {"target": ["17", "5"], "time": [3366, 6985]}, "edge": {"target": [], "time": []}}, "mouseover": {"state": {"target": ["7", "17", "6", "5"], "time": [2418, 3062, 4065, 4151]}, "edge": {"target": [], "time": []}}, "mouseout": {"state": {"target": ["9", "3", "2", "1", "0", "0", "7", "17", "6", "5", "15", "22"], "time": [786, 983, 1066, 1283, 1333, 2366, 2434, 3578, 4084, 7211, 13584, 13851]}, "edge": {"target": [], "time": []}}}, "displayed_time": "16.13", "trialTime": 16941, "trial_type": "mouselab-mdp", "trial_index": 45, "time_elapsed": 1168077, "internal_node_id": "0.0-4.0-1.0-36.0"}}, {"uniqueid": "w41434252:a98597973", "current_trial": 46, "dateTime": 1691143527165, "trialdata": {"revealed_states": [], "clicked_states": ["27"], "num_clicks_accrued": [0, 0, 0, 0, 0, 0, 0, 0, 0, 0, 0, 0, 0], "stateRewards": ["", -1, 1, 3, -8, -23, -15, -14, -11, -23, 58, 68, 1, 3, 5, 12, -17, -41, -7, -10, -4, 82, 10, 1, 4, -4, 11, 73, 55, -55, -1, -86, -86, 54], "withholdReward": false, "trial_id": "mdp_trial_38", "block": "test", "trialIndex": 39, "score": 83.6, "costs": -1.4, "simulationMode": [null, null, null, null, null], "rewards": [1, 4, -4, 11, 73], "path": ["0", "0", "23", "24", "25", "26", "27"], "rt": [3733, 294, 165, 6, 73], "actions": ["left", "left", "left", "up", "up"], "actionTimes": [5348, 6161, 6849, 7372, 7973], "queries": {"click": {"state": {"target": ["27"], "time": [2934]}, "edge": {"target": [], "time": []}}, "mouseover": {"state": {"target": ["23", "24", "25", "27", "8", "10"], "time": [2216, 2262, 2344, 2632, 3977, 4262]}, "edge": {"target": [], "time": []}}, "mouseout": {"state": {"target": ["0", "23", "24", "25", "27", "8", "10"], "time": [2196, 2245, 2311, 2412, 3901, 3994, 8947]}, "edge": {"target": [], "time": []}}}, "displayed_time": "15.63", "trialTime": 16482, "trial_type": "mouselab-mdp", "trial_index": 46, "time_elapsed": 1184858, "internal_node_id": "0.0-4.0-1.0-37.0"}}, {"uniqueid": "w41434252:a98597973", "current_trial": 47, "dateTime": 1691143549227, "trialdata": {"revealed_states": [], "clicked_states": ["5", "9", "17", "20"], "num_clicks_accrued": [0, 0, 0, 0, 0, 0, 0, 0, 0, 0, 0, 0, 0], "stateRewards": ["", 1, 4, 5, 8, -55, -11, 8, 16, -37, 77, -22, -2, 3, -8, -10, 45, 87, -67, 4, 17, -33, -22, -1, -3, 7, 6, -39, -85, 75, -1, 7, -48, 45], "withholdReward": false, "trial_id": "mdp_trial_39", "block": "test", "trialIndex": 40, "score": 64.4, "costs": -5.6, "simulationMode": [null, null, null, null, null], "rewards": [-2, 3, -8, -10, 87], "path": ["0", "0", "12", "13", "14", "15", "17"], "rt": [10169, 318, 213, 245, 62], "actions": ["right", "right", "right", "up", "right"], "actionTimes": [17223, 18055, 18780, 19548, 20133], "queries": {"click": {"state": {"target": ["5", "9", "17", "20"], "time": [9038, 11016, 13455, 15372]}, "edge": {"target": [], "time": []}}, "mouseover": {"state": {"target": ["1", "2", "4", "5", "9", "6", "17", "20"], "time": [8300, 8349, 8449, 8815, 10483, 12573, 13099, 14635]}, "edge": {"target": [], "time": []}}, "mouseout": {"state": {"target": ["12", "1", "2", "4", "5", "9", "6", "17", "20"], "time": [6481, 8316, 8382, 8466, 9699, 12518, 12598, 14232, 15585]}, "edge": {"target": [], "time": []}}}, "displayed_time": "21.06", "trialTime": 21764, "trial_type": "mouselab-mdp", "trial_index": 47, "time_elapsed": 1206920, "internal_node_id": "0.0-4.0-1.0-38.0"}}, {"uniqueid": "w41434252:a98597973", "current_trial": 48, "dateTime": 1691143567502, "trialdata": {"revealed_states": [], "clicked_states": ["5"], "num_clicks_accrued": [0, 0, 0, 0, 0, 0, 0, 0, 0, 0, 0, 0, 0], "stateRewards": ["", -1, 3, 2, 9, 41, 4, -46, -12, -54, -87, -25, 2, 3, -1, 11, -77, 12, -33, -9, -32, 35, 72, 1, 3, -7, 4, 37, 65, -73, 6, 77, -43, 8], "withholdReward": false, "trial_id": "mdp_trial_40", "block": "test", "trialIndex": 41, "score": 52.6, "costs": -1.4, "simulationMode": [null, null, null, null, null], "rewards": [-1, 3, 2, 9, 41], "path": ["0", "0", "1", "2", "3", "4", "5"], "rt": [3749, 216, 236, 121, 160], "actions": ["up", "up", "up", "right", "up"], "actionTimes": [6279, 7014, 7752, 8387, 9058], "queries": {"click": {"state": {"target": ["5"], "time": [3502]}, "edge": {"target": [], "time": []}}, "mouseover": {"state": {"target": ["10", "8", "5", "4", "7"], "time": [2810, 2832, 3209, 4128, 4394]}, "edge": {"target": [], "time": []}}, "mouseout": {"state": {"target": ["1", "0", "10", "8", "5", "4"], "time": [1560, 2727, 2828, 2844, 4094, 4161]}, "edge": {"target": [], "time": []}}}, "displayed_time": "16.55", "trialTime": 17901, "trial_type": "mouselab-mdp", "trial_index": 48, "time_elapsed": 1225195, "internal_node_id": "0.0-4.0-1.0-39.0"}}, {"uniqueid": "w41434252:a98597973", "current_trial": 49, "dateTime": 1691143618643, "trialdata": {"rt": 51130, "response": {"Q0": "$-16 to 16", "Q1": "$-16 to $16", "Q2": "$-88 to $88", "Q3": "It was less costly to inspect further nodes.", "Q4": "Very motivated"}, "question_order": [0, 1, 2, 3, 4], "trial_id": "final_quiz_control", "trial_type": "survey-multi-choice", "trial_index": 49, "time_elapsed": 1276336, "internal_node_id": "0.0-4.0-2.0"}}, {"uniqueid": "w41434252:a98597973", "current_trial": 50, "dateTime": 1691143709768, "trialdata": {"rt": 91099, "response": {"Q0": "CLICK THR VALUES OF THE FURTHEST NODES", "Q1": "at first i was just checking then later i decided to reveal the values", "Q2": "it is unpredictable"}, "trial_id": "self_report_control", "trial_type": "survey-text", "trial_index": 50, "time_elapsed": 1367462, "internal_node_id": "0.0-4.0-3.0"}}, {"uniqueid": "w41434252:a98597973", "current_trial": 51, "dateTime": 1691143731789, "trialdata": {"rt": 22011, "response": {"gender": "female", "age": "20", "colorblind": "0", "effort": "0"}, "trial_type": "survey-html-form", "trial_index": 51, "time_elapsed": 1389482, "internal_node_id": "0.0-4.0-4.0"}}, {"uniqueid": "w41434252:a98597973", "current_trial": 52, "dateTime": 1691143765841, "trialdata": {"rt": 34041, "response": {"Q0": "no", "Q1": "no", "Q2": "no additional comment from me"}, "trial_type": "survey-text", "trial_index": 52, "time_elapsed": 1423534, "internal_node_id": "0.0-4.0-5.0"}}, {"uniqueid": "w41434252:a98597973", "current_trial": 53, "dateTime": 1691143767799, "trialdata": {"rt": 1948, "stimulus": "Press 'Finish HIT' in order to reach the completion code. Once the data has been saved, you will receive the code either in this window or in the original browser window where you started the experiment.\n", "response": 0, "trial_type": "html-button-response", "trial_index": 53, "time_elapsed": 1425493, "internal_node_id": "0.0-5.0"}}, {"uniqueid": "w41434252:a98597973", "current_trial": 54, "dateTime": 1691143768816, "trialdata": {"success": true, "trial_type": "fullscreen", "trial_index": 54, "time_elapsed": 1426510, "internal_node_id": "0.0-6.0"}}], "questiondata": {"params": {"CODE": "C6DMOQA6", "MIN_TIME": 14, "inspectCost": 1, "startTime": "Fri Aug 04 2023 11:45:40 GMT+0200 (South Africa Standard Time)", "bonusRate": 0.002, "variance": "1_2_4_8_44", "branching": "31123"}, "final_score": 1886}, "eventdata": [{"eventtype": "initialized", "value": null, "timestamp": 1691142340188, "interval": 0}, {"eventtype": "window_resize", "value": [1024, 748], "timestamp": 1691142340188, "interval": 0}, {"eventtype": "window_resize", "value": [1024, 748], "timestamp": 1691142340667, "interval": 479}, {"eventtype": "window_resize", "value": [1536, 864], "timestamp": 1691142345756, "interval": 5089}, {"eventtype": "focus", "value": "off", "timestamp": 1691143683618, "interval": 1337862}, {"eventtype": "focus", "value": "on", "timestamp": 1691143684823, "interval": 1205}, {"eventtype": "focus", "value": "off", "timestamp": 1691143689112, "interval": 4289}, {"eventtype": "focus", "value": "on", "timestamp": 1691143689347, "interval": 235}, {"eventtype": "window_resize", "value": [1024, 748], "timestamp": 1691143768118, "interval": 78771}], "useragent": "Mozilla/5.0 (Windows NT 10.0; Win64; x64) AppleWebKit/537.36 (KHTML, like Gecko) Chrome/115.0.0.0 Safari/537.36 Edg/115.0.1901.188", "mode": "live", "id": "w41434252:a98597973", "status": "user data saved", "Beginhit": "2023-08-04 09:45:37.466483", "Beginexp": "2023-08-04 09:45:46.721573", "Endhit": "2023-08-04 10:09:30.650664", "psiturkStatus": 3, "browser": "<redacted>", "platform": "windows", "language": "en-GB"}