{"condition": 0, "counterbalance": 0, "assignmentId": "a54768029", "workerId": "w91869494", "hitId": "h88066273", "currenttrial": 104, "bonus": 0, "data": [{"current_trial": 0, "dateTime": 1691145316151, "trialdata": {"internal_node_id": "0.0-0.0", "success": true, "time_elapsed": 6761, "trial_index": 0, "trial_type": "fullscreen"}, "uniqueid": "w91869494:a54768029"}, {"current_trial": 1, "dateTime": 1691145340375, "trialdata": {"internal_node_id": "0.0-1.0", "rt": 24208, "time_elapsed": 30985, "trial_id": "exp_instructions_control", "trial_index": 1, "trial_type": "instructions", "view_history": [{"page_index": 0, "viewing_time": 24207}]}, "uniqueid": "w91869494:a54768029"}, {"current_trial": 2, "dateTime": 1691145345039, "trialdata": {"internal_node_id": "0.0-2.0-0.0", "success": true, "time_elapsed": 35649, "trial_index": 2, "trial_type": "fullscreen"}, "uniqueid": "w91869494:a54768029"}, {"current_trial": 3, "dateTime": 1691145573074, "trialdata": {"internal_node_id": "0.0-2.0-1.0", "rt": 228026, "time_elapsed": 263683, "trial_id": "mouselab_instructions_1_control", "trial_index": 3, "trial_type": "instructions", "view_history": [{"page_index": 0, "viewing_time": 77505}, {"page_index": 1, "viewing_time": 89049}, {"page_index": 2, "viewing_time": 24310}, {"page_index": 3, "viewing_time": 37162}]}, "uniqueid": "w91869494:a54768029"}, {"current_trial": 4, "dateTime": 1691145606975, "trialdata": {"actionTimes": [21296, 21889, 22441, 23635, 24684], "actions": ["left", "left", "left", "up", "right"], "block": "test", "clicked_states": ["12", "14", "28", "27"], "costs": -2, "displayed_time": "25.26", "internal_node_id": "0.0-2.0-2.0-0.0", "num_clicks_accrued": [0, 0, 0, 0, 0, 0, 0, 0, 0, 0, 0, 0, 0], "path": ["0", "0", "23", "24", "25", "26", "28"], "queries": {"click": {"edge": {"target": [], "time": []}, "state": {"target": ["12", "14", "28", "27"], "time": [12660, 13906, 15743, 17243]}}, "mouseout": {"edge": {"target": [], "time": []}, "state": {"target": ["0", "14", "13", "12", "13", "14", "14", "15", "24", "28", "28", "26", "27", "28", "23", "24"], "time": [8388, 12044, 12163, 12857, 13631, 14104, 14669, 14886, 15324, 16355, 16451, 16556, 18006, 18437, 19240, 19878]}}, "mouseover": {"edge": {"target": [], "time": []}, "state": {"target": ["14", "13", "12", "13", "14", "15", "24", "28", "26", "27", "23", "24"], "time": [11863, 12098, 12259, 13518, 13716, 14678, 15276, 15411, 16458, 16852, 19157, 19475]}}}, "revealed_states": [], "rewards": [-10, -10, -10, -10, 10], "rt": [13251, 1, 5, 632, 461], "score": -28.5, "simulationMode": [null, null, null, null, null], "stateRewards": ["", -10, -10, -10, -10, 10, -10, -10, 10, -10, 10, -10, -10, -10, 10, 10, -10, -10, 10, -10, -10, 10, 10, -10, -10, -10, -10, -10, 10, 10, -10, 10, -10, -10], "time_elapsed": 297586, "trialIndex": 0, "trialTime": 32706, "trial_id": "practice_1", "trial_index": 4, "trial_type": "mouselab-mdp", "withholdReward": false}, "uniqueid": "w91869494:a54768029"}, {"current_trial": 5, "dateTime": 1691145650595, "trialdata": {"actionTimes": [23592, 24694, 26376, 27446, 28487], "actions": ["right", "right", "right", "up", "left"], "block": "test", "clicked_states": ["1", "28", "24", "13", "18"], "costs": -2.5, "displayed_time": "29.32", "internal_node_id": "0.0-2.0-2.0-1.0", "num_clicks_accrued": [0, 0, 0, 0, 0, 0, 0, 0, 0, 0, 0, 0, 0], "path": ["0", "0", "12", "13", "14", "15", "18"], "queries": {"click": {"edge": {"target": [], "time": []}, "state": {"target": ["1", "28", "24", "13", "18"], "time": [13297, 15937, 18583, 20855, 22438]}}, "mouseout": {"edge": {"target": [], "time": []}, "state": {"target": ["1", "0", "0", "2", "1", "28", "24", "12", "13", "18"], "time": [3201, 11253, 12506, 12752, 14454, 17197, 19667, 20083, 21825, 33966]}}, "mouseover": {"edge": {"target": [], "time": []}, "state": {"target": ["0", "2", "1", "28", "24", "12", "13", "18"], "time": [12133, 12624, 12870, 14967, 17321, 19915, 20211, 22058]}}}, "revealed_states": [], "rewards": [-10, 10, -10, 10, 10], "rt": [12702, 277, 853, 233, 212], "score": 11, "simulationMode": [null, null, null, null, null], "stateRewards": ["", -10, 10, -10, 10, 10, 10, -10, 10, -10, 10, -10, -10, 10, -10, 10, 10, 10, 10, -10, -10, 10, -10, -10, -10, 10, 10, 10, -10, -10, -10, 10, -10, 10], "time_elapsed": 341206, "trialIndex": 1, "trialTime": 35631, "trial_id": "practice_2", "trial_index": 5, "trial_type": "mouselab-mdp", "withholdReward": false}, "uniqueid": "w91869494:a54768029"}, {"current_trial": 6, "dateTime": 1691145710851, "trialdata": {"internal_node_id": "0.0-2.0-3.0", "rt": 60248, "time_elapsed": 401462, "trial_id": "mouselab_instructions_2_control", "trial_index": 6, "trial_type": "instructions", "view_history": [{"page_index": 0, "viewing_time": 41591}, {"page_index": 1, "viewing_time": 18656}]}, "uniqueid": "w91869494:a54768029"}, {"current_trial": 7, "dateTime": 1691145946918, "trialdata": {"correct": {"Q0": "The cost for clicking on nodes may vary between nodes.", "Q1": "The better I perform the higher my bonus will be.", "Q2": "No, the amount of cash at each node of the web may be different each time.", "Q3": "To get the highest total score.", "Q4": "Only before moving the spider.", "Q5": "3 seconds"}, "internal_node_id": "0.0-2.0-4.0", "question_order": [0, 1, 2, 3, 4, 5], "response": {"Q0": "The cost for clicking on nodes may vary between nodes.", "Q1": "The better I perform the higher my bonus will be.", "Q2": "No, the amount of cash at each node of the web may be different each time.", "Q3": "To get the highest total score.", "Q4": "Only before moving the spider.", "Q5": "3 seconds"}, "rt": 236050, "time_elapsed": 637529, "trial_id": "mouselab_quiz_control", "trial_index": 7, "trial_type": "survey-multi-choice"}, "uniqueid": "w91869494:a54768029"}, {"current_trial": 8, "dateTime": 1691145956961, "trialdata": {"internal_node_id": "0.0-4.0-0.0", "response": " ", "rt": 10030, "stimulus": "\n<h1> Get ready to start the game! </h1>\n\nThank you for reading the instructions. Get ready start with the 40 rounds of this game.\n<br><br>\nIf you need to take a break, feel free to take one after the end of a round, before continuing to the next one.\n<br><br>\nRemember, the more money the spider gets, the bigger your bonus will be!\n<br><br>\n<div style='text-align: center;'>Press <code>space</code> to begin.</div>\n\n<br><br>\n(If, at any point, the <code>space</code> key does not take you to the next page, click once on the text and try again.)", "time_elapsed": 647571, "trial_id": "mdp_ready", "trial_index": 8, "trial_type": "html-keyboard-response"}, "uniqueid": "w91869494:a54768029"}, {"current_trial": 9, "dateTime": 1691146007250, "trialdata": {"actionTimes": [22186, 22552, 24177, 25181, 26147, 29851], "actions": ["right", "right", "right", "right", "down", "right"], "block": "test", "clicked_states": ["13", "15", "19"], "costs": -4.199999999999999, "displayed_time": "30.61", "internal_node_id": "0.0-4.0-1.0-0.0", "num_clicks_accrued": [0, 0, 0, 0, 0, 0, 0, 0, 0, 0, 0, 0, 0], "path": ["0", "0", "12", "13", "14", "19", "20"], "queries": {"click": {"edge": {"target": [], "time": []}, "state": {"target": ["13", "15", "19"], "time": [15259, 18148, 21806]}}, "mouseout": {"edge": {"target": [], "time": []}, "state": {"target": ["3", "1", "0", "0", "13", "18", "15", "14", "19", "19", "13", "18", "15", "14"], "time": [4927, 5340, 5949, 14415, 16241, 17454, 19139, 20326, 20709, 23283, 23866, 37528, 37926, 38377]}}, "mouseover": {"edge": {"target": [], "time": []}, "state": {"target": ["0", "13", "18", "15", "14", "19", "19"], "time": [13558, 15019, 16481, 17594, 19378, 20584, 21345]}}}, "revealed_states": [], "rewards": [2, 2, 4, 14, -53], "rt": [9238, 241, 553, 147, 111, 2852], "score": -35.2, "simulationMode": [null, null, null, null, null, null], "stateRewards": ["", 1, 2, -3, -6, 50, -7, 7, -7, -80, 21, -1, 2, 2, 4, -1, 33, 84, 1, 14, -53, 81, 6, -2, -2, -3, -9, -87, -38, -59, -5, -74, -3, -71], "time_elapsed": 697861, "trialIndex": 2, "trialTime": 42352, "trial_id": "mdp_trial_1", "trial_index": 9, "trial_type": "mouselab-mdp", "withholdReward": false}, "uniqueid": "w91869494:a54768029"}, {"current_trial": 10, "dateTime": 1691146046209, "trialdata": {"actionTimes": [16984, 17826, 19027, 21905, 24945], "actions": ["left", "left", "left", "down", "right"], "block": "test", "clicked_states": ["1", "24", "25"], "costs": -4.199999999999999, "displayed_time": "25.78", "internal_node_id": "0.0-4.0-1.0-1.0", "num_clicks_accrued": [0, 0, 0, 0, 0, 0, 0, 0, 0, 0, 0, 0, 0], "path": ["0", "0", "23", "24", "25", "30", "31"], "queries": {"click": {"edge": {"target": [], "time": []}, "state": {"target": ["1", "24", "25"], "time": [10072, 13328, 15186]}}, "mouseout": {"edge": {"target": [], "time": []}, "state": {"target": ["12", "0", "0", "1", "2", "23", "24", "25", "24", "23"], "time": [449, 8737, 9726, 10553, 11765, 12743, 13570, 16283, 16518, 30089]}}, "mouseover": {"edge": {"target": [], "time": []}, "state": {"target": ["0", "1", "2", "23", "24", "25"], "time": [9360, 9840, 10793, 12242, 12871, 14540]}}}, "revealed_states": [], "rewards": [1, 2, 1, 4, -6], "rt": [8853, 5, 459, 2040, 2202], "score": -2.1999999999999993, "simulationMode": [null, null, null, null, null], "stateRewards": ["", -2, -3, -5, 8, 27, 11, 43, -6, -24, -87, 69, -2, 1, 1, 9, 19, 48, -37, 9, -14, 45, 62, 1, 2, 1, 16, -81, -41, 22, 4, -6, -63, 47], "time_elapsed": 736819, "trialIndex": 3, "trialTime": 31333, "trial_id": "mdp_trial_2", "trial_index": 10, "trial_type": "mouselab-mdp", "withholdReward": false}, "uniqueid": "w91869494:a54768029"}, {"current_trial": 11, "dateTime": 1691146093695, "trialdata": {"actionTimes": [24182, 24538, 26180, 27009, 30880, 33017], "actions": ["left", "left", "left", "left", "down", "down"], "block": "test", "clicked_states": ["3", "28", "25", "23"], "costs": -5.6, "displayed_time": "33.86", "internal_node_id": "0.0-4.0-1.0-2.0", "num_clicks_accrued": [0, 0, 0, 0, 0, 0, 0, 0, 0, 0, 0, 0, 0], "path": ["0", "0", "23", "24", "25", "30", "32"], "queries": {"click": {"edge": {"target": [], "time": []}, "state": {"target": ["3", "28", "25", "23"], "time": [11997, 16272, 20120, 22836]}}, "mouseout": {"edge": {"target": [], "time": []}, "state": {"target": ["0", "1", "2", "3", "9", "28", "24", "25", "24", "23"], "time": [10856, 11096, 11395, 13077, 14761, 17147, 19413, 21113, 22071, 37276]}}, "mouseover": {"edge": {"target": [], "time": []}, "state": {"target": ["1", "2", "3", "9", "28", "24", "25", "24", "23"], "time": [10972, 11210, 11523, 13313, 15728, 17386, 19542, 21224, 22183]}}}, "revealed_states": [], "rewards": [1, -1, 6, -8, 11], "rt": [14925, 237, 689, 1, 3033, 1398], "score": 3.4000000000000004, "simulationMode": [null, null, null, null, null, null], "stateRewards": ["", 1, -2, -2, 10, -31, -77, 35, 9, -47, 8, 48, -2, 1, -4, -3, -26, -50, 43, -11, 76, -38, 17, 1, -1, 6, 10, 15, -9, 12, -8, 85, 11, -55], "time_elapsed": 784306, "trialIndex": 4, "trialTime": 39918, "trial_id": "mdp_trial_3", "trial_index": 11, "trial_type": "mouselab-mdp", "withholdReward": false}, "uniqueid": "w91869494:a54768029"}, {"current_trial": 12, "dateTime": 1691146140998, "trialdata": {"actionTimes": [20458, 22040, 24312, 25154, 26547], "actions": ["left", "left", "left", "up", "up"], "block": "test", "clicked_states": ["12", "30", "24", "14"], "costs": -5.6, "displayed_time": "27.38", "internal_node_id": "0.0-4.0-1.0-3.0", "num_clicks_accrued": [0, 0, 0, 0, 0, 0, 0, 0, 0, 0, 0, 0, 0], "path": ["0", "0", "23", "24", "25", "26", "27"], "queries": {"click": {"edge": {"target": [], "time": []}, "state": {"target": ["12", "30", "24", "14"], "time": [10580, 12983, 16133, 18603]}}, "mouseout": {"edge": {"target": [], "time": []}, "state": {"target": ["0", "0", "12", "0", "1", "30", "30", "25", "24", "23", "13", "14"], "time": [898, 9538, 11565, 11916, 12271, 13217, 14295, 15368, 17109, 17458, 18054, 19940]}}, "mouseover": {"edge": {"target": [], "time": []}, "state": {"target": ["12", "0", "1", "30", "25", "24", "23", "13", "14"], "time": [9842, 11679, 12032, 12628, 14534, 15492, 17223, 17813, 18166]}}}, "revealed_states": [], "rewards": [-1, 2, 7, 12, 33], "rt": [12275, 597, 1417, 1, 569], "score": 47.4, "simulationMode": [null, null, null, null, null], "stateRewards": ["", 1, 1, -7, -9, -44, 24, -83, -15, 44, -24, 72, -2, -3, 4, -5, 57, 55, 29, -11, 22, 12, -25, -1, 2, 7, 12, 33, -8, 47, -4, 8, 50, -4], "time_elapsed": 831609, "trialIndex": 5, "trialTime": 39646, "trial_id": "mdp_trial_4", "trial_index": 12, "trial_type": "mouselab-mdp", "withholdReward": false}, "uniqueid": "w91869494:a54768029"}, {"current_trial": 13, "dateTime": 1691146185161, "trialdata": {"actionTimes": [15789, 17347, 18193, 19728, 21405], "actions": ["up", "up", "up", "right", "down"], "block": "test", "clicked_states": [], "costs": 0, "displayed_time": "28.79", "internal_node_id": "0.0-4.0-1.0-4.0", "num_clicks_accrued": [0, 0, 0, 0, 0, 0, 0, 0, 0, 0, 0, 0, 0], "path": ["0", "0", "1", "2", "3", "4", "7"], "queries": {"click": {"edge": {"target": [], "time": []}, "state": {"target": [], "time": []}}, "mouseout": {"edge": {"target": [], "time": []}, "state": {"target": ["0", "0"], "time": [27254, 34601]}}, "mouseover": {"edge": {"target": [], "time": []}, "state": {"target": [], "time": []}}}, "revealed_states": [], "rewards": [2, -3, -4, -1, 16], "rt": [1783, 697, 2, 673, 826], "score": 10, "simulationMode": [null, null, null, null, null], "stateRewards": ["", 2, -3, -4, -1, 25, -16, 16, 10, -71, -20, -55, 1, 3, -4, -9, 1, 32, 11, -6, 32, -50, -41, -1, 4, 4, -8, 7, -81, 70, 2, -52, 45, -10], "time_elapsed": 875771, "trialIndex": 6, "trialTime": 36573, "trial_id": "mdp_trial_5", "trial_index": 13, "trial_type": "mouselab-mdp", "withholdReward": false}, "uniqueid": "w91869494:a54768029"}, {"current_trial": 14, "dateTime": 1691146231039, "trialdata": {"actionTimes": [19651, 20570, 21560, 23267, 24987], "actions": ["right", "right", "right", "down", "right"], "block": "test", "clicked_states": [], "costs": 0, "displayed_time": "32.82", "internal_node_id": "0.0-4.0-1.0-5.0", "num_clicks_accrued": [0, 0, 0, 0, 0, 0, 0, 0, 0, 0, 0, 0, 0], "path": ["0", "0", "12", "13", "14", "19", "20"], "queries": {"click": {"edge": {"target": [], "time": []}, "state": {"target": [], "time": []}}, "mouseout": {"edge": {"target": [], "time": []}, "state": {"target": ["0", "0"], "time": [19120, 36397]}}, "mouseover": {"edge": {"target": [], "time": []}, "state": {"target": ["0"], "time": [19503]}}}, "revealed_states": [], "rewards": [1, 2, -7, 16, -10], "rt": [1898, 155, 113, 835, 956], "score": 2, "simulationMode": [null, null, null, null, null], "stateRewards": ["", 2, -1, 5, 8, 75, -35, -77, 1, -9, -81, -58, 1, 2, -7, 5, 77, -16, 19, 16, -10, -18, 40, -2, 3, 7, -5, 64, 1, -62, 10, 27, 10, 65], "time_elapsed": 921650, "trialIndex": 7, "trialTime": 38260, "trial_id": "mdp_trial_6", "trial_index": 14, "trial_type": "mouselab-mdp", "withholdReward": false}, "uniqueid": "w91869494:a54768029"}, {"current_trial": 15, "dateTime": 1691146264183, "trialdata": {"actionTimes": [9808, 10570, 11858, 13047, 14015], "actions": ["up", "up", "up", "left", "down"], "block": "test", "clicked_states": [], "costs": 0, "displayed_time": "22.98", "internal_node_id": "0.0-4.0-1.0-6.0", "num_clicks_accrued": [0, 0, 0, 0, 0, 0, 0, 0, 0, 0, 0, 0, 0], "path": ["0", "0", "1", "2", "3", "8", "10"], "queries": {"click": {"edge": {"target": [], "time": []}, "state": {"target": [], "time": []}}, "mouseout": {"edge": {"target": [], "time": []}, "state": {"target": ["0"], "time": [1133]}}, "mouseover": {"edge": {"target": [], "time": []}, "state": {"target": ["0"], "time": [8869]}}}, "revealed_states": [], "rewards": [1, 1, -5, -6, -22], "rt": [1542, 2, 531, 333, 107], "score": -31, "simulationMode": [null, null, null, null, null], "stateRewards": ["", 1, 1, -5, 8, -6, 45, 16, -6, -7, -22, -38, -1, -4, 8, -11, -16, 21, -45, -15, -59, -32, 42, -1, 3, 6, 11, -7, 34, -27, -8, 85, 43, -9], "time_elapsed": 954793, "trialIndex": 8, "trialTime": 25596, "trial_id": "mdp_trial_7", "trial_index": 15, "trial_type": "mouselab-mdp", "withholdReward": false}, "uniqueid": "w91869494:a54768029"}, {"current_trial": 16, "dateTime": 1691146336674, "trialdata": {"actionTimes": [18162, 53742, 60113, 61229, 62136], "actions": ["right", "right", "right", "down", "down"], "block": "test", "clicked_states": ["2", "4", "10"], "costs": -4.199999999999999, "displayed_time": "62.89", "internal_node_id": "0.0-4.0-1.0-7.0", "num_clicks_accrued": [0, 0, 0, 0, 0, 0, 0, 0, 0, 0, 0, 0, 0], "path": ["0", "0", "12", "13", "14", "19", "21"], "queries": {"click": {"edge": {"target": [], "time": []}, "state": {"target": ["2", "4", "10"], "time": [10784, 13537, 16474]}}, "mouseout": {"edge": {"target": [], "time": []}, "state": {"target": ["0", "0", "2", "7", "4", "3", "10", "1"], "time": [null, 10221, 11891, 12788, 14632, 15744, 17604, 42781]}}, "mouseover": {"edge": {"target": [], "time": []}, "state": {"target": ["2", "7", "4", "3", "10"], "time": [10363, 12008, 12921, 14748, 15868]}}}, "revealed_states": [], "rewards": [-2, -1, -5, -16, 40], "rt": [10048, 34810, 5623, 356, 162], "score": 11.8, "simulationMode": [null, null, null, null, null], "stateRewards": ["", -1, -3, 4, -10, -5, 79, -87, -2, 53, 29, -20, -2, -1, -5, 10, 27, 86, 46, -16, -29, 40, 3, 2, 4, -1, -6, 37, 79, -29, 7, 86, -62, 29], "time_elapsed": 1027284, "trialIndex": 9, "trialTime": 64715, "trial_id": "mdp_trial_8", "trial_index": 16, "trial_type": "mouselab-mdp", "withholdReward": false}, "uniqueid": "w91869494:a54768029"}, {"current_trial": 17, "dateTime": 1691146377656, "trialdata": {"actionTimes": [16085, 16716, 17474, 18647, 19398], "actions": ["up", "up", "up", "left", "left"], "block": "test", "clicked_states": ["10", "11"], "costs": -2.8, "displayed_time": "26.27", "internal_node_id": "0.0-4.0-1.0-8.0", "num_clicks_accrued": [0, 0, 0, 0, 0, 0, 0, 0, 0, 0, 0, 0, 0], "path": ["0", "0", "1", "2", "3", "8", "11"], "queries": {"click": {"edge": {"target": [], "time": []}, "state": {"target": ["10", "11"], "time": [10974, 13199]}}, "mouseout": {"edge": {"target": [], "time": []}, "state": {"target": ["0", "0", "10", "8", "11", "9", "5"], "time": [1286, 10225, 12003, 12724, 13682, 14666, 31114]}}, "mouseover": {"edge": {"target": [], "time": []}, "state": {"target": ["10", "8", "11", "9", "5"], "time": [10476, 12117, 12838, 13794, 15284]}}}, "revealed_states": [], "rewards": [-2, 2, -5, -6, 81], "rt": [7569, 3, 2, 307, 3], "score": 67.2, "simulationMode": [null, null, null, null, null], "stateRewards": ["", -2, 2, -5, 1, 42, -63, -58, -6, 2, 16, 81, -2, 4, 7, -10, 33, 3, -33, -2, -52, -84, -27, 2, -3, -3, 15, -74, -14, -5, -5, -84, 79, -31], "time_elapsed": 1068266, "trialIndex": 10, "trialTime": 33383, "trial_id": "mdp_trial_9", "trial_index": 17, "trial_type": "mouselab-mdp", "withholdReward": false}, "uniqueid": "w91869494:a54768029"}, {"current_trial": 18, "dateTime": 1691146422819, "trialdata": {"actionTimes": [27823, 28449, 29203, 30035, 30867, 32529], "actions": ["left", "left", "left", "left", "down", "right"], "block": "test", "clicked_states": ["11", "5", "7", "25", "30"], "costs": -7, "displayed_time": "33.28", "internal_node_id": "0.0-4.0-1.0-9.0", "num_clicks_accrued": [0, 0, 0, 0, 0, 0, 0, 0, 0, 0, 0, 0, 0], "path": ["0", "0", "23", "24", "25", "30", "31"], "queries": {"click": {"edge": {"target": [], "time": []}, "state": {"target": ["11", "5", "7", "25", "30"], "time": [14631, 17929, 20808, 23848, 26486]}}, "mouseout": {"edge": {"target": [], "time": []}, "state": {"target": ["0", "8", "11", "8", "9", "5", "5", "4", "6", "7", "24", "25", "24", "24", "30"], "time": [13879, 14118, 15131, 16257, 17110, 17368, 18436, 19517, 20235, 21438, 22965, 24468, 24822, 25907, 26985]}}, "mouseover": {"edge": {"target": [], "time": []}, "state": {"target": ["0", "8", "11", "8", "9", "5", "5", "4", "6", "7", "24", "25", "24", "24", "30"], "time": [12744, 13994, 14232, 15383, 16372, 17224, 17494, 18675, 19630, 20349, 22301, 23297, 24584, 25059, 26021]}}}, "revealed_states": [], "rewards": [1, 3, 4, 2, 10], "rt": [15693, 507, 2, 1, 3, 721], "score": 13, "simulationMode": [null, null, null, null, null, null], "stateRewards": ["", -2, 1, 6, -2, -10, -78, -69, 14, -15, 7, -1, 1, -1, -2, 13, 77, 32, 87, 5, -74, 30, -26, 1, 3, 4, 12, 39, 54, -43, 2, 10, 23, 13], "time_elapsed": 1113429, "trialIndex": 11, "trialTime": 37552, "trial_id": "mdp_trial_10", "trial_index": 18, "trial_type": "mouselab-mdp", "withholdReward": false}, "uniqueid": "w91869494:a54768029"}, {"current_trial": 19, "dateTime": 1691146467789, "trialdata": {"actionTimes": [24265, 25256, 25986, 26835, 27677], "actions": ["up", "up", "up", "left", "up"], "block": "test", "clicked_states": ["13", "15", "2"], "costs": -4.199999999999999, "displayed_time": "28.51", "internal_node_id": "0.0-4.0-1.0-10.0", "num_clicks_accrued": [0, 0, 0, 0, 0, 0, 0, 0, 0, 0, 0, 0, 0], "path": ["0", "0", "1", "2", "3", "8", "9"], "queries": {"click": {"edge": {"target": [], "time": []}, "state": {"target": ["13", "15", "2"], "time": [13997, 16727, 19939]}}, "mouseout": {"edge": {"target": [], "time": []}, "state": {"target": ["0", "1", "13", "13", "14", "15", "16", "7", "2", "3", "4", "2"], "time": [12741, 13101, 13442, 15250, 16227, 17450, 18473, 18836, 20910, 21394, 22738, 22960]}}, "mouseover": {"edge": {"target": [], "time": []}, "state": {"target": ["1", "13", "13", "14", "15", "16", "7", "2", "3", "4"], "time": [12873, 13243, 13576, 15368, 16342, 17692, 18604, 19125, 21152, 21508]}}}, "revealed_states": [], "rewards": [1, 1, 1, 14, -57], "rt": [12739, 135, 1, 3, 2], "score": -44.2, "simulationMode": [null, null, null, null, null], "stateRewards": ["", 1, 1, 1, 15, -76, 52, -32, 14, -57, 37, 49, 1, -4, -3, 6, 83, -76, 25, 9, 36, -1, -17, -1, 4, 4, -2, -22, -21, 58, -15, -57, 49, -24], "time_elapsed": 1158400, "trialIndex": 12, "trialTime": 37407, "trial_id": "mdp_trial_11", "trial_index": 19, "trial_type": "mouselab-mdp", "withholdReward": false}, "uniqueid": "w91869494:a54768029"}, {"current_trial": 20, "dateTime": 1691146510501, "trialdata": {"actionTimes": [16449, 17294, 18317, 19076, 19964], "actions": ["right", "right", "right", "down", "down"], "block": "test", "clicked_states": ["19", "21"], "costs": -2.8, "displayed_time": "25.11", "internal_node_id": "0.0-4.0-1.0-11.0", "num_clicks_accrued": [0, 0, 0, 0, 0, 0, 0, 0, 0, 0, 0, 0, 0], "path": ["0", "0", "12", "13", "14", "19", "21"], "queries": {"click": {"edge": {"target": [], "time": []}, "state": {"target": ["19", "21"], "time": [10742, 13079]}}, "mouseout": {"edge": {"target": [], "time": []}, "state": {"target": ["0", "19", "20", "21", "22", "13"], "time": [9718, 11383, 12601, 13935, 15268, 32959]}}, "mouseover": {"edge": {"target": [], "time": []}, "state": {"target": ["19", "20", "21", "22", "13"], "time": [10210, 11627, 12715, 14177, 15382]}}}, "revealed_states": [], "rewards": [-1, -1, 3, 4, 65], "rt": [8236, 2, 179, 22, 4], "score": 67.2, "simulationMode": [null, null, null, null, null], "stateRewards": ["", 2, 3, -3, 12, -43, 81, -82, -15, 58, -7, -75, -1, -1, 3, -5, 50, -25, -8, 4, 66, 65, -66, 2, -4, 2, -1, -10, 10, 37, 11, 88, -37, 8], "time_elapsed": 1201111, "trialIndex": 13, "trialTime": 34951, "trial_id": "mdp_trial_12", "trial_index": 20, "trial_type": "mouselab-mdp", "withholdReward": false}, "uniqueid": "w91869494:a54768029"}, {"current_trial": 21, "dateTime": 1691146578335, "trialdata": {"actionTimes": [16085, 16843, 17912, 19616, 22337], "actions": ["up", "up", "up", "right", "up"], "block": "test", "clicked_states": [], "costs": 0, "displayed_time": "24.10", "internal_node_id": "0.0-4.0-1.0-12.0", "num_clicks_accrued": [0, 0, 0, 0, 0, 0, 0, 0, 0, 0, 0, 0, 0], "path": ["0", "0", "1", "2", "3", "4", "5"], "queries": {"click": {"edge": {"target": [], "time": []}, "state": {"target": [], "time": []}}, "mouseout": {"edge": {"target": [], "time": []}, "state": {"target": ["0", "2", "25", "26", "24", "23"], "time": [1848, 10859, 12020, 13203, 15456, 57943]}}, "mouseover": {"edge": {"target": [], "time": []}, "state": {"target": ["2", "25", "26", "24", "23"], "time": [10664, 11895, 12166, 15330, 15580]}}}, "revealed_states": [], "rewards": [2, -3, -8, 14, -7], "rt": [7270, 1, 165, 958, 1866], "score": -2, "simulationMode": [null, null, null, null, null], "stateRewards": ["", 2, -3, -8, 14, -7, -51, 73, 2, 36, 36, -43, -1, 3, -4, 1, 6, 87, -65, 15, 61, -42, -83, -1, 3, -2, -7, 30, -48, 35, 13, 26, 60, 78], "time_elapsed": 1268946, "trialIndex": 14, "trialTime": 60161, "trial_id": "mdp_trial_13", "trial_index": 21, "trial_type": "mouselab-mdp", "withholdReward": false}, "uniqueid": "w91869494:a54768029"}, {"current_trial": 22, "dateTime": 1691146639075, "trialdata": {"actionTimes": [13334, 14351, 15329, 16351, 17099], "actions": ["up", "up", "up", "right", "down"], "block": "test", "clicked_states": [], "costs": 0, "displayed_time": "23.38", "internal_node_id": "0.0-4.0-1.0-13.0", "num_clicks_accrued": [0, 0, 0, 0, 0, 0, 0, 0, 0, 0, 0, 0, 0], "path": ["0", "0", "1", "2", "3", "4", "7"], "queries": {"click": {"edge": {"target": [], "time": []}, "state": {"target": [], "time": []}}, "mouseout": {"edge": {"target": [], "time": []}, "state": {"target": ["0", "1", "1"], "time": [10977, 11465, 51844]}}, "mouseover": {"edge": {"target": [], "time": []}, "state": {"target": ["1", "1"], "time": [11339, 12645]}}}, "revealed_states": [], "rewards": [-2, -1, -3, -1, 2], "rt": [4476, 260, 225, 177, 1], "score": -5, "simulationMode": [null, null, null, null, null], "stateRewards": ["", -2, -1, -3, -1, -78, -6, 2, -1, 22, -88, 32, 2, 2, -7, -8, -51, -17, 54, 2, -44, 54, 75, 2, -2, -8, -15, -29, 12, -67, 15, -1, -47, -47], "time_elapsed": 1329686, "trialIndex": 15, "trialTime": 53109, "trial_id": "mdp_trial_14", "trial_index": 22, "trial_type": "mouselab-mdp", "withholdReward": false}, "uniqueid": "w91869494:a54768029"}, {"current_trial": 23, "dateTime": 1691146679501, "trialdata": {"actionTimes": [20588, 21459, 22994, 24090, 24877], "actions": ["up", "up", "up", "left", "left"], "block": "test", "clicked_states": ["2", "11"], "costs": -2.8, "displayed_time": "27.01", "internal_node_id": "0.0-4.0-1.0-14.0", "num_clicks_accrued": [0, 0, 0, 0, 0, 0, 0, 0, 0, 0, 0, 0, 0], "path": ["0", "0", "1", "2", "3", "8", "11"], "queries": {"click": {"edge": {"target": [], "time": []}, "state": {"target": ["2", "11"], "time": [13489, 17170]}}, "mouseout": {"edge": {"target": [], "time": []}, "state": {"target": ["0", "0", "2", "8", "8", "11", "11", "10", "2"], "time": [3909, 12695, 14371, 15908, 16585, 17409, 18037, 19672, 31484]}}, "mouseover": {"edge": {"target": [], "time": []}, "state": {"target": ["0", "2", "8", "8", "11", "10"], "time": [12453, 12957, 14738, 16459, 16710, 18410]}}}, "revealed_states": [], "rewards": [-1, 1, -2, 8, 76], "rt": [9732, 3, 684, 355, 3], "score": 79.2, "simulationMode": [null, null, null, null, null], "stateRewards": ["", -1, 1, -2, 5, 73, 15, 61, 8, 7, 38, 76, 2, 2, -4, -6, -6, -26, 43, -5, -45, -85, -35, -2, 1, -4, 15, -10, 69, 72, -11, 84, -49, -38], "time_elapsed": 1370112, "trialIndex": 16, "trialTime": 32795, "trial_id": "mdp_trial_15", "trial_index": 23, "trial_type": "mouselab-mdp", "withholdReward": false}, "uniqueid": "w91869494:a54768029"}, {"current_trial": 24, "dateTime": 1691146733503, "trialdata": {"actionTimes": [23986, 24765, 25716, 26560, 41801], "actions": ["left", "left", "left", "down", "down"], "block": "test", "clicked_states": ["6", "26", "27", "30"], "costs": -5.6, "displayed_time": "42.55", "internal_node_id": "0.0-4.0-1.0-15.0", "num_clicks_accrued": [0, 0, 0, 0, 0, 0, 0, 0, 0, 0, 0, 0, 0], "path": ["0", "0", "23", "24", "25", "30", "32"], "queries": {"click": {"edge": {"target": [], "time": []}, "state": {"target": ["6", "26", "27", "30"], "time": [12878, 15392, 17405, 20483]}}, "mouseout": {"edge": {"target": [], "time": []}, "state": {"target": ["0", "1", "7", "6", "28", "26", "27", "27", "29", "25", "30", "31", "0", "12"], "time": [11365, 11862, 12238, 13383, 14851, 15643, 16636, 17768, 19009, 19589, 21101, 22329, 22784, 23036]}}, "mouseover": {"edge": {"target": [], "time": []}, "state": {"target": ["1", "7", "6", "28", "26", "27", "27", "29", "25", "30", "31", "0", "12"], "time": [11736, 11976, 12362, 13998, 14963, 15882, 16877, 17882, 19369, 19713, 21459, 22574, 22912]}}}, "revealed_states": [], "rewards": [-1, 1, 7, 16, 47], "rt": [13981, 4, 2, 1, 14415], "score": 64.4, "simulationMode": [null, null, null, null, null], "stateRewards": ["", -2, -3, 7, -13, 60, 9, 37, -6, 37, 20, 1, 2, -2, -8, 6, -80, -31, -10, -7, 70, -65, -44, -1, 1, 7, 6, -11, 73, -85, 16, -21, 47, 34], "time_elapsed": 1424114, "trialIndex": 17, "trialTime": 46365, "trial_id": "mdp_trial_16", "trial_index": 24, "trial_type": "mouselab-mdp", "withholdReward": false}, "uniqueid": "w91869494:a54768029"}, {"current_trial": 25, "dateTime": 1691146776938, "trialdata": {"actionTimes": [15592, 16593, 17452, 18300, 19065], "actions": ["right", "right", "right", "down", "down"], "block": "test", "clicked_states": [], "costs": 0, "displayed_time": "24.20", "internal_node_id": "0.0-4.0-1.0-16.0", "num_clicks_accrued": [0, 0, 0, 0, 0, 0, 0, 0, 0, 0, 0, 0, 0], "path": ["0", "0", "12", "13", "14", "19", "21"], "queries": {"click": {"edge": {"target": [], "time": []}, "state": {"target": [], "time": []}}, "mouseout": {"edge": {"target": [], "time": []}, "state": {"target": ["0", "0", "0", "0", "12", "13", "14", "19", "20"], "time": [898, 11742, 12032, 12573, 12826, 13146, 13387, 14402, 34870]}}, "mouseover": {"edge": {"target": [], "time": []}, "state": {"target": ["0", "0", "12", "13", "14", "19", "20"], "time": [11880, 12312, 12699, 13016, 13263, 13501, 14527]}}}, "revealed_states": [], "rewards": [1, -2, 1, -7, -62], "rt": [7204, 140, 4, 4, 1], "score": -69, "simulationMode": [null, null, null, null, null], "stateRewards": ["", -2, -4, 6, 14, -34, 49, 36, -8, -3, 32, -4, 1, -2, 1, -8, -20, -71, -57, -7, -86, -62, -16, -2, -3, -5, 11, 23, -21, 53, 5, -5, 85, 73], "time_elapsed": 1467548, "trialIndex": 18, "trialTime": 35701, "trial_id": "mdp_trial_17", "trial_index": 25, "trial_type": "mouselab-mdp", "withholdReward": false}, "uniqueid": "w91869494:a54768029"}, {"current_trial": 26, "dateTime": 1691146828471, "trialdata": {"actionTimes": [24920, 25662, 26421, 27165, 39411], "actions": ["up", "up", "up", "right", "up"], "block": "test", "clicked_states": [], "costs": 0, "displayed_time": "40.16", "internal_node_id": "0.0-4.0-1.0-17.0", "num_clicks_accrued": [0, 0, 0, 0, 0, 0, 0, 0, 0, 0, 0, 0, 0], "path": ["0", "0", "1", "2", "3", "4", "5"], "queries": {"click": {"edge": {"target": [], "time": []}, "state": {"target": [], "time": []}}, "mouseout": {"edge": {"target": [], "time": []}, "state": {"target": ["0", "12", "12", "13"], "time": [22218, 22479, 24042, 42941]}}, "mouseover": {"edge": {"target": [], "time": []}, "state": {"target": ["12", "12", "13"], "time": [22351, 22662, 24168]}}}, "revealed_states": [], "rewards": [2, -1, 8, -2, -16], "rt": [10319, 2, 4, 1, 11391], "score": -9, "simulationMode": [null, null, null, null, null], "stateRewards": ["", 2, -1, 8, -2, -16, 69, -39, -7, -13, -27, -86, 2, -2, 2, 13, -34, -16, -20, -5, 19, 81, 32, -2, -1, 2, -14, 20, 80, 58, 4, 70, 12, 73], "time_elapsed": 1519082, "trialIndex": 19, "trialTime": 43810, "trial_id": "mdp_trial_18", "trial_index": 26, "trial_type": "mouselab-mdp", "withholdReward": false}, "uniqueid": "w91869494:a54768029"}, {"current_trial": 27, "dateTime": 1691146870841, "trialdata": {"actionTimes": [23214, 23458, 24327, 25708, 26886, 27727], "actions": ["right", "right", "right", "right", "up", "right"], "block": "test", "clicked_states": ["2", "18", "13", "17", "19"], "costs": -7, "displayed_time": "29.50", "internal_node_id": "0.0-4.0-1.0-18.0", "num_clicks_accrued": [0, 0, 0, 0, 0, 0, 0, 0, 0, 0, 0, 0, 0], "path": ["0", "0", "12", "13", "14", "15", "17"], "queries": {"click": {"edge": {"target": [], "time": []}, "state": {"target": ["2", "18", "13", "17", "19"], "time": [12138, 14510, 17501, 19972, 21863]}}, "mouseout": {"edge": {"target": [], "time": []}, "state": {"target": ["0", "2", "2", "7", "18", "14", "13", "14", "17", "19"], "time": [2574, 12375, 13104, 13901, 15604, 16860, 17866, 19226, 20818, 33138]}}, "mouseover": {"edge": {"target": [], "time": []}, "state": {"target": ["2", "7", "18", "14", "13", "14", "17", "19"], "time": [11897, 13218, 14019, 16092, 16986, 18481, 19341, 21181]}}}, "revealed_states": [], "rewards": [-2, 1, 7, 8, 29], "rt": [13681, 123, 3, 544, 340, 2], "score": 36, "simulationMode": [null, null, null, null, null, null], "stateRewards": ["", -2, 2, 5, -14, -56, 64, 84, -5, 52, 39, 85, -2, 1, 7, 8, 21, 29, -78, -9, -10, -69, 10, -2, -1, -7, 15, 72, 20, 41, -2, 52, 80, 22], "time_elapsed": 1561452, "trialIndex": 20, "trialTime": 34800, "trial_id": "mdp_trial_19", "trial_index": 27, "trial_type": "mouselab-mdp", "withholdReward": false}, "uniqueid": "w91869494:a54768029"}, {"current_trial": 28, "dateTime": 1691146911863, "trialdata": {"actionTimes": [24482, 25478, 26398, 27266, 28214], "actions": ["right", "right", "right", "down", "left"], "block": "test", "clicked_states": [], "costs": 0, "displayed_time": "29.06", "internal_node_id": "0.0-4.0-1.0-19.0", "num_clicks_accrued": [0, 0, 0, 0, 0, 0, 0, 0, 0, 0, 0, 0, 0], "path": ["0", "0", "12", "13", "14", "19", "22"], "queries": {"click": {"edge": {"target": [], "time": []}, "state": {"target": [], "time": []}}, "mouseout": {"edge": {"target": [], "time": []}, "state": {"target": ["23", "0", "12", "14", "19", "19"], "time": [2292, 20423, 21357, 21913, 22923, 32316]}}, "mouseover": {"edge": {"target": [], "time": []}, "state": {"target": ["0", "12", "14", "19"], "time": [17797, 20541, 21487, 22040]}}}, "revealed_states": [], "rewards": [-2, 1, -4, 1, -42], "rt": [14554, 146, 65, 2, 185], "score": -46, "simulationMode": [null, null, null, null, null], "stateRewards": ["", -2, -3, 1, -14, 48, -49, 67, -1, -35, -48, 3, -2, 1, -4, -5, 86, -84, 39, 1, 48, 41, -42, -1, -4, 2, -7, 18, -86, 17, 7, -9, 57, -69], "time_elapsed": 1602474, "trialIndex": 21, "trialTime": 33194, "trial_id": "mdp_trial_20", "trial_index": 28, "trial_type": "mouselab-mdp", "withholdReward": false}, "uniqueid": "w91869494:a54768029"}, {"current_trial": 29, "dateTime": 1691146963748, "trialdata": {"actionTimes": [18592, 19468, 20335, 38320, 40415], "actions": ["up", "up", "up", "right", "right"], "block": "test", "clicked_states": [], "costs": 0, "displayed_time": "41.24", "internal_node_id": "0.0-4.0-1.0-20.0", "num_clicks_accrued": [0, 0, 0, 0, 0, 0, 0, 0, 0, 0, 0, 0, 0], "path": ["0", "0", "1", "2", "3", "4", "6"], "queries": {"click": {"edge": {"target": [], "time": []}, "state": {"target": [], "time": []}}, "mouseout": {"edge": {"target": [], "time": []}, "state": {"target": ["0", "2", "1", "2", "1"], "time": [16477, 16837, 37353, 43067, 43619]}}, "mouseover": {"edge": {"target": [], "time": []}, "state": {"target": ["2", "1"], "time": [16708, 16952]}}}, "revealed_states": [], "rewards": [-1, -3, 3, 5, 39], "rt": [9379, 23, 17, 17152, 1237], "score": 43, "simulationMode": [null, null, null, null, null], "stateRewards": ["", -1, -3, 3, 5, 56, 39, 50, -1, -80, 33, -46, 1, -2, -6, -8, 87, 48, 54, -11, -20, -64, -54, -2, 3, -7, -3, 12, 88, 35, -16, -46, -70, -3], "time_elapsed": 1654358, "trialIndex": 22, "trialTime": 44261, "trial_id": "mdp_trial_21", "trial_index": 29, "trial_type": "mouselab-mdp", "withholdReward": false}, "uniqueid": "w91869494:a54768029"}, {"current_trial": 30, "dateTime": 1691147014561, "trialdata": {"actionTimes": [26168, 27010, 27768, 29005, 30232], "actions": ["up", "up", "up", "left", "down"], "block": "test", "clicked_states": [], "costs": 0, "displayed_time": "35.61", "internal_node_id": "0.0-4.0-1.0-21.0", "num_clicks_accrued": [0, 0, 0, 0, 0, 0, 0, 0, 0, 0, 0, 0, 0], "path": ["0", "0", "1", "2", "3", "8", "10"], "queries": {"click": {"edge": {"target": [], "time": []}, "state": {"target": [], "time": []}}, "mouseout": {"edge": {"target": [], "time": []}, "state": {"target": ["0", "0", "2", "3", "4", "8"], "time": [12499, 22922, 23902, 24382, 24847, 25355]}}, "mouseover": {"edge": {"target": [], "time": []}, "state": {"target": ["0", "2", "3", "4", "8"], "time": [21228, 23545, 24016, 24493, 24959]}}}, "revealed_states": [], "rewards": [1, -2, -8, -4, 88], "rt": [6649, 85, 3, 385, 476], "score": 75, "simulationMode": [null, null, null, null, null], "stateRewards": ["", 1, -2, -8, -13, 4, 34, -84, -4, -49, 88, -70, -1, 3, -4, 10, -77, 13, -34, 15, -21, -16, 27, 1, -2, 8, -8, -6, 38, -26, 6, -15, 66, -3], "time_elapsed": 1705172, "trialIndex": 23, "trialTime": 43222, "trial_id": "mdp_trial_22", "trial_index": 30, "trial_type": "mouselab-mdp", "withholdReward": false}, "uniqueid": "w91869494:a54768029"}, {"current_trial": 31, "dateTime": 1691147066725, "trialdata": {"actionTimes": [32503, 33339, 35038, 36143, 37263], "actions": ["right", "right", "right", "down", "left"], "block": "test", "clicked_states": ["25", "27", "30", "31", "33", "22", "20"], "costs": -9.8, "displayed_time": "38.10", "internal_node_id": "0.0-4.0-1.0-22.0", "num_clicks_accrued": [0, 0, 0, 0, 0, 0, 0, 0, 0, 0, 0, 0, 0], "path": ["0", "0", "12", "13", "14", "19", "22"], "queries": {"click": {"edge": {"target": [], "time": []}, "state": {"target": ["25", "27", "30", "31", "33", "22", "20"], "time": [12218, 15025, 18026, 20255, 22431, 25022, 28399]}}, "mouseout": {"edge": {"target": [], "time": []}, "state": {"target": ["0", "23", "25", "26", "28", "27", "29", "30", "32", "31", "30", "33", "22", "13", "14", "20", "19", "21"], "time": [9842, 11494, 12470, 13589, 14434, 16010, 17240, 18513, 19706, 20732, 20968, 23029, 25516, 26599, 27453, 28632, 29818, 43216]}}, "mouseover": {"edge": {"target": [], "time": []}, "state": {"target": ["23", "25", "26", "28", "27", "29", "30", "32", "31", "33", "22", "13", "14", "20", "19", "21"], "time": [11362, 11624, 12843, 13705, 14549, 16265, 17487, 18625, 19820, 21082, 24306, 25628, 26711, 27588, 28983, 29930]}}}, "revealed_states": [], "rewards": [-1, 3, 8, 15, 15], "rt": [23293, 3, 878, 367, 298], "score": 30.2, "simulationMode": [null, null, null, null, null], "stateRewards": ["", -1, -4, -6, -15, 21, -67, -63, 9, 51, 69, -14, -1, 3, 8, -8, 39, 72, 63, 15, 19, 47, 15, 1, 4, 5, 16, -18, 34, 35, -14, -80, 40, 1], "time_elapsed": 1757336, "trialIndex": 24, "trialTime": 44353, "trial_id": "mdp_trial_23", "trial_index": 31, "trial_type": "mouselab-mdp", "withholdReward": false}, "uniqueid": "w91869494:a54768029"}, {"current_trial": 32, "dateTime": 1691147109102, "trialdata": {"actionTimes": [24554, 24797, 25782, 27496, 28675, 29318], "actions": ["right", "right", "right", "right", "up", "up"], "block": "test", "clicked_states": ["14", "24", "20", "16", "6"], "costs": -7, "displayed_time": "30.67", "internal_node_id": "0.0-4.0-1.0-23.0", "num_clicks_accrued": [0, 0, 0, 0, 0, 0, 0, 0, 0, 0, 0, 0, 0], "path": ["0", "0", "12", "13", "14", "15", "16"], "queries": {"click": {"edge": {"target": [], "time": []}, "state": {"target": ["14", "24", "20", "16", "6"], "time": [13544, 15776, 18660, 21015, 23578]}}, "mouseout": {"edge": {"target": [], "time": []}, "state": {"target": ["21", "0", "0", "14", "19", "22", "24", "21", "20", "17", "16", "18", "6", "7", "0"], "time": [null, 10554, 13191, 14056, 14672, 15422, 16380, 17804, 19027, 20392, 21515, 22630, 31663, 32246, 32710]}}, "mouseover": {"edge": {"target": [], "time": []}, "state": {"target": ["0", "14", "19", "22", "24", "21", "20", "17", "16", "18", "6"], "time": [11178, 13309, 14180, 14790, 15538, 16651, 18054, 19640, 20645, 21775, 22993]}}}, "revealed_states": [], "rewards": [2, -3, 1, 10, 60], "rt": [14637, 122, 2, 830, 329, 4], "score": 63, "simulationMode": [null, null, null, null, null, null], "stateRewards": ["", -1, 4, -5, 9, 29, -75, -42, -16, 24, -28, -41, 2, -3, 1, 10, 60, 47, 55, -1, -53, 22, -40, 2, -3, -6, 4, -26, 44, 54, 15, -76, 42, 14], "time_elapsed": 1799713, "trialIndex": 25, "trialTime": 34363, "trial_id": "mdp_trial_24", "trial_index": 32, "trial_type": "mouselab-mdp", "withholdReward": false}, "uniqueid": "w91869494:a54768029"}, {"current_trial": 33, "dateTime": 1691147160472, "trialdata": {"actionTimes": [17113, 19497, 20430, 37909, 39277], "actions": ["left", "left", "left", "up", "up"], "block": "test", "clicked_states": [], "costs": 0, "displayed_time": "40.14", "internal_node_id": "0.0-4.0-1.0-24.0", "num_clicks_accrued": [0, 0, 0, 0, 0, 0, 0, 0, 0, 0, 0, 0, 0], "path": ["0", "0", "23", "24", "25", "26", "27"], "queries": {"click": {"edge": {"target": [], "time": []}, "state": {"target": [], "time": []}}, "mouseout": {"edge": {"target": [], "time": []}, "state": {"target": ["0", "0", "24", "26", "27", "24", "24"], "time": [2848, 14008, 14284, 15413, 15896, 27761, 42225]}}, "mouseover": {"edge": {"target": [], "time": []}, "state": {"target": ["0", "24", "26", "27"], "time": [10679, 14156, 14411, 15551]}}}, "revealed_states": [], "rewards": [2, 3, -5, -7, 76], "rt": [7167, 1618, 63, 16708, 571], "score": 69, "simulationMode": [null, null, null, null, null], "stateRewards": ["", 1, -2, -8, -3, 31, -84, -55, -14, 15, -58, 17, -2, -3, 7, 7, -12, 48, 67, 4, -44, -68, 46, 2, 3, -5, -7, 76, 27, 5, 11, 57, 52, 59], "time_elapsed": 1851083, "trialIndex": 26, "trialTime": 43794, "trial_id": "mdp_trial_25", "trial_index": 33, "trial_type": "mouselab-mdp", "withholdReward": false}, "uniqueid": "w91869494:a54768029"}, {"current_trial": 34, "dateTime": 1691147206628, "trialdata": {"actionTimes": [28951, 29718, 30467, 31816, 33472], "actions": ["left", "left", "left", "up", "up"], "block": "test", "clicked_states": ["13", "26", "3", "27"], "costs": -5.6, "displayed_time": "34.22", "internal_node_id": "0.0-4.0-1.0-25.0", "num_clicks_accrued": [0, 0, 0, 0, 0, 0, 0, 0, 0, 0, 0, 0, 0], "path": ["0", "0", "23", "24", "25", "26", "27"], "queries": {"click": {"edge": {"target": [], "time": []}, "state": {"target": ["13", "26", "3", "27"], "time": [17005, 20052, 22863, 25821]}}, "mouseout": {"edge": {"target": [], "time": []}, "state": {"target": ["0", "13", "14", "28", "26", "27", "3", "4", "27", "28", "26", "29", "24"], "time": [6818, 18284, 18893, 19407, 21166, 22133, 23356, 24204, 26820, 27989, 28231, 35196, 35577]}}, "mouseover": {"edge": {"target": [], "time": []}, "state": {"target": ["13", "14", "28", "26", "27", "3", "4", "27", "28", "26", "29"], "time": [16762, 18398, 19281, 19533, 21408, 22380, 23468, 25240, 27067, 28104, 28347]}}}, "revealed_states": [], "rewards": [2, 1, -6, 13, 55], "rt": [15316, 3, 3, 602, 906], "score": 59.4, "simulationMode": [null, null, null, null, null], "stateRewards": ["", 1, 1, 4, 11, 83, -66, 18, -16, -23, 5, 25, 1, -3, 1, -12, 18, 24, -86, -11, -64, 36, 40, 2, 1, -6, 13, 55, 29, 72, -2, 81, -72, -41], "time_elapsed": 1897239, "trialIndex": 27, "trialTime": 38410, "trial_id": "mdp_trial_26", "trial_index": 34, "trial_type": "mouselab-mdp", "withholdReward": false}, "uniqueid": "w91869494:a54768029"}, {"current_trial": 35, "dateTime": 1691147246721, "trialdata": {"actionTimes": [20773, 21581, 22386, 23242, 23992], "actions": ["up", "up", "up", "right", "right"], "block": "test", "clicked_states": ["2", "5", "6", "10"], "costs": -5.6, "displayed_time": "29.25", "internal_node_id": "0.0-4.0-1.0-26.0", "num_clicks_accrued": [0, 0, 0, 0, 0, 0, 0, 0, 0, 0, 0, 0, 0], "path": ["0", "0", "1", "2", "3", "4", "6"], "queries": {"click": {"edge": {"target": [], "time": []}, "state": {"target": ["2", "5", "6", "10"], "time": [10558, 13442, 16664, 18769]}}, "mouseout": {"edge": {"target": [], "time": []}, "state": {"target": ["0", "2", "3", "4", "5", "9", "11", "6", "7", "10", "10", "28", "23"], "time": [9546, 11059, 11953, 13080, 13927, 14654, 15665, 17160, 18022, 19129, 19612, 31205, 31531]}}, "mouseover": {"edge": {"target": [], "time": []}, "state": {"target": ["2", "3", "4", "5", "9", "11", "6", "7", "10", "28"], "time": [10164, 11177, 12078, 13194, 14042, 14924, 16073, 17405, 18290, 19724]}}}, "revealed_states": [], "rewards": [-2, -4, -2, -13, 87], "rt": [12159, 8, 7, 113, 2], "score": 60.4, "simulationMode": [null, null, null, null, null], "stateRewards": ["", -2, -4, -2, -13, -15, 87, -19, -6, -80, 30, 12, 1, 1, -8, 2, 55, 56, 15, 11, -68, -7, 55, -2, 3, -3, -3, 48, 62, 4, 1, -3, 69, -33], "time_elapsed": 1937332, "trialIndex": 28, "trialTime": 32423, "trial_id": "mdp_trial_27", "trial_index": 35, "trial_type": "mouselab-mdp", "withholdReward": false}, "uniqueid": "w91869494:a54768029"}, {"current_trial": 36, "dateTime": 1691147287676, "trialdata": {"actionTimes": [22223, 22468, 23273, 24032, 25056, 25834], "actions": ["left", "left", "left", "left", "up", "up"], "block": "test", "clicked_states": ["15", "19", "24", "27", "30"], "costs": -7, "displayed_time": "29.65", "internal_node_id": "0.0-4.0-1.0-27.0", "num_clicks_accrued": [0, 0, 0, 0, 0, 0, 0, 0, 0, 0, 0, 0, 0], "path": ["0", "0", "23", "24", "25", "26", "27"], "queries": {"click": {"edge": {"target": [], "time": []}, "state": {"target": ["15", "19", "24", "27", "30"], "time": [10475, 13372, 15529, 18379, 20957]}}, "mouseout": {"edge": {"target": [], "time": []}, "state": {"target": ["0", "15", "17", "14", "19", "21", "24", "28", "26", "27", "29", "25", "30"], "time": [10075, 11009, 12136, 13005, 13869, 14755, 15767, 16991, 17718, 18870, 19592, 20450, 29457]}}, "mouseover": {"edge": {"target": [], "time": []}, "state": {"target": ["15", "17", "14", "19", "21", "24", "28", "26", "27", "29", "25", "30"], "time": [10190, 11125, 12253, 13121, 13985, 15138, 16141, 17105, 17831, 18985, 19705, 20561]}}}, "revealed_states": [], "rewards": [-1, -4, 4, -12, 67], "rt": [14118, 125, 2, 3, 172, 4], "score": 47, "simulationMode": [null, null, null, null, null, null], "stateRewards": ["", 1, 1, 1, -3, -7, -1, -41, -10, 20, -72, -63, 1, -4, -2, 2, -66, 30, -84, -2, 49, 23, 71, -1, -4, 4, -12, 67, 5, 18, -16, 88, 56, -5], "time_elapsed": 1978287, "trialIndex": 29, "trialTime": 32937, "trial_id": "mdp_trial_28", "trial_index": 36, "trial_type": "mouselab-mdp", "withholdReward": false}, "uniqueid": "w91869494:a54768029"}, {"current_trial": 37, "dateTime": 1691147329810, "trialdata": {"actionTimes": [24179, 24958, 25842, 29033, 29818], "actions": ["left", "left", "left", "up", "right"], "block": "test", "clicked_states": ["2", "11", "28", "15"], "costs": -5.6, "displayed_time": "30.69", "internal_node_id": "0.0-4.0-1.0-28.0", "num_clicks_accrued": [0, 0, 0, 0, 0, 0, 0, 0, 0, 0, 0, 0, 0], "path": ["0", "0", "23", "24", "25", "26", "28"], "queries": {"click": {"edge": {"target": [], "time": []}, "state": {"target": ["2", "11", "28", "15"], "time": [13379, 16651, 19600, 21949]}}, "mouseout": {"edge": {"target": [], "time": []}, "state": {"target": ["0", "0", "2", "7", "5", "9", "8", "11", "27", "26", "28", "18", "15", "14", "13", "22"], "time": [1997, 13016, 13863, 14478, 15082, 15680, 16296, 17133, 18264, 18983, 20241, 21351, 22438, 23291, 33294, 33844]}}, "mouseover": {"edge": {"target": [], "time": []}, "state": {"target": ["2", "7", "5", "9", "8", "11", "27", "26", "28", "18", "15", "14", "13"], "time": [13131, 13978, 14595, 15196, 15794, 16410, 17407, 18377, 19097, 20742, 21464, 22557, 23412]}}}, "revealed_states": [], "rewards": [-1, 2, -4, 11, 47], "rt": [14604, 4, 6, 2343, 28], "score": 49.4, "simulationMode": [null, null, null, null, null], "stateRewards": ["", -1, -2, -8, 8, -27, -82, 19, -14, -62, 4, 1, -2, 2, 6, 10, 73, -51, -2, 2, 73, -48, 54, -1, 2, -4, 11, -25, 47, 86, 15, 33, 43, -42], "time_elapsed": 2020421, "trialIndex": 30, "trialTime": 34346, "trial_id": "mdp_trial_29", "trial_index": 37, "trial_type": "mouselab-mdp", "withholdReward": false}, "uniqueid": "w91869494:a54768029"}, {"current_trial": 38, "dateTime": 1691147383079, "trialdata": {"actionTimes": [15545, 16298, 17059, 17806, 18547], "actions": ["right", "right", "right", "down", "down"], "block": "test", "clicked_states": [], "costs": 0, "displayed_time": "24.80", "internal_node_id": "0.0-4.0-1.0-29.0", "num_clicks_accrued": [0, 0, 0, 0, 0, 0, 0, 0, 0, 0, 0, 0, 0], "path": ["0", "0", "12", "13", "14", "19", "21"], "queries": {"click": {"edge": {"target": [], "time": []}, "state": {"target": [], "time": []}}, "mouseout": {"edge": {"target": [], "time": []}, "state": {"target": ["24", "23", "12", "12", "13", "14"], "time": [1720, 1867, 12164, 13113, 14229, 44595]}}, "mouseover": {"edge": {"target": [], "time": []}, "state": {"target": ["12", "12", "13", "14"], "time": [12039, 12437, 13245, 14357]}}}, "revealed_states": [], "rewards": [-1, 2, 3, -11, -65], "rt": [6283, 2, 5, 3, 1], "score": -72, "simulationMode": [null, null, null, null, null], "stateRewards": ["", -1, -3, -5, -14, -13, -47, 79, 8, -60, -64, 41, -1, 2, 3, 13, -46, 61, -79, -11, -64, -65, 23, 1, -2, 6, -14, 46, 32, 21, 7, 75, -66, 15], "time_elapsed": 2073690, "trialIndex": 31, "trialTime": 45329, "trial_id": "mdp_trial_30", "trial_index": 38, "trial_type": "mouselab-mdp", "withholdReward": false}, "uniqueid": "w91869494:a54768029"}, {"current_trial": 39, "dateTime": 1691147474637, "trialdata": {"actionTimes": [43122, 44367, 45271, 46035, 48709, 58912], "actions": ["up", "up", "up", "up", "right", "down"], "block": "test", "clicked_states": ["2", "4", "8", "18", "14", "16", "28", "27", "24", "1"], "costs": -14.000000000000002, "displayed_time": "59.66", "internal_node_id": "0.0-4.0-1.0-30.0", "num_clicks_accrued": [0, 0, 0, 0, 0, 0, 0, 0, 0, 0, 0, 0, 0], "path": ["0", "0", "1", "2", "3", "4", "7"], "queries": {"click": {"edge": {"target": [], "time": []}, "state": {"target": ["2", "4", "8", "18", "14", "16", "28", "27", "24", "1"], "time": [18079, 20586, 23228, 26383, 28392, 30991, 33482, 35670, 38789, 42032]}}, "mouseout": {"edge": {"target": [], "time": []}, "state": {"target": ["12", "2", "3", "4", "6", "7", "2", "8", "9", "11", "18", "18", "13", "14", "15", "17", "16", "1", "24", "28", "26", "27", "10", "24", "25", "0", "12", "1"], "time": [8676, 19085, 19967, 21199, 21709, 22440, 22695, 23729, 24720, 25335, 25858, 26885, 27243, 28755, 29834, 30424, 31356, 31725, 32960, 34325, 35068, 36034, 37740, 39262, 39998, 40355, 41317, 82953]}}, "mouseover": {"edge": {"target": [], "time": []}, "state": {"target": ["2", "3", "4", "6", "7", "8", "9", "11", "18", "18", "13", "14", "15", "17", "16", "1", "24", "28", "26", "27", "10", "24", "25", "0", "12", "1"], "time": [17604, 19202, 20087, 21313, 21824, 22809, 23844, 24834, 25722, 25984, 27001, 28134, 28870, 29946, 30540, 31470, 31968, 33083, 34438, 35182, 37377, 38152, 39371, 40113, 40465, 41453]}}}, "revealed_states": [], "rewards": [-1, 2, -6, 6, -39], "rt": [27111, 1128, 47, 1, 1940, 9469], "score": -52, "simulationMode": [null, null, null, null, null, null], "stateRewards": ["", -1, 2, -6, 6, -82, -19, -39, -16, -83, 11, -33, -2, -2, 4, -6, -82, -1, -19, -6, -10, -67, -41, -2, 1, -7, 16, -23, -78, -52, 14, 31, -71, 74], "time_elapsed": 2165247, "trialIndex": 32, "trialTime": 83926, "trial_id": "mdp_trial_31", "trial_index": 39, "trial_type": "mouselab-mdp", "withholdReward": false}, "uniqueid": "w91869494:a54768029"}, {"current_trial": 40, "dateTime": 1691147511961, "trialdata": {"actionTimes": [20964, 21800, 23719, 24767, 25601], "actions": ["up", "up", "up", "right", "up"], "block": "test", "clicked_states": [], "costs": 0, "displayed_time": "26.35", "internal_node_id": "0.0-4.0-1.0-31.0", "num_clicks_accrued": [0, 0, 0, 0, 0, 0, 0, 0, 0, 0, 0, 0, 0], "path": ["0", "0", "1", "2", "3", "4", "5"], "queries": {"click": {"edge": {"target": [], "time": []}, "state": {"target": [], "time": []}}, "mouseout": {"edge": {"target": [], "time": []}, "state": {"target": ["0", "12", "13"], "time": [2539, 18970, 28379]}}, "mouseover": {"edge": {"target": [], "time": []}, "state": {"target": ["12", "13"], "time": [18203, 19101]}}}, "revealed_states": [], "rewards": [2, 3, 8, 14, 69], "rt": [11224, 89, 1156, 285, 84], "score": 96, "simulationMode": [null, null, null, null, null], "stateRewards": ["", 2, 3, 8, 14, 69, -27, 17, 2, -71, -65, -10, 2, -3, 7, 8, 65, -10, 65, -12, 73, -12, 13, -2, -2, 6, 10, -79, -69, -18, 10, -85, 67, 74], "time_elapsed": 2202571, "trialIndex": 33, "trialTime": 29473, "trial_id": "mdp_trial_32", "trial_index": 40, "trial_type": "mouselab-mdp", "withholdReward": false}, "uniqueid": "w91869494:a54768029"}, {"current_trial": 41, "dateTime": 1691147562218, "trialdata": {"actionTimes": [21565, 21812, 22729, 23985, 24822, 25585], "actions": ["up", "up", "up", "up", "right", "up"], "block": "test", "clicked_states": ["13", "15", "2", "5", "9"], "costs": -7, "displayed_time": "27.96", "internal_node_id": "0.0-4.0-1.0-32.0", "num_clicks_accrued": [0, 0, 0, 0, 0, 0, 0, 0, 0, 0, 0, 0, 0], "path": ["0", "0", "1", "2", "3", "4", "5"], "queries": {"click": {"edge": {"target": [], "time": []}, "state": {"target": ["13", "15", "2", "5", "9"], "time": [9687, 12151, 15164, 17893, 20697]}}, "mouseout": {"edge": {"target": [], "time": []}, "state": {"target": ["0", "13", "14", "15", "18", "16", "7", "2", "7", "4", "5", "8", "9", "8", "28"], "time": [8056, 10064, 11486, 12800, 13681, 14423, 14799, 15651, 16526, 17402, 18381, 19379, 21060, 40238, 40730]}}, "mouseover": {"edge": {"target": [], "time": []}, "state": {"target": ["13", "14", "15", "18", "16", "7", "2", "7", "4", "5", "8", "9"], "time": [9265, 10180, 11645, 13057, 13796, 14539, 14915, 15766, 16643, 17515, 18496, 19493]}}}, "revealed_states": [], "rewards": [-2, -3, -3, 9, 79], "rt": [13876, 121, 2, 204, 90, 21], "score": 73, "simulationMode": [null, null, null, null, null, null], "stateRewards": ["", -2, -3, -3, 9, 79, 67, 22, -15, -56, 27, -85, -2, 4, -4, -15, -20, -32, 60, 15, 71, 57, 17, 1, 2, -8, 15, -37, -81, 82, 15, 21, -3, 2], "time_elapsed": 2252828, "trialIndex": 34, "trialTime": 41745, "trial_id": "mdp_trial_33", "trial_index": 41, "trial_type": "mouselab-mdp", "withholdReward": false}, "uniqueid": "w91869494:a54768029"}, {"current_trial": 42, "dateTime": 1691147611426, "trialdata": {"actionTimes": [29854, 30746, 32135, 33044, 33903], "actions": ["right", "right", "right", "up", "left"], "block": "test", "clicked_states": ["3", "18", "17", "13", "14"], "costs": -7, "displayed_time": "35.41", "internal_node_id": "0.0-4.0-1.0-33.0", "num_clicks_accrued": [0, 0, 0, 0, 0, 0, 0, 0, 0, 0, 0, 0, 0], "path": ["0", "0", "12", "13", "14", "15", "18"], "queries": {"click": {"edge": {"target": [], "time": []}, "state": {"target": ["3", "18", "17", "13", "14"], "time": [16828, 19636, 22854, 25093, 27246]}}, "mouseout": {"edge": {"target": [], "time": []}, "state": {"target": ["0", "3", "7", "4", "6", "18", "15", "16", "17", "15", "14", "13", "12", "14", "19", "21", "21", "22"], "time": [16458, 17327, 17937, 18545, 19281, 20000, 20875, 21741, 23361, 23734, 24353, 25710, 26330, 27749, 28775, 29377, 38145, 38847]}}, "mouseover": {"edge": {"target": [], "time": []}, "state": {"target": ["3", "7", "4", "6", "18", "15", "16", "17", "15", "14", "13", "12", "14", "19", "21"], "time": [16587, 17447, 18053, 18661, 19398, 20119, 20989, 22252, 23480, 23849, 24468, 25824, 26623, 27868, 28891]}}}, "revealed_states": [], "rewards": [-1, -3, 3, 7, 9], "rt": [17170, 7, 525, 2, 89], "score": 8, "simulationMode": [null, null, null, null, null], "stateRewards": ["", -1, 2, 6, 11, 21, -21, -21, -6, 48, -71, 88, -1, -3, 3, 7, 64, 2, 9, -4, 37, -67, 72, 2, 2, -8, -8, -10, 71, -40, -3, 73, 80, 47], "time_elapsed": 2302036, "trialIndex": 35, "trialTime": 41218, "trial_id": "mdp_trial_34", "trial_index": 42, "trial_type": "mouselab-mdp", "withholdReward": false}, "uniqueid": "w91869494:a54768029"}, {"current_trial": 43, "dateTime": 1691147674173, "trialdata": {"actionTimes": [42868, 43349, 44237, 45017, 45784, 46646], "actions": ["up", "up", "up", "up", "left", "up"], "block": "test", "clicked_states": ["2", "18", "17", "19", "24", "26", "9", "3", "7", "1"], "costs": -14.000000000000002, "displayed_time": "47.37", "internal_node_id": "0.0-4.0-1.0-34.0", "num_clicks_accrued": [0, 0, 0, 0, 0, 0, 0, 0, 0, 0, 0, 0, 0], "path": ["0", "0", "1", "2", "3", "8", "9"], "queries": {"click": {"edge": {"target": [], "time": []}, "state": {"target": ["2", "18", "17", "19", "24", "26", "9", "3", "7", "1"], "time": [16868, 19899, 22947, 25970, 29893, 31990, 34688, 37309, 39290, 41263]}}, "mouseout": {"edge": {"target": [], "time": []}, "state": {"target": ["12", "0", "2", "7", "4", "6", "18", "15", "14", "13", "17", "16", "14", "19", "20", "21", "12", "23", "24", "25", "26", "27", "8", "9", "11", "3", "3", "7", "1"], "time": [5409, 16502, 17105, 17960, 18567, 19550, 20384, 20984, 21592, 22455, 23437, 24201, 25310, 26461, 27186, 28309, 28928, 29393, 30135, 31384, 32357, 33203, 34079, 35065, 36155, 36636, 37800, 40265, 41498]}}, "mouseover": {"edge": {"target": [], "time": []}, "state": {"target": ["0", "2", "7", "4", "6", "18", "15", "14", "13", "17", "16", "14", "19", "20", "21", "12", "23", "24", "25", "26", "27", "8", "9", "11", "3", "3", "7", "1"], "time": [14848, 16620, 17469, 18078, 18684, 19666, 20501, 21101, 21706, 22569, 23551, 24447, 25458, 26574, 27301, 28796, 29053, 29521, 30504, 31498, 32593, 33318, 34192, 35310, 36268, 36795, 38045, 40638]}}}, "revealed_states": [], "rewards": [1, 1, 5, -16, 9], "rt": [30193, 364, 4, 4, 23, 6], "score": -14, "simulationMode": [null, null, null, null, null, null], "stateRewards": ["", 1, 1, 5, 6, -29, -7, 3, -16, 9, -46, 65, -1, 4, -1, -16, -63, -77, -87, 8, 80, -50, 43, -1, -1, -5, 5, -38, -71, -62, 9, 81, -50, -52], "time_elapsed": 2364784, "trialIndex": 36, "trialTime": 55048, "trial_id": "mdp_trial_35", "trial_index": 43, "trial_type": "mouselab-mdp", "withholdReward": false}, "uniqueid": "w91869494:a54768029"}, {"current_trial": 44, "dateTime": 1691147717361, "trialdata": {"actionTimes": [21239, 21983, 22736, 23618, 24404], "actions": ["right", "right", "right", "up", "right"], "block": "test", "clicked_states": ["13", "17", "21"], "costs": -4.199999999999999, "displayed_time": "31.18", "internal_node_id": "0.0-4.0-1.0-35.0", "num_clicks_accrued": [0, 0, 0, 0, 0, 0, 0, 0, 0, 0, 0, 0, 0], "path": ["0", "0", "12", "13", "14", "15", "17"], "queries": {"click": {"edge": {"target": [], "time": []}, "state": {"target": ["13", "17", "21"], "time": [14161, 16853, 19357]}}, "mouseout": {"edge": {"target": [], "time": []}, "state": {"target": ["0", "13", "18", "15", "16", "17", "19", "20", "21", "31", "28", "0"], "time": [13803, 14647, 15137, 15999, 16489, 17251, 18246, 18735, 19598, 20461, 30044, 33579]}}, "mouseover": {"edge": {"target": [], "time": []}, "state": {"target": ["13", "18", "15", "16", "17", "19", "20", "21", "31"], "time": [13922, 14763, 15384, 16116, 16604, 17368, 18365, 18852, 19716]}}}, "revealed_states": [], "rewards": [-1, -2, -7, 2, 58], "rt": [9874, 4, 3, 2, 3], "score": 45.8, "simulationMode": [null, null, null, null, null], "stateRewards": ["", -1, 3, 8, 9, -53, 20, -84, 2, -28, -62, -31, -1, -2, -7, 2, 51, 58, 45, -4, -17, -41, 36, 2, -2, -7, -15, 29, -54, -37, -16, -43, 65, -17], "time_elapsed": 2407972, "trialIndex": 37, "trialTime": 35374, "trial_id": "mdp_trial_36", "trial_index": 44, "trial_type": "mouselab-mdp", "withholdReward": false}, "uniqueid": "w91869494:a54768029"}, {"current_trial": 45, "dateTime": 1691147758104, "trialdata": {"actionTimes": [22892, 23640, 24392, 25282, 26093], "actions": ["left", "left", "left", "up", "up"], "block": "test", "clicked_states": ["2", "6", "27", "31"], "costs": -5.6, "displayed_time": "30.89", "internal_node_id": "0.0-4.0-1.0-36.0", "num_clicks_accrued": [0, 0, 0, 0, 0, 0, 0, 0, 0, 0, 0, 0, 0], "path": ["0", "0", "23", "24", "25", "26", "27"], "queries": {"click": {"edge": {"target": [], "time": []}, "state": {"target": ["2", "6", "27", "31"], "time": [12590, 15153, 18463, 21169]}}, "mouseout": {"edge": {"target": [], "time": []}, "state": {"target": ["0", "2", "7", "4", "6", "5", "8", "9", "11", "27", "26", "25", "31", "2"], "time": [12220, 12831, 13691, 14053, 15643, 16248, 16863, 17467, 18100, 18948, 19306, 20660, 21651, 22517]}}, "mouseover": {"edge": {"target": [], "time": []}, "state": {"target": ["2", "7", "4", "6", "5", "8", "9", "11", "27", "26", "25", "31", "2"], "time": [12336, 13195, 13809, 14170, 15760, 16375, 16981, 17582, 18215, 19064, 19792, 20775, 22281]}}}, "revealed_states": [], "rewards": [2, -1, 4, 13, 50], "rt": [14130, 5, 2, 3, 3], "score": 62.4, "simulationMode": [null, null, null, null, null], "stateRewards": ["", 1, -4, -6, 11, -20, 8, -30, 1, -38, 88, 42, 2, 3, 5, -12, -8, -74, 30, -8, 67, -19, 42, 2, -1, 4, 13, 50, -68, 2, -8, -15, 87, -46], "time_elapsed": 2448715, "trialIndex": 38, "trialTime": 33153, "trial_id": "mdp_trial_37", "trial_index": 45, "trial_type": "mouselab-mdp", "withholdReward": false}, "uniqueid": "w91869494:a54768029"}, {"current_trial": 46, "dateTime": 1691147793419, "trialdata": {"actionTimes": [16583, 17397, 18778, 19963, 20730], "actions": ["up", "up", "up", "left", "down"], "block": "test", "clicked_states": [], "costs": 0, "displayed_time": "24.99", "internal_node_id": "0.0-4.0-1.0-37.0", "num_clicks_accrued": [0, 0, 0, 0, 0, 0, 0, 0, 0, 0, 0, 0, 0], "path": ["0", "0", "1", "2", "3", "8", "10"], "queries": {"click": {"edge": {"target": [], "time": []}, "state": {"target": [], "time": []}}, "mouseout": {"edge": {"target": [], "time": []}, "state": {"target": ["0", "3", "8", "9", "11", "27", "4", "1"], "time": [13202, 13702, 14179, 14687, 15165, 15673, 16208, 26778]}}, "mouseover": {"edge": {"target": [], "time": []}, "state": {"target": ["3", "8", "9", "11", "27", "4", "1"], "time": [13319, 13819, 14296, 14802, 15279, 15790, 16325]}}}, "revealed_states": [], "rewards": [1, -3, -1, -7, 53], "rt": [8534, 23, 620, 338, 2], "score": 43, "simulationMode": [null, null, null, null, null], "stateRewards": ["", 1, -3, -1, 9, -34, -40, 22, -7, 45, 53, -11, 2, 4, 5, 15, 21, 37, -49, -3, 80, -28, -34, 1, -3, 1, 1, -40, -6, -5, -16, -85, -86, 59], "time_elapsed": 2484029, "trialIndex": 39, "trialTime": 27686, "trial_id": "mdp_trial_38", "trial_index": 46, "trial_type": "mouselab-mdp", "withholdReward": false}, "uniqueid": "w91869494:a54768029"}, {"current_trial": 47, "dateTime": 1691147826996, "trialdata": {"actionTimes": [14773, 15545, 16447, 18102, 19003], "actions": ["right", "right", "right", "up", "up"], "block": "test", "clicked_states": [], "costs": 0, "displayed_time": "23.87", "internal_node_id": "0.0-4.0-1.0-38.0", "num_clicks_accrued": [0, 0, 0, 0, 0, 0, 0, 0, 0, 0, 0, 0, 0], "path": ["0", "0", "12", "13", "14", "15", "16"], "queries": {"click": {"edge": {"target": [], "time": []}, "state": {"target": [], "time": []}}, "mouseout": {"edge": {"target": [], "time": []}, "state": {"target": ["1", "1", "2", "10", "8"], "time": [842, 10937, 11392, 11635, 12842]}}, "mouseover": {"edge": {"target": [], "time": []}, "state": {"target": ["1", "2", "10", "8", "3"], "time": [10810, 11261, 11511, 11764, 12967]}}}, "revealed_states": [], "rewards": [-1, 1, -5, -9, 46], "rt": [6650, 1, 150, 902, 140], "score": 32, "simulationMode": [null, null, null, null, null], "stateRewards": ["", -1, -3, -3, 1, -38, 2, -53, -2, -1, -81, 70, -1, 1, -5, -9, 46, 15, 35, -1, -22, 38, 59, -2, 4, -8, 13, 1, -83, -43, 4, 76, 13, 48], "time_elapsed": 2517606, "trialIndex": 40, "trialTime": 25925, "trial_id": "mdp_trial_39", "trial_index": 47, "trial_type": "mouselab-mdp", "withholdReward": false}, "uniqueid": "w91869494:a54768029"}, {"current_trial": 48, "dateTime": 1691147884523, "trialdata": {"actionTimes": [19007, 27985, 41341, 42553, 44366], "actions": ["right", "right", "right", "down", "right"], "block": "test", "clicked_states": [], "costs": 0, "displayed_time": "45.23", "internal_node_id": "0.0-4.0-1.0-39.0", "num_clicks_accrued": [0, 0, 0, 0, 0, 0, 0, 0, 0, 0, 0, 0, 0], "path": ["0", "0", "12", "13", "14", "19", "20"], "queries": {"click": {"edge": {"target": [], "time": []}, "state": {"target": [], "time": []}}, "mouseout": {"edge": {"target": [], "time": []}, "state": {"target": ["3", "2", "1", "0", "14", "19", "1", "18"], "time": [null, 1793, 1923, 13911, 16152, 20579, 32679, 34903]}}, "mouseover": {"edge": {"target": [], "time": []}, "state": {"target": ["14", "19"], "time": [14164, 16267]}}}, "revealed_states": [], "rewards": [-1, -3, 3, -3, -20], "rt": [9688, 6074, 6707, 381, 982], "score": -24, "simulationMode": [null, null, null, null, null], "stateRewards": ["", -1, 3, 8, 10, -86, 61, -36, 10, 17, -60, 24, -1, -3, 3, 11, 50, 60, 33, -3, -20, 58, -6, 1, -4, -4, 13, -70, -71, 43, 14, 52, 82, -11], "time_elapsed": 2575124, "trialIndex": 41, "trialTime": 49680, "trial_id": "mdp_trial_40", "trial_index": 48, "trial_type": "mouselab-mdp", "withholdReward": false}, "uniqueid": "w91869494:a54768029"}, {"uniqueid": "w91869494:a54768029", "current_trial": 49, "dateTime": 1691149092838, "trialdata": {"success": true, "trial_type": "fullscreen", "trial_index": 0, "time_elapsed": 7674, "internal_node_id": "0.0-0.0"}}, {"uniqueid": "w91869494:a54768029", "current_trial": 50, "dateTime": 1691149094852, "trialdata": {"view_history": [{"page_index": 0, "viewing_time": 2000}], "rt": 2000, "trial_id": "exp_instructions_control", "trial_type": "instructions", "trial_index": 1, "time_elapsed": 9689, "internal_node_id": "0.0-1.0"}}, {"uniqueid": "w91869494:a54768029", "current_trial": 51, "dateTime": 1691149098210, "trialdata": {"success": true, "trial_type": "fullscreen", "trial_index": 2, "time_elapsed": 13047, "internal_node_id": "0.0-2.0-0.0"}}, {"uniqueid": "w91869494:a54768029", "current_trial": 52, "dateTime": 1691149109839, "trialdata": {"view_history": [{"page_index": 0, "viewing_time": 3561}, {"page_index": 1, "viewing_time": 2296}, {"page_index": 2, "viewing_time": 3775}, {"page_index": 3, "viewing_time": 1992}], "rt": 11624, "trial_id": "mouselab_instructions_1_control", "trial_type": "instructions", "trial_index": 3, "time_elapsed": 24676, "internal_node_id": "0.0-2.0-1.0"}}, {"uniqueid": "w91869494:a54768029", "current_trial": 53, "dateTime": 1691149141732, "trialdata": {"revealed_states": [], "clicked_states": ["13", "15"], "num_clicks_accrued": [0, 0, 0, 0, 0, 0, 0, 0, 0, 0, 0, 0, 0], "stateRewards": ["", 10, -10, -10, 10, -10, -10, 10, 10, -10, 10, 10, -10, 10, -10, 10, -10, 10, 10, -10, 10, -10, 10, -10, 10, -10, -10, 10, 10, -10, -10, 10, -10, -10], "withholdReward": false, "trial_id": "practice_1", "block": "test", "trialIndex": 0, "score": 12.5, "costs": -1, "simulationMode": [null, null, null, null, null], "rewards": [-10, 10, -10, 10, 10], "path": ["0", "0", "12", "13", "14", "15", "17"], "rt": [5882, 229, 158, 127, 12937], "actions": ["right", "right", "right", "up", "right"], "actionTimes": [9927, 10749, 11556, 12255, 25991], "queries": {"click": {"state": {"target": ["13", "15"], "time": [6708, 8579]}, "edge": {"target": [], "time": []}}, "mouseover": {"state": {"target": ["12", "13", "18", "15"], "time": [5123, 6327, 7356, 8132]}, "edge": {"target": [], "time": []}}, "mouseout": {"state": {"target": ["0", "12", "13", "18", "15", "14", "12"], "time": [4458, 5176, 7298, 8123, 15559, 16841, 19690]}, "edge": {"target": [], "time": []}}}, "displayed_time": "26.57", "trialTime": 29540, "trial_type": "mouselab-mdp", "trial_index": 4, "time_elapsed": 56569, "internal_node_id": "0.0-2.0-2.0-0.0"}}, {"uniqueid": "w91869494:a54768029", "current_trial": 54, "dateTime": 1691149171075, "trialdata": {"revealed_states": [], "clicked_states": [], "num_clicks_accrued": [0, 0, 0, 0, 0, 0, 0, 0, 0, 0, 0, 0, 0], "stateRewards": ["", -10, -10, -10, 10, -10, -10, 10, 10, -10, -10, -10, -10, -10, 10, -10, 10, -10, 10, 10, -10, 10, 10, -10, 10, -10, -10, 10, 10, 10, 10, -10, 10, 10], "withholdReward": false, "trial_id": "practice_2", "block": "test", "trialIndex": 1, "score": -6.5, "costs": 0, "simulationMode": [null, null, null, null, null], "rewards": [-10, -10, 10, 10, -10], "path": ["0", "0", "12", "13", "14", "19", "20"], "rt": [2783, 197, 587, 833, 325], "actions": ["right", "right", "right", "down", "right"], "actionTimes": [11756, 12852, 14309, 16051, 17309], "queries": {"click": {"state": {"target": [], "time": []}, "edge": {"target": [], "time": []}}, "mouseover": {"state": {"target": ["0", "12", "13"], "time": [9356, 10576, 11266]}, "edge": {"target": [], "time": []}}, "mouseout": {"state": {"target": ["0", "0", "12", "13", "22"], "time": [1427, 10117, 11131, 11394, 21115]}, "edge": {"target": [], "time": []}}}, "displayed_time": "18.25", "trialTime": 21413, "trial_type": "mouselab-mdp", "trial_index": 5, "time_elapsed": 85912, "internal_node_id": "0.0-2.0-2.0-1.0"}}, {"uniqueid": "w91869494:a54768029", "current_trial": 55, "dateTime": 1691149179701, "trialdata": {"view_history": [{"page_index": 0, "viewing_time": 5359}, {"page_index": 1, "viewing_time": 3252}], "rt": 8612, "trial_id": "mouselab_instructions_2_control", "trial_type": "instructions", "trial_index": 6, "time_elapsed": 94538, "internal_node_id": "0.0-2.0-3.0"}}, {"uniqueid": "w91869494:a54768029", "current_trial": 56, "dateTime": 1691149250743, "trialdata": {"rt": 71025, "response": {"Q0": "The cost for clicking on nodes may vary between nodes.", "Q1": "The better I perform the higher my bonus will be.", "Q2": "No, the amount of cash at each node of the web may be different each time.", "Q3": "To get the highest total score.", "Q4": "Only before moving the spider.", "Q5": "3 seconds"}, "question_order": [0, 1, 2, 3, 4, 5], "correct": {"Q0": "The cost for clicking on nodes may vary between nodes.", "Q1": "The better I perform the higher my bonus will be.", "Q2": "No, the amount of cash at each node of the web may be different each time.", "Q3": "To get the highest total score.", "Q4": "Only before moving the spider.", "Q5": "3 seconds"}, "trial_id": "mouselab_quiz_control", "trial_type": "survey-multi-choice", "trial_index": 7, "time_elapsed": 165579, "internal_node_id": "0.0-2.0-4.0"}}, {"uniqueid": "w91869494:a54768029", "current_trial": 57, "dateTime": 1691149252686, "trialdata": {"rt": 1923, "stimulus": "\n<h1> Get ready to start the game! </h1>\n\nThank you for reading the instructions. Get ready start with the 40 rounds of this game.\n<br><br>\nIf you need to take a break, feel free to take one after the end of a round, before continuing to the next one.\n<br><br>\nRemember, the more money the spider gets, the bigger your bonus will be!\n<br><br>\n<div style='text-align: center;'>Press <code>space</code> to begin.</div>\n\n<br><br>\n(If, at any point, the <code>space</code> key does not take you to the next page, click once on the text and try again.)", "response": " ", "trial_id": "mdp_ready", "trial_type": "html-keyboard-response", "trial_index": 8, "time_elapsed": 167523, "internal_node_id": "0.0-4.0-0.0"}}, {"uniqueid": "w91869494:a54768029", "current_trial": 58, "dateTime": 1691149321735, "trialdata": {"revealed_states": [], "clicked_states": ["12", "16", "22", "2", "5", "8", "10", "26", "23", "30", "31", "33", "29"], "num_clicks_accrued": [0, 0, 0, 0, 0, 0, 0, 0, 0, 0, 0, 0, 0], "stateRewards": ["", -1, -2, 8, -6, -79, -6, 87, 9, -5, -66, -38, 2, 2, 5, -6, -82, 74, 85, -8, 67, -30, -15, 1, -2, -2, -2, 87, 64, 49, 7, 2, -38, -9], "withholdReward": false, "trial_id": "mdp_trial_1", "block": "test", "trialIndex": 2, "score": 25.8, "costs": -18.2, "simulationMode": [null, null, null, null, null], "rewards": [1, -2, -2, -2, 49], "path": ["0", "0", "23", "24", "25", "26", "29"], "rt": [34886, 2, 3, 464, 1], "actions": ["left", "left", "left", "up", "left"], "actionTimes": [43275, 44082, 44894, 46207, 47011], "queries": {"click": {"state": {"target": ["12", "16", "22", "2", "5", "8", "10", "26", "23", "30", "31", "33", "29"], "time": [10608, 13025, 15542, 17574, 20691, 22654, 24904, 27164, 29793, 32498, 34486, 37748, 39595]}, "edge": {"target": [], "time": []}}, "mouseover": {"state": {"target": ["0", "12", "18", "15", "16", "17", "19", "22", "21", "2", "7", "4", "5", "9", "8", "11", "10", "28", "26", "27", "28", "23", "24", "25", "30", "31", "31", "32", "33", "33", "29", "12", "22", "19", "21"], "time": [9630, 10362, 11206, 11809, 12659, 13743, 14344, 15183, 16258, 17100, 18281, 19239, 20195, 21418, 22256, 23126, 24080, 25509, 26701, 27852, 28665, 29380, 30261, 31209, 31908, 33091, 34040, 34955, 36137, 37169, 39143, 40634, 41089, 42169, 42430]}, "edge": {"target": [], "time": []}}, "mouseout": {"state": {"target": ["3", "0", "0", "12", "18", "15", "16", "17", "19", "22", "21", "2", "7", "4", "5", "9", "8", "11", "10", "28", "26", "27", "28", "23", "24", "25", "30", "31", "31", "32", "33", "30", "33", "29", "12", "22", "19"], "time": [931, 9006, 10247, 10846, 11694, 12543, 13626, 14230, 15069, 16145, 16738, 18047, 19126, 20072, 21182, 22014, 23013, 23967, 25258, 26229, 27741, 28554, 29252, 30150, 31097, 31797, 32980, 33808, 34843, 36027, 36731, 37051, 38793, 40052, 40863, 42051, 42293]}, "edge": {"target": [], "time": []}}}, "displayed_time": "47.84", "trialTime": 60970, "trial_type": "mouselab-mdp", "trial_index": 9, "time_elapsed": 236571, "internal_node_id": "0.0-4.0-1.0-0.0"}}, {"uniqueid": "w91869494:a54768029", "current_trial": 59, "dateTime": 1691149362758, "trialdata": {"revealed_states": [], "clicked_states": ["2", "4", "13", "16", "20"], "num_clicks_accrued": [0, 0, 0, 0, 0, 0, 0, 0, 0, 0, 0, 0, 0], "stateRewards": ["", -2, 1, -5, 2, -68, 80, 33, 10, 67, -59, 20, -1, -3, 3, 14, 74, -2, 24, -16, 63, 80, 46, -1, 4, 6, 12, 83, -38, -43, -4, 43, 14, -79], "withholdReward": false, "trial_id": "mdp_trial_2", "block": "test", "trialIndex": 3, "score": 80, "costs": -7, "simulationMode": [null, null, null, null, null], "rewards": [-1, -3, 3, 14, 74], "path": ["0", "0", "12", "13", "14", "15", "16"], "rt": [14896, 2, 6, 89, 3], "actions": ["right", "right", "right", "up", "up"], "actionTimes": [23152, 23992, 24720, 25643, 26491], "queries": {"click": {"state": {"target": ["2", "4", "13", "16", "20"], "time": [10299, 12591, 15110, 19012, 21257]}, "edge": {"target": [], "time": []}}, "mouseover": {"state": {"target": ["2", "7", "4", "12", "13", "14", "15", "17", "16", "14", "19", "20", "21", "22"], "time": [9600, 10903, 11992, 13680, 14755, 15698, 16536, 17257, 18438, 19489, 19846, 20904, 21844, 22547]}, "edge": {"target": [], "time": []}}, "mouseout": {"state": {"target": ["0", "0", "2", "7", "4", "12", "13", "14", "15", "17", "16", "14", "19", "20", "21", "22"], "time": [1001, 9469, 10539, 11875, 13068, 14643, 15585, 16425, 17144, 18121, 19373, 19733, 20793, 21732, 22437, 31657]}, "edge": {"target": [], "time": []}}}, "displayed_time": "29.56", "trialTime": 32314, "trial_type": "mouselab-mdp", "trial_index": 10, "time_elapsed": 277595, "internal_node_id": "0.0-4.0-1.0-1.0"}}, {"uniqueid": "w91869494:a54768029", "current_trial": 60, "dateTime": 1691149395843, "trialdata": {"revealed_states": [], "clicked_states": [], "num_clicks_accrued": [0, 0, 0, 0, 0, 0, 0, 0, 0, 0, 0, 0, 0], "stateRewards": ["", -1, -3, 1, -4, -48, -63, -49, -2, -84, -19, 65, 2, -2, -2, -12, -4, 59, 9, 6, 75, 69, -13, -1, -3, -3, -2, -37, -68, -36, 13, 32, 18, -14], "withholdReward": false, "trial_id": "mdp_trial_3", "block": "test", "trialIndex": 4, "score": -9, "costs": 0, "simulationMode": [null, null, null, null, null], "rewards": [2, -2, -2, 6, -13], "path": ["0", "0", "12", "13", "14", "19", "22"], "rt": [7555, 53, 254, 1, 1], "actions": ["right", "right", "right", "down", "left"], "actionTimes": [15888, 16779, 17888, 18737, 19566], "queries": {"click": {"state": {"target": [], "time": []}, "edge": {"target": [], "time": []}}, "mouseover": {"state": {"target": ["13", "13", "14", "15", "1"], "time": [11331, 11580, 11844, 13797, 14730]}, "edge": {"target": [], "time": []}}, "mouseout": {"state": {"target": ["0", "13", "13", "14", "15", "1"], "time": [10866, 11456, 11719, 13675, 14410, 24687]}, "edge": {"target": [], "time": []}}}, "displayed_time": "23.70", "trialTime": 25621, "trial_type": "mouselab-mdp", "trial_index": 11, "time_elapsed": 310679, "internal_node_id": "0.0-4.0-1.0-2.0"}}, {"uniqueid": "w91869494:a54768029", "current_trial": 61, "dateTime": 1691149445856, "trialdata": {"revealed_states": [], "clicked_states": ["18", "17", "20", "24", "26", "29", "9", "3", "6"], "num_clicks_accrued": [0, 0, 0, 0, 0, 0, 0, 0, 0, 0, 0, 0, 0], "stateRewards": ["", -1, -4, 8, 8, -68, 47, 24, -7, -61, 49, -69, -1, -1, 8, -7, 42, 1, -45, -11, 10, -63, -6, 1, 4, 6, -16, 79, -37, -58, -12, 81, 18, -53], "withholdReward": false, "trial_id": "mdp_trial_4", "block": "test", "trialIndex": 5, "score": 45.4, "costs": -12.600000000000001, "simulationMode": [null, null, null, null, null], "rewards": [-1, -4, 8, 8, 47], "path": ["0", "0", "1", "2", "3", "4", "6"], "rt": [27052, 5, 2, 31, 2], "actions": ["up", "up", "up", "right", "right"], "actionTimes": [36092, 36940, 37796, 38664, 39490], "queries": {"click": {"state": {"target": ["18", "17", "20", "24", "26", "29", "9", "3", "6"], "time": [11105, 14328, 18580, 21213, 23688, 25687, 27854, 29993, 32791]}, "edge": {"target": [], "time": []}}, "mouseover": {"state": {"target": ["0", "18", "7", "16", "17", "19", "22", "21", "21", "20", "23", "24", "25", "26", "27", "29", "9", "8", "3", "5", "6", "7", "10"], "time": [10130, 10855, 11700, 12302, 13421, 15057, 15889, 16723, 17139, 17789, 19540, 20640, 22415, 23255, 24159, 25220, 27142, 28322, 29506, 30593, 31804, 33986, 34984]}, "edge": {"target": [], "time": []}}, "mouseout": {"state": {"target": ["0", "18", "7", "16", "17", "19", "22", "21", "21", "20", "23", "24", "25", "26", "27", "29", "9", "8", "3", "5", "6", "7", "10"], "time": [10742, 11584, 12063, 13123, 14814, 15775, 16608, 16939, 17601, 19061, 20516, 22056, 23014, 23924, 24985, 26044, 28211, 29394, 30355, 31557, 33873, 34739, 41948]}, "edge": {"target": [], "time": []}}}, "displayed_time": "40.31", "trialTime": 42427, "trial_type": "mouselab-mdp", "trial_index": 12, "time_elapsed": 360693, "internal_node_id": "0.0-4.0-1.0-3.0"}}, {"uniqueid": "w91869494:a54768029", "current_trial": 62, "dateTime": 1691149480632, "trialdata": {"revealed_states": [], "clicked_states": ["15", "22", "21"], "num_clicks_accrued": [0, 0, 0, 0, 0, 0, 0, 0, 0, 0, 0, 0, 0], "stateRewards": ["", 1, 1, 5, 6, -29, -7, 3, -16, 9, -46, 65, -1, 4, -1, -16, -63, -77, -87, 8, 80, -50, 43, -1, -1, -5, 5, -38, -71, -62, 9, 81, -50, -52], "withholdReward": false, "trial_id": "mdp_trial_5", "block": "test", "trialIndex": 6, "score": 48.8, "costs": -4.199999999999999, "simulationMode": [null, null, null, null, null, null], "rewards": [-1, 4, -1, 8, 43], "path": ["0", "0", "12", "13", "14", "19", "22"], "rt": [8799, 120, 4, 4, 2, 2], "actions": ["right", "right", "right", "right", "down", "left"], "actionTimes": [16742, 16982, 17747, 18531, 19395, 20239], "queries": {"click": {"state": {"target": ["15", "22", "21"], "time": [9842, 12955, 15532]}, "edge": {"target": [], "time": []}}, "mouseover": {"state": {"target": ["15", "14", "17", "22", "19", "20", "21", "13"], "time": [9446, 10454, 11437, 12484, 13564, 14291, 15155, 16265]}, "edge": {"target": [], "time": []}}, "mouseout": {"state": {"target": ["0", "0", "15", "14", "17", "22", "19", "20", "21", "13", "12"], "time": [827, 9079, 10339, 11318, 12296, 13449, 14176, 15040, 15891, 23691, 25350]}, "edge": {"target": [], "time": []}}}, "displayed_time": "26.02", "trialTime": 27126, "trial_type": "mouselab-mdp", "trial_index": 13, "time_elapsed": 395468, "internal_node_id": "0.0-4.0-1.0-4.0"}}, {"uniqueid": "w91869494:a54768029", "current_trial": 63, "dateTime": 1691149541175, "trialdata": {"revealed_states": [], "clicked_states": ["24", "28", "30", "13", "19", "20", "6", "3", "10", "11"], "num_clicks_accrued": [0, 0, 0, 0, 0, 0, 0, 0, 0, 0, 0, 0, 0], "stateRewards": ["", -2, 4, 3, 5, -61, 4, 30, 1, -47, 83, 10, 1, 4, 7, -14, 19, -74, -83, 6, -2, -2, -65, -1, -2, 4, -11, 12, -1, -68, 11, -38, -28, 66], "withholdReward": false, "trial_id": "mdp_trial_6", "block": "test", "trialIndex": 7, "score": 75, "costs": -14.000000000000002, "simulationMode": [null, null, null, null, null, null], "rewards": [-2, 4, 3, 1, 83], "path": ["0", "0", "1", "2", "3", "8", "10"], "rt": [28739, 119, 3, 924, 3, 1], "actions": ["up", "up", "up", "up", "left", "down"], "actionTimes": [44690, 44926, 45975, 47640, 48454, 49262], "queries": {"click": {"state": {"target": ["24", "28", "30", "13", "19", "20", "6", "3", "10", "11"], "time": [18592, 21128, 23702, 27594, 30256, 32159, 35659, 37951, 41146, 43976]}, "edge": {"target": [], "time": []}}, "mouseover": {"state": {"target": ["0", "24", "25", "26", "28", "27", "29", "30", "33", "32", "12", "13", "14", "22", "19", "21", "20", "17", "16", "6", "4", "4", "3", "2", "7", "10", "8", "9", "11"], "time": [17073, 18352, 19201, 19925, 20654, 21728, 22352, 23464, 24295, 25009, 26148, 26420, 28073, 29041, 29756, 30735, 31689, 32879, 33963, 34730, 36253, 36728, 37568, 38428, 39250, 40673, 41731, 42434, 43140]}, "edge": {"target": [], "time": []}}, "mouseout": {"state": {"target": ["0", "0", "24", "25", "26", "28", "27", "29", "30", "33", "32", "12", "13", "14", "22", "19", "21", "20", "17", "16", "6", "4", "4", "3", "2", "7", "10", "8", "9"], "time": [8918, 18233, 19085, 19811, 20537, 21491, 22233, 22973, 24061, 24895, 25617, 26271, 27958, 28557, 29643, 30620, 31576, 32765, 33727, 34602, 35893, 36490, 37325, 38311, 39140, 39844, 41620, 42323, 43028]}, "edge": {"target": [], "time": []}}}, "displayed_time": "50.09", "trialTime": 52757, "trial_type": "mouselab-mdp", "trial_index": 14, "time_elapsed": 456010, "internal_node_id": "0.0-4.0-1.0-5.0"}}, {"uniqueid": "w91869494:a54768029", "current_trial": 64, "dateTime": 1691149580573, "trialdata": {"revealed_states": [], "clicked_states": ["1", "25", "10", "6"], "num_clicks_accrued": [0, 0, 0, 0, 0, 0, 0, 0, 0, 0, 0, 0, 0], "stateRewards": ["", -2, 2, 3, -7, -31, -33, 29, -8, -57, 50, -83, -1, -1, 5, 13, -23, -62, 25, 5, -66, -85, 14, 1, -2, -1, 16, 71, 33, -19, -14, 5, -43, 79], "withholdReward": false, "trial_id": "mdp_trial_7", "block": "test", "trialIndex": 8, "score": 39.4, "costs": -5.6, "simulationMode": [null, null, null, null, null, null], "rewards": [-2, 2, 3, -8, 50], "path": ["0", "0", "1", "2", "3", "8", "10"], "rt": [12949, 120, 3, 2, 2, 2], "actions": ["up", "up", "up", "up", "left", "down"], "actionTimes": [21343, 21581, 22444, 23324, 24294, 25122], "queries": {"click": {"state": {"target": ["1", "25", "10", "6"], "time": [11864, 15095, 18110, 20268]}, "edge": {"target": [], "time": []}}, "mouseover": {"state": {"target": ["1", "2", "10", "27", "26", "25", "33", "30", "24", "10", "4", "6"], "time": [11622, 12463, 13067, 13665, 14258, 14858, 15697, 16412, 17129, 17605, 18705, 19780]}, "edge": {"target": [], "time": []}}, "mouseout": {"state": {"target": ["0", "0", "1", "2", "10", "27", "26", "25", "33", "30", "24", "10", "4", "6"], "time": [764, 11506, 12344, 12952, 13551, 14143, 14741, 15583, 16299, 17015, 17490, 18591, 19547, 20626]}, "edge": {"target": [], "time": []}}}, "displayed_time": "29.37", "trialTime": 31739, "trial_type": "mouselab-mdp", "trial_index": 15, "time_elapsed": 495410, "internal_node_id": "0.0-4.0-1.0-6.0"}}, {"uniqueid": "w91869494:a54768029", "current_trial": 65, "dateTime": 1691149618383, "trialdata": {"revealed_states": [], "clicked_states": ["15", "9", "10"], "num_clicks_accrued": [0, 0, 0, 0, 0, 0, 0, 0, 0, 0, 0, 0, 0], "stateRewards": ["", 1, 1, -3, 2, 22, -25, -11, -5, 50, 49, 3, 1, -1, 8, 14, -85, -30, 57, -6, -39, -16, 59, -2, -1, 5, 5, 59, -16, 8, 4, 67, 56, -9], "withholdReward": false, "trial_id": "mdp_trial_8", "block": "test", "trialIndex": 9, "score": 39.8, "costs": -4.199999999999999, "simulationMode": [null, null, null, null, null], "rewards": [1, 1, -3, -5, 50], "path": ["0", "0", "1", "2", "3", "8", "9"], "rt": [10825, 1, 1, 9, 28], "actions": ["up", "up", "up", "left", "up"], "actionTimes": [19248, 20001, 20886, 21641, 22516], "queries": {"click": {"state": {"target": ["15", "9", "10"], "time": [11969, 14727, 17065]}, "edge": {"target": [], "time": []}}, "mouseover": {"state": {"target": ["0", "15", "4", "6", "5", "9", "8", "10", "27"], "time": [10018, 11724, 12439, 13162, 13757, 14354, 15326, 16457, 17918]}, "edge": {"target": [], "time": []}}, "mouseout": {"state": {"target": ["0", "0", "15", "4", "6", "5", "9", "8", "10", "27", "11", "10"], "time": [1431, 11609, 12325, 13046, 13643, 14240, 15212, 15929, 17424, 28068, 28611, 29622]}, "edge": {"target": [], "time": []}}}, "displayed_time": "27.56", "trialTime": 30201, "trial_type": "mouselab-mdp", "trial_index": 16, "time_elapsed": 533219, "internal_node_id": "0.0-4.0-1.0-7.0"}}, {"uniqueid": "w91869494:a54768029", "current_trial": 66, "dateTime": 1691149658970, "trialdata": {"revealed_states": [], "clicked_states": ["2", "27", "29", "30", "32", "15"], "num_clicks_accrued": [0, 0, 0, 0, 0, 0, 0, 0, 0, 0, 0, 0, 0], "stateRewards": ["", -2, -2, -7, -13, -10, 49, -68, -1, 84, 70, 88, 1, 4, 4, 12, -57, 25, 30, 8, -1, -77, 57, 2, 3, 2, 3, -18, -80, 23, -15, -41, 70, 11], "withholdReward": false, "trial_id": "mdp_trial_9", "block": "test", "trialIndex": 10, "score": 53.6, "costs": -8.4, "simulationMode": [null, null, null, null, null], "rewards": [2, 3, 2, -15, 70], "path": ["0", "0", "23", "24", "25", "30", "32"], "rt": [19062, 3, 2, 2, 5], "actions": ["left", "left", "left", "down", "down"], "actionTimes": [27393, 28155, 28989, 29809, 30559], "queries": {"click": {"state": {"target": ["2", "27", "29", "30", "32", "15"], "time": [11485, 14343, 16828, 19025, 21315, 24434]}, "edge": {"target": [], "time": []}}, "mouseover": {"state": {"target": ["0", "2", "3", "8", "10", "27", "26", "29", "33", "30", "31", "32", "13", "14", "15", "17", "14", "12"], "time": [10274, 11244, 12072, 12666, 13258, 13847, 14940, 15784, 17806, 18776, 19616, 20716, 22526, 23349, 23947, 25014, 25837, 26186]}, "edge": {"target": [], "time": []}}, "mouseout": {"state": {"target": ["0", "0", "2", "3", "8", "10", "27", "26", "29", "33", "30", "31", "32", "13", "14", "15", "17", "14", "12"], "time": [9673, 11131, 11959, 12551, 13138, 13734, 14826, 15670, 17195, 18661, 19503, 20478, 21671, 23237, 23823, 24903, 25724, 26073, 26421]}, "edge": {"target": [], "time": []}}}, "displayed_time": "31.33", "trialTime": 33044, "trial_type": "mouselab-mdp", "trial_index": 17, "time_elapsed": 573806, "internal_node_id": "0.0-4.0-1.0-8.0"}}, {"uniqueid": "w91869494:a54768029", "current_trial": 67, "dateTime": 1691149714610, "trialdata": {"revealed_states": [], "clicked_states": ["1", "19", "21", "16"], "num_clicks_accrued": [0, 0, 0, 0, 0, 0, 0, 0, 0, 0, 0, 0, 0], "stateRewards": ["", 1, -4, 6, -3, 40, 76, -51, 5, -24, -63, 44, -2, -2, 8, 1, 76, -85, -58, 10, 59, 20, 11, -2, 3, -3, 3, -82, -10, 54, -7, -57, -6, -32], "withholdReward": false, "trial_id": "mdp_trial_10", "block": "test", "trialIndex": 11, "score": 75.4, "costs": -5.6, "simulationMode": [null, null, null, null, null], "rewards": [-2, -2, 8, 1, 76], "path": ["0", "0", "12", "13", "14", "15", "16"], "rt": [15618, 2, 2, 414, 2], "actions": ["right", "right", "right", "up", "up"], "actionTimes": [23869, 24729, 25568, 26710, 27590], "queries": {"click": {"state": {"target": ["1", "19", "21", "16"], "time": [11693, 15713, 18559, 20812]}, "edge": {"target": [], "time": []}}, "mouseover": {"state": {"target": ["1", "18", "15", "14", "19", "19", "22", "20", "21", "15", "16", "6"], "time": [11456, 12291, 12881, 14589, 14827, 15171, 16191, 17390, 18105, 19414, 20486, 22906]}, "edge": {"target": [], "time": []}}, "mouseout": {"state": {"target": ["0", "1", "18", "15", "14", "19", "19", "22", "19", "20", "21", "19", "15", "16"], "time": [11336, 12178, 12767, 14459, 14713, 14953, 16076, 16919, 17277, 17992, 18928, 19173, 20373, 21300]}, "edge": {"target": [], "time": []}}}, "displayed_time": "28.34", "trialTime": 47907, "trial_type": "mouselab-mdp", "trial_index": 18, "time_elapsed": 629447, "internal_node_id": "0.0-4.0-1.0-9.0"}}, {"uniqueid": "w91869494:a54768029", "current_trial": 68, "dateTime": 1691149761689, "trialdata": {"revealed_states": [], "clicked_states": ["1", "6", "15", "13", "20", "24", "26", "29", "31"], "num_clicks_accrued": [0, 0, 0, 0, 0, 0, 0, 0, 0, 0, 0, 0, 0], "stateRewards": ["", 1, 2, 7, 13, 88, -71, 27, 3, 60, 5, -53, -2, 2, -6, -1, -30, 79, 47, -4, -14, 46, 68, 1, 1, 8, 10, -14, 86, 48, -11, -67, -44, 5], "withholdReward": false, "trial_id": "mdp_trial_11", "block": "test", "trialIndex": 12, "score": 55.4, "costs": -12.600000000000001, "simulationMode": [null, null, null, null, null, null], "rewards": [1, 1, 8, 10, 48], "path": ["0", "0", "23", "24", "25", "26", "29"], "rt": [23158, 118, 2, 32, 1440, 34], "actions": ["left", "left", "left", "left", "up", "left"], "actionTimes": [31344, 31581, 32511, 33496, 35753, 36610], "queries": {"click": {"state": {"target": ["1", "6", "15", "13", "20", "24", "26", "29", "31"], "time": [11101, 13961, 16261, 18179, 20844, 23908, 25802, 27797, 30635]}, "edge": {"target": [], "time": []}}, "mouseover": {"state": {"target": ["1", "2", "10", "8", "6", "16", "15", "18", "13", "14", "19", "20", "19", "22", "0", "23", "24", "28", "26", "27", "29", "30", "31"], "time": [10871, 11576, 12052, 12885, 13724, 14696, 15778, 16856, 17702, 18880, 19711, 20424, 21324, 21673, 22387, 22854, 23451, 24380, 25330, 26498, 27319, 28628, 29924]}, "edge": {"target": [], "time": []}}, "mouseout": {"state": {"target": ["6", "0", "1", "2", "10", "8", "6", "16", "15", "18", "13", "14", "19", "20", "19", "22", "0", "23", "24", "28", "26", "27", "29", "30", "31"], "time": [null, 10756, 11462, 11936, 12770, 13610, 14439, 15541, 16741, 17587, 18766, 19599, 20312, 21208, 21560, 22273, 22740, 23338, 24265, 25217, 26269, 27208, 28271, 29812, 38520]}, "edge": {"target": [], "time": []}}}, "displayed_time": "37.43", "trialTime": 39260, "trial_type": "mouselab-mdp", "trial_index": 19, "time_elapsed": 676526, "internal_node_id": "0.0-4.0-1.0-10.0"}}, {"uniqueid": "w91869494:a54768029", "current_trial": 69, "dateTime": 1691149800601, "trialdata": {"revealed_states": [], "clicked_states": ["2", "27", "28", "24"], "num_clicks_accrued": [0, 0, 0, 0, 0, 0, 0, 0, 0, 0, 0, 0, 0], "stateRewards": ["", 1, 2, 3, 16, 63, -25, 16, -4, -14, 82, -66, -1, -3, -3, -11, -14, 19, 46, 3, -34, -82, 66, -2, -3, 4, -5, -63, 77, -37, -1, -45, -41, 84], "withholdReward": false, "trial_id": "mdp_trial_12", "block": "test", "trialIndex": 13, "score": 65.4, "costs": -5.6, "simulationMode": [null, null, null, null, null], "rewards": [-2, -3, 4, -5, 77], "path": ["0", "0", "23", "24", "25", "26", "28"], "rt": [13334, 2, 4, 428, 2], "actions": ["left", "left", "left", "up", "right"], "actionTimes": [21652, 22494, 23223, 24480, 25313], "queries": {"click": {"state": {"target": ["2", "27", "28", "24"], "time": [12413, 15754, 17820, 19834]}, "edge": {"target": [], "time": []}}, "mouseover": {"state": {"target": ["0", "2", "10", "8", "11", "9", "27", "26", "28", "25", "24", "18"], "time": [10678, 12161, 13016, 13614, 14219, 14821, 15422, 16368, 17217, 18415, 19127, 20687]}, "edge": {"target": [], "time": []}}, "mouseout": {"state": {"target": ["0", "2", "10", "8", "11", "9", "27", "26", "28", "25", "24", "18"], "time": [12043, 12901, 13496, 14104, 14704, 15308, 16122, 17101, 18302, 19012, 20424, 21295]}, "edge": {"target": [], "time": []}}}, "displayed_time": "29.32", "trialTime": 31247, "trial_type": "mouselab-mdp", "trial_index": 20, "time_elapsed": 715438, "internal_node_id": "0.0-4.0-1.0-11.0"}}, {"uniqueid": "w91869494:a54768029", "current_trial": 70, "dateTime": 1691149843890, "trialdata": {"revealed_states": [], "clicked_states": [], "num_clicks_accrued": [0, 0, 0, 0, 0, 0, 0, 0, 0, 0, 0, 0, 0], "stateRewards": ["", -2, -3, -7, 7, -54, -69, -4, -14, -77, 22, 40, -2, -1, 5, 6, -35, 50, -60, 10, -28, 75, 57, 1, -4, -2, 2, 68, 34, -18, 12, 3, -21, -43], "withholdReward": false, "trial_id": "mdp_trial_13", "block": "test", "trialIndex": 14, "score": 58, "costs": 0, "simulationMode": [null, null, null, null, null], "rewards": [-2, -1, 5, 6, 50], "path": ["0", "0", "12", "13", "14", "15", "17"], "rt": [5907, 101, 10411, 3068, 2], "actions": ["right", "right", "right", "up", "right"], "actionTimes": [13923, 14885, 26151, 29993, 30851], "queries": {"click": {"state": {"target": [], "time": []}, "edge": {"target": [], "time": []}}, "mouseover": {"state": {"target": ["17", "14", "20", "21"], "time": [12071, 12671, 13145, 13617]}, "edge": {"target": [], "time": []}}, "mouseout": {"state": {"target": ["0", "17", "14", "20", "21"], "time": [11958, 12557, 13032, 13503, 34943]}, "edge": {"target": [], "time": []}}}, "displayed_time": "31.69", "trialTime": 35668, "trial_type": "mouselab-mdp", "trial_index": 21, "time_elapsed": 758726, "internal_node_id": "0.0-4.0-1.0-12.0"}}, {"uniqueid": "w91869494:a54768029", "current_trial": 71, "dateTime": 1691149885469, "trialdata": {"revealed_states": [], "clicked_states": ["13", "7", "2", "11", "28", "29"], "num_clicks_accrued": [0, 0, 0, 0, 0, 0, 0, 0, 0, 0, 0, 0, 0], "stateRewards": ["", 2, -1, 8, -2, -16, 69, -39, -7, -13, -27, -86, 2, -2, 2, 13, -34, -16, -20, -5, 19, 81, 32, -2, -1, 2, -14, 20, 80, 58, 4, 70, 12, 73], "withholdReward": false, "trial_id": "mdp_trial_14", "block": "test", "trialIndex": 15, "score": 56.6, "costs": -8.4, "simulationMode": [null, null, null, null, null, null], "rewards": [-2, -1, 2, -14, 80], "path": ["0", "0", "23", "24", "25", "26", "28"], "rt": [17872, 118, 2, 1319, 41, 2], "actions": ["left", "left", "left", "left", "up", "right"], "actionTimes": [26287, 26524, 27348, 29507, 30374, 31223], "queries": {"click": {"state": {"target": ["13", "7", "2", "11", "28", "29"], "time": [11569, 14473, 16857, 19928, 22598, 25579]}, "edge": {"target": [], "time": []}}, "mouseover": {"state": {"target": ["13", "14", "18", "16", "7", "4", "6", "2", "10", "8", "9", "11", "27", "26", "28", "24", "25", "29"], "time": [11308, 12198, 12791, 13389, 14234, 15065, 15784, 16619, 17446, 18274, 18860, 19572, 20543, 21252, 22095, 23076, 24282, 25030]}, "edge": {"target": [], "time": []}}, "mouseout": {"state": {"target": ["0", "13", "14", "18", "16", "7", "4", "6", "2", "10", "8", "9", "11", "27", "26", "28", "24", "25", "29"], "time": [11189, 12083, 12675, 13274, 14120, 14951, 15669, 16506, 17332, 18161, 18747, 19460, 20432, 21139, 21980, 22961, 23924, 24880, 25934]}, "edge": {"target": [], "time": []}}}, "displayed_time": "32.05", "trialTime": 33941, "trial_type": "mouselab-mdp", "trial_index": 22, "time_elapsed": 800306, "internal_node_id": "0.0-4.0-1.0-13.0"}}, {"uniqueid": "w91869494:a54768029", "current_trial": 72, "dateTime": 1691149922288, "trialdata": {"revealed_states": [], "clicked_states": [], "num_clicks_accrued": [0, 0, 0, 0, 0, 0, 0, 0, 0, 0, 0, 0, 0], "stateRewards": ["", -2, -4, -8, 8, 63, -50, -19, -7, -17, -31, 31, 1, 3, -5, 12, -35, -63, -29, -4, -17, -75, -79, -2, -3, -2, 8, -3, -85, 10, -2, -82, -82, 56], "withholdReward": false, "trial_id": "mdp_trial_15", "block": "test", "trialIndex": 16, "score": -84, "costs": 0, "simulationMode": [null, null, null, null, null], "rewards": [1, 3, -5, -4, -79], "path": ["0", "0", "12", "13", "14", "19", "22"], "rt": [6700, 68, 414, 298, 1], "actions": ["right", "right", "right", "down", "left"], "actionTimes": [15714, 16525, 17684, 18826, 19686], "queries": {"click": {"state": {"target": [], "time": []}, "edge": {"target": [], "time": []}}, "mouseover": {"state": {"target": ["0", "15", "17", "16", "14"], "time": [10130, 13878, 14355, 14846, 15321]}, "edge": {"target": [], "time": []}}, "mouseout": {"state": {"target": ["0", "0", "15", "17", "16", "14", "13", "12"], "time": [1964, 13763, 14239, 14730, 15207, 15711, 27261, 28778]}, "edge": {"target": [], "time": []}}}, "displayed_time": "25.73", "trialTime": 29115, "trial_type": "mouselab-mdp", "trial_index": 23, "time_elapsed": 837125, "internal_node_id": "0.0-4.0-1.0-14.0"}}, {"uniqueid": "w91869494:a54768029", "current_trial": 73, "dateTime": 1691149956082, "trialdata": {"revealed_states": [], "clicked_states": [], "num_clicks_accrued": [0, 0, 0, 0, 0, 0, 0, 0, 0, 0, 0, 0, 0], "stateRewards": ["", -2, -1, 3, -3, 71, -58, -21, 7, -10, -75, -37, 2, 4, -1, -12, -79, -29, -48, 3, -41, -10, -30, -1, -2, 1, -15, 13, 66, 22, -1, -42, -86, -55], "withholdReward": false, "trial_id": "mdp_trial_16", "block": "test", "trialIndex": 17, "score": -55, "costs": 0, "simulationMode": [null, null, null, null, null], "rewards": [2, 4, -1, -12, -48], "path": ["0", "0", "12", "13", "14", "15", "18"], "rt": [6671, 3, 3, 2, 2], "actions": ["right", "right", "right", "up", "left"], "actionTimes": [14923, 15777, 16617, 17456, 18295], "queries": {"click": {"state": {"target": [], "time": []}, "edge": {"target": [], "time": []}}, "mouseover": {"state": {"target": ["8", "9", "11", "4"], "time": [12688, 13174, 13646, 14134]}, "edge": {"target": [], "time": []}}, "mouseout": {"state": {"target": ["0", "8", "9", "11", "4"], "time": [12089, 13061, 13531, 14019, 24403]}, "edge": {"target": [], "time": []}}}, "displayed_time": "24.55", "trialTime": 26212, "trial_type": "mouselab-mdp", "trial_index": 24, "time_elapsed": 870919, "internal_node_id": "0.0-4.0-1.0-15.0"}}, {"uniqueid": "w91869494:a54768029", "current_trial": 74, "dateTime": 1691149997572, "trialdata": {"revealed_states": [], "clicked_states": ["12", "18", "4", "3", "9", "27"], "num_clicks_accrued": [0, 0, 0, 0, 0, 0, 0, 0, 0, 0, 0, 0, 0], "stateRewards": ["", 2, -1, -1, -9, -81, -30, 55, -6, 78, 25, 62, 2, 4, -1, 9, -85, 1, -19, 1, -60, 12, -34, 1, 4, -1, -13, -24, -16, -83, -8, 16, 43, 9], "withholdReward": false, "trial_id": "mdp_trial_17", "block": "test", "trialIndex": 18, "score": 63.6, "costs": -8.4, "simulationMode": [null, null, null, null, null], "rewards": [2, -1, -1, -6, 78], "path": ["0", "0", "1", "2", "3", "8", "9"], "rt": [16891, 21, 2, 39, 2], "actions": ["up", "up", "up", "left", "up"], "actionTimes": [26295, 27064, 27825, 28704, 29548], "queries": {"click": {"state": {"target": ["12", "18", "4", "3", "9", "27"], "time": [12406, 15215, 17146, 20333, 22357, 24357]}, "edge": {"target": [], "time": []}}, "mouseover": {"state": {"target": ["12", "13", "14", "18", "7", "4", "6", "3", "8", "9", "11", "27", "26", "28"], "time": [11785, 13267, 13997, 14851, 15689, 16668, 17851, 19716, 20927, 21880, 22948, 23894, 25052, 25888]}, "edge": {"target": [], "time": []}}, "mouseout": {"state": {"target": ["12", "13", "14", "18", "7", "4", "6", "4", "3", "8", "9", "11", "27", "26", "28", "24"], "time": [13153, 13877, 14735, 15574, 16551, 17619, 19420, 19591, 20814, 21767, 22718, 23783, 24821, 25651, 32761, 33406]}, "edge": {"target": [], "time": []}}}, "displayed_time": "31.30", "trialTime": 33642, "trial_type": "mouselab-mdp", "trial_index": 25, "time_elapsed": 912409, "internal_node_id": "0.0-4.0-1.0-16.0"}}, {"uniqueid": "w91869494:a54768029", "current_trial": 75, "dateTime": 1691150054419, "trialdata": {"revealed_states": [], "clicked_states": ["11", "5", "15", "22", "24", "28", "30", "32", "7", "3", "8"], "num_clicks_accrued": [0, 0, 0, 0, 0, 0, 0, 0, 0, 0, 0, 0, 0], "stateRewards": ["", 1, 4, -8, -5, -15, -7, 21, 13, -30, 40, -65, 1, 1, 5, -14, 35, 27, -38, -11, 36, -58, -47, -2, 4, -3, 13, -16, -49, 22, 15, -56, -44, -10], "withholdReward": false, "trial_id": "mdp_trial_18", "block": "test", "trialIndex": 19, "score": -2.400000000000002, "costs": -15.400000000000002, "simulationMode": [null, null, null, null, null], "rewards": [1, 4, -8, -5, 21], "path": ["0", "0", "1", "2", "3", "4", "7"], "rt": [33514, 1, 2, 2, 1], "actions": ["up", "up", "up", "right", "down"], "actionTimes": [41826, 42670, 43514, 44448, 45272], "queries": {"click": {"state": {"target": ["11", "5", "15", "22", "24", "28", "30", "32", "7", "3", "8"], "time": [11563, 13612, 16491, 19269, 22521, 25065, 28365, 30250, 33769, 36224, 38507]}, "edge": {"target": [], "time": []}}, "mouseover": {"state": {"target": ["11", "9", "5", "6", "16", "15", "17", "14", "22", "19", "20", "23", "24", "25", "26", "28", "27", "29", "30", "33", "32", "31", "2"