{"condition": 0, "counterbalance": 0, "assignmentId": "a82094454", "workerId": "w88903350", "hitId": "h77917215", "currenttrial": 8, "bonus": 0, "data": [{"uniqueid": "w88903350:a82094454", "current_trial": 0, "dateTime": 1693388801836, "trialdata": {"success": true, "trial_type": "fullscreen", "trial_index": 0, "time_elapsed": 4344, "internal_node_id": "0.0-0.0"}}, {"uniqueid": "w88903350:a82094454", "current_trial": 1, "dateTime": 1693388810920, "trialdata": {"view_history": [{"page_index": 0, "viewing_time": 9070}], "rt": 9071, "trial_id": "exp_instructions_control", "trial_type": "instructions", "trial_index": 1, "time_elapsed": 13429, "internal_node_id": "0.0-1.0"}}, {"uniqueid": "w88903350:a82094454", "current_trial": 2, "dateTime": 1693388900998, "trialdata": {"view_history": [{"page_index": 0, "viewing_time": 57130}, {"page_index": 1, "viewing_time": 23830}, {"page_index": 2, "viewing_time": 5973}, {"page_index": 3, "viewing_time": 3144}], "rt": 90079, "trial_id": "mouselab_instructions_1_control", "trial_type": "instructions", "trial_index": 2, "time_elapsed": 103506, "internal_node_id": "0.0-2.0-1.0"}}, {"uniqueid": "w88903350:a82094454", "current_trial": 3, "dateTime": 1693388922778, "trialdata": {"revealed_states": [], "clicked_states": [], "num_clicks_accrued": [0, 0, 0, 0, 0, 0, 0, 0, 0, 0, 0, 0, 0], "stateRewards": ["", -10, -10, 10, -10, 10, 10, -10, -10, 10, -10, -10, -10, -10, -10, -10, 10, 10, -10, -10, -10, -10, 10, -10, -10, 10, 10, -10, -10, -10, 10, 10, -10, 10], "withholdReward": false, "trial_id": "practice_1", "block": "test", "trialIndex": 0, "score": -46.5, "costs": 0, "simulationMode": [null, null, null, null, null], "rewards": [-10, -10, -10, -10, -10], "path": ["0", "0", "12", "13", "14", "19", "20"], "rt": [661, 1114, 1729, 1292, 400], "actions": ["right", "right", "right", "down", "right"], "actionTimes": [7364, 8975, 11207, 13004, 13912], "queries": {"click": {"state": {"target": [], "time": []}, "edge": {"target": [], "time": []}}, "mouseover": {"state": {"target": [], "time": []}, "edge": {"target": [], "time": []}}, "mouseout": {"state": {"target": ["0", "0", "18", "15"], "time": [4829, 18441, 18510, 18526]}, "edge": {"target": [], "time": []}}}, "displayed_time": "14.41", "trialTime": 21054, "trial_type": "mouselab-mdp", "trial_index": 3, "time_elapsed": 125286, "internal_node_id": "0.0-2.0-2.0-0.0"}}, {"uniqueid": "w88903350:a82094454", "current_trial": 4, "dateTime": 1693388935711, "trialdata": {"revealed_states": [], "clicked_states": [], "num_clicks_accrued": [0, 0, 0, 0, 0, 0, 0, 0, 0, 0, 0, 0, 0], "stateRewards": ["", 10, 10, -10, 10, 10, -10, -10, -10, -10, 10, -10, -10, -10, -10, -10, 10, 10, -10, -10, 10, -10, 10, 10, -10, 10, 10, -10, -10, 10, -10, 10, 10, -10], "withholdReward": false, "trial_id": "practice_2", "block": "test", "trialIndex": 1, "score": 33.5, "costs": 0, "simulationMode": [null, null, null, null, null], "rewards": [10, 10, -10, 10, 10], "path": ["0", "0", "1", "2", "3", "4", "5"], "rt": [1775, 311, 176, 461, 303], "actions": ["up", "up", "up", "right", "up"], "actionTimes": [4292, 5107, 5806, 6791, 7599], "queries": {"click": {"state": {"target": [], "time": []}, "edge": {"target": [], "time": []}}, "mouseover": {"state": {"target": [], "time": []}, "edge": {"target": [], "time": []}}, "mouseout": {"state": {"target": ["19", "22", "12", "0", "0", "12", "13", "17"], "time": [609, 641, 1659, 1808, 10377, 10509, 10712, 10762]}, "edge": {"target": [], "time": []}}}, "displayed_time": "8.12", "trialTime": 12573, "trial_type": "mouselab-mdp", "trial_index": 4, "time_elapsed": 138219, "internal_node_id": "0.0-2.0-2.0-1.0"}}, {"uniqueid": "w88903350:a82094454", "current_trial": 5, "dateTime": 1693388963082, "trialdata": {"view_history": [{"page_index": 0, "viewing_time": 20378}, {"page_index": 1, "viewing_time": 6979}], "rt": 27357, "trial_id": "mouselab_instructions_2_control", "trial_type": "instructions", "trial_index": 5, "time_elapsed": 165591, "internal_node_id": "0.0-2.0-3.0"}}, {"uniqueid": "w88903350:a82094454", "current_trial": 6, "dateTime": 1693389009396, "trialdata": {"rt": 46300, "response": {"Q0": "The cost for clicking on nodes may vary between nodes.", "Q1": "The better I perform the higher my bonus will be.", "Q2": "No, the amount of cash at each node of the web may be different each time.", "Q3": "To get the highest total score.", "Q4": "Only before moving the spider.", "Q5": "3 seconds"}, "question_order": [0, 1, 2, 3, 4, 5], "correct": {"Q0": "The cost for clicking on nodes may vary between nodes.", "Q1": "The better I perform the higher my bonus will be.", "Q2": "No, the amount of cash at each node of the web may be different each time.", "Q3": "To get the highest total score.", "Q4": "Only before moving the spider.", "Q5": "3 seconds"}, "trial_id": "mouselab_quiz_control", "trial_type": "survey-multi-choice", "trial_index": 6, "time_elapsed": 211905, "internal_node_id": "0.0-2.0-4.0"}}, {"uniqueid": "w88903350:a82094454", "current_trial": 7, "dateTime": 1693389016965, "trialdata": {"rt": 7557, "response": {"Q0": "No"}, "question_order": [0], "trial_id": "repeat_check", "trial_type": "survey-multi-choice", "trial_index": 7, "time_elapsed": 219473, "internal_node_id": "0.0-4.0-0.0"}}], "questiondata": {"params": {"CODE": "C6DMOQA6", "MIN_TIME": 14, "inspectCost": 1, "startTime": "Wed Aug 30 2023 11:46:35 GMT+0200 (South Africa Standard Time)", "bonusRate": 0.002, "variance": "1_2_4_8_44", "branching": "31123"}}, "eventdata": [{"eventtype": "initialized", "value": null, "timestamp": 1693388794936, "interval": 0}, {"eventtype": "window_resize", "value": [1024, 646], "timestamp": 1693388794936, "interval": 0}, {"eventtype": "window_resize", "value": [1024, 646], "timestamp": 1693388795430, "interval": 494}, {"eventtype": "window_resize", "value": [1366, 768], "timestamp": 1693388801091, "interval": 5661}, {"eventtype": "window_resize", "value": [1024, 646], "timestamp": 1693389022837, "interval": 221746}], "useragent": "Mozilla/5.0 (Windows NT 10.0; Win64; x64) AppleWebKit/537.36 (KHTML, like Gecko) Chrome/116.0.0.0 Safari/537.36", "mode": "live", "id": "w88903350:a82094454", "status": "user data saved", "Beginhit": "2023-08-30 09:46:30.853385", "Beginexp": "2023-08-30 09:46:42.196594", "Endhit": null, "psiturkStatus": 6, "browser": "<redacted>", "platform": "windows", "language": "en-ZA", "excludeReason": "quizfail"}