{"condition": 1, "counterbalance": 0, "assignmentId": "a94811076", "workerId": "w40509605", "hitId": "h24811481", "currenttrial": 56, "bonus": 0, "data": [{"uniqueid": "w40509605:a94811076", "current_trial": 0, "dateTime": 1691159385968, "trialdata": {"success": true, "trial_type": "fullscreen", "trial_index": 0, "time_elapsed": 3526, "internal_node_id": "0.0-0.0"}}, {"uniqueid": "w40509605:a94811076", "current_trial": 1, "dateTime": 1691159395000, "trialdata": {"view_history": [{"page_index": 0, "viewing_time": 9026}], "rt": 9027, "trial_id": "exp_instructions_misaligned", "trial_type": "instructions", "trial_index": 1, "time_elapsed": 12558, "internal_node_id": "0.0-1.0"}}, {"uniqueid": "w40509605:a94811076", "current_trial": 2, "dateTime": 1691159399939, "trialdata": {"success": true, "trial_type": "fullscreen", "trial_index": 2, "time_elapsed": 17497, "internal_node_id": "0.0-2.0-0.0"}}, {"uniqueid": "w40509605:a94811076", "current_trial": 3, "dateTime": 1691159540286, "trialdata": {"view_history": [{"page_index": 0, "viewing_time": 47448}, {"page_index": 1, "viewing_time": 2195}, {"page_index": 0, "viewing_time": 1370}, {"page_index": 1, "viewing_time": 41644}, {"page_index": 2, "viewing_time": 11120}, {"page_index": 3, "viewing_time": 36566}], "rt": 140343, "trial_id": "mouselab_instructions_1_misaligned", "trial_type": "instructions", "trial_index": 3, "time_elapsed": 157844, "internal_node_id": "0.0-2.0-1.0"}}, {"uniqueid": "w40509605:a94811076", "current_trial": 4, "dateTime": 1691159576064, "trialdata": {"revealed_states": [], "clicked_states": [], "num_clicks_accrued": [0, 0, 0, 0, 0, 0, 0, 0, 0, 0, 0, 0, 0], "stateRewards": ["", 10, 10, -10, -10, -10, -10, 10, 10, 10, 10, 10, -10, 10, 10, 10, 10, 10, 10, 10, 10, -10, 10, 10, -10, -10, 10, -10, -10, -10, -10, -10, 10, -10], "withholdReward": false, "trial_id": "practice_1", "block": "test", "trialIndex": 0, "score": -6.5, "costs": 0, "simulationMode": [null, null, null, null, null], "rewards": [10, 10, -10, -10, -10], "path": ["0", "0", "1", "2", "3", "4", "5"], "rt": [14510, 2045, 1625, 154, 623], "actions": ["up", "up", "up", "right", "up"], "actionTimes": [19792, 22362, 24492, 25153, 26289], "queries": {"click": {"state": {"target": [], "time": []}, "edge": {"target": [], "time": []}}, "mouseover": {"state": {"target": ["1", "28", "28", "24", "23", "1", "28", "23", "0"], "time": [14030, 14929, 15149, 15461, 15862, 16078, 17463, 18479, 18595]}, "edge": {"target": [], "time": []}}, "mouseout": {"state": {"target": ["23", "9", "9", "8", "2", "1", "1", "1", "1", "28", "28", "24", "23", "1", "28", "23"], "time": [545, 779, 1545, 1628, 1794, 1978, 3213, 4679, 14811, 15029, 15329, 15780, 15979, 17378, 18429, 18528]}, "edge": {"target": [], "time": []}}}, "displayed_time": "26.80", "trialTime": 35211, "trial_type": "mouselab-mdp", "trial_index": 4, "time_elapsed": 193621, "internal_node_id": "0.0-2.0-2.0-0.0"}}, {"uniqueid": "w40509605:a94811076", "current_trial": 5, "dateTime": 1691159599823, "trialdata": {"revealed_states": [], "clicked_states": ["1", "23", "15"], "num_clicks_accrued": [0, 0, 0, 0, 0, 0, 0, 0, 0, 0, 0, 0, 0], "stateRewards": ["", -10, -10, -10, -10, -10, -10, 10, 10, -10, 10, -10, -10, 10, 10, 10, -10, 10, -10, 10, -10, 10, -10, -10, -10, -10, -10, -10, 10, 10, -10, 10, -10, 10], "withholdReward": false, "trial_id": "practice_2", "block": "test", "trialIndex": 1, "score": -28, "costs": -1.5, "simulationMode": [null, null, null, null, null, null], "rewards": [-10, -10, -10, 10, -10], "path": ["0", "0", "1", "2", "3", "8", "11"], "rt": [9767, 317, 338, 4231, 181, 977], "actions": ["up", "up", "up", "up", "left", "left"], "actionTimes": [11742, 12063, 12914, 17656, 18340, 19836], "queries": {"click": {"state": {"target": ["1", "23", "15"], "time": [7330, 8693, 10759]}, "edge": {"target": [], "time": []}}, "mouseover": {"state": {"target": ["0", "1", "23", "28", "17", "15"], "time": [6821, 7087, 8519, 9309, 10336, 10504]}, "edge": {"target": [], "time": []}}, "mouseout": {"state": {"target": ["0", "0", "1", "1", "23", "28", "17", "15", "16", "15", "17"], "time": [2039, 6838, 7496, 8405, 8846, 9970, 10420, 21539, 21571, 23001, 23036]}, "edge": {"target": [], "time": []}}}, "displayed_time": "20.34", "trialTime": 23582, "trial_type": "mouselab-mdp", "trial_index": 5, "time_elapsed": 217380, "internal_node_id": "0.0-2.0-2.0-1.0"}}, {"uniqueid": "w40509605:a94811076", "current_trial": 6, "dateTime": 1691159634464, "trialdata": {"view_history": [{"page_index": 0, "viewing_time": 24252}, {"page_index": 1, "viewing_time": 5993}, {"page_index": 0, "viewing_time": 3029}, {"page_index": 1, "viewing_time": 1364}], "rt": 34639, "trial_id": "mouselab_instructions_2_misaligned", "trial_type": "instructions", "trial_index": 6, "time_elapsed": 252022, "internal_node_id": "0.0-2.0-3.0"}}, {"uniqueid": "w40509605:a94811076", "current_trial": 7, "dateTime": 1691159676381, "trialdata": {"rt": 41912, "response": {"Q0": "The cost for clicking on nodes may vary between nodes.", "Q1": "The better I perform the higher my bonus will be.", "Q2": "No, the amount of cash at each node of the web may be different each time.", "Q3": "To get the highest total score.", "Q4": "Only before moving the spider.", "Q5": "3 seconds"}, "question_order": [0, 1, 2, 3, 4, 5], "correct": {"Q0": "The cost for clicking on nodes may vary between nodes.", "Q1": "The better I perform the higher my bonus will be.", "Q2": "No, the amount of cash at each node of the web may be different each time.", "Q3": "To get the highest total score.", "Q4": "Only before moving the spider.", "Q5": "3 seconds"}, "trial_id": "mouselab_quiz_misaligned", "trial_type": "survey-multi-choice", "trial_index": 7, "time_elapsed": 293939, "internal_node_id": "0.0-2.0-4.0"}}, {"uniqueid": "w40509605:a94811076", "current_trial": 8, "dateTime": 1691159699338, "trialdata": {"rt": 22945, "stimulus": "\n<h1> Get ready to start the game! </h1>\n\nThank you for reading the instructions. Get ready start with the 40 rounds of this game.\n<br><br>\nIf you need to take a break, feel free to take one after the end of a round, before continuing to the next one.\n<br><br>\nRemember, the more money the spider gets, the bigger your bonus will be!\n<br><br>\n<div style='text-align: center;'>Press <code>space</code> to begin.</div>\n\n<br><br>\n(If, at any point, the <code>space</code> key does not take you to the next page, click once on the text and try again.)", "response": " ", "trial_id": "mdp_ready", "trial_type": "html-keyboard-response", "trial_index": 8, "time_elapsed": 316896, "internal_node_id": "0.0-4.0-0.0"}}, {"uniqueid": "w40509605:a94811076", "current_trial": 9, "dateTime": 1691159722247, "trialdata": {"revealed_states": [], "clicked_states": [], "num_clicks_accrued": [0, 0, 0, 0, 0, 0, 0, 0, 0, 0, 0, 0, 0], "stateRewards": ["", 1, 3, 3, -10, 52, 68, 59, 12, 7, 49, 21, -2, -3, -4, -2, -2, 63, 63, -4, 44, 43, -76, -2, -3, -6, 13, 48, 36, 12, -5, -36, -33, -11], "withholdReward": false, "trial_id": "mdp_trial_1", "block": "test", "trialIndex": 2, "score": 65, "costs": 0, "simulationMode": [null, null, null, null, null], "rewards": [1, 3, 3, -10, 68], "path": ["0", "0", "1", "2", "3", "4", "6"], "rt": [7578, 2598, 977, 1, 528], "actions": ["up", "up", "up", "right", "right"], "actionTimes": [12493, 15597, 17076, 17597, 18656], "queries": {"click": {"state": {"target": [], "time": []}, "edge": {"target": [], "time": []}}, "mouseover": {"state": {"target": ["1", "12"], "time": [6055, 7607]}, "edge": {"target": [], "time": []}}, "mouseout": {"state": {"target": ["12", "1", "1", "12"], "time": [3257, 3523, 7457, 9374]}, "edge": {"target": [], "time": []}}}, "displayed_time": "19.16", "trialTime": 22682, "trial_type": "mouselab-mdp", "trial_index": 9, "time_elapsed": 339804, "internal_node_id": "0.0-4.0-1.0-0.0"}}, {"uniqueid": "w40509605:a94811076", "current_trial": 10, "dateTime": 1691159749788, "trialdata": {"revealed_states": [], "clicked_states": [], "num_clicks_accrued": [0, 0, 0, 0, 0, 0, 0, 0, 0, 0, 0, 0, 0], "stateRewards": ["", -1, -3, 1, 13, -64, -29, 12, -4, -33, 50, 56, 2, -3, 4, 11, -64, -58, -55, 12, 47, 38, -25, -2, 2, 5, -15, 85, 7, 84, 10, 8, 57, 26], "withholdReward": false, "trial_id": "mdp_trial_2", "block": "test", "trialIndex": 3, "score": 49, "costs": 0, "simulationMode": [null, null, null, null, null], "rewards": [-1, -3, 1, -4, 56], "path": ["0", "0", "1", "2", "3", "8", "11"], "rt": [1343, 4592, 973, 27, 659], "actions": ["up", "up", "up", "left", "left"], "actionTimes": [7160, 12269, 13754, 14288, 15472], "queries": {"click": {"state": {"target": [], "time": []}, "edge": {"target": [], "time": []}}, "mouseover": {"state": {"target": [], "time": []}, "edge": {"target": [], "time": []}}, "mouseout": {"state": {"target": ["0", "1", "3", "2", "7", "2"], "time": [5391, 8858, 9108, 9608, 9942, 11374]}, "edge": {"target": [], "time": []}}}, "displayed_time": "19.82", "trialTime": 27260, "trial_type": "mouselab-mdp", "trial_index": 10, "time_elapsed": 367345, "internal_node_id": "0.0-4.0-1.0-1.0"}}, {"uniqueid": "w40509605:a94811076", "current_trial": 11, "dateTime": 1691159770631, "trialdata": {"revealed_states": [], "clicked_states": ["24", "13", "1"], "num_clicks_accrued": [0, 0, 0, 0, 0, 0, 0, 0, 0, 0, 0, 0, 0], "stateRewards": ["", 2, 3, -3, 4, 72, -28, 34, -12, 57, -64, -15, 2, 1, -4, -15, 2, 49, 31, -1, -42, -58, 31, -2, 1, -2, -13, -75, -19, -22, -6, 61, 10, -56], "withholdReward": false, "trial_id": "mdp_trial_3", "block": "test", "trialIndex": 4, "score": 39.55, "costs": -0.44999999999999996, "simulationMode": [null, null, null, null, null], "rewards": [2, 3, -3, 4, 34], "path": ["0", "0", "1", "2", "3", "4", "7"], "rt": [5230, 1358, 1581, 321, 232], "actions": ["up", "up", "up", "right", "down"], "actionTimes": [9657, 11528, 13632, 14455, 15201], "queries": {"click": {"state": {"target": ["24", "13", "1"], "time": [5086, 6430, 7745]}, "edge": {"target": [], "time": []}}, "mouseover": {"state": {"target": ["23", "24", "23", "12", "13", "12", "1"], "time": [4747, 4862, 5617, 5717, 6230, 7266, 7482]}, "edge": {"target": [], "time": []}}, "mouseout": {"state": {"target": ["7", "1", "0", "23", "24", "23", "12", "13", "12", "1", "1", "13"], "time": [2731, 3862, 4077, 4813, 5584, 5665, 5766, 7216, 7384, 7838, 8266, 19946]}, "edge": {"target": [], "time": []}}}, "displayed_time": "18.43", "trialTime": 20526, "trial_type": "mouselab-mdp", "trial_index": 11, "time_elapsed": 388188, "internal_node_id": "0.0-4.0-1.0-2.0"}}, {"uniqueid": "w40509605:a94811076", "current_trial": 12, "dateTime": 1691159792509, "trialdata": {"revealed_states": [], "clicked_states": ["31"], "num_clicks_accrued": [0, 0, 0, 0, 0, 0, 0, 0, 0, 0, 0, 0, 0], "stateRewards": ["", 1, -1, -7, -7, -22, 15, -13, 13, 26, -32, 38, -1, 1, -7, -4, 16, -62, 86, 12, -54, 56, 64, -2, -1, 6, 14, -57, 37, 62, -6, -25, 50, -70], "withholdReward": false, "trial_id": "mdp_trial_4", "block": "test", "trialIndex": 5, "score": -75.15, "costs": -2.15, "simulationMode": [null, null, null, null, null, null], "rewards": [-1, 1, -7, -4, -62], "path": ["0", "0", "12", "13", "14", "15", "17"], "rt": [4849, 884, 1630, 510, 715, 369], "actions": ["right", "right", "right", "right", "up", "right"], "actionTimes": [9034, 9922, 12066, 13079, 14299, 15167], "queries": {"click": {"state": {"target": ["31"], "time": [6767]}, "edge": {"target": [], "time": []}}, "mouseover": {"state": {"target": ["0", "31", "12"], "time": [4812, 6598, 8267]}, "edge": {"target": [], "time": []}}, "mouseout": {"state": {"target": ["0", "0", "31", "12"], "time": [3146, 4913, 6927, 19329]}, "edge": {"target": [], "time": []}}}, "displayed_time": "18.19", "trialTime": 21621, "trial_type": "mouselab-mdp", "trial_index": 12, "time_elapsed": 410066, "internal_node_id": "0.0-4.0-1.0-3.0"}}, {"uniqueid": "w40509605:a94811076", "current_trial": 13, "dateTime": 1691159815920, "trialdata": {"revealed_states": [], "clicked_states": [], "num_clicks_accrued": [0, 0, 0, 0, 0, 0, 0, 0, 0, 0, 0, 0, 0], "stateRewards": ["", -2, -4, -6, 12, -58, -70, -80, 2, 16, -88, -62, 1, 2, -5, 11, 77, -35, -44, -5, 18, -83, 87, 1, -3, -5, 13, -44, -21, -86, 10, -52, 8, 29], "withholdReward": false, "trial_id": "mdp_trial_5", "block": "test", "trialIndex": 6, "score": -80, "costs": 0, "simulationMode": [null, null, null, null, null], "rewards": [1, -3, -5, 13, -86], "path": ["0", "0", "23", "24", "25", "26", "29"], "rt": [1393, 761, 932, 1005, 294], "actions": ["left", "left", "left", "up", "left"], "actionTimes": [5068, 6344, 7794, 9320, 10124], "queries": {"click": {"state": {"target": [], "time": []}, "edge": {"target": [], "time": []}}, "mouseover": {"state": {"target": [], "time": []}, "edge": {"target": [], "time": []}}, "mouseout": {"state": {"target": ["0"], "time": [2943]}, "edge": {"target": [], "time": []}}}, "displayed_time": "17.68", "trialTime": 23181, "trial_type": "mouselab-mdp", "trial_index": 13, "time_elapsed": 433478, "internal_node_id": "0.0-4.0-1.0-4.0"}}, {"uniqueid": "w40509605:a94811076", "current_trial": 14, "dateTime": 1691159836348, "trialdata": {"revealed_states": [], "clicked_states": [], "num_clicks_accrued": [0, 0, 0, 0, 0, 0, 0, 0, 0, 0, 0, 0, 0], "stateRewards": ["", 1, 2, 7, 13, 88, -71, 27, 3, 60, 5, -53, -2, 2, -6, -1, -30, 79, 47, -4, -14, 46, 68, 1, 1, 8, 10, -14, 86, 48, -11, -67, -44, 5], "withholdReward": false, "trial_id": "mdp_trial_6", "block": "test", "trialIndex": 7, "score": 40, "costs": 0, "simulationMode": [null, null, null, null, null], "rewards": [-2, 2, -6, -1, 47], "path": ["0", "0", "12", "13", "14", "15", "18"], "rt": [8096, 619, 771, 1196, 285], "actions": ["right", "right", "right", "up", "left"], "actionTimes": [10531, 11666, 12948, 14655, 15445], "queries": {"click": {"state": {"target": [], "time": []}, "edge": {"target": [], "time": []}}, "mouseover": {"state": {"target": ["12"], "time": [7508]}, "edge": {"target": [], "time": []}}, "mouseout": {"state": {"target": ["1", "12"], "time": [1022, 18055]}, "edge": {"target": [], "time": []}}}, "displayed_time": "16.44", "trialTime": 20190, "trial_type": "mouselab-mdp", "trial_index": 14, "time_elapsed": 453906, "internal_node_id": "0.0-4.0-1.0-5.0"}}, {"uniqueid": "w40509605:a94811076", "current_trial": 15, "dateTime": 1691159861691, "trialdata": {"revealed_states": [], "clicked_states": ["1", "10", "3", "4", "7", "11"], "num_clicks_accrued": [0, 0, 0, 0, 0, 0, 0, 0, 0, 0, 0, 0, 0], "stateRewards": ["", 2, 4, -3, 16, -58, 30, -35, 11, -60, 47, 27, -2, -1, -7, -16, 23, -70, 68, -10, -65, -43, -34, -2, 1, 7, 9, -63, 34, -31, -8, -12, -86, 59], "withholdReward": false, "trial_id": "mdp_trial_7", "block": "test", "trialIndex": 8, "score": 32.3, "costs": -8.7, "simulationMode": [null, null, null, null, null], "rewards": [2, 4, -3, 11, 27], "path": ["0", "0", "1", "2", "3", "8", "11"], "rt": [13488, 921, 580, 309, 272], "actions": ["up", "up", "up", "left", "left"], "actionTimes": [16200, 17634, 18724, 19534, 20318], "queries": {"click": {"state": {"target": ["1", "10", "3", "4", "7", "11"], "time": [3600, 5238, 8038, 8927, 9755, 13294]}, "edge": {"target": [], "time": []}}, "mouseover": {"state": {"target": ["23", "1", "2", "10", "2", "3", "4", "7", "2", "8", "8", "11", "9", "8", "10", "1"], "time": [3191, 3389, 4359, 5084, 5843, 7825, 8763, 9425, 11159, 11275, 12129, 12891, 14226, 14860, 15058, 15158]}, "edge": {"target": [], "time": []}}, "mouseout": {"state": {"target": ["0", "23", "1", "2", "10", "2", "3", "4", "7", "2", "8", "8", "11", "9", "8", "10", "1"], "time": [3158, 3306, 3941, 4547, 5693, 7779, 8693, 9408, 10994, 11175, 11658, 12839, 14126, 14809, 15009, 15075, 15227]}, "edge": {"target": [], "time": []}}}, "displayed_time": "20.82", "trialTime": 25084, "trial_type": "mouselab-mdp", "trial_index": 15, "time_elapsed": 479249, "internal_node_id": "0.0-4.0-1.0-6.0"}}, {"uniqueid": "w40509605:a94811076", "current_trial": 16, "dateTime": 1691159893421, "trialdata": {"revealed_states": [], "clicked_states": ["13", "12", "23", "1", "10", "2"], "num_clicks_accrued": [0, 0, 0, 0, 0, 0, 0, 0, 0, 0, 0, 0, 0], "stateRewards": ["", 1, 2, -3, -6, 50, -7, 7, -7, -80, 21, -1, 2, 2, 4, -1, 33, 84, 1, 14, -53, 81, 6, -2, -2, -3, -9, -87, -38, -59, -5, -74, -3, -71], "withholdReward": false, "trial_id": "mdp_trial_8", "block": "test", "trialIndex": 9, "score": 11.9, "costs": -2.1, "simulationMode": [null, null, null, null, null], "rewards": [1, 2, -3, -7, 21], "path": ["0", "0", "1", "2", "3", "8", "10"], "rt": [17459, 1304, 2471, 1179, 424], "actions": ["up", "up", "up", "left", "down"], "actionTimes": [20785, 22605, 25584, 27257, 28190], "queries": {"click": {"state": {"target": ["13", "12", "23", "1", "10", "2"], "time": [4149, 4919, 6483, 7332, 9430, 14648]}, "edge": {"target": [], "time": []}}, "mouseover": {"state": {"target": ["12", "13", "12", "0", "23", "1", "10", "2", "7", "0", "1", "2", "1", "24", "28"], "time": [3693, 3775, 4712, 5496, 6356, 7026, 8425, 10277, 10828, 12178, 14212, 14442, 17109, 17859, 18509]}, "edge": {"target": [], "time": []}}, "mouseout": {"state": {"target": ["1", "0", "12", "13", "12", "0", "23", "1", "10", "2", "7", "0", "1", "2", "2", "1", "24", "28", "12"], "time": [1262, 3660, 3742, 4564, 5445, 5646, 6597, 8012, 10262, 10293, 11895, 12326, 14292, 16674, 17026, 17695, 18397, 19626, 30640]}, "edge": {"target": [], "time": []}}}, "displayed_time": "28.70", "trialTime": 31518, "trial_type": "mouselab-mdp", "trial_index": 16, "time_elapsed": 510978, "internal_node_id": "0.0-4.0-1.0-7.0"}}, {"uniqueid": "w40509605:a94811076", "current_trial": 17, "dateTime": 1691159912843, "trialdata": {"revealed_states": [], "clicked_states": [], "num_clicks_accrued": [0, 0, 0, 0, 0, 0, 0, 0, 0, 0, 0, 0, 0], "stateRewards": ["", -2, 3, 3, -14, 62, 36, 49, 16, 11, 17, -84, 2, -1, 6, 2, -82, -73, 49, -6, -87, 48, 50, -1, -2, -1, -16, -11, 37, -44, 4, 55, 73, -10], "withholdReward": false, "trial_id": "mdp_trial_9", "block": "test", "trialIndex": 10, "score": -64, "costs": 0, "simulationMode": [null, null, null, null, null], "rewards": [-1, -2, -1, -16, -44], "path": ["0", "0", "23", "24", "25", "26", "29"], "rt": [1521, 670, 414, 196, 740], "actions": ["left", "left", "left", "up", "left"], "actionTimes": [3883, 5057, 5996, 6702, 7963], "queries": {"click": {"state": {"target": [], "time": []}, "edge": {"target": [], "time": []}}, "mouseover": {"state": {"target": [], "time": []}, "edge": {"target": [], "time": []}}, "mouseout": {"state": {"target": ["0"], "time": [1516]}, "edge": {"target": [], "time": []}}}, "displayed_time": "16.36", "trialTime": 19116, "trial_type": "mouselab-mdp", "trial_index": 17, "time_elapsed": 530401, "internal_node_id": "0.0-4.0-1.0-8.0"}}, {"uniqueid": "w40509605:a94811076", "current_trial": 18, "dateTime": 1691159930020, "trialdata": {"revealed_states": [], "clicked_states": [], "num_clicks_accrued": [0, 0, 0, 0, 0, 0, 0, 0, 0, 0, 0, 0, 0], "stateRewards": ["", 1, 2, -3, 6, -88, 74, -45, 7, -46, 40, -77, 1, -4, 4, 3, 22, -25, -59, 8, -83, 19, -60, -1, -1, -1, -8, 26, -29, 64, -7, -88, -51, -55], "withholdReward": false, "trial_id": "mdp_trial_10", "block": "test", "trialIndex": 11, "score": 47, "costs": 0, "simulationMode": [null, null, null, null, null], "rewards": [1, 2, -3, 7, 40], "path": ["0", "0", "1", "2", "3", "8", "10"], "rt": [1539, 2513, 795, 65, 27], "actions": ["up", "up", "up", "left", "down"], "actionTimes": [2659, 5686, 6985, 7552, 8084], "queries": {"click": {"state": {"target": [], "time": []}, "edge": {"target": [], "time": []}}, "mouseover": {"state": {"target": ["1"], "time": [1834]}, "edge": {"target": [], "time": []}}, "mouseout": {"state": {"target": ["0", "1", "0"], "time": [936, 16089, 16634]}, "edge": {"target": [], "time": []}}}, "displayed_time": "15.12", "trialTime": 16875, "trial_type": "mouselab-mdp", "trial_index": 18, "time_elapsed": 547577, "internal_node_id": "0.0-4.0-1.0-9.0"}}, {"uniqueid": "w40509605:a94811076", "current_trial": 19, "dateTime": 1691159951121, "trialdata": {"revealed_states": [], "clicked_states": [], "num_clicks_accrued": [0, 0, 0, 0, 0, 0, 0, 0, 0, 0, 0, 0, 0], "stateRewards": ["", 1, 1, -7, -9, -44, 24, -83, -15, 44, -24, 72, -2, -3, 4, -5, 57, 55, 29, -11, 22, 12, -25, -1, 2, 7, 12, 33, -8, 47, -4, 8, 50, -4], "withholdReward": false, "trial_id": "mdp_trial_11", "block": "test", "trialIndex": 12, "score": 49, "costs": 0, "simulationMode": [null, null, null, null, null], "rewards": [-2, -3, 4, -5, 55], "path": ["0", "0", "12", "13", "14", "15", "17"], "rt": [2522, 751, 1017, 340, 23], "actions": ["right", "right", "right", "up", "right"], "actionTimes": [6248, 7525, 9051, 9915, 10442], "queries": {"click": {"state": {"target": [], "time": []}, "edge": {"target": [], "time": []}}, "mouseover": {"state": {"target": [], "time": []}, "edge": {"target": [], "time": []}}, "mouseout": {"state": {"target": ["0", "0"], "time": [11663, 20497]}, "edge": {"target": [], "time": []}}}, "displayed_time": "17.74", "trialTime": 20743, "trial_type": "mouselab-mdp", "trial_index": 19, "time_elapsed": 568679, "internal_node_id": "0.0-4.0-1.0-10.0"}}, {"uniqueid": "w40509605:a94811076", "current_trial": 20, "dateTime": 1691159984915, "trialdata": {"revealed_states": [], "clicked_states": ["4", "7", "2", "1", "23", "24", "12", "13", "18", "22", "31"], "num_clicks_accrued": [0, 0, 0, 0, 0, 0, 0, 0, 0, 0, 0, 0, 0], "stateRewards": ["", -1, -3, -5, -14, -13, -47, 79, 8, -60, -64, 41, -1, 2, 3, 13, -46, 61, -79, -11, -64, -65, 23, 1, -2, 6, -14, 46, 32, 21, 7, 75, -66, 15], "withholdReward": false, "trial_id": "mdp_trial_12", "block": "test", "trialIndex": 13, "score": 76.55, "costs": -10.450000000000001, "simulationMode": [null, null, null, null, null], "rewards": [1, -2, 6, 7, 75], "path": ["0", "0", "23", "24", "25", "30", "31"], "rt": [25073, 340, 293, 86, 1224], "actions": ["left", "left", "left", "down", "right"], "actionTimes": [26406, 27265, 28070, 28663, 30382], "queries": {"click": {"state": {"target": ["4", "7", "2", "1", "23", "24", "12", "13", "18", "22", "31"], "time": [3793, 4344, 7438, 8972, 10044, 10792, 11814, 12713, 14360, 17511, 21208]}, "edge": {"target": [], "time": []}}, "mouseover": {"state": {"target": ["1", "0", "1", "2", "3", "4", "7", "10", "2", "1", "23", "24", "12", "13", "18", "12", "0", "12", "13", "14", "22", "19", "21", "23", "24", "31", "25", "28", "1"], "time": [2407, 2756, 3191, 3223, 3322, 3589, 4126, 4980, 7172, 8324, 9809, 10590, 11508, 12525, 14039, 15125, 15508, 15708, 15892, 15960, 17305, 18026, 19006, 20281, 20921, 21022, 21959, 22992, 24021]}, "edge": {"target": [], "time": []}}, "mouseout": {"state": {"target": ["0", "0", "1", "0", "1", "2", "3", "4", "4", "7", "10", "2", "1", "23", "24", "12", "13", "18", "12", "0", "12", "13", "14", "22", "19", "21", "23", "24", "31", "25", "28", "1"], "time": [520, 2002, 2754, 3172, 3205, 3240, 3455, 3934, 4109, 4676, 6459, 8242, 9744, 10575, 10944, 11947, 13458, 14945, 15175, 15524, 15757, 15926, 17205, 17666, 18976, 19874, 20296, 20956, 21337, 22925, 23958, 24053]}, "edge": {"target": [], "time": []}}}, "displayed_time": "30.93", "trialTime": 33479, "trial_type": "mouselab-mdp", "trial_index": 20, "time_elapsed": 602472, "internal_node_id": "0.0-4.0-1.0-11.0"}}, {"uniqueid": "w40509605:a94811076", "current_trial": 21, "dateTime": 1691160020321, "trialdata": {"revealed_states": [], "clicked_states": ["26", "27", "28"], "num_clicks_accrued": [0, 0, 0, 0, 0, 0, 0, 0, 0, 0, 0, 0, 0], "stateRewards": ["", -2, 3, -5, -7, 66, 43, -60, -4, -70, -75, 4, -1, 2, 2, -13, 54, 11, -40, -1, 77, 32, 15, -2, 3, -8, -9, -35, 83, -27, 6, -74, -34, 44], "withholdReward": false, "trial_id": "mdp_trial_13", "block": "test", "trialIndex": 14, "score": 61.15, "costs": -5.85, "simulationMode": [null, null, null, null, null], "rewards": [-2, 3, -8, -9, 83], "path": ["0", "0", "23", "24", "25", "26", "28"], "rt": [11464, 151, 121, 407, 169], "actions": ["left", "left", "left", "up", "right"], "actionTimes": [15133, 15803, 16439, 17365, 18039], "queries": {"click": {"state": {"target": ["26", "27", "28"], "time": [5119, 6058, 9506]}, "edge": {"target": [], "time": []}}, "mouseover": {"state": {"target": ["23", "24", "25", "26", "28", "27", "28", "28", "24", "24", "25", "30", "31", "23"], "time": [4402, 4636, 4686, 4852, 5601, 5819, 6553, 8085, 10252, 10653, 10884, 12683, 13483, 14314]}, "edge": {"target": [], "time": []}}, "mouseout": {"state": {"target": ["24", "0", "0", "23", "24", "25", "26", "28", "27", "28", "28", "24", "24", "25", "30", "31", "23", "0", "0"], "time": [655, 2448, 3115, 4585, 4667, 4718, 5550, 5701, 6471, 7702, 10169, 10302, 10686, 12581, 13466, 14164, 14330, 28748, 28883]}, "edge": {"target": [], "time": []}}}, "displayed_time": "18.54", "trialTime": 35048, "trial_type": "mouselab-mdp", "trial_index": 21, "time_elapsed": 637878, "internal_node_id": "0.0-4.0-1.0-12.0"}}, {"uniqueid": "w40509605:a94811076", "current_trial": 22, "dateTime": 1691160055024, "trialdata": {"revealed_states": [], "clicked_states": ["22", "20", "14", "13", "18", "17", "16"], "num_clicks_accrued": [0, 0, 0, 0, 0, 0, 0, 0, 0, 0, 0, 0, 0], "stateRewards": ["", 2, 3, -1, 6, 44, -4, -59, -14, -3, 64, 16, 1, -3, 3, 6, 3, 49, 19, 3, -49, -14, -86, 1, 2, -3, -8, -33, 14, 32, -13, -77, -47, -67], "withholdReward": false, "trial_id": "mdp_trial_14", "block": "test", "trialIndex": 15, "score": 43.95, "costs": -12.05, "simulationMode": [null, null, null, null, null], "rewards": [1, -3, 3, 6, 49], "path": ["0", "0", "12", "13", "14", "15", "17"], "rt": [20683, 236, 103, 270, 194], "actions": ["right", "right", "right", "up", "right"], "actionTimes": [22070, 22804, 23419, 24201, 24894], "queries": {"click": {"state": {"target": ["22", "20", "14", "13", "18", "17", "16"], "time": [3137, 6217, 9104, 11205, 13147, 15992, 18840]}, "edge": {"target": [], "time": []}}, "mouseover": {"state": {"target": ["1", "2", "7", "1", "0", "12", "13", "22", "19", "20", "14", "13", "12", "13", "12", "15", "18", "15", "17", "17", "17", "16", "12"], "time": [1595, 2011, 2228, 2427, 2513, 2594, 2678, 2877, 3798, 5912, 6998, 9748, 10194, 10913, 11684, 12711, 12912, 13630, 13663, 13883, 14379, 17446, 19580]}, "edge": {"target": [], "time": []}}, "mouseout": {"state": {"target": ["0", "1", "2", "7", "1", "0", "12", "13", "22", "19", "20", "14", "13", "12", "13", "12", "15", "18", "15", "17", "17", "17", "18", "16", "12"], "time": [1529, 1796, 2195, 2379, 2460, 2530, 2627, 2794, 3630, 5906, 6897, 9696, 9979, 10875, 11374, 12476, 12877, 13613, 13646, 13696, 13997, 16563, 17046, 19381, 33391]}, "edge": {"target": [], "time": []}}}, "displayed_time": "25.41", "trialTime": 34247, "trial_type": "mouselab-mdp", "trial_index": 22, "time_elapsed": 672581, "internal_node_id": "0.0-4.0-1.0-13.0"}}, {"uniqueid": "w40509605:a94811076", "current_trial": 23, "dateTime": 1691160082951, "trialdata": {"revealed_states": [], "clicked_states": ["2"], "num_clicks_accrued": [0, 0, 0, 0, 0, 0, 0, 0, 0, 0, 0, 0, 0], "stateRewards": ["", -2, 2, -4, -4, -59, 88, 62, -3, 69, -15, -34, 1, -2, -5, 7, -54, -20, 78, -16, -74, -53, -21, 2, -4, 2, 13, -8, -44, 26, 9, 72, 4, 17], "withholdReward": false, "trial_id": "mdp_trial_15", "block": "test", "trialIndex": 16, "score": -67.35, "costs": -0.35, "simulationMode": [null, null, null, null, null], "rewards": [-2, 2, -4, -4, -59], "path": ["0", "0", "1", "2", "3", "4", "5"], "rt": [9938, 979, 919, 117, 50], "actions": ["up", "up", "up", "right", "up"], "actionTimes": [12243, 13717, 15162, 15789, 16339], "queries": {"click": {"state": {"target": ["2"], "time": [3576]}, "edge": {"target": [], "time": []}}, "mouseover": {"state": {"target": ["1", "2", "2", "10", "10", "3", "8", "10", "10", "7", "1"], "time": [2617, 2768, 3182, 4070, 4456, 5001, 5815, 6282, 6513, 8388, 10802]}, "edge": {"target": [], "time": []}}, "mouseout": {"state": {"target": ["12", "1", "2", "2", "10", "10", "3", "8", "10", "10", "7"], "time": [1248, 2684, 2951, 3667, 4121, 4750, 5782, 6265, 6350, 8315, 9386]}, "edge": {"target": [], "time": []}}}, "displayed_time": "16.87", "trialTime": 27631, "trial_type": "mouselab-mdp", "trial_index": 23, "time_elapsed": 700508, "internal_node_id": "0.0-4.0-1.0-14.0"}}, {"uniqueid": "w40509605:a94811076", "current_trial": 24, "dateTime": 1691160138282, "trialdata": {"revealed_states": [], "clicked_states": ["1", "7", "10", "3"], "num_clicks_accrued": [0, 0, 0, 0, 0, 0, 0, 0, 0, 0, 0, 0, 0], "stateRewards": ["", -1, -4, 8, 8, -68, 47, 24, -7, -61, 49, -69, -1, -1, 8, -7, 42, 1, -45, -11, 10, -63, -6, 1, 4, 6, -16, 79, -37, -58, -12, 81, 18, -53], "withholdReward": false, "trial_id": "mdp_trial_16", "block": "test", "trialIndex": 17, "score": 40, "costs": -5, "simulationMode": [null, null, null, null, null], "rewards": [-1, -4, 8, -7, 49], "path": ["0", "0", "1", "2", "3", "8", "10"], "rt": [12553, 777, 187, 123, 2], "actions": ["up", "up", "up", "left", "down"], "actionTimes": [48972, 50268, 50974, 51595, 52120], "queries": {"click": {"state": {"target": ["1", "7", "10", "3"], "time": [37112, 39723, 42540, 45316]}, "edge": {"target": [], "time": []}}, "mouseover": {"state": {"target": ["1", "10", "2", "7", "7", "2", "10", "10", "2", "3"], "time": [36883, 38288, 38983, 39184, 39437, 40722, 41112, 41420, 43520, 44958]}, "edge": {"target": [], "time": []}}, "mouseout": {"state": {"target": ["2", "1", "0", "1", "10", "2", "7", "7", "2", "10", "10", "2", "3"], "time": [35049, 35617, 36771, 37569, 38836, 39151, 39252, 39880, 40988, 41186, 43372, 44939, 46800]}, "edge": {"target": [], "time": []}}}, "displayed_time": "52.66", "trialTime": 54966, "trial_type": "mouselab-mdp", "trial_index": 24, "time_elapsed": 755839, "internal_node_id": "0.0-4.0-1.0-15.0"}}, {"uniqueid": "w40509605:a94811076", "current_trial": 25, "dateTime": 1691160164540, "trialdata": {"revealed_states": [], "clicked_states": ["18", "22", "20", "21"], "num_clicks_accrued": [0, 0, 0, 0, 0, 0, 0, 0, 0, 0, 0, 0, 0], "stateRewards": ["", -2, 2, -5, -6, 10, -66, -58, -10, -11, -63, -70, -1, -4, -5, 7, 66, -64, -43, -3, 45, -37, 4, -2, -2, -6, -4, -30, 33, 43, 15, -32, -65, -59], "withholdReward": false, "trial_id": "mdp_trial_17", "block": "test", "trialIndex": 18, "score": 23.4, "costs": -8.6, "simulationMode": [null, null, null, null, null], "rewards": [-1, -4, -5, -3, 45], "path": ["0", "0", "12", "13", "14", "19", "20"], "rt": [13994, 87, 335, 84, 644], "actions": ["right", "right", "right", "down", "right"], "actionTimes": [17766, 18382, 19251, 19843, 21003], "queries": {"click": {"state": {"target": ["18", "22", "20", "21"], "time": [5213, 7999, 11486, 14267]}, "edge": {"target": [], "time": []}}, "mouseover": {"state": {"target": ["12", "13", "18", "13", "12", "13", "14", "19", "22", "19", "20", "19", "21"], "time": [4337, 4371, 5038, 5773, 6106, 7123, 7200, 7589, 7656, 8740, 9005, 12157, 12408]}, "edge": {"target": [], "time": []}}, "mouseout": {"state": {"target": ["12", "13", "18", "13", "12", "13", "14", "19", "22", "19", "20", "19", "21"], "time": [4354, 4506, 5657, 6023, 7042, 7181, 7523, 7607, 8690, 8873, 12123, 12174, 14419]}, "edge": {"target": [], "time": []}}}, "displayed_time": "21.52", "trialTime": 25912, "trial_type": "mouselab-mdp", "trial_index": 25, "time_elapsed": 782097, "internal_node_id": "0.0-4.0-1.0-16.0"}}, {"uniqueid": "w40509605:a94811076", "current_trial": 26, "dateTime": 1691160185764, "trialdata": {"revealed_states": [], "clicked_states": [], "num_clicks_accrued": [0, 0, 0, 0, 0, 0, 0, 0, 0, 0, 0, 0, 0], "stateRewards": ["", -2, -2, -3, -6, -15, -11, 41, -12, -63, -76, 2, -2, -3, 8, 9, -36, -2, -18, -16, -32, -85, -17, -2, 1, 5, -16, 82, 35, -88, -1, 80, -82, -20], "withholdReward": false, "trial_id": "mdp_trial_18", "block": "test", "trialIndex": 19, "score": -82, "costs": 0, "simulationMode": [null, null, null, null, null], "rewards": [-2, -2, -3, -12, -63], "path": ["0", "0", "1", "2", "3", "8", "9"], "rt": [1533, 107, 815, 47, 38], "actions": ["up", "up", "up", "left", "up"], "actionTimes": [6041, 6656, 7999, 8547, 9104], "queries": {"click": {"state": {"target": [], "time": []}, "edge": {"target": [], "time": []}}, "mouseover": {"state": {"target": [], "time": []}, "edge": {"target": [], "time": []}}, "mouseout": {"state": {"target": ["21", "0", "1", "0", "0"], "time": [3993, 4042, 15993, 16028, 18042]}, "edge": {"target": [], "time": []}}}, "displayed_time": "18.51", "trialTime": 20943, "trial_type": "mouselab-mdp", "trial_index": 26, "time_elapsed": 803321, "internal_node_id": "0.0-4.0-1.0-17.0"}}, {"uniqueid": "w40509605:a94811076", "current_trial": 27, "dateTime": 1691160206730, "trialdata": {"revealed_states": [], "clicked_states": ["23", "24"], "num_clicks_accrued": [0, 0, 0, 0, 0, 0, 0, 0, 0, 0, 0, 0, 0], "stateRewards": ["", -2, 2, 3, -7, -31, -33, 29, -8, -57, 50, -83, -1, -1, 5, 13, -23, -62, 25, 5, -66, -85, 14, 1, -2, -1, 16, 71, 33, -19, -14, 5, -43, 79], "withholdReward": false, "trial_id": "mdp_trial_19", "block": "test", "trialIndex": 20, "score": 46.9, "costs": -0.09999999999999998, "simulationMode": [null, null, null, null, null], "rewards": [1, -2, -1, 16, 33], "path": ["0", "0", "23", "24", "25", "26", "28"], "rt": [7373, 1079, 438, 1774, 3], "actions": ["left", "left", "left", "up", "right"], "actionTimes": [10573, 12169, 13124, 15392, 15909], "queries": {"click": {"state": {"target": ["23", "24"], "time": [5181, 7749]}, "edge": {"target": [], "time": []}}, "mouseover": {"state": {"target": ["0", "23", "1", "24", "23"], "time": [4787, 4966, 5721, 7667, 8286]}, "edge": {"target": [], "time": []}}, "mouseout": {"state": {"target": ["1", "2", "1", "0", "23", "1", "23", "23", "24", "23", "0", "0"], "time": [null, 1314, 1732, 4799, 5638, 6299, 6916, 7401, 8084, 8352, 19931, 20148]}, "edge": {"target": [], "time": []}}}, "displayed_time": "17.20", "trialTime": 20583, "trial_type": "mouselab-mdp", "trial_index": 27, "time_elapsed": 824287, "internal_node_id": "0.0-4.0-1.0-18.0"}}, {"uniqueid": "w40509605:a94811076", "current_trial": 28, "dateTime": 1691160230494, "trialdata": {"revealed_states": [], "clicked_states": ["22", "32"], "num_clicks_accrued": [0, 0, 0, 0, 0, 0, 0, 0, 0, 0, 0, 0, 0], "stateRewards": ["", 1, -1, 8, 4, 76, -33, -17, -3, -1, -54, -74, -2, 2, -5, 13, -51, 63, 83, 1, 84, 29, -36, 2, -1, 7, -12, -10, -44, -43, -14, 8, -69, 19], "withholdReward": false, "trial_id": "mdp_trial_20", "block": "test", "trialIndex": 21, "score": -2.3000000000000007, "costs": -4.3, "simulationMode": [null, null, null, null, null], "rewards": [2, -1, 7, -14, 8], "path": ["0", "0", "23", "24", "25", "30", "31"], "rt": [14625, 395, 424, 306, 490], "actions": ["left", "left", "left", "down", "right"], "actionTimes": [15995, 16907, 17835, 18666, 19650], "queries": {"click": {"state": {"target": ["22", "32"], "time": [2502, 7449]}, "edge": {"target": [], "time": []}}, "mouseover": {"state": {"target": ["22", "21", "31", "32", "31"], "time": [2291, 3112, 6955, 7239, 7991]}, "edge": {"target": [], "time": []}}, "mouseout": {"state": {"target": ["0", "22", "22", "21", "31", "32", "31"], "time": [1940, 2634, 3058, 6873, 6973, 7577, 12206]}, "edge": {"target": [], "time": []}}}, "displayed_time": "20.17", "trialTime": 23439, "trial_type": "mouselab-mdp", "trial_index": 28, "time_elapsed": 848051, "internal_node_id": "0.0-4.0-1.0-19.0"}}, {"uniqueid": "w40509605:a94811076", "current_trial": 29, "dateTime": 1691160256986, "trialdata": {"revealed_states": [], "clicked_states": [], "num_clicks_accrued": [0, 0, 0, 0, 0, 0, 0, 0, 0, 0, 0, 0, 0], "stateRewards": ["", 1, 3, 1, -13, 52, -28, 67, -14, 3, 63, -70, -1, -4, 7, -11, -10, 47, -18, 6, 69, -9, -61, 2, 3, -6, 10, 63, -34, 40, -6, -79, -35, -32], "withholdReward": false, "trial_id": "mdp_trial_21", "block": "test", "trialIndex": 22, "score": 49, "costs": 0, "simulationMode": [null, null, null, null, null], "rewards": [2, 3, -6, 10, 40], "path": ["0", "0", "23", "24", "25", "26", "29"], "rt": [2874, 310, 456, 933, 139], "actions": ["left", "left", "left", "up", "left"], "actionTimes": [6031, 6867, 7848, 9288, 9945], "queries": {"click": {"state": {"target": [], "time": []}, "edge": {"target": [], "time": []}}, "mouseover": {"state": {"target": [], "time": []}, "edge": {"target": [], "time": []}}, "mouseout": {"state": {"target": ["31", "31", "0", "0", "18", "13", "12", "6", "7"], "time": [2345, 2365, 2682, 15349, 15484, 15600, 20685, 21984, 22084]}, "edge": {"target": [], "time": []}}}, "displayed_time": "17.16", "trialTime": 26226, "trial_type": "mouselab-mdp", "trial_index": 29, "time_elapsed": 874543, "internal_node_id": "0.0-4.0-1.0-20.0"}}, {"uniqueid": "w40509605:a94811076", "current_trial": 30, "dateTime": 1691160305843, "trialdata": {"revealed_states": [], "clicked_states": ["1", "7", "10", "11", "9", "5", "18", "22", "20", "21"], "num_clicks_accrued": [0, 0, 0, 0, 0, 0, 0, 0, 0, 0, 0, 0, 0], "stateRewards": ["", -1, 3, 1, -11, -22, -36, 19, -5, -70, -52, 50, -2, -4, 4, -2, -41, -83, 29, -2, 22, 10, -6, -2, 3, -2, 14, 54, 44, 77, -9, -65, -37, -40], "withholdReward": false, "trial_id": "mdp_trial_22", "block": "test", "trialIndex": 23, "score": 28.900000000000002, "costs": -19.099999999999998, "simulationMode": [null, null, null, null, null], "rewards": [-1, 3, 1, -5, 50], "path": ["0", "0", "1", "2", "3", "8", "11"], "rt": [33851, 384, 186, 277, 135], "actions": ["up", "up", "up", "left", "left"], "actionTimes": [39702, 40616, 41314, 42105, 42742], "queries": {"click": {"state": {"target": ["1", "7", "10", "11", "9", "5", "18", "22", "20", "21"], "time": [7762, 9136, 11949, 15109, 18080, 21122, 24182, 27683, 30772, 34328]}, "edge": {"target": [], "time": []}}, "mouseover": {"state": {"target": ["1", "7", "2", "10", "10", "8", "11", "9", "5", "6", "18", "13", "22", "19", "20", "21"], "time": [7541, 8328, 9862, 11229, 11829, 12731, 13843, 15709, 18945, 21761, 23226, 24925, 25491, 28203, 28271, 31413]}, "edge": {"target": [], "time": []}}, "mouseout": {"state": {"target": ["0", "0", "1", "7", "2", "10", "10", "8", "11", "9", "5", "6", "18", "13", "22", "19", "20", "21"], "time": [3157, 7331, 8227, 9299, 11210, 11259, 12543, 13425, 15558, 18201, 21692, 23117, 24899, 25342, 27866, 28234, 31309, 46922]}, "edge": {"target": [], "time": []}}}, "displayed_time": "43.24", "trialTime": 48541, "trial_type": "mouselab-mdp", "trial_index": 30, "time_elapsed": 923400, "internal_node_id": "0.0-4.0-1.0-21.0"}}, {"uniqueid": "w40509605:a94811076", "current_trial": 31, "dateTime": 1691160328520, "trialdata": {"revealed_states": [], "clicked_states": [], "num_clicks_accrued": [0, 0, 0, 0, 0, 0, 0, 0, 0, 0, 0, 0, 0], "stateRewards": ["", -2, 4, -3, -13, 63, -36, 62, 11, 78, 34, -51, 2, -2, 8, -6, -40, -18, 31, 9, 64, 39, 79, 1, 4, -4, 15, -12, 76, 73, -10, -77, 86, -4], "withholdReward": false, "trial_id": "mdp_trial_23", "block": "test", "trialIndex": 24, "score": 96, "costs": 0, "simulationMode": [null, null, null, null, null], "rewards": [2, -2, 8, 9, 79], "path": ["0", "0", "12", "13", "14", "19", "22"], "rt": [1512, 400, 85, 389, 501], "actions": ["right", "right", "right", "down", "left"], "actionTimes": [6478, 7384, 7968, 8872, 9884], "queries": {"click": {"state": {"target": [], "time": []}, "edge": {"target": [], "time": []}}, "mouseover": {"state": {"target": [], "time": []}, "edge": {"target": [], "time": []}}, "mouseout": {"state": {"target": ["0"], "time": [17093]}, "edge": {"target": [], "time": []}}}, "displayed_time": "18.97", "trialTime": 22325, "trial_type": "mouselab-mdp", "trial_index": 31, "time_elapsed": 946077, "internal_node_id": "0.0-4.0-1.0-22.0"}}, {"uniqueid": "w40509605:a94811076", "current_trial": 32, "dateTime": 1691160351728, "trialdata": {"revealed_states": [], "clicked_states": [], "num_clicks_accrued": [0, 0, 0, 0, 0, 0, 0, 0, 0, 0, 0, 0, 0], "stateRewards": ["", 1, 2, 8, -2, 23, -69, -18, -16, 54, -21, 71, -1, -4, 7, 11, 43, -6, 88, 6, -55, 72, 43, 1, -3, -2, -1, 68, -31, -54, 4, -8, 25, -2], "withholdReward": false, "trial_id": "mdp_trial_24", "block": "test", "trialIndex": 25, "score": -2, "costs": 0, "simulationMode": [null, null, null, null, null], "rewards": [1, -3, -2, 4, -2], "path": ["0", "0", "23", "24", "25", "30", "33"], "rt": [2422, 280, 261, 10, 1145], "actions": ["left", "left", "left", "down", "left"], "actionTimes": [8322, 9124, 9904, 10439, 12120], "queries": {"click": {"state": {"target": [], "time": []}, "edge": {"target": [], "time": []}}, "mouseover": {"state": {"target": ["23"], "time": [6569]}, "edge": {"target": [], "time": []}}, "mouseout": {"state": {"target": ["0", "23"], "time": [5086, 7155]}, "edge": {"target": [], "time": []}}}, "displayed_time": "19.90", "trialTime": 22910, "trial_type": "mouselab-mdp", "trial_index": 32, "time_elapsed": 969286, "internal_node_id": "0.0-4.0-1.0-23.0"}}, {"uniqueid": "w40509605:a94811076", "current_trial": 33, "dateTime": 1691160385280, "trialdata": {"revealed_states": [], "clicked_states": [], "num_clicks_accrued": [0, 0, 0, 0, 0, 0, 0, 0, 0, 0, 0, 0, 0], "stateRewards": ["", 1, 1, -3, 2, 22, -25, -11, -5, 50, 49, 3, 1, -1, 8, 14, -85, -30, 57, -6, -39, -16, 59, -2, -1, 5, 5, 59, -16, 8, 4, 67, 56, -9], "withholdReward": false, "trial_id": "mdp_trial_25", "block": "test", "trialIndex": 26, "score": -24, "costs": 0, "simulationMode": [null, null, null, null, null], "rewards": [1, 1, -3, 2, -25], "path": ["0", "0", "1", "2", "3", "4", "6"], "rt": [1702, 834, 572, 592, 361], "actions": ["up", "up", "up", "right", "right"], "actionTimes": [9731, 11093, 12168, 13283, 14152], "queries": {"click": {"state": {"target": [], "time": []}, "edge": {"target": [], "time": []}}, "mouseover": {"state": {"target": [], "time": []}, "edge": {"target": [], "time": []}}, "mouseout": {"state": {"target": ["0", "0"], "time": [7118, 23703]}, "edge": {"target": [], "time": []}}}, "displayed_time": "22.03", "trialTime": 33213, "trial_type": "mouselab-mdp", "trial_index": 33, "time_elapsed": 1002837, "internal_node_id": "0.0-4.0-1.0-24.0"}}, {"uniqueid": "w40509605:a94811076", "current_trial": 34, "dateTime": 1691160405731, "trialdata": {"revealed_states": [], "clicked_states": [], "num_clicks_accrued": [0, 0, 0, 0, 0, 0, 0, 0, 0, 0, 0, 0, 0], "stateRewards": ["", 1, -4, -6, 11, -20, 8, -30, 1, -38, 88, 42, 2, 3, 5, -12, -8, -74, 30, -8, 67, -19, 42, 2, -1, 4, 13, 50, -68, 2, -8, -15, 87, -46], "withholdReward": false, "trial_id": "mdp_trial_26", "block": "test", "trialIndex": 27, "score": 10, "costs": 0, "simulationMode": [null, null, null, null, null], "rewards": [1, -4, -6, 11, 8], "path": ["0", "0", "1", "2", "3", "4", "6"], "rt": [2125, 367, 155, 33, 1061], "actions": ["up", "up", "up", "right", "right"], "actionTimes": [4515, 5386, 6061, 6624, 8218], "queries": {"click": {"state": {"target": [], "time": []}, "edge": {"target": [], "time": []}}, "mouseover": {"state": {"target": [], "time": []}, "edge": {"target": [], "time": []}}, "mouseout": {"state": {"target": ["0"], "time": [1117]}, "edge": {"target": [], "time": []}}}, "displayed_time": "16.39", "trialTime": 20145, "trial_type": "mouselab-mdp", "trial_index": 34, "time_elapsed": 1023287, "internal_node_id": "0.0-4.0-1.0-25.0"}}, {"uniqueid": "w40509605:a94811076", "current_trial": 35, "dateTime": 1691160442088, "trialdata": {"revealed_states": [], "clicked_states": ["23", "25", "31", "32", "33", "29", "27"], "num_clicks_accrued": [0, 0, 0, 0, 0, 0, 0, 0, 0, 0, 0, 0, 0], "stateRewards": ["", -2, 1, -5, 2, -68, 80, 33, 10, 67, -59, 20, -1, -3, 3, 14, 74, -2, 24, -16, 63, 80, 46, -1, 4, 6, 12, 83, -38, -43, -4, 43, 14, -79], "withholdReward": false, "trial_id": "mdp_trial_27", "block": "test", "trialIndex": 28, "score": 92.55, "costs": -11.450000000000001, "simulationMode": [null, null, null, null, null], "rewards": [-1, 4, 6, 12, 83], "path": ["0", "0", "23", "24", "25", "26", "27"], "rt": [21783, 446, 339, 623, 212], "actions": ["left", "left", "left", "up", "up"], "actionTimes": [26446, 27413, 28276, 29412, 30167], "queries": {"click": {"state": {"target": ["23", "25", "31", "32", "33", "29", "27"], "time": [6089, 7891, 10138, 12936, 15900, 18722, 21533]}, "edge": {"target": [], "time": []}}, "mouseover": {"state": {"target": ["23", "24", "25", "30", "31", "31", "32", "33", "25", "24", "26", "29", "26", "28", "27", "11", "8", "9", "11", "10"], "time": [5836, 6759, 7550, 8509, 9549, 9883, 11888, 13870, 16552, 16603, 18036, 18469, 19273, 19369, 20001, 22018, 22102, 22235, 23555, 25334]}, "edge": {"target": [], "time": []}}, "mouseout": {"state": {"target": ["0", "23", "24", "25", "30", "31", "31", "32", "33", "25", "24", "26", "29", "29", "26", "28", "27", "11", "8", "9", "11", "10", "1", "12"], "time": [3949, 6568, 7483, 8468, 9517, 9582, 10884, 13072, 16083, 16571, 17886, 18419, 18851, 19253, 19304, 19969, 21967, 22049, 22117, 23418, 25183, 33583, 34866, 35166]}, "edge": {"target": [], "time": []}}}, "displayed_time": "30.67", "trialTime": 36035, "trial_type": "mouselab-mdp", "trial_index": 35, "time_elapsed": 1059645, "internal_node_id": "0.0-4.0-1.0-26.0"}}, {"uniqueid": "w40509605:a94811076", "current_trial": 36, "dateTime": 1691160487859, "trialdata": {"revealed_states": [], "clicked_states": ["18", "22", "20", "21", "5", "6", "11", "29", "28"], "num_clicks_accrued": [0, 0, 0, 0, 0, 0, 0, 0, 0, 0, 0, 0, 0], "stateRewards": ["", 2, 3, 6, -12, -29, 12, 87, 4, 35, -30, 67, 2, 3, -5, -9, 44, 69, -8, 1, 45, -8, 28, -2, -1, -8, 11, -12, -5, 81, 9, 87, 82, 88], "withholdReward": false, "trial_id": "mdp_trial_28", "block": "test", "trialIndex": 29, "score": 61.650000000000006, "costs": -19.349999999999998, "simulationMode": [null, null, null, null, null], "rewards": [-2, -1, -8, 11, 81], "path": ["0", "0", "23", "24", "25", "26", "29"], "rt": [30961, 9, 163, 508, 1910], "actions": ["left", "left", "left", "up", "left"], "actionTimes": [37740, 38280, 38979, 39990, 42430], "queries": {"click": {"state": {"target": ["18", "22", "20", "21", "5", "6", "11", "29", "28"], "time": [9131, 12315, 15238, 19338, 22346, 25562, 28725, 31687, 34504]}, "edge": {"target": [], "time": []}}, "mouseover": {"state": {"target": ["0", "1", "7", "4", "6", "18", "15", "15", "18", "12", "13", "13", "22", "19", "20", "21", "19", "16", "6", "5", "6", "4", "3", "11", "27", "26", "29", "26", "28", "28", "1", "23", "24", "25"], "time": [6795, 7230, 7362, 7446, 7830, 8178, 8229, 8829, 8897, 9832, 10682, 10981, 11215, 12965, 13216, 16051, 19915, 19971, 20536, 20801, 23698, 26185, 26207, 26530, 29486, 29663, 30015, 32265, 32432, 32472, 35397, 35598, 35998, 36097]}, "edge": {"target": [], "time": []}}, "mouseout": {"state": {"target": ["0", "0", "1", "7", "4", "6", "18", "15", "15", "18", "12", "13", "13", "22", "19", "20", "20", "21", "19", "16", "6", "5", "6", "4", "3", "11", "27", "26", "29", "26", "28", "28", "1", "23", "24", "25"], "time": [6411, 7192, 7264, 7398, 7612, 7928, 8198, 8613, 8880, 9664, 10600, 10914, 11037, 12492, 13000, 15376, 15919, 19898, 19936, 19990, 20586, 22962, 26180, 26202, 26223, 29398, 29503, 29833, 32248, 32299, 32451, 34611, 35512, 35664, 36066, 43977]}, "edge": {"target": [], "time": []}}}, "displayed_time": "42.93", "trialTime": 45423, "trial_type": "mouselab-mdp", "trial_index": 36, "time_elapsed": 1105416, "internal_node_id": "0.0-4.0-1.0-27.0"}}, {"uniqueid": "w40509605:a94811076", "current_trial": 37, "dateTime": 1691160514232, "trialdata": {"revealed_states": [], "clicked_states": [], "num_clicks_accrued": [0, 0, 0, 0, 0, 0, 0, 0, 0, 0, 0, 0, 0], "stateRewards": ["", -2, -3, -7, 7, -54, -69, -4, -14, -77, 22, 40, -2, -1, 5, 6, -35, 50, -60, 10, -28, 75, 57, 1, -4, -2, 2, 68, 34, -18, 12, 3, -21, -43], "withholdReward": false, "trial_id": "mdp_trial_29", "block": "test", "trialIndex": 30, "score": 14, "costs": 0, "simulationMode": [null, null, null, null, null], "rewards": [-2, -3, -7, -14, 40], "path": ["0", "0", "1", "2", "3", "8", "11"], "rt": [3473, 389, 38, 293, 218], "actions": ["up", "up", "up", "left", "left"], "actionTimes": [13282, 14186, 14750, 15558, 16280], "queries": {"click": {"state": {"target": [], "time": []}, "edge": {"target": [], "time": []}}, "mouseover": {"state": {"target": ["1", "27", "11"], "time": [10323, 10990, 11297]}, "edge": {"target": [], "time": []}}, "mouseout": {"state": {"target": ["30", "25", "30", "24", "23", "0", "0", "1", "27", "11", "1", "0"], "time": [null, 4773, 4905, 5105, 5156, 8122, 8389, 10339, 11056, 11440, 25306, 25338]}, "edge": {"target": [], "time": []}}}, "displayed_time": "23.82", "trialTime": 25940, "trial_type": "mouselab-mdp", "trial_index": 37, "time_elapsed": 1131789, "internal_node_id": "0.0-4.0-1.0-28.0"}}, {"uniqueid": "w40509605:a94811076", "current_trial": 38, "dateTime": 1691160540427, "trialdata": {"revealed_states": [], "clicked_states": [], "num_clicks_accrued": [0, 0, 0, 0, 0, 0, 0, 0, 0, 0, 0, 0, 0], "stateRewards": ["", 2, -4, 1, -12, -59, -53, -74, 16, -88, -66, 66, 1, -2, 8, -9, -14, 22, 25, -1, -39, 47, -14, -1, -1, -2, 1, -4, 52, -26, 15, -7, 46, 43], "withholdReward": false, "trial_id": "mdp_trial_30", "block": "test", "trialIndex": 31, "score": -87, "costs": 0, "simulationMode": [null, null, null, null, null], "rewards": [2, -4, 1, -12, -74], "path": ["0", "0", "1", "2", "3", "4", "7"], "rt": [1756, 81, 5, 6, 196], "actions": ["up", "up", "up", "right", "down"], "actionTimes": [4469, 5071, 5594, 6128, 6871], "queries": {"click": {"state": {"target": [], "time": []}, "edge": {"target": [], "time": []}}, "mouseover": {"state": {"target": [], "time": []}, "edge": {"target": [], "time": []}}, "mouseout": {"state": {"target": ["0"], "time": [25223]}, "edge": {"target": [], "time": []}}}, "displayed_time": "16.72", "trialTime": 25813, "trial_type": "mouselab-mdp", "trial_index": 38, "time_elapsed": 1157984, "internal_node_id": "0.0-4.0-1.0-29.0"}}, {"uniqueid": "w40509605:a94811076", "current_trial": 39, "dateTime": 1691160608938, "trialdata": {"revealed_states": [], "clicked_states": [], "num_clicks_accrued": [0, 0, 0, 0, 0, 0, 0, 0, 0, 0, 0, 0, 0], "stateRewards": ["", 1, -2, -8, -3, 31, -84, -55, -14, 15, -58, 17, -2, -3, 7, 7, -12, 48, 67, 4, -44, -68, 46, 2, 3, -5, -7, 76, 27, 5, 11, 57, 52, 59], "withholdReward": false, "trial_id": "mdp_trial_31", "block": "test", "trialIndex": 32, "score": 57, "costs": 0, "simulationMode": [null, null, null, null, null], "rewards": [-2, -3, 7, 7, 48], "path": ["0", "0", "12", "13", "14", "15", "17"], "rt": [1775, 422, 346, 581, 12], "actions": ["right", "right", "right", "up", "right"], "actionTimes": [47068, 48008, 48862, 49947, 50477], "queries": {"click": {"state": {"target": [], "time": []}, "edge": {"target": [], "time": []}}, "mouseover": {"state": {"target": [], "time": []}, "edge": {"target": [], "time": []}}, "mouseout": {"state": {"target": ["0", "0"], "time": [36676, 66210]}, "edge": {"target": [], "time": []}}}, "displayed_time": "59.29", "trialTime": 68156, "trial_type": "mouselab-mdp", "trial_index": 39, "time_elapsed": 1226495, "internal_node_id": "0.0-4.0-1.0-30.0"}}, {"uniqueid": "w40509605:a94811076", "current_trial": 40, "dateTime": 1691160638289, "trialdata": {"revealed_states": [], "clicked_states": [], "num_clicks_accrued": [0, 0, 0, 0, 0, 0, 0, 0, 0, 0, 0, 0, 0], "stateRewards": ["", -2, -3, 8, 14, -73, 73, 84, -12, -2, -50, -17, 2, 1, -2, -9, -44, -27, -33, 16, -63, -47, -66, -2, 1, 4, -5, -33, -11, 50, 9, 38, -79, 31], "withholdReward": false, "trial_id": "mdp_trial_32", "block": "test", "trialIndex": 33, "score": -13, "costs": 0, "simulationMode": [null, null, null, null, null], "rewards": [-2, 1, 4, -5, -11], "path": ["0", "0", "23", "24", "25", "26", "28"], "rt": [3048, 68, 313, 573, 1321], "actions": ["left", "left", "left", "up", "right"], "actionTimes": [9555, 10157, 11001, 12080, 13914], "queries": {"click": {"state": {"target": [], "time": []}, "edge": {"target": [], "time": []}}, "mouseover": {"state": {"target": [], "time": []}, "edge": {"target": [], "time": []}}, "mouseout": {"state": {"target": ["0", "0"], "time": [5584, 28318]}, "edge": {"target": [], "time": []}}}, "displayed_time": "20.51", "trialTime": 28999, "trial_type": "mouselab-mdp", "trial_index": 40, "time_elapsed": 1255846, "internal_node_id": "0.0-4.0-1.0-31.0"}}, {"uniqueid": "w40509605:a94811076", "current_trial": 41, "dateTime": 1691160655760, "trialdata": {"revealed_states": [], "clicked_states": [], "num_clicks_accrued": [0, 0, 0, 0, 0, 0, 0, 0, 0, 0, 0, 0, 0], "stateRewards": ["", -1, 4, -6, -5, -22, -38, -38, -2, -56, 88, 14, -1, -1, -7, -6, 61, -60, 21, 11, 57, 31, -30, -2, -2, 6, -9, -44, -70, -44, -15, 34, 16, -78], "withholdReward": false, "trial_id": "mdp_trial_33", "block": "test", "trialIndex": 34, "score": -91, "costs": 0, "simulationMode": [null, null, null, null, null], "rewards": [-2, -2, 6, -15, -78], "path": ["0", "0", "23", "24", "25", "30", "33"], "rt": [1982, 211, 137, 65, 260], "actions": ["left", "left", "left", "down", "left"], "actionTimes": [3116, 3835, 4475, 5054, 5849], "queries": {"click": {"state": {"target": [], "time": []}, "edge": {"target": [], "time": []}}, "mouseover": {"state": {"target": [], "time": []}, "edge": {"target": [], "time": []}}, "mouseout": {"state": {"target": ["0", "0"], "time": [17, 7700]}, "edge": {"target": [], "time": []}}}, "displayed_time": "15.14", "trialTime": 17057, "trial_type": "mouselab-mdp", "trial_index": 41, "time_elapsed": 1273318, "internal_node_id": "0.0-4.0-1.0-32.0"}}, {"uniqueid": "w40509605:a94811076", "current_trial": 42, "dateTime": 1691160712623, "trialdata": {"revealed_states": [], "clicked_states": ["24", "33", "25", "31", "32", "18", "16", "17", "5", "11", "29", "27", "28", "20", "13"], "num_clicks_accrued": [0, 0, 0, 0, 0, 0, 0, 0, 0, 0, 0, 0, 0], "stateRewards": ["", -2, 1, -3, -16, -39, -52, 30, -7, -41, -59, 11, 2, 1, 8, 2, -11, -26, -42, -13, 87, -59, -48, -1, -1, -1, 16, -79, 31, 50, -1, -84, 34, -82], "withholdReward": false, "trial_id": "mdp_trial_34", "block": "test", "trialIndex": 35, "score": 57.550000000000004, "costs": -27.449999999999996, "simulationMode": [null, null, null, null, null], "rewards": [2, 1, 8, -13, 87], "path": ["0", "0", "12", "13", "14", "19", "20"], "rt": [45955, 48, 16, 374, 538], "actions": ["right", "right", "right", "down", "right"], "actionTimes": [47846, 48419, 48966, 49858, 50923], "queries": {"click": {"state": {"target": ["24", "33", "25", "31", "32", "18", "16", "17", "5", "11", "29", "27", "28", "20", "13"], "time": [4205, 5929, 9090, 11417, 14792, 18485, 21725, 24583, 27382, 30433, 33384, 36221, 39075, 41926, 45411]}, "edge": {"target": [], "time": []}}, "mouseover": {"state": {"target": ["23", "24", "23", "24", "25", "33", "25", "31", "32", "23", "15", "17", "18", "18", "16", "17", "15", "7", "4", "5", "8", "11", "25", "29", "29", "27", "28", "15", "20", "19", "22", "14", "22", "13", "14"], "time": [2481, 2831, 3231, 3481, 4731, 4967, 6467, 10429, 12083, 15333, 15401, 15450, 15834, 16115, 19119, 22249, 25165, 25237, 25332, 26033, 28000, 28317, 30885, 31319, 31948, 34581, 37382, 39591, 40147, 42419, 42667, 44780, 44915, 45064, 45847]}, "edge": {"target": [], "time": []}}, "mouseout": {"state": {"target": ["0", "23", "24", "23", "24", "25", "33", "25", "25", "31", "32", "23", "15", "17", "18", "18", "16", "17", "15", "7", "4", "5", "8", "11", "11", "25", "29", "29", "27", "28", "15", "20", "19", "22", "14", "22", "13", "14"], "time": [1366, 2566, 3132, 3414, 4682, 4817, 6109, 9256, 9916, 11965, 15268, 15350, 15418, 15582, 15865, 18499, 22183, 24725, 25182, 25302, 25551, 27935, 28053, 30622, 30840, 30902, 31582, 33988, 36646, 39515, 39618, 42385, 42458, 44615, 44880, 45015, 45443, 45898]}, "edge": {"target": [], "time": []}}}, "displayed_time": "51.43", "trialTime": 56484, "trial_type": "mouselab-mdp", "trial_index": 42, "time_elapsed": 1330180, "internal_node_id": "0.0-4.0-1.0-33.0"}}, {"uniqueid": "w40509605:a94811076", "current_trial": 43, "dateTime": 1691160750489, "trialdata": {"revealed_states": [], "clicked_states": ["20", "22", "21", "17", "16", "18", "31"], "num_clicks_accrued": [0, 0, 0, 0, 0, 0, 0, 0, 0, 0, 0, 0, 0], "stateRewards": ["", 1, 3, -2, 15, 51, 15, -19, 11, 67, -45, -73, 2, 4, -2, -13, 36, 9, -28, 10, -30, 31, 16, 1, 2, -1, -16, 14, -22, 36, -1, 88, -5, 45], "withholdReward": false, "trial_id": "mdp_trial_35", "block": "test", "trialIndex": 36, "score": 73.95, "costs": -15.05, "simulationMode": [null, null, null, null, null], "rewards": [1, 2, -1, -1, 88], "path": ["0", "0", "23", "24", "25", "30", "31"], "rt": [24570, 342, 5, 321, 18], "actions": ["left", "left", "left", "down", "right"], "actionTimes": [27027, 27873, 28404, 29235, 29767], "queries": {"click": {"state": {"target": ["20", "22", "21", "17", "16", "18", "31"], "time": [3851, 6648, 10028, 12916, 15902, 18816, 21695]}, "edge": {"target": [], "time": []}}, "mouseover": {"state": {"target": ["12", "22", "19", "20", "19", "22", "21", "19", "14", "15", "17", "15", "16", "18", "23", "24", "25", "31", "31", "32"], "time": [3128, 3208, 3410, 3660, 4382, 4833, 7251, 10529, 10620, 10912, 11104, 13545, 13600, 16515, 19583, 19760, 20383, 20534, 20782, 22377]}, "edge": {"target": [], "time": []}}, "mouseout": {"state": {"target": ["20", "19", "22", "0", "12", "22", "19", "20", "19", "22", "22", "21", "19", "14", "15", "17", "15", "16", "16", "18", "23", "24", "25", "31", "31", "32", "31"], "time": [1195, 1225, 1259, 3109, 3144, 3377, 3443, 4361, 4422, 6825, 7195, 10169, 10580, 10781, 10996, 13097, 13565, 16054, 16315, 19480, 19635, 20313, 20515, 20553, 22247, 25260, 25311]}, "edge": {"target": [], "time": []}}}, "displayed_time": "30.30", "trialTime": 37497, "trial_type": "mouselab-mdp", "trial_index": 43, "time_elapsed": 1368046, "internal_node_id": "0.0-4.0-1.0-34.0"}}, {"uniqueid": "w40509605:a94811076", "current_trial": 44, "dateTime": 1691160781166, "trialdata": {"revealed_states": [], "clicked_states": ["27", "28", "29", "25", "33"], "num_clicks_accrued": [0, 0, 0, 0, 0, 0, 0, 0, 0, 0, 0, 0, 0], "stateRewards": ["", 1, -2, -8, -13, 4, 34, -84, -4, -49, 88, -70, -1, 3, -4, 10, -77, 13, -34, 15, -21, -16, 27, 1, -2, 8, -8, -6, 38, -26, 6, -15, 66, -3], "withholdReward": false, "trial_id": "mdp_trial_36", "block": "test", "trialIndex": 37, "score": -27.549999999999997, "costs": -9.549999999999999, "simulationMode": [null, null, null, null, null], "rewards": [1, -2, -8, -13, 4], "path": ["0", "0", "1", "2", "3", "4", "5"], "rt": [22491, 342, 463, 514, 122], "actions": ["up", "up", "up", "right", "up"], "actionTimes": [24191, 25043, 26031, 27075, 27708], "queries": {"click": {"state": {"target": ["27", "28", "29", "25", "33"], "time": [3749, 6637, 9970, 12938, 14133]}, "edge": {"target": [], "time": []}}, "mouseover": {"state": {"target": ["1", "12", "28", "27", "28", "26", "29", "33", "25", "33", "32", "5", "4"], "time": [2263, 2881, 3181, 3448, 4155, 7196, 7482, 10908, 11833, 13599, 16035, 20420, 21384]}, "edge": {"target": [], "time": []}}, "mouseout": {"state": {"target": ["0", "1", "12", "28", "27", "28", "26", "29", "33", "25", "33", "33", "32", "5"], "time": [2094, 2597, 3081, 3198, 4102, 7193, 7228, 10547, 11564, 13550, 14313, 16003, 20418, 21361]}, "edge": {"target": [], "time": []}}}, "displayed_time": "28.24", "trialTime": 30313, "trial_type": "mouselab-mdp", "trial_index": 44, "time_elapsed": 1398723, "internal_node_id": "0.0-4.0-1.0-35.0"}}, {"uniqueid": "w40509605:a94811076", "current_trial": 45, "dateTime": 1691160812268, "trialdata": {"revealed_states": [], "clicked_states": ["2", "3", "11"], "num_clicks_accrued": [0, 0, 0, 0, 0, 0, 0, 0, 0, 0, 0, 0, 0], "stateRewards": ["", -2, 1, 6, -2, -10, -78, -69, 14, -15, 7, -1, 1, -1, -2, 13, 77, 32, 87, 5, -74, 30, -26, 1, 3, 4, 12, 39, 54, -43, 2, 10, 23, 13], "withholdReward": false, "trial_id": "mdp_trial_37", "block": "test", "trialIndex": 38, "score": -69.45, "costs": -3.4499999999999997, "simulationMode": [null, null, null, null, null], "rewards": [-2, 1, 6, -2, -69], "path": ["0", "0", "1", "2", "3", "4", "7"], "rt": [8195, 347, 241, 104, 586], "actions": ["up", "up", "up", "right", "down"], "actionTimes": [23223, 24084, 24849, 25474, 26575], "queries": {"click": {"state": {"target": ["2", "3", "11"], "time": [17400, 18729, 19822]}, "edge": {"target": [], "time": []}}, "mouseover": {"state": {"target": ["1", "2", "2", "3", "8", "11", "10", "10"], "time": [16384, 16516, 17082, 18393, 19133, 19405, 20249, 21470]}, "edge": {"target": [], "time": []}}, "mouseout": {"state": {"target": ["5", "4", "7", "0", "1", "2", "2", "2", "3", "8", "11", "10", "10", "1"], "time": [13798, 14164, 14230, 16232, 16481, 16632, 17582, 18350, 18922, 19188, 20217, 21400, 22117, 29730]}, "edge": {"target": [], "time": []}}}, "displayed_time": "29.03", "trialTime": 30753, "trial_type": "mouselab-mdp", "trial_index": 45, "time_elapsed": 1429826, "internal_node_id": "0.0-4.0-1.0-36.0"}}, {"uniqueid": "w40509605:a94811076", "current_trial": 46, "dateTime": 1691160846141, "trialdata": {"revealed_states": [], "clicked_states": ["18", "16", "20", "22", "32", "33"], "num_clicks_accrued": [0, 0, 0, 0, 0, 0, 0, 0, 0, 0, 0, 0, 0], "stateRewards": ["", -1, 1, -5, -6, -78, 47, -13, 12, 48, -88, 20, 2, -3, -2, 13, -20, 37, -57, 14, -38, 30, 31, -2, -2, 8, 2, -23, 78, 28, 12, -74, -88, 8], "withholdReward": false, "trial_id": "mdp_trial_38", "block": "test", "trialIndex": 39, "score": 11.100000000000001, "costs": -12.9, "simulationMode": [null, null, null, null, null], "rewards": [-2, -2, 8, 12, 8], "path": ["0", "0", "23", "24", "25", "30", "33"], "rt": [21092, 276, 379, 500, 235], "actions": ["left", "left", "left", "down", "left"], "actionTimes": [22475, 23276, 24152, 25171, 25924], "queries": {"click": {"state": {"target": ["18", "16", "20", "22", "32", "33"], "time": [2789, 5692, 8577, 11459, 14356, 17718]}, "edge": {"target": [], "time": []}}, "mouseover": {"state": {"target": ["12", "18", "15", "18", "16", "16", "17", "20", "19", "22", "32", "32", "33", "30", "31", "25", "26", "28", "0"], "time": [2051, 2267, 2332, 2567, 3136, 3392, 6335, 6635, 9063, 9335, 12389, 12898, 15204, 18172, 18248, 21149, 21433, 21483, 21683]}, "edge": {"target": [], "time": []}}, "mouseout": {"state": {"target": ["1", "12", "18", "15", "18", "16", "16", "16", "17", "20", "19", "22", "32", "32", "33", "30", "31", "25", "26", "28", "0", "22"], "time": [881, 2217, 2300, 2535, 2947, 3189, 5833, 6303, 6370, 8715, 9172, 12019, 12441, 14459, 18052, 18211, 20948, 21250, 21451, 21519, 28685, 29832]}, "edge": {"target": [], "time": []}}}, "displayed_time": "26.44", "trialTime": 33545, "trial_type": "mouselab-mdp", "trial_index": 46, "time_elapsed": 1463699, "internal_node_id": "0.0-4.0-1.0-37.0"}}, {"uniqueid": "w40509605:a94811076", "current_trial": 47, "dateTime": 1691160866760, "trialdata": {"revealed_states": [], "clicked_states": [], "num_clicks_accrued": [0, 0, 0, 0, 0, 0, 0, 0, 0, 0, 0, 0, 0], "stateRewards": ["", 2, -4, -4, 13, -80, 62, 13, -11, 57, -13, -44, 1, 4, 3, -4, -29, -88, 15, 16, -58, 68, -45, -1, -3, -1, -9, -44, -86, -19, -7, -36, 59, 66], "withholdReward": false, "trial_id": "mdp_trial_39", "block": "test", "trialIndex": 40, "score": -30, "costs": 0, "simulationMode": [null, null, null, null, null], "rewards": [2, -4, -4, -11, -13], "path": ["0", "0", "1", "2", "3", "8", "10"], "rt": [2022, 1887, 348, 1012, 205], "actions": ["up", "up", "up", "left", "down"], "actionTimes": [4106, 6535, 7378, 8909, 9635], "queries": {"click": {"state": {"target": [], "time": []}, "edge": {"target": [], "time": []}}, "mouseover": {"state": {"target": ["1", "1"], "time": [2658, 3090]}, "edge": {"target": [], "time": []}}, "mouseout": {"state": {"target": ["0", "1"], "time": [2542, 2723]}, "edge": {"target": [], "time": []}}}, "displayed_time": "16.09", "trialTime": 20273, "trial_type": "mouselab-mdp", "trial_index": 47, "time_elapsed": 1484318, "internal_node_id": "0.0-4.0-1.0-38.0"}}, {"uniqueid": "w40509605:a94811076", "current_trial": 48, "dateTime": 1691160897620, "trialdata": {"revealed_states": [], "clicked_states": ["23", "28", "27", "29", "9", "11"], "num_clicks_accrued": [0, 0, 0, 0, 0, 0, 0, 0, 0, 0, 0, 0, 0], "stateRewards": ["", -1, -3, -6, 14, 41, 18, 63, -14, 80, 21, 17, -2, -4, -2, -5, 13, 70, 8, -4, -64, -10, -20, 2, -1, 4, -1, -17, -55, 42, -7, 47, 54, 15], "withholdReward": false, "trial_id": "mdp_trial_40", "block": "test", "trialIndex": 41, "score": 45.5, "costs": -10.5, "simulationMode": [null, null, null, null, null, null], "rewards": [-1, -3, -6, -14, 80], "path": ["0", "0", "1", "2", "3", "8", "9"], "rt": [16274, 145, 76, 45, 559, 538], "actions": ["up", "up", "up", "up", "left", "up"], "actionTimes": [18156, 18312, 18917, 19495, 20574, 21638], "queries": {"click": {"state": {"target": ["23", "28", "27", "29", "9", "11"], "time": [3414, 4830, 7630, 10643, 13495, 16288]}, "edge": {"target": [], "time": []}}, "mouseover": {"state": {"target": ["23", "28", "28", "27", "29", "33", "33", "9", "11", "8", "3", "4"], "time": [3211, 4216, 4660, 5403, 8404, 11204, 12229, 12628, 14099, 16798, 16821, 17046]}, "edge": {"target": [], "time": []}}, "mouseout": {"state": {"target": ["1", "23", "28", "28", "27", "29", "33", "33", "9", "11", "8", "3", "4"], "time": [1077, 3575, 4238, 5349, 8264, 11167, 11244, 12286, 14013, 16778, 16817, 16838, 17278]}, "edge": {"target": [], "time": []}}}, "displayed_time": "22.16", "trialTime": 30537, "trial_type": "mouselab-mdp", "trial_index": 48, "time_elapsed": 1515177, "internal_node_id": "0.0-4.0-1.0-39.0"}}, {"uniqueid": "w40509605:a94811076", "current_trial": 49, "dateTime": 1691160961556, "trialdata": {"rt": 63928, "response": {"Q0": "$-16 to 16", "Q1": "$-4 to $4", "Q2": "$-88 to $88", "Q3": "The cost for clicking on nodes varied between nodes.", "Q4": "Slightly motivated"}, "question_order": [0, 1, 2, 3, 4], "trial_id": "final_quiz_control", "trial_type": "survey-multi-choice", "trial_index": 49, "time_elapsed": 1579114, "internal_node_id": "0.0-4.0-2.0"}}, {"uniqueid": "w40509605:a94811076", "current_trial": 50, "dateTime": 1691161144666, "trialdata": {"rt": 183097, "response": {"Q0": "I STARTED CHECKING NODES OPPOSITE THE BOARD FROM WHERE I PRVIOUSLY CHECKED/STARTED THE PREVIOUS ROUND... OR SOMETIMES, THE SAME ROUTE FOR THE SUBSEQUENT ROUND.", "Q1": "of the nodes i checked, i always landed on the highest possible based on the amount i was starting off (cost of checking nodes)", "Q2": "it wasn't a foolproof strategy, so sometimes, it just didnt work well. "}, "trial_id": "self_report_control", "trial_type": "survey-text", "trial_index": 50, "time_elapsed": 1762224, "internal_node_id": "0.0-4.0-3.0"}}, {"uniqueid": "w40509605:a94811076", "current_trial": 51, "dateTime": 1691161188180, "trialdata": {"rt": 43507, "response": {"Q0": "Strongly disagree", "Q1": "Neither disagree nor agree", "Q2": "Strongly disagree", "Q3": "Agree", "Q4": "Agree", "Q5": "Disagree", "Q6": "Neither disagree nor agree"}, "question_order": [0, 1, 2, 3, 4, 5, 6], "trial_id": "self_report_2", "trial_type": "survey-multi-choice", "trial_index": 51, "time_elapsed": 1805738, "internal_node_id": "0.0-4.0-4.0"}}, {"uniqueid": "w40509605:a94811076", "current_trial": 52, "dateTime": 1691161221747, "trialdata": {"rt": 33553, "response": {"gender": "female", "age": "28", "colorblind": "0", "effort": "1"}, "trial_type": "survey-html-form", "trial_index": 52, "time_elapsed": 1839305, "internal_node_id": "0.0-4.0-5.0"}}, {"uniqueid": "w40509605:a94811076", "current_trial": 53, "dateTime": 1691161273556, "trialdata": {"rt": 51798, "response": {"Q0": "too many rules. too much writing and words. bullet point form instructions, keep the main thing the main thing.", "Q1": "No, I don't think I had.", "Q2": "nope."}, "trial_type": "survey-text", "trial_index": 53, "time_elapsed": 1891114, "internal_node_id": "0.0-4.0-6.0"}}, {"uniqueid": "w40509605:a94811076", "current_trial": 54, "dateTime": 1691161276599, "trialdata": {"rt": 3036, "stimulus": "Press 'Finish HIT' in order to reach the completion code. Once the data has been saved, you will receive the code either in this window or in the original browser window where you started the experiment.\n", "response": 0, "trial_type": "html-button-response", "trial_index": 54, "time_elapsed": 1894157, "internal_node_id": "0.0-5.0"}}, {"uniqueid": "w40509605:a94811076", "current_trial": 55, "dateTime": 1691161277607, "trialdata": {"success": true, "trial_type": "fullscreen", "trial_index": 55, "time_elapsed": 1895165, "internal_node_id": "0.0-6.0"}}], "questiondata": {"params": {"CODE": "C6DMOQA6", "MIN_TIME": 14, "inspectCost": 1, "startTime": "Fri Aug 04 2023 16:29:40 GMT+0200 (South Africa Standard Time)", "bonusRate": 0.002, "variance": "1_2_4_8_44", "branching": "31123"}, "final_score": 508.1}, "eventdata": [{"eventtype": "initialized", "value": null, "timestamp": 1691159379912, "interval": 0}, {"eventtype": "window_resize", "value": [1032, 608], "timestamp": 1691159379912, "interval": 0}, {"eventtype": "window_resize", "value": [1032, 608], "timestamp": 1691159380399, "interval": 487}, {"eventtype": "window_resize", "value": [1280, 720], "timestamp": 1691159385211, "interval": 4812}, {"eventtype": "window_resize", "value": [1032, 608], "timestamp": 1691161276872, "interval": 1891661}], "useragent": "Mozilla/5.0 (Windows NT 10.0; Win64; x64) AppleWebKit/537.36 (KHTML, like Gecko) Chrome/115.0.0.0 Safari/537.36", "mode": "live", "id": "w40509605:a94811076", "status": "user data saved", "Beginhit": "2023-08-04 14:29:36.816454", "Beginexp": "2023-08-04 14:29:46.058881", "Endhit": "2023-08-04 15:01:18.587953", "psiturkStatus": 3, "browser": "<redacted>", "platform": "windows", "language": "en-US", "excludeReason": "invalidClickStrats"}