{"condition": 0, "counterbalance": 0, "assignmentId": "a59393619", "workerId": "w14885624", "hitId": "h62014170", "currenttrial": 56, "bonus": 0, "data": [{"uniqueid": "w14885624:a59393619", "current_trial": 0, "dateTime": 1693834678830, "trialdata": {"success": true, "trial_type": "fullscreen", "trial_index": 0, "time_elapsed": 8086, "internal_node_id": "0.0-0.0"}}, {"uniqueid": "w14885624:a59393619", "current_trial": 1, "dateTime": 1693834710475, "trialdata": {"view_history": [{"page_index": 0, "viewing_time": 31628}], "rt": 31631, "trial_id": "exp_instructions_misaligned", "trial_type": "instructions", "trial_index": 1, "time_elapsed": 39731, "internal_node_id": "0.0-1.0"}}, {"uniqueid": "w14885624:a59393619", "current_trial": 2, "dateTime": 1693835124282, "trialdata": {"view_history": [{"page_index": 0, "viewing_time": 147701}, {"page_index": 1, "viewing_time": 122100}, {"page_index": 2, "viewing_time": 71974}, {"page_index": 3, "viewing_time": 72020}], "rt": 413796, "trial_id": "mouselab_instructions_1_misaligned", "trial_type": "instructions", "trial_index": 2, "time_elapsed": 453538, "internal_node_id": "0.0-2.0-1.0"}}, {"uniqueid": "w14885624:a59393619", "current_trial": 3, "dateTime": 1693835184393, "trialdata": {"revealed_states": [], "clicked_states": ["1", "28"], "num_clicks_accrued": [0, 0, 0, 0, 0, 0, 0, 0, 0, 0, 0, 0, 0], "stateRewards": ["", 10, -10, -10, 10, 10, 10, 10, -10, 10, 10, -10, 10, 10, -10, 10, -10, -10, -10, -10, 10, -10, -10, 10, 10, -10, 10, 10, -10, -10, 10, 10, 10, 10], "withholdReward": false, "trial_id": "practice_1", "block": "test", "trialIndex": 0, "score": -7.5, "costs": -1, "simulationMode": [null, null, null, null, null], "rewards": [10, -10, -10, -10, 10], "path": ["0", "0", "1", "2", "3", "8", "9"], "rt": [12509, 17396, 4685, 1002, 4500], "actions": ["up", "up", "up", "left", "up"], "actionTimes": [17055, 34940, 40126, 41626, 46641], "queries": {"click": {"state": {"target": ["1", "28"], "time": [10724, 13292]}, "edge": {"target": [], "time": []}}, "mouseover": {"state": {"target": ["1", "28", "23", "0", "1"], "time": [10142, 12408, 14356, 15340, 15773]}, "edge": {"target": [], "time": []}}, "mouseout": {"state": {"target": ["0", "1", "28", "23", "1", "0", "1", "12", "0", "18"], "time": [9974, 10841, 14108, 14590, 15258, 15690, 22023, 30939, 32001, 32039]}, "edge": {"target": [], "time": []}}}, "displayed_time": "47.14", "trialTime": 58916, "trial_type": "mouselab-mdp", "trial_index": 3, "time_elapsed": 513648, "internal_node_id": "0.0-2.0-2.0-0.0"}}, {"uniqueid": "w14885624:a59393619", "current_trial": 4, "dateTime": 1693835232267, "trialdata": {"revealed_states": [], "clicked_states": ["24", "13", "18", "2", "14"], "num_clicks_accrued": [0, 0, 0, 0, 0, 0, 0, 0, 0, 0, 0, 0, 0], "stateRewards": ["", 10, -10, 10, 10, 10, -10, -10, 10, -10, -10, -10, -10, -10, 10, -10, 10, 10, -10, -10, -10, 10, -10, 10, -10, -10, -10, 10, -10, -10, -10, 10, 10, -10], "withholdReward": false, "trial_id": "practice_2", "block": "test", "trialIndex": 1, "score": -9, "costs": -2.5, "simulationMode": [null, null, null, null, null], "rewards": [-10, -10, 10, -10, 10], "path": ["0", "0", "12", "13", "14", "19", "21"], "rt": [15372, 388, 252, 13479, 941], "actions": ["right", "right", "right", "down", "down"], "actionTimes": [25659, 26542, 27289, 41264, 42708], "queries": {"click": {"state": {"target": ["24", "13", "18", "2", "14"], "time": [15607, 17878, 19003, 20714, 23036]}, "edge": {"target": [], "time": []}}, "mouseover": {"state": {"target": ["23", "24", "23", "12", "13", "18", "7", "2", "1", "12", "13", "19", "14", "15", "15"], "time": [14751, 15034, 16784, 16833, 17334, 18767, 19600, 20501, 21285, 22184, 22234, 22302, 22633, 23718, 24784]}, "edge": {"target": [], "time": []}}, "mouseout": {"state": {"target": ["12", "0", "23", "24", "23", "12", "13", "18", "7", "2", "1", "12", "13", "19", "14", "15", "15", "12", "0", "31", "30", "32", "12", "13"], "time": [9335, 14734, 14784, 16768, 16801, 16851, 18651, 19123, 20385, 21252, 22151, 22217, 22267, 22568, 23159, 24533, 29000, 29500, 29967, 31334, 32317, 36367, 36817, 37534]}, "edge": {"target": [], "time": []}}}, "displayed_time": "43.22", "trialTime": 47654, "trial_type": "mouselab-mdp", "trial_index": 4, "time_elapsed": 561523, "internal_node_id": "0.0-2.0-2.0-1.0"}}, {"uniqueid": "w14885624:a59393619", "current_trial": 5, "dateTime": 1693835319960, "trialdata": {"view_history": [{"page_index": 0, "viewing_time": 68430}, {"page_index": 1, "viewing_time": 19258}], "rt": 87689, "trial_id": "mouselab_instructions_2_misaligned", "trial_type": "instructions", "trial_index": 5, "time_elapsed": 649216, "internal_node_id": "0.0-2.0-3.0"}}, {"uniqueid": "w14885624:a59393619", "current_trial": 6, "dateTime": 1693835384120, "trialdata": {"rt": 64152, "response": {"Q0": "The cost for clicking on nodes may vary between nodes.", "Q1": "The better I perform the higher my bonus will be.", "Q2": "No, the amount of cash at each node of the web may be different each time.", "Q3": "To get the highest total score.", "Q4": "Only before moving the spider.", "Q5": "3 seconds"}, "question_order": [0, 1, 2, 3, 4, 5], "correct": {"Q0": "The cost for clicking on nodes may vary between nodes.", "Q1": "The better I perform the higher my bonus will be.", "Q2": "No, the amount of cash at each node of the web may be different each time.", "Q3": "To get the highest total score.", "Q4": "Only before moving the spider.", "Q5": "3 seconds"}, "trial_id": "mouselab_quiz_misaligned", "trial_type": "survey-multi-choice", "trial_index": 6, "time_elapsed": 713375, "internal_node_id": "0.0-2.0-4.0"}}, {"uniqueid": "w14885624:a59393619", "current_trial": 7, "dateTime": 1693835394598, "trialdata": {"rt": 10470, "response": {"Q0": "No"}, "question_order": [0], "trial_id": "repeat_check", "trial_type": "survey-multi-choice", "trial_index": 7, "time_elapsed": 723853, "internal_node_id": "0.0-4.0-0.0"}}, {"uniqueid": "w14885624:a59393619", "current_trial": 8, "dateTime": 1693835423739, "trialdata": {"rt": 29133, "stimulus": "\n<h1> Get ready to start the game! </h1>\n\nThank you for reading the instructions. Get ready start with the 40 rounds of this game.\n<br><br>\nIf you need to take a break, feel free to take one after the end of a round, before continuing to the next one.\n<br><br>\nRemember, the more money the spider gets, the bigger your bonus will be!\n<br><br>\n<div style='text-align: center;'>Press <code>space</code> to begin.</div>\n\n<br><br>\n(If, at any point, the <code>space</code> key does not take you to the next page, click once on the text and try again.)", "response": " ", "trial_id": "mdp_ready", "trial_type": "html-keyboard-response", "trial_index": 8, "time_elapsed": 752995, "internal_node_id": "0.0-6.0-0.0"}}, {"uniqueid": "w14885624:a59393619", "current_trial": 9, "dateTime": 1693835474509, "trialdata": {"revealed_states": [], "clicked_states": ["23", "28", "25", "30", "32", "12", "13", "18", "14", "19", "21", "2", "10"], "num_clicks_accrued": [0, 0, 0, 0, 0, 0, 0, 0, 0, 0, 0, 0, 0], "stateRewards": ["", -1, -4, -6, -15, 21, -67, -63, 9, 51, 69, -14, -1, 3, 8, -8, 39, 72, 63, 15, 19, 47, 15, 1, 4, 5, 16, -18, 34, 35, -14, -80, 40, 1], "withholdReward": false, "trial_id": "mdp_trial_1", "block": "test", "trialIndex": 2, "score": 51.05, "costs": -15.95, "simulationMode": [null, null, null, null, null], "rewards": [-1, -4, -6, 9, 69], "path": ["0", "0", "1", "2", "3", "8", "10"], "rt": [32373, 242, 21, 581, 338], "actions": ["up", "up", "up", "left", "down"], "actionTimes": [39821, 40566, 41077, 42187, 43026], "queries": {"click": {"state": {"target": ["23", "28", "25", "30", "32", "12", "13", "18", "14", "19", "21", "2", "10"], "time": [9102, 10963, 13852, 14987, 15931, 20325, 21819, 24531, 28336, 29265, 30453, 34323, 35247]}, "edge": {"target": [], "time": []}}, "mouseover": {"state": {"target": ["23", "24", "28", "26", "25", "30", "32", "31", "12", "13", "18", "15", "15", "16", "15", "14", "19", "21", "20", "14", "18", "7", "2", "10", "8", "3"], "time": [8773, 10139, 10557, 12322, 13539, 14372, 15672, 16805, 19156, 21389, 22573, 25388, 25821, 26988, 27789, 28023, 28906, 30156, 31538, 32421, 32471, 32805, 34088, 34955, 36388, 37238]}, "edge": {"target": [], "time": []}}, "mouseout": {"state": {"target": ["21", "21", "0", "23", "24", "28", "26", "25", "25", "30", "32", "31", "12", "13", "18", "15", "15", "16", "15", "14", "19", "21", "20", "14", "18", "7", "2", "10", "8"], "time": [2156, 4439, 6506, 10058, 10373, 12223, 13456, 13978, 14339, 15622, 16505, 17673, 20426, 21929, 25322, 25472, 26888, 27771, 27839, 28873, 29856, 31122, 32388, 32438, 32488, 33888, 34922, 35923, 37155]}, "edge": {"target": [], "time": []}}}, "displayed_time": "43.54", "trialTime": 50546, "trial_type": "mouselab-mdp", "trial_index": 9, "time_elapsed": 803765, "internal_node_id": "0.0-6.0-1.0-0.0"}}, {"uniqueid": "w14885624:a59393619", "current_trial": 10, "dateTime": 1693835504177, "trialdata": {"revealed_states": [], "clicked_states": ["1", "3", "4", "6"], "num_clicks_accrued": [0, 0, 0, 0, 0, 0, 0, 0, 0, 0, 0, 0, 0], "stateRewards": ["", 1, 1, 1, -3, -7, -1, -41, -10, 20, -72, -63, 1, -4, -2, 2, -66, 30, -84, -2, 49, 23, 71, -1, -4, 4, -12, 67, 5, 18, -16, 88, 56, -5], "withholdReward": false, "trial_id": "mdp_trial_2", "block": "test", "trialIndex": 3, "score": 8.6, "costs": -4.4, "simulationMode": [null, null, null, null, null], "rewards": [1, 1, 1, -10, 20], "path": ["0", "0", "1", "2", "3", "8", "9"], "rt": [8792, 785, 498, 1766, 7664], "actions": ["up", "up", "up", "left", "up"], "actionTimes": [11783, 13069, 14065, 16333, 24498], "queries": {"click": {"state": {"target": ["1", "3", "4", "6"], "time": [4529, 6710, 7626, 8518]}, "edge": {"target": [], "time": []}}, "mouseover": {"state": {"target": ["1", "23", "24", "28", "10", "3", "4", "6", "8"], "time": [4249, 5366, 5782, 6067, 6165, 6433, 7351, 8267, 9500]}, "edge": {"target": [], "time": []}}, "mouseout": {"state": {"target": ["3", "2", "0", "1", "1", "23", "24", "28", "10", "3", "4", "6", "4", "3", "8", "28", "26", "28"], "time": [1549, 1585, 4167, 4637, 5233, 5749, 5816, 6082, 6182, 7283, 8150, 8655, 9250, 9367, 17916, 19849, 23133, 23182]}, "edge": {"target": [], "time": []}}}, "displayed_time": "25.02", "trialTime": 29242, "trial_type": "mouselab-mdp", "trial_index": 10, "time_elapsed": 833432, "internal_node_id": "0.0-6.0-1.0-1.0"}}, {"uniqueid": "w14885624:a59393619", "current_trial": 11, "dateTime": 1693835564053, "trialdata": {"revealed_states": [], "clicked_states": ["32", "31", "28", "7", "20", "22", "6", "8", "9", "2", "10", "27", "30", "33", "24"], "num_clicks_accrued": [0, 0, 0, 0, 0, 0, 0, 0, 0, 0, 0, 0, 0], "stateRewards": ["", -2, -1, 3, -3, 71, -58, -21, 7, -10, -75, -37, 2, 4, -1, -12, -79, -29, -48, 3, -41, -10, -30, -1, -2, 1, -15, 13, 66, 22, -1, -42, -86, -55], "withholdReward": false, "trial_id": "mdp_trial_3", "block": "test", "trialIndex": 4, "score": -31.450000000000003, "costs": -27.45, "simulationMode": [null, null, null, null, null], "rewards": [-1, -2, 1, -15, 13], "path": ["0", "0", "23", "24", "25", "26", "27"], "rt": [45188, 378, 422, 845, 701], "actions": ["left", "left", "left", "up", "up"], "actionTimes": [46714, 47609, 48520, 49860, 51063], "queries": {"click": {"state": {"target": ["32", "31", "28", "7", "20", "22", "6", "8", "9", "2", "10", "27", "30", "33", "24"], "time": [2821, 6584, 9544, 13017, 15966, 18969, 23704, 26613, 27641, 31133, 32177, 35873, 38652, 39457, 44268]}, "edge": {"target": [], "time": []}}, "mouseover": {"state": {"target": ["31", "32", "30", "33", "25", "31", "26", "29", "26", "28", "10", "2", "2", "7", "15", "17", "20", "14", "19", "22", "13", "21", "13", "18", "4", "6", "4", "3", "8", "9", "11", "1", "2", "10", "28", "26", "27", "26", "25", "30", "32", "30", "33", "29", "25", "28", "24", "24", "31"], "time": [2181, 2531, 3480, 4264, 5147, 6130, 7381, 8381, 9113, 9213, 10314, 10481, 11048, 12513, 13630, 14763, 15647, 16613, 17646, 18696, 19863, 21314, 22780, 22813, 23063, 23229, 24813, 25279, 26363, 27346, 28362, 29696, 30879, 31912, 33396, 34595, 35613, 36379, 36446, 36930, 37579, 38462, 39229, 40095, 41095, 42378, 43628, 44062, 45195]}, "edge": {"target": [], "time": []}}, "mouseout": {"state": {"target": ["23", "0", "31", "32", "30", "33", "25", "31", "26", "29", "26", "28", "10", "2", "2", "7", "15", "17", "20", "14", "19", "22", "13", "21", "13", "18", "4", "6", "4", "3", "8", "9", "11", "1", "2", "10", "28", "26", "27", "26", "25", "30", "32", "30", "33", "29", "25", "28", "24", "24"], "time": [796, 2116, 2230, 3330, 4146, 4964, 6063, 7080, 8198, 9080, 9148, 10148, 10381, 10564, 12480, 13498, 14596, 15496, 16496, 17530, 18630, 19813, 20663, 22747, 22796, 22846, 23179, 24747, 25013, 26313, 27196, 28246, 29346, 30662, 31862, 32829, 34446, 35379, 36346, 36412, 36529, 37013, 38313, 39178, 39928, 40995, 42195, 43596, 43829, 45128]}, "edge": {"target": [], "time": []}}}, "displayed_time": "51.56", "trialTime": 59600, "trial_type": "mouselab-mdp", "trial_index": 11, "time_elapsed": 893308, "internal_node_id": "0.0-6.0-1.0-2.0"}}, {"uniqueid": "w14885624:a59393619", "current_trial": 12, "dateTime": 1693835583509, "trialdata": {"revealed_states": [], "clicked_states": ["6"], "num_clicks_accrued": [0, 0, 0, 0, 0, 0, 0, 0, 0, 0, 0, 0, 0], "stateRewards": ["", -1, -4, -1, -5, -28, -23, -15, -15, -38, 59, -87, 2, 2, -5, 9, -55, -39, -71, -6, 85, -85, -11, -1, -2, 5, -10, 1, 25, 41, -4, 69, -35, 86], "withholdReward": false, "trial_id": "mdp_trial_4", "block": "test", "trialIndex": 5, "score": -36.15, "costs": -2.15, "simulationMode": [null, null, null, null, null, null], "rewards": [-1, -4, -1, -5, -23], "path": ["0", "0", "1", "2", "3", "4", "6"], "rt": [2917, 1034, 623, 898, 673, 713], "actions": ["up", "up", "up", "up", "right", "right"], "actionTimes": [5003, 6039, 7189, 8599, 9773, 10997], "queries": {"click": {"state": {"target": ["6"], "time": [3749]}, "edge": {"target": [], "time": []}}, "mouseover": {"state": {"target": ["7", "6"], "time": [3115, 3367]}, "edge": {"target": [], "time": []}}, "mouseout": {"state": {"target": ["31", "0", "7", "6"], "time": [1222, 2967, 3132, 14615]}, "edge": {"target": [], "time": []}}}, "displayed_time": "16.09", "trialTime": 19160, "trial_type": "mouselab-mdp", "trial_index": 12, "time_elapsed": 912764, "internal_node_id": "0.0-6.0-1.0-3.0"}}, {"uniqueid": "w14885624:a59393619", "current_trial": 13, "dateTime": 1693835630335, "trialdata": {"revealed_states": [], "clicked_states": ["14", "13", "12", "23", "24", "25", "30", "32", "31", "22", "21", "17", "2", "10", "29"], "num_clicks_accrued": [0, 0, 0, 0, 0, 0, 0, 0, 0, 0, 0, 0, 0], "stateRewards": ["", -1, -2, 4, 9, 10, -75, 39, 16, -43, 88, -19, -1, 1, 2, 4, -31, 10, 73, 12, 41, -64, -81, -2, 2, -6, 1, -81, -1, -26, 3, -59, -3, -20], "withholdReward": false, "trial_id": "mdp_trial_5", "block": "test", "trialIndex": 6, "score": 85.95, "costs": -19.049999999999997, "simulationMode": [null, null, null, null, null], "rewards": [-1, -2, 4, 16, 88], "path": ["0", "0", "1", "2", "3", "8", "10"], "rt": [31564, 394, 354, 697, 1931], "actions": ["up", "up", "up", "left", "down"], "actionTimes": [36506, 37417, 38278, 39487, 41920], "queries": {"click": {"state": {"target": ["14", "13", "12", "23", "24", "25", "30", "32", "31", "22", "21", "17", "2", "10", "29"], "time": [6584, 7365, 8186, 9359, 10180, 11252, 12731, 13679, 16906, 20402, 23477, 26514, 29576, 30745, 33744]}, "edge": {"target": [], "time": []}}, "mouseover": {"state": {"target": ["12", "13", "14", "13", "12", "0", "23", "24", "25", "30", "32", "33", "33", "31", "30", "33", "22", "19", "20", "21", "19", "14", "15", "18", "15", "17", "16", "7", "7", "2", "10", "28", "27", "29", "27", "11", "8", "9", "9"], "time": [5722, 5927, 6140, 7140, 7890, 8908, 9093, 9906, 10872, 12141, 13423, 14239, 15372, 16539, 17522, 17705, 20156, 20924, 22073, 23123, 23971, 24021, 24489, 25355, 26105, 26205, 27172, 28122, 28605, 29455, 30455, 31439, 32338, 33438, 34154, 34321, 34705, 34773, 35705]}, "edge": {"target": [], "time": []}}, "mouseout": {"state": {"target": ["0", "0", "12", "13", "14", "13", "12", "0", "23", "24", "25", "30", "32", "33", "30", "33", "31", "30", "33", "22", "19", "20", "21", "19", "14", "15", "18", "15", "17", "16", "7", "7", "2", "10", "28", "27", "29", "27", "11", "8", "9"], "time": [4339, 5574, 5839, 6090, 6990, 7857, 8873, 8990, 9873, 10839, 12092, 13223, 13815, 15040, 15357, 16272, 17506, 17572, 19272, 20889, 21989, 22806, 23938, 24006, 24058, 25305, 26072, 26138, 27073, 28055, 28189, 29321, 30205, 31189, 32239, 33089, 33859, 34188, 34521, 34722, 35605]}, "edge": {"target": [], "time": []}}}, "displayed_time": "42.42", "trialTime": 46563, "trial_type": "mouselab-mdp", "trial_index": 13, "time_elapsed": 959591, "internal_node_id": "0.0-6.0-1.0-4.0"}}, {"uniqueid": "w14885624:a59393619", "current_trial": 14, "dateTime": 1693835693221, "trialdata": {"revealed_states": [], "clicked_states": ["9", "10", "6", "16", "14", "20", "13", "12", "23", "31", "32", "28", "11", "5", "7", "17", "21"], "num_clicks_accrued": [0, 0, 0, 0, 0, 0, 0, 0, 0, 0, 0, 0, 0], "stateRewards": ["", -1, 3, -5, -2, -13, -9, -34, -7, -81, 32, 35, -2, -2, 1, -14, -32, 81, 7, 4, 82, 56, -8, -1, 3, -8, 6, -24, -24, -53, 2, 38, 61, 54], "withholdReward": false, "trial_id": "mdp_trial_6", "block": "test", "trialIndex": 7, "score": 35.25000000000001, "costs": -28.749999999999993, "simulationMode": [null, null, null, null, null, null], "rewards": [-2, -2, 1, -14, 81], "path": ["0", "0", "12", "13", "14", "15", "17"], "rt": [49672, 926, 283, 327, 946, 176], "actions": ["right", "right", "right", "right", "up", "right"], "actionTimes": [52633, 53562, 54357, 55183, 56619, 57299], "queries": {"click": {"state": {"target": ["9", "10", "6", "16", "14", "20", "13", "12", "23", "31", "32", "28", "11", "5", "7", "17", "21"], "time": [4397, 7359, 10797, 13580, 17275, 18850, 22016, 23574, 24757, 26162, 29354, 32594, 37845, 41143, 44039, 47734, 50547]}, "edge": {"target": [], "time": []}}, "mouseover": {"state": {"target": ["1", "2", "9", "11", "8", "3", "10", "2", "7", "4", "5", "6", "4", "3", "7", "16", "18", "15", "17", "14", "19", "20", "21", "22", "13", "12", "0", "23", "31", "30", "33", "32", "30", "25", "29", "26", "28", "26", "27", "26", "10", "11", "8", "3", "2", "4", "5", "4", "7", "18", "15", "17", "19", "21", "22"], "time": [3641, 3724, 4041, 4907, 5807, 6274, 7025, 7908, 8507, 9307, 9473, 10507, 11424, 11524, 12690, 12940, 14357, 15206, 15323, 16357, 18174, 18623, 19757, 20641, 21640, 22757, 24158, 24524, 26040, 26839, 27173, 28089, 29923, 30023, 31239, 32056, 32340, 33139, 33239, 34689, 36173, 37556, 38507, 38656, 39639, 40706, 40964, 41739, 42056, 46055, 47071, 47189, 49988, 50321, 51254]}, "edge": {"target": [], "time": []}}, "mouseout": {"state": {"target": ["9", "8", "1", "0", "1", "2", "9", "11", "8", "3", "10", "2", "7", "4", "5", "6", "4", "3", "7", "16", "18", "15", "17", "14", "19", "20", "21", "22", "13", "12", "0", "23", "31", "30", "33", "32", "30", "25", "29", "26", "28", "26", "27", "26", "10", "11", "8", "3", "2", "4", "5", "4", "7", "18", "15", "17", "19", "21"], "time": [1993, 2059, 2191, 3591, 3691, 3741, 4807, 5724, 5974, 6974, 7874, 7990, 9257, 9427, 10207, 11407, 11473, 12624, 12723, 14107, 15190, 15274, 16147, 18090, 18540, 19374, 20524, 21557, 22707, 24141, 24225, 25690, 26305, 26940, 27923, 29889, 29956, 30940, 32023, 32239, 33106, 33156, 34522, 35989, 37339, 38472, 38605, 39589, 40622, 40788, 41722, 41905, 44521, 47039, 47121, 49654, 50171, 51105]}, "edge": {"target": [], "time": []}}}, "displayed_time": "57.81", "trialTime": 62618, "trial_type": "mouselab-mdp", "trial_index": 14, "time_elapsed": 1022476, "internal_node_id": "0.0-6.0-1.0-5.0"}}, {"uniqueid": "w14885624:a59393619", "current_trial": 15, "dateTime": 1693835736905, "trialdata": {"revealed_states": [], "clicked_states": ["15", "4", "8", "26", "30", "19"], "num_clicks_accrued": [0, 0, 0, 0, 0, 0, 0, 0, 0, 0, 0, 0, 0], "stateRewards": ["", -2, -4, -2, 10, -8, -15, -47, 7, -84, 53, 5, -1, 2, -7, 3, 83, 31, 47, -1, 30, -8, 69, 2, -4, -1, 8, -7, 12, -8, -8, -13, 30, -84], "withholdReward": false, "trial_id": "mdp_trial_7", "block": "test", "trialIndex": 8, "score": -11.3, "costs": -9.3, "simulationMode": [null, null, null, null, null], "rewards": [2, -4, -1, 8, -7], "path": ["0", "0", "23", "24", "25", "26", "27"], "rt": [14416, 774, 368, 4326, 13487], "actions": ["left", "left", "left", "up", "up"], "actionTimes": [16282, 17561, 18422, 23262, 37257], "queries": {"click": {"state": {"target": ["15", "4", "8", "26", "30", "19"], "time": [4470, 6718, 8194, 9885, 11884, 13490]}, "edge": {"target": [], "time": []}}, "mouseover": {"state": {"target": ["14", "15", "18", "2", "4", "3", "8", "26", "25", "30", "31", "22", "19"], "time": [3185, 3968, 5736, 5918, 6368, 7419, 7801, 9469, 10502, 11519, 12769, 13002, 13185]}, "edge": {"target": [], "time": []}}, "mouseout": {"state": {"target": ["22", "0", "14", "15", "18", "2", "4", "3", "8", "26", "25", "30", "31", "22", "19", "0", "26", "6", "16", "28", "26"], "time": [1085, 1633, 3436, 5669, 5768, 5968, 7386, 7637, 8902, 10453, 11451, 12752, 12819, 13068, 20986, 21201, 27068, 27151, 30867, 31618, 31884]}, "edge": {"target": [], "time": []}}}, "displayed_time": "37.77", "trialTime": 43433, "trial_type": "mouselab-mdp", "trial_index": 15, "time_elapsed": 1066160, "internal_node_id": "0.0-6.0-1.0-6.0"}}, {"uniqueid": "w14885624:a59393619", "current_trial": 16, "dateTime": 1693835761887, "trialdata": {"revealed_states": [], "clicked_states": ["15", "19", "30", "26", "3", "4", "8"], "num_clicks_accrued": [0, 0, 0, 0, 0, 0, 0, 0, 0, 0, 0, 0, 0], "stateRewards": ["", -1, 1, -6, -1, 80, 23, 2, -11, 73, -81, 59, 1, 3, 5, -1, -26, 28, -3, 16, -59, -13, -50, -2, -2, 2, 15, -50, 86, 17, -4, 37, 35, 44], "withholdReward": false, "trial_id": "mdp_trial_8", "block": "test", "trialIndex": 9, "score": -47.25, "costs": -10.250000000000002, "simulationMode": [null, null, null, null, null], "rewards": [-2, -2, 2, 15, -50], "path": ["0", "0", "23", "24", "25", "26", "27"], "rt": [13071, 704, 309, 630, 1412], "actions": ["left", "left", "left", "up", "up"], "actionTimes": [15174, 16397, 17220, 18341, 20255], "queries": {"click": {"state": {"target": ["15", "19", "30", "26", "3", "4", "8"], "time": [3888, 5466, 7545, 9373, 10955, 12563, 13829]}, "edge": {"target": [], "time": []}}, "mouseover": {"state": {"target": ["18", "15", "14", "19", "22", "31", "30", "25", "26", "3", "4", "8"], "time": [2809, 3125, 4559, 4843, 6159, 6925, 7225, 8692, 8992, 10558, 11826, 13425]}, "edge": {"target": [], "time": []}}, "mouseout": {"state": {"target": ["26", "28", "18", "15", "15", "14", "19", "22", "31", "30", "25", "26", "3", "4", "3", "8", "10", "28", "25", "24", "23"], "time": [809, 858, 3009, 3981, 4526, 4659, 6143, 6226, 7008, 8508, 8875, 9942, 11759, 13175, 13308, 22758, 22991, 23175, 23908, 23957, 24025]}, "edge": {"target": [], "time": []}}}, "displayed_time": "20.76", "trialTime": 24707, "trial_type": "mouselab-mdp", "trial_index": 16, "time_elapsed": 1091142, "internal_node_id": "0.0-6.0-1.0-7.0"}}, {"uniqueid": "w14885624:a59393619", "current_trial": 17, "dateTime": 1693835813211, "trialdata": {"revealed_states": [], "clicked_states": ["12", "23", "24", "25", "26", "28", "1", "2", "3", "8", "10", "4", "5", "13", "14", "19", "22", "17", "16", "30", "33"], "num_clicks_accrued": [0, 0, 0, 0, 0, 0, 0, 0, 0, 0, 0, 0, 0], "stateRewards": ["", 2, -4, 7, 3, 23, -42, 4, 7, -81, -33, 7, -2, -4, 5, -1, 50, -57, -14, -13, -14, 44, 55, -2, -2, 5, -2, 33, 1, 57, -13, -7, 58, 87], "withholdReward": false, "trial_id": "mdp_trial_9", "block": "test", "trialIndex": 10, "score": 22.050000000000004, "costs": -25.949999999999996, "simulationMode": [null, null, null, null, null], "rewards": [-2, -4, 5, -1, 50], "path": ["0", "0", "12", "13", "14", "15", "16"], "rt": [39908, 344, 276, 632, 579], "actions": ["right", "right", "right", "up", "up"], "actionTimes": [42233, 43090, 43870, 45013, 46090], "queries": {"click": {"state": {"target": ["12", "23", "24", "25", "26", "28", "1", "2", "3", "8", "10", "4", "5", "13", "14", "19", "22", "17", "16", "30", "33"], "time": [4768, 5799, 6551, 7343, 8284, 9140, 12729, 13706, 14894, 15840, 16651, 19827, 20675, 23997, 25328, 26223, 27045, 30665, 34197, 37649, 38362]}, "edge": {"target": [], "time": []}}, "mouseover": {"state": {"target": ["12", "13", "12", "23", "24", "25", "26", "28", "27", "29", "26", "1", "1", "2", "3", "8", "10", "11", "9", "4", "5", "6", "7", "12", "13", "14", "19", "22", "21", "20", "17", "15", "18", "16", "18", "12", "0", "31", "32", "30", "33", "31", "12", "13"], "time": [2928, 3430, 4211, 5662, 6311, 7078, 8063, 8961, 9995, 11245, 11831, 11962, 12353, 13496, 14629, 15578, 16411, 17395, 18511, 19545, 20427, 21327, 22511, 23562, 23762, 24878, 25928, 26727, 27794, 28827, 30394, 31478, 32360, 33727, 34793, 34843, 34909, 35392, 36459, 37360, 38093, 38826, 39259, 40859]}, "edge": {"target": [], "time": []}}, "mouseout": {"state": {"target": ["0", "12", "13", "12", "23", "24", "25", "26", "28", "27", "29", "26", "28", "1", "1", "2", "3", "8", "10", "8", "11", "9", "4", "5", "6", "7", "12", "13", "14", "19", "22", "21", "20", "17", "15", "18", "16", "18", "12", "0", "31", "32", "30", "33", "31", "12"], "time": [2095, 2961, 4161, 5362, 6261, 6978, 7828, 8745, 9662, 10928, 11829, 11861, 11878, 12078, 13229, 14179, 15428, 16328, 17094, 17211, 18162, 19278, 20294, 21177, 22311, 23344, 23628, 24612, 25877, 26678, 27561, 28644, 29627, 31245, 32244, 33327, 34776, 34809, 34876, 35193, 36243, 37143, 38059, 38776, 38843, 40759]}, "edge": {"target": [], "time": []}}}, "displayed_time": "46.61", "trialTime": 51052, "trial_type": "mouselab-mdp", "trial_index": 17, "time_elapsed": 1142466, "internal_node_id": "0.0-6.0-1.0-8.0"}}, {"uniqueid": "w14885624:a59393619", "current_trial": 18, "dateTime": 1693835832962, "trialdata": {"revealed_states": [], "clicked_states": ["1", "2", "3", "6", "10"], "num_clicks_accrued": [0, 0, 0, 0, 0, 0, 0, 0, 0, 0, 0, 0, 0], "stateRewards": ["", -1, 3, 8, 10, -86, 61, -36, 10, 17, -60, 24, -1, -3, 3, 11, 50, 60, 33, -3, -20, 58, -6, 1, -4, -4, 13, -70, -71, 43, 14, 52, 82, -11], "withholdReward": false, "trial_id": "mdp_trial_10", "block": "test", "trialIndex": 11, "score": 75.65, "costs": -5.35, "simulationMode": [null, null, null, null, null], "rewards": [-1, 3, 8, 10, 61], "path": ["0", "0", "1", "2", "3", "4", "6"], "rt": [10699, 589, 420, 683, 102], "actions": ["up", "up", "up", "right", "right"], "actionTimes": [12523, 13611, 14543, 15722, 16340], "queries": {"click": {"state": {"target": ["1", "2", "3", "6", "10"], "time": [3055, 3913, 4844, 6121, 9471]}, "edge": {"target": [], "time": []}}, "mouseover": {"state": {"target": ["1", "2", "3", "4", "6", "5", "2", "8", "10"], "time": [2971, 3704, 4438, 5404, 5988, 7137, 7854, 8571, 8904]}, "edge": {"target": [], "time": []}}, "mouseout": {"state": {"target": ["13", "12", "1", "2", "3", "4", "6", "5", "2", "8", "10"], "time": [1024, 1103, 3571, 4387, 4987, 5504, 6258, 7720, 7920, 8854, 9596]}, "edge": {"target": [], "time": []}}}, "displayed_time": "16.86", "trialTime": 19483, "trial_type": "mouselab-mdp", "trial_index": 18, "time_elapsed": 1162218, "internal_node_id": "0.0-6.0-1.0-9.0"}}, {"uniqueid": "w14885624:a59393619", "current_trial": 19, "dateTime": 1693835860145, "trialdata": {"revealed_states": [], "clicked_states": [], "num_clicks_accrued": [0, 0, 0, 0, 0, 0, 0, 0, 0, 0, 0, 0, 0], "stateRewards": ["", -1, -2, -1, -10, -57, 73, -72, -16, 75, -14, -46, -2, -3, -7, -1, -61, -60, 76, -4, 50, 4, 14, 2, 2, -7, 12, -65, -32, 15, -8, -76, -25, -61], "withholdReward": false, "trial_id": "mdp_trial_11", "block": "test", "trialIndex": 12, "score": -71, "costs": 0, "simulationMode": [null, null, null, null, null], "rewards": [-1, -2, -1, -10, -57], "path": ["0", "0", "1", "2", "3", "4", "5"], "rt": [17524, 39, 155, 781, 159], "actions": ["up", "up", "up", "right", "up"], "actionTimes": [19505, 20047, 20713, 22007, 22667], "queries": {"click": {"state": {"target": [], "time": []}, "edge": {"target": [], "time": []}}, "mouseover": {"state": {"target": ["12", "12", "13", "12", "12", "13", "12", "17"], "time": [3158, 3457, 4058, 4507, 5824, 8940, 10490, 13057]}, "edge": {"target": [], "time": []}}, "mouseout": {"state": {"target": ["10", "12", "12", "13", "12", "12", "13", "12", "17"], "time": [723, 3207, 3507, 4474, 4707, 8857, 10357, 12990, 13106]}, "edge": {"target": [], "time": []}}}, "displayed_time": "23.18", "trialTime": 26919, "trial_type": "mouselab-mdp", "trial_index": 19, "time_elapsed": 1189400, "internal_node_id": "0.0-6.0-1.0-10.0"}}, {"uniqueid": "w14885624:a59393619", "current_trial": 20, "dateTime": 1693835911081, "trialdata": {"revealed_states": [], "clicked_states": ["12", "13", "14", "19", "21", "32", "31", "26", "29", "1", "23", "24", "2", "10", "5", "9"], "num_clicks_accrued": [0, 0, 0, 0, 0, 0, 0, 0, 0, 0, 0, 0, 0], "stateRewards": ["", 2, 3, 6, -12, -29, 12, 87, 4, 35, -30, 67, 2, 3, -5, -9, 44, 69, -8, 1, 45, -8, 28, -2, -1, -8, 11, -12, -5, 81, 9, 87, 82, 88], "withholdReward": false, "trial_id": "mdp_trial_12", "block": "test", "trialIndex": 13, "score": -26.4, "costs": -19.4, "simulationMode": [null, null, null, null, null, null], "rewards": [2, 3, -5, 1, -8], "path": ["0", "0", "12", "13", "14", "19", "21"], "rt": [33405, 1551, 485, 318, 580, 725], "actions": ["up", "right", "right", "right", "down", "down"], "actionTimes": [38748, 40303, 41299, 42115, 43193, 44438], "queries": {"click": {"state": {"target": ["12", "13", "14", "19", "21", "32", "31", "26", "29", "1", "23", "24", "2", "10", "5", "9"], "time": [6918, 7895, 9270, 10209, 11112, 14603, 17558, 20835, 21679, 25020, 25863, 26669, 28415, 29307, 33090, 36668]}, "edge": {"target": [], "time": []}}, "mouseover": {"state": {"target": ["12", "13", "14", "19", "21", "22", "20", "20", "19", "32", "33", "30", "30", "31", "25", "24", "26", "29", "27", "28", "1", "23", "24", "2", "10", "7", "4", "6", "4", "5", "3", "8", "11", "9"], "time": [6581, 7714, 8897, 9997, 10880, 11815, 12731, 13465, 13484, 14347, 15230, 15999, 16380, 17263, 18415, 19448, 20614, 21363, 22530, 23446, 24763, 25680, 26447, 27913, 29013, 29946, 30847, 31747, 32496, 32746, 33629, 34546, 35513, 36279]}, "edge": {"target": [], "time": []}}, "mouseout": {"state": {"target": ["31", "0", "12", "13", "14", "19", "21", "22", "20", "20", "19", "32", "33", "30", "30", "31", "25", "24", "26", "29", "27", "28", "1", "23", "24", "1", "2", "2", "10", "2", "7", "4", "6", "4", "5", "3", "8", "11", "9", "11", "2"], "time": [2213, 6381, 7464, 8647, 9814, 10714, 11615, 12548, 12882, 13482, 13500, 15047, 15947, 16180, 17114, 18081, 19348, 20282, 21313, 21796, 23347, 24330, 25480, 26396, 27146, 27784, 28574, 28996, 29846, 29913, 30829, 31680, 32463, 32630, 33529, 34463, 35446, 36229, 48446, 49245, 49778]}, "edge": {"target": [], "time": []}}}, "displayed_time": "44.93", "trialTime": 50647, "trial_type": "mouselab-mdp", "trial_index": 20, "time_elapsed": 1240336, "internal_node_id": "0.0-6.0-1.0-11.0"}}, {"uniqueid": "w14885624:a59393619", "current_trial": 21, "dateTime": 1693835937845, "trialdata": {"revealed_states": [], "clicked_states": ["1", "2", "3", "8", "9"], "num_clicks_accrued": [0, 0, 0, 0, 0, 0, 0, 0, 0, 0, 0, 0, 0], "stateRewards": ["", -2, 2, 8, -6, -25, 3, 87, 2, -62, -2, 74, -2, -1, 2, -1, 79, 49, -37, -14, 5, 67, -9, -1, 2, -2, 5, 15, 38, 32, -14, -38, -38, 30], "withholdReward": false, "trial_id": "mdp_trial_13", "block": "test", "trialIndex": 14, "score": -56.75, "costs": -4.75, "simulationMode": [null, null, null, null, null], "rewards": [-2, 2, 8, 2, -62], "path": ["0", "0", "1", "2", "3", "8", "9"], "rt": [14360, 562, 392, 292, 357], "actions": ["up", "up", "up", "left", "up"], "actionTimes": [16293, 17371, 18267, 19068, 19934], "queries": {"click": {"state": {"target": ["1", "2", "3", "8", "9"], "time": [3500, 6169, 8245, 10420, 12373]}, "edge": {"target": [], "time": []}}, "mouseover": {"state": {"target": ["1", "2", "7", "2", "2", "3", "8", "9"], "time": [3041, 4243, 5141, 5209, 5497, 7740, 10157, 11607]}, "edge": {"target": [], "time": []}}, "mouseout": {"state": {"target": ["0", "1", "2", "7", "2", "2", "3", "8", "9", "28", "23", "0", "0"], "time": [1591, 4059, 4658, 5174, 5291, 7375, 10074, 11457, 13842, 22540, 24639, 24723, 25473]}, "edge": {"target": [], "time": []}}}, "displayed_time": "20.44", "trialTime": 26456, "trial_type": "mouselab-mdp", "trial_index": 21, "time_elapsed": 1267100, "internal_node_id": "0.0-6.0-1.0-12.0"}}, {"uniqueid": "w14885624:a59393619", "current_trial": 22, "dateTime": 1693835987502, "trialdata": {"revealed_states": [], "clicked_states": ["23", "24", "25", "30", "32", "33", "29", "12", "13", "14", "19", "22", "15", "17", "1", "7", "11", "4", "5"], "num_clicks_accrued": [0, 0, 0, 0, 0, 0, 0, 0, 0, 0, 0, 0, 0], "stateRewards": ["", -2, -3, 1, -7, 39, -67, 16, 5, -20, 73, 66, -1, 4, 5, -3, 23, -68, -87, -8, 3, -3, 17, 1, -4, -2, -13, -32, 34, 61, -5, -11, -18, 12], "withholdReward": false, "trial_id": "mdp_trial_14", "block": "test", "trialIndex": 15, "score": 2.75, "costs": -25.249999999999996, "simulationMode": [null, null, null, null, null], "rewards": [-2, -3, 1, -7, 39], "path": ["0", "0", "1", "2", "3", "4", "5"], "rt": [41684, 211, 72, 927, 287], "actions": ["up", "up", "up", "right", "up"], "actionTimes": [43496, 44218, 44809, 46231, 47026], "queries": {"click": {"state": {"target": ["23", "24", "25", "30", "32", "33", "29", "12", "13", "14", "19", "22", "15", "17", "1", "7", "11", "4", "5"], "time": [3376, 4163, 5078, 5914, 7250, 10980, 14784, 19157, 20117, 21243, 22279, 23269, 27125, 28043, 31839, 32975, 36355, 39325, 40096]}, "edge": {"target": [], "time": []}}, "mouseover": {"state": {"target": ["23", "24", "25", "30", "32", "33", "31", "30", "33", "31", "26", "29", "27", "28", "12", "13", "14", "19", "22", "20", "21", "19", "14", "15", "17", "16", "18", "1", "7", "2", "10", "8", "11", "9", "3", "4", "5", "6", "13"], "time": [2937, 3972, 4889, 5656, 6888, 7941, 8922, 10354, 10670, 11920, 13104, 14537, 15654, 16857, 18587, 19937, 20987, 22005, 22954, 24187, 25387, 26553, 26636, 26854, 27753, 28838, 30339, 31702, 32788, 33753, 34522, 35421, 36136, 37236, 38169, 38902, 39870, 40837, 42036]}, "edge": {"target": [], "time": []}}, "mouseout": {"state": {"target": ["23", "0", "23", "24", "25", "30", "32", "33", "30", "31", "30", "33", "31", "26", "29", "27", "28", "12", "13", "14", "19", "22", "19", "20", "21", "19", "14", "15", "17", "16", "18", "1", "7", "2", "10", "8", "11", "9", "3", "4", "5", "6", "13"], "time": [971, 2506, 3828, 4788, 5605, 6572, 7723, 8755, 8888, 10321, 10471, 11638, 12954, 14421, 15337, 16587, 17987, 19721, 20720, 21854, 22425, 23821, 23920, 25054, 26524, 26587, 26719, 27703, 28520, 30074, 31270, 32336, 33537, 34371, 35270, 36045, 36803, 37986, 38853, 39770, 40570, 41787, 42137]}, "edge": {"target": [], "time": []}}}, "displayed_time": "47.52", "trialTime": 49378, "trial_type": "mouselab-mdp", "trial_index": 22, "time_elapsed": 1316757, "internal_node_id": "0.0-6.0-1.0-13.0"}}, {"uniqueid": "w14885624:a59393619", "current_trial": 23, "dateTime": 1693836024728, "trialdata": {"revealed_states": [], "clicked_states": ["23", "24", "25", "30", "32", "1", "2", "3", "8", "10"], "num_clicks_accrued": [0, 0, 0, 0, 0, 0, 0, 0, 0, 0, 0, 0, 0], "stateRewards": ["", 2, -3, -2, 14, -4, 85, 46, 15, -28, 41, 31, -1, -1, -1, 5, 62, 79, 57, 12, -73, -64, 86, -1, 1, -3, -5, 68, 11, -32, 8, -80, -21, -56], "withholdReward": false, "trial_id": "mdp_trial_15", "block": "test", "trialIndex": 16, "score": 43.5, "costs": -9.5, "simulationMode": [null, null, null, null, null], "rewards": [2, -3, -2, 15, 41], "path": ["0", "0", "1", "2", "3", "8", "10"], "rt": [15666, 569, 512, 369, 403], "actions": ["up", "up", "up", "left", "down"], "actionTimes": [18984, 20067, 21074, 21981, 22898], "queries": {"click": {"state": {"target": ["23", "24", "25", "30", "32", "1", "2", "3", "8", "10"], "time": [4482, 5253, 6005, 6746, 7636, 11554, 12519, 13835, 14736, 15956]}, "edge": {"target": [], "time": []}}, "mouseover": {"state": {"target": ["23", "24", "25", "30", "32", "33", "31", "23", "1", "2", "3", "8", "10", "11", "9"], "time": [4044, 4995, 5778, 6528, 7495, 8578, 9594, 10778, 11178, 12329, 13746, 14561, 15794, 16629, 17745]}, "edge": {"target": [], "time": []}}, "mouseout": {"state": {"target": ["0", "23", "24", "25", "30", "32", "33", "30", "31", "23", "1", "2", "3", "8", "10", "11", "9", "4", "7"], "time": [4012, 4961, 5728, 6464, 7311, 7799, 9428, 9544, 10695, 10794, 12212, 13480, 14428, 15611, 16115, 17462, 34324, 34577, 35761]}, "edge": {"target": [], "time": []}}}, "displayed_time": "23.41", "trialTime": 36946, "trial_type": "mouselab-mdp", "trial_index": 23, "time_elapsed": 1353984, "internal_node_id": "0.0-6.0-1.0-14.0"}}, {"uniqueid": "w14885624:a59393619", "current_trial": 24, "dateTime": 1693836074624, "trialdata": {"revealed_states": [], "clicked_states": ["23", "24", "25", "30", "33", "26", "29", "12", "13", "14", "19", "22", "20", "16", "17", "7", "3", "11"], "num_clicks_accrued": [0, 0, 0, 0, 0, 0, 0, 0, 0, 0, 0, 0, 0], "stateRewards": ["", 1, 1, 6, -14, -40, 37, 16, -13, 33, -68, 49, 2, 4, 3, 6, 55, 27, 32, 10, -65, 20, -87, 2, 1, -6, -5, -42, 12, 29, -8, 16, 76, -33], "withholdReward": false, "trial_id": "mdp_trial_16", "block": "test", "trialIndex": 17, "score": 17.100000000000005, "costs": -24.899999999999995, "simulationMode": [null, null, null, null, null], "rewards": [2, 4, 3, 6, 27], "path": ["0", "0", "12", "13", "14", "15", "17"], "rt": [37217, 306, 154, 562, 328], "actions": ["right", "right", "right", "up", "right"], "actionTimes": [38611, 39432, 40098, 41155, 42022], "queries": {"click": {"state": {"target": ["23", "24", "25", "30", "33", "26", "29", "12", "13", "14", "19", "22", "20", "16", "17", "7", "3", "11"], "time": [2625, 3289, 4167, 4937, 5769, 9213, 9940, 13508, 14462, 15871, 16717, 17473, 20277, 23425, 26401, 29795, 33465, 34827]}, "edge": {"target": [], "time": []}}, "mouseover": {"state": {"target": ["23", "24", "25", "30", "33", "31", "32", "30", "25", "26", "29", "27", "28", "12", "13", "14", "19", "22", "21", "20", "14", "15", "17", "16", "18", "15", "17", "6", "5", "4", "7", "2", "10", "8", "3", "8", "11", "11", "9"], "time": [2377, 3128, 3844, 4761, 5545, 6429, 7427, 8478, 8710, 8893, 9693, 10610, 11544, 13143, 14060, 15723, 16542, 17209, 18092, 20109, 20909, 21276, 22292, 23091, 24375, 25175, 26059, 27576, 28709, 29325, 29624, 30359, 31241, 32208, 33050, 33958, 34058, 34558, 35659]}, "edge": {"target": [], "time": []}}, "mouseout": {"state": {"target": ["0", "0", "23", "24", "25", "30", "33", "30", "31", "32", "30", "25", "26", "29", "27", "28", "12", "13", "14", "19", "22", "21", "20", "14", "15", "17", "16", "18", "15", "17", "16", "6", "5", "4", "7", "2", "10", "8", "3", "8", "11", "11", "9", "28"], "time": [946, 2343, 3014, 3778, 4677, 5495, 6178, 6301, 7294, 8428, 8529, 8776, 9660, 10410, 11294, 12277, 14010, 15526, 16393, 17176, 17959, 19759, 20842, 20992, 22225, 23042, 23574, 25109, 26009, 26546, 27359, 28409, 29308, 29508, 30325, 31125, 32075, 32846, 33623, 34008, 34225, 35308, 47474, 48174]}, "edge": {"target": [], "time": []}}}, "displayed_time": "42.52", "trialTime": 49576, "trial_type": "mouselab-mdp", "trial_index": 24, "time_elapsed": 1403879, "internal_node_id": "0.0-6.0-1.0-15.0"}}, {"uniqueid": "w14885624:a59393619", "current_trial": 25, "dateTime": 1693836131133, "trialdata": {"revealed_states": [], "clicked_states": ["23", "24", "25", "33", "32", "29", "12", "13", "14", "19", "22", "15", "18", "1", "2", "7", "5", "11"], "num_clicks_accrued": [0, 0, 0, 0, 0, 0, 0, 0, 0, 0, 0, 0, 0], "stateRewards": ["", 1, 1, 7, -11, 80, -20, -53, -14, 3, 31, 27, 2, -1, -8, -10, 33, 41, 86, 9, 78, -37, -13, -1, -2, -6, -8, -80, 75, 4, -16, -49, -74, 24], "withholdReward": false, "trial_id": "mdp_trial_17", "block": "test", "trialIndex": 18, "score": 46.5, "costs": -22.499999999999996, "simulationMode": [null, null, null, null, null], "rewards": [2, -1, -8, -10, 86], "path": ["0", "0", "12", "13", "14", "15", "18"], "rt": [43839, 201, 158, 580, 475], "actions": ["right", "right", "right", "up", "left"], "actionTimes": [45814, 46519, 47192, 48282, 49259], "queries": {"click": {"state": {"target": ["23", "24", "25", "33", "32", "29", "12", "13", "14", "19", "22", "15", "18", "1", "2", "7", "5", "11"], "time": [3959, 4686, 5460, 6343, 10493, 14235, 18965, 21105, 22109, 22897, 23734, 26916, 27783, 31704, 32711, 34008, 37971, 42239]}, "edge": {"target": [], "time": []}}, "mouseover": {"state": {"target": ["23", "23", "24", "25", "33", "30", "32", "30", "25", "26", "25", "30", "32", "31", "24", "26", "29", "27", "28", "12", "12", "0", "13", "13", "14", "19", "22", "21", "20", "15", "18", "16", "17", "15", "1", "2", "7", "4", "6", "6", "5", "3", "8", "10", "8", "11", "8", "9"], "time": [3136, 3652, 4435, 5218, 6151, 7001, 8251, 9151, 9217, 9552, 10001, 10034, 10152, 11320, 12235, 12635, 13401, 15102, 16219, 17858, 18535, 19471, 20484, 20679, 21850, 22801, 23468, 24402, 25338, 26550, 27467, 28384, 29783, 30717, 31184, 32433, 33568, 34650, 35667, 36433, 37722, 38633, 39500, 39916, 41233, 41916, 43033, 43833]}, "edge": {"target": [], "time": []}}, "mouseout": {"state": {"target": ["0", "23", "23", "24", "25", "33", "30", "32", "30", "25", "26", "25", "30", "32", "31", "24", "26", "29", "27", "28", "12", "12", "0", "12", "13", "13", "14", "19", "22", "21", "20", "15", "18", "16", "17", "15", "18", "1", "2", "7", "4", "6", "6", "5", "3", "8", "10", "8", "11", "8"], "time": [2818, 3202, 4385, 5135, 5868, 6784, 7718, 9134, 9201, 9301, 9967, 10017, 10069, 11068, 12201, 12251, 13389, 14685, 15969, 17086, 18067, 19402, 20368, 20433, 20601, 21650, 22534, 23058, 24220, 25234, 26202, 27401, 28267, 29584, 30684, 30750, 30834, 32335, 33433, 34500, 35634, 35850, 37283, 38433, 39467, 39616, 41200, 41701, 42899, 43766]}, "edge": {"target": [], "time": []}}}, "displayed_time": "49.75", "trialTime": 56196, "trial_type": "mouselab-mdp", "trial_index": 25, "time_elapsed": 1460388, "internal_node_id": "0.0-6.0-1.0-16.0"}}, {"uniqueid": "w14885624:a59393619", "current_trial": 26, "dateTime": 1693836153273, "trialdata": {"revealed_states": [], "clicked_states": ["1", "2", "3", "8", "11"], "num_clicks_accrued": [0, 0, 0, 0, 0, 0, 0, 0, 0, 0, 0, 0, 0], "stateRewards": ["", -1, 1, 8, -8, -49, 62, -78, 16, 28, -81, 78, -2, -3, -1, -4, 67, 49, -2, -13, -16, -39, 83, 1, -4, 4, -5, -20, 7, 84, 7, -32, -59, 19], "withholdReward": false, "trial_id": "mdp_trial_18", "block": "test", "trialIndex": 19, "score": 97.25, "costs": -4.75, "simulationMode": [null, null, null, null, null], "rewards": [-1, 1, 8, 16, 78], "path": ["0", "0", "1", "2", "3", "8", "11"], "rt": [11135, 512, 381, 499, 445], "actions": ["up", "up", "up", "left", "left"], "actionTimes": [13270, 14282, 15184, 16201, 17148], "queries": {"click": {"state": {"target": ["1", "2", "3", "8", "11"], "time": [4005, 4853, 5681, 6552, 7427]}, "edge": {"target": [], "time": []}}, "mouseover": {"state": {"target": ["1", "2", "3", "8", "11", "10", "9", "2", "1"], "time": [3651, 4635, 5434, 6268, 7368, 8085, 9418, 11202, 11301]}, "edge": {"target": [], "time": []}}, "mouseout": {"state": {"target": ["9", "2", "1", "1", "2", "3", "8", "11", "10", "8", "9", "2", "1", "12"], "time": [1084, 1218, 1485, 4502, 5335, 6168, 7101, 8001, 8885, 9001, 10518, 11218, 19334, 19484]}, "edge": {"target": [], "time": []}}}, "displayed_time": "17.65", "trialTime": 21822, "trial_type": "mouselab-mdp", "trial_index": 26, "time_elapsed": 1482528, "internal_node_id": "0.0-6.0-1.0-17.0"}}, {"uniqueid": "w14885624:a59393619", "current_trial": 27, "dateTime": 1693836190172, "trialdata": {"revealed_states": [], "clicked_states": ["23", "24", "25", "30", "32", "12", "13", "14", "15", "16", "19", "22"], "num_clicks_accrued": [0, 0, 0, 0, 0, 0, 0, 0, 0, 0, 0, 0, 0], "stateRewards": ["", -2, -1, -3, -1, -78, -6, 2, -1, 22, -88, 32, 2, 2, -7, -8, -51, -17, 54, 2, -44, 54, 75, 2, -2, -8, -15, -29, 12, -67, 15, -1, -47, -47], "withholdReward": false, "trial_id": "mdp_trial_19", "block": "test", "trialIndex": 20, "score": 39.8, "costs": -13.200000000000001, "simulationMode": [null, null, null, null, null], "rewards": [2, 2, -7, 2, 54], "path": ["0", "0", "12", "13", "14", "19", "21"], "rt": [26330, 243, 177, 675, 324], "actions": ["right", "right", "right", "down", "down"], "actionTimes": [28132, 28890, 29573, 30755, 31601], "queries": {"click": {"state": {"target": ["23", "24", "25", "30", "32", "12", "13", "14", "15", "16", "19", "22"], "time": [3718, 4664, 5604, 7482, 8360, 12338, 13337, 14425, 16094, 17311, 22057, 23034]}, "edge": {"target": [], "time": []}}, "mouseover": {"state": {"target": ["0", "23", "24", "25", "30", "32", "33", "31", "12", "13", "14", "15", "16", "18", "17", "19", "22", "21", "20"], "time": [2911, 3011, 4516, 5411, 6444, 8211, 9244, 10194, 11994, 13195, 14311, 15127, 17112, 18310, 19277, 21777, 22711, 23644, 24860]}, "edge": {"target": [], "time": []}}, "mouseout": {"state": {"target": ["12", "0", "0", "23", "24", "25", "30", "32", "33", "30", "31", "12", "13", "14", "15", "16", "18", "17", "19", "22", "22", "21"], "time": [1060, 1360, 2927, 4228, 5161, 6395, 8078, 9027, 9960, 10111, 11578, 12895, 14062, 14527, 16811, 17877, 19061, 21310, 22644, 23155, 23545, 24644]}, "edge": {"target": [], "time": []}}}, "displayed_time": "32.10", "trialTime": 36598, "trial_type": "mouselab-mdp", "trial_index": 27, "time_elapsed": 1519427, "internal_node_id": "0.0-6.0-1.0-18.0"}}, {"uniqueid": "w14885624:a59393619", "current_trial": 28, "dateTime": 1693836240986, "trialdata": {"revealed_states": [], "clicked_states": ["1", "2", "3", "4", "7", "12", "13", "14", "19", "22", "15", "17", "18", "24", "25", "23", "28", "27", "33", "30", "31"], "num_clicks_accrued": [0, 0, 0, 0, 0, 0, 0, 0, 0, 0, 0, 0, 0], "stateRewards": ["", 1, 3, -2, 15, 51, 15, -19, 11, 67, -45, -73, 2, 4, -2, -13, 36, 9, -28, 10, -30, 31, 16, 1, 2, -1, -16, 14, -22, 36, -1, 88, -5, 45], "withholdReward": false, "trial_id": "mdp_trial_20", "block": "test", "trialIndex": 21, "score": 62.45, "costs": -26.549999999999997, "simulationMode": [null, null, null, null, null, null], "rewards": [1, 2, -1, -1, 88], "path": ["0", "0", "23", "24", "25", "30", "31"], "rt": [39479, 744, 785, 363, 784, 759], "actions": ["left", "left", "left", "left", "down", "right"], "actionTimes": [41062, 41810, 43094, 43956, 45260, 46535], "queries": {"click": {"state": {"target": ["1", "2", "3", "4", "7", "12", "13", "14", "19", "22", "15", "17", "18", "24", "25", "23", "28", "27", "33", "30", "31"], "time": [2590, 3490, 4438, 5518, 6491, 9974, 10944, 12048, 13222, 14119, 18391, 19465, 22314, 25095, 25883, 27013, 27958, 30964, 34674, 37437, 38400]}, "edge": {"target": [], "time": []}}, "mouseover": {"state": {"target": ["1", "2", "3", "4", "7", "6", "5", "4", "12", "13", "14", "19", "22", "21", "20", "15", "17", "16", "18", "0", "23", "24", "25", "23", "28", "26", "27", "29", "33", "32", "30", "31", "25", "29"], "time": [2360, 3473, 4147, 5232, 6195, 7377, 8144, 8977, 9627, 10727, 11827, 12859, 13717, 15010, 16060, 17773, 19176, 20109, 21026, 23076, 23609, 24876, 25626, 26709, 27675, 28992, 30658, 31775, 34075, 35726, 37176, 37943, 39093, 39176]}, "edge": {"target": [], "time": []}}, "mouseout": {"state": {"target": ["20", "19", "0", "1", "2", "3", "4", "7", "4", "6", "5", "4", "12", "13", "14", "19", "22", "21", "20", "15", "17", "16", "18", "0", "23", "24", "25", "24", "23", "28", "26", "27", "29", "33", "32", "30", "31", "25"], "time": [677, 693, 1311, 3467, 3996, 4878, 5994, 6927, 7077, 8027, 8944, 9010, 10444, 11560, 12809, 13695, 14693, 15860, 17093, 18943, 19910, 20944, 22976, 23142, 24376, 25559, 26276, 26442, 27592, 28742, 30408, 31508, 33759, 35459, 37093, 37550, 39042, 39109]}, "edge": {"target": [], "time": []}}}, "displayed_time": "47.03", "trialTime": 50513, "trial_type": "mouselab-mdp", "trial_index": 28, "time_elapsed": 1570241, "internal_node_id": "0.0-6.0-1.0-19.0"}}, {"uniqueid": "w14885624:a59393619", "current_trial": 29, "dateTime": 1693836268124, "trialdata": {"revealed_states": [], "clicked_states": [], "num_clicks_accrued": [0, 0, 0, 0, 0, 0, 0, 0, 0, 0, 0, 0, 0], "stateRewards": ["", 1, 2, 2, -15, -84, 28, -26, 13, 31, 86, 30, -2, 1, -1, -8, 66, -40, -1, -10, -32, 57, -17, 1, 2, -2, 9, -23, 77, 85, 12, -32, -62, -35], "withholdReward": false, "trial_id": "mdp_trial_21", "block": "test", "trialIndex": 22, "score": -94, "costs": 0, "simulationMode": [null, null, null, null, null], "rewards": [1, 2, 2, -15, -84], "path": ["0", "0", "1", "2", "3", "4", "5"], "rt": [11879, 23, 270, 511, 559], "actions": ["up", "up", "up", "right", "up"], "actionTimes": [19475, 20016, 20798, 21805, 22853], "queries": {"click": {"state": {"target": [], "time": []}, "edge": {"target": [], "time": []}}, "mouseover": {"state": {"target": ["1"], "time": [11242]}, "edge": {"target": [], "time": []}}, "mouseout": {"state": {"target": ["29", "27", "26", "28", "1"], "time": [6109, 6326, 6409, 6443, 14942]}, "edge": {"target": [], "time": []}}}, "displayed_time": "23.36", "trialTime": 26853, "trial_type": "mouselab-mdp", "trial_index": 29, "time_elapsed": 1597379, "internal_node_id": "0.0-6.0-1.0-20.0"}}, {"uniqueid": "w14885624:a59393619", "current_trial": 30, "dateTime": 1693836309802, "trialdata": {"revealed_states": [], "clicked_states": ["12", "13", "18", "16", "22", "20", "24", "25", "30", "33", "26", "29"], "num_clicks_accrued": [0, 0, 0, 0, 0, 0, 0, 0, 0, 0, 0, 0, 0], "stateRewards": ["", 1, 4, 5, 8, -55, -11, 8, 16, -37, 77, -22, -2, 3, -8, -10, 45, 87, -67, 4, 17, -33, -22, -1, -3, 7, 6, -39, -85, 75, -1, 7, -48, 45], "withholdReward": false, "trial_id": "mdp_trial_22", "block": "test", "trialIndex": 23, "score": 66.6, "costs": -17.400000000000002, "simulationMode": [null, null, null, null, null], "rewards": [-1, -3, 7, 6, 75], "path": ["0", "0", "23", "24", "25", "26", "29"], "rt": [30249, 326, 401, 323, 143], "actions": ["left", "left", "left", "up", "left"], "actionTimes": [34310, 35146, 36053, 36874, 37513], "queries": {"click": {"state": {"target": ["12", "13", "18", "16", "22", "20", "24", "25", "30", "33", "26", "29"], "time": [4993, 5781, 6607, 10354, 14621, 18115, 21167, 21916, 22808, 23791, 28382, 29359]}, "edge": {"target": [], "time": []}}, "mouseover": {"state": {"target": ["12", "13", "18", "14", "15", "17", "16", "15", "14", "14", "19", "22", "19", "21", "19", "21", "20", "19", "12", "12", "0", "23", "24", "25", "30", "33", "32", "31", "25", "26", "29", "27", "28"], "time": [4667, 5551, 6434, 7267, 8167, 9100, 9951, 10818, 10934, 11417, 12183, 14267, 15250, 15484, 15633, 16917, 17783, 18667, 18833, 19250, 19567, 19900, 20883, 21717, 22584, 23518, 24534, 25535, 27616, 28049, 29083, 30250, 31216]}, "edge": {"target": [], "time": []}}, "mouseout": {"state": {"target": ["0", "0", "12", "13", "18", "14", "15", "17", "16", "15", "14", "14", "19", "22", "19", "21", "19", "21", "20", "19", "12", "12", "0", "23", "24", "25", "30", "33", "32", "31", "25", "26", "29", "27", "28", "1", "12"], "time": [3229, 4534, 5484, 6334, 7101, 8052, 9000, 9852, 10784, 10867, 11100, 12117, 14217, 15167, 15317, 15533, 16717, 17600, 18650, 18717, 18867, 19500, 19833, 20735, 21650, 22468, 23451, 24285, 25384, 27566, 27916, 28933, 29883, 31033, 40415, 40533, 40667]}, "edge": {"target": [], "time": []}}}, "displayed_time": "38.05", "trialTime": 41341, "trial_type": "mouselab-mdp", "trial_index": 30, "time_elapsed": 1639057, "internal_node_id": "0.0-6.0-1.0-21.0"}}, {"uniqueid": "w14885624:a59393619", "current_trial": 31, "dateTime": 1693836349429, "trialdata": {"revealed_states": [], "clicked_states": [], "num_clicks_accrued": [0, 0, 0, 0, 0, 0, 0, 0, 0, 0, 0, 0, 0], "stateRewards": ["", 2, 4, 7, -6, -76, -81, 2, 5, -66, -3, 36, -2, -4, 6, -2, -69, 4, -49, -6, 67, 38, -67, 2, 1, 1, 6, -68, -21, 52, -16, -16, 6, -70], "withholdReward": false, "trial_id": "mdp_trial_23", "block": "test", "trialIndex": 24, "score": -74, "costs": 0, "simulationMode": [null, null, null, null, null], "rewards": [2, 4, 7, -6, -81], "path": ["0", "0", "1", "2", "3", "4", "6"], "rt": [28764, 104, 323, 412, 47], "actions": ["up", "up", "up", "right", "right"], "actionTimes": [30591, 31188, 32024, 32946, 33514], "queries": {"click": {"state": {"target": [], "time": []}, "edge": {"target": [], "time": []}}, "mouseover": {"state": {"target": ["1", "2", "3", "10", "8", "11"], "time": [2835, 23899, 24883, 26000, 26583, 27816]}, "edge": {"target": [], "time": []}}, "mouseout": {"state": {"target": ["12", "1", "2", "3", "10", "8", "11"], "time": [1084, 23817, 24817, 25933, 26500, 27633, 37466]}, "edge": {"target": [], "time": []}}}, "displayed_time": "34.02", "trialTime": 39318, "trial_type": "mouselab-mdp", "trial_index": 31, "time_elapsed": 1678684, "internal_node_id": "0.0-6.0-1.0-22.0"}}, {"uniqueid": "w14885624:a59393619", "current_trial": 32, "dateTime": 1693836405521, "trialdata": {"revealed_states": [], "clicked_states": ["23", "24", "25", "30", "33", "31", "29", "28", "13", "14", "19", "22", "17", "16", "4", "6", "3", "8", "9", "10", "5"], "num_clicks_accrued": [0, 0, 0, 0, 0, 0, 0, 0, 0, 0, 0, 0, 0], "stateRewards": ["", 2, 4, 7, 7, -79, -2, -21, -5, -53, 47, -21, 1, -3, -1, 7, 83, 7, 84, -7, 80, -37, 69, 2, -4, 5, 2, 4, -20, -30, 7, 71, 44, -81], "withholdReward": false, "trial_id": "mdp_trial_24", "block": "test", "trialIndex": 25, "score": 53.85000000000001, "costs": -33.14999999999999, "simulationMode": [null, null, null, null, null, null], "rewards": [1, -3, -1, 7, 83], "path": ["0", "0", "12", "13", "14", "15", "16"], "rt": [46371, 964, 119, 348, 557, 304], "actions": ["right", "right", "right", "right", "up", "up"], "actionTimes": [48148, 49115, 49741, 50604, 51666, 52462], "queries": {"click": {"state": {"target": ["23", "24", "25", "30", "33", "31", "29", "28", "13", "14", "19", "22", "17", "16", "4", "6", "3", "8", "9", "10", "5"], "time": [3717, 4464, 5539, 6316, 7466, 10926, 13771, 17327, 20953, 22155, 23022, 23813, 27754, 30921, 33714, 34584, 37851, 38667, 39516, 42703, 46472]}, "edge": {"target": [], "time": []}}, "mouseover": {"state": {"target": ["23", "23", "24", "25", "30", "33", "32", "31", "25", "26", "29", "26", "27", "28", "12", "13", "14", "19", "22", "21", "20", "17", "15", "18", "16", "7", "4", "6", "7", "2", "3", "8", "9", "11", "10", "11", "5"], "time": [2473, 3505, 4206, 5323, 6139, 7172, 8089, 9157, 11472, 11556, 12906, 14590, 15557, 16939, 18706, 20622, 21688, 22773, 23507, 24789, 25939, 27356, 28472, 29489, 30555, 31956, 33189, 34388, 35255, 36505, 37438, 38389, 39322, 40272, 41539, 43404, 46054]}, "edge": {"target": [], "time": []}}, "mouseout": {"state": {"target": ["23", "23", "23", "24", "25", "30", "33", "32", "31", "25", "26", "29", "26", "27", "28", "12", "13", "14", "19", "22", "21", "20", "17", "15", "18", "16", "7", "4", "6", "7", "2", "3", "3", "8", "9", "11", "10", "11"], "time": [1157, 2764, 4157, 4956, 6006, 6873, 7873, 8940, 11427, 11489, 12622, 14390, 15491, 16772, 17955, 20506, 21555, 22656, 23474, 24423, 25740, 26821, 28389, 29290, 30356, 31772, 33123, 34254, 35171, 36455, 37388, 37977, 38322, 39139, 40021, 41106, 43287, 45405]}, "edge": {"target": [], "time": []}}}, "displayed_time": "52.97", "trialTime": 55751, "trial_type": "mouselab-mdp", "trial_index": 32, "time_elapsed": 1734776, "internal_node_id": "0.0-6.0-1.0-23.0"}}, {"uniqueid": "w14885624:a59393619", "current_trial": 33, "dateTime": 1693836435227, "trialdata": {"revealed_states": [], "clicked_states": [], "num_clicks_accrued": [0, 0, 0, 0, 0, 0, 0, 0, 0, 0, 0, 0, 0], "stateRewards": ["", 1, -2, -3, 14, -42, -87, -37, -11, -50, 33, -44, -2, 4, -7, 13, 48, -75, -66, 12, 23, -2, 82, 1, -4, 3, 12, 51, -15, -26, -11, -52, -29, 82], "withholdReward": false, "trial_id": "mdp_trial_25", "block": "test", "trialIndex": 26, "score": 56, "costs": 0, "simulationMode": [null, null, null, null, null], "rewards": [-2, 4, -7, 13, 48], "path": ["0", "0", "12", "13", "14", "15", "16"], "rt": [9366, 53, 131, 244, 571], "actions": ["right", "right", "right", "up", "up"], "actionTimes": [20551, 21098, 21758, 22504, 23583], "queries": {"click": {"state": {"target": [], "time": []}, "edge": {"target": [], "time": []}}, "mouseover": {"state": {"target": ["12"], "time": [14708]}, "edge": {"target": [], "time": []}}, "mouseout": {"state": {"target": ["5", "1"], "time": [9775, 10158]}, "edge": {"target": [], "time": []}}}, "displayed_time": "25.19", "trialTime": 29380, "trial_type": "mouselab-mdp", "trial_index": 33, "time_elapsed": 1764482, "internal_node_id": "0.0-6.0-1.0-24.0"}}, {"uniqueid": "w14885624:a59393619", "current_trial": 34, "dateTime": 1693836461729, "trialdata": {"revealed_states": [], "clicked_states": ["1", "2", "3", "8", "10", "4", "6", "5"], "num_clicks_accrued": [0, 0, 0, 0, 0, 0, 0, 0, 0, 0, 0, 0, 0], "stateRewards": ["", -1, 1, 8, -3, -24, 11, -65, -6, -77, 48, 44, -2, 1, -2, -7, -55, -35, 33, 8, -28, 19, -53, -1, -1, -5, -5, -70, 10, 44, 8, -58, -70, 51], "withholdReward": false, "trial_id": "mdp_trial_26", "block": "test", "trialIndex": 27, "score": 39.4, "costs": -10.6, "simulationMode": [null, null, null, null, null, null], "rewards": [-1, 1, 8, -6, 48], "path": ["0", "0", "1", "2", "3", "8", "10"], "rt": [17600, 724, 323, 282, 343, 392], "actions": ["up", "up", "up", "up", "left", "down"], "actionTimes": [19044, 19771, 20592, 21367, 22209, 23110], "queries": {"click": {"state": {"target": ["1", "2", "3", "8", "10", "4", "6", "5"], "time": [3313, 4180, 5142, 6187, 7079, 11145, 12124, 16474]}, "edge": {"target": [], "time": []}}, "mouseover": {"state": {"target": ["1", "2", "3", "8", "10", "11", "9", "4", "6", "7", "4", "5", "2", "1"], "time": [2867, 3967, 4983, 5883, 6849, 7883, 8983, 10216, 11883, 12866, 15865, 16016, 17568, 18015]}, "edge": {"target": [], "time": []}}, "mouseout": {"state": {"target": ["12", "1", "2", "3", "8", "10", "11", "9", "4", "6", "7", "4", "5", "5", "2"], "time": [749, 3816, 4716, 5633, 6749, 7582, 8833, 9801, 11732, 12666, 15849, 15916, 16615, 17282, 17666]}, "edge": {"target": [], "time": []}}}, "displayed_time": "23.62", "trialTime": 26157, "trial_type": "mouselab-mdp", "trial_index": 34, "time_elapsed": 1790984, "internal_node_id": "0.0-6.0-1.0-25.0"}}, {"uniqueid": "w14885624:a59393619", "current_trial": 35, "dateTime": 1693836521146, "trialdata": {"revealed_states": [], "clicked_states": ["23", "24", "25", "30", "33", "26", "29", "28", "13", "14", "19", "22", "1", "2", "3", "8", "11", "9", "6", "18", "17"], "num_clicks_accrued": [0, 0, 0, 0, 0, 0, 0, 0, 0, 0, 0, 0, 0], "stateRewards": ["", 1, -1, 8, 4, 76, -33, -17, -3, -1, -54, -74, -2, 2, -5, 13, -51, 63, 83, 1, 84, 29, -36, 2, -1, 7, -12, -10, -44, -43, -14, 8, -69, 19], "withholdReward": false, "trial_id": "mdp_trial_27", "block": "test", "trialIndex": 28, "score": 62.05000000000001, "costs": -28.949999999999992, "simulationMode": [null, null, null, null, null], "rewards": [-2, 2, -5, 13, 83], "path": ["0", "0", "12", "13", "14", "15", "18"], "rt": [49533, 19, 258, 650, 448], "actions": ["right", "right", "right", "up", "left"], "actionTimes": [51485, 52013, 52801, 53944, 54891], "queries": {"click": {"state": {"target": ["23", "24", "25", "30", "33", "26", "29", "28", "13", "14", "19", "22", "1", "2", "3", "8", "11", "9", "6", "18", "17"], "time": [3864, 4834, 5710, 6607, 7491, 12120, 13441, 17475, 20493, 21542, 22472, 23311, 28398, 29423, 31174, 32276, 33205, 36109, 39376, 43126, 47358]}, "edge": {"target": [], "time": []}}, "mouseover": {"state": {"target": ["0", "23", "24", "25", "30", "33", "31", "32", "30", "25", "26", "29", "27", "28", "12", "13", "14", "19", "22", "20", "21", "19", "14", "1", "2", "7", "3", "8", "11", "10", "8", "9", "4", "5", "6", "7", "18", "15", "17", "16"], "time": [3194, 3427, 4644, 5501, 6378, 7261, 8411, 9462, 11377, 11493, 11727, 13044, 14229, 15394, 18644, 20077, 21296, 22243, 23027, 24178, 25293, 27159, 27309, 28126, 29176, 30359, 30692, 31961, 32927, 33726, 35427, 35610, 37077, 38110, 38993, 40175, 41409, 43993, 45153, 48443]}, "edge": {"target": [], "time": []}}, "mouseout": {"state": {"target": ["1", "0", "23", "24", "25", "30", "33", "30", "31", "32", "30", "25", "26", "29", "27", "28", "12", "13", "14", "19", "19", "22", "19", "20", "21", "19", "14", "1", "2", "7", "3", "8", "11", "10", "8", "9", "4", "5", "6", "7", "18", "15", "17", "16", "15", "13", "12"], "time": [993, 3227, 4460, 5378, 6245, 7145, 8079, 8228, 9362, 11343, 11410, 11578, 12912, 14060, 15177, 18128, 19962, 21161, 22093, 22619, 22994, 23926, 24010, 25143, 27109, 27226, 27509, 29009, 30059, 30426, 31810, 32877, 33677, 35410, 35461, 36710, 37976, 38827, 39859, 41275, 43860, 45009, 48010, 57758, 57942, 58209, 58291]}, "edge": {"target": [], "time": []}}}, "displayed_time": "55.41", "trialTime": 59087, "trial_type": "mouselab-mdp", "trial_index": 35, "time_elapsed": 1850401, "internal_node_id": "0.0-6.0-1.0-26.0"}}, {"uniqueid": "w14885624:a59393619", "current_trial": 36, "dateTime": 1693836557858, "trialdata": {"revealed_states": [], "clicked_states": ["1", "2", "3", "4", "6", "5", "11", "10"], "num_clicks_accrued": [0, 0, 0, 0, 0, 0, 0, 0, 0, 0, 0, 0, 0], "stateRewards": ["", -2, 1, -3, -16, -39, -52, 30, -7, -41, -59, 11, 2, 1, 8, 2, -11, -26, -42, -13, 87, -59, -48, -1, -1, -1, 16, -79, 31, 50, -1, -84, 34, -82], "withholdReward": false, "trial_id": "mdp_trial_28", "block": "test", "trialIndex": 29, "score": -11.200000000000003, "costs": -11.200000000000001, "simulationMode": [null, null, null, null, null], "rewards": [-2, 1, -3, -7, 11], "path": ["0", "0", "1", "2", "3", "8", "11"], "rt": [28269, 118, 370, 851, 366], "actions": ["up", "up", "up", "left", "left"], "actionTimes": [29712, 30324, 31207, 32571, 33453], "queries": {"click": {"state": {"target": ["1", "2", "3", "4", "6", "5", "11", "10"], "time": [3013, 3879, 5396, 6699, 7620, 12337, 16055, 20495]}, "edge": {"target": [], "time": []}}, "mouseover": {"state": {"target": ["1", "2", "3", "4", "6", "7", "4", "5", "9", "11", "10", "1", "23", "24"], "time": [2687, 3654, 5036, 6237, 7303, 8503, 11370, 11838, 14170, 15720, 17003, 26586, 26953, 28241]}, "edge": {"target": [], "time": []}}, "mouseout": {"state": {"target": ["0", "0", "1", "2", "3", "4", "6", "7", "4", "5", "9", "11", "10", "1", "23", "24"], "time": [962, 2571, 3521, 4771, 6059, 7170, 8287, 11337, 11469, 13686, 15304, 16788, 26402, 26686, 28086, 36003]}, "edge": {"target": [], "time": []}}}, "displayed_time": "33.97", "trialTime": 36395, "trial_type": "mouselab-mdp", "trial_index": 36, "time_elapsed": 1887113, "internal_node_id": "0.0-6.0-1.0-27.0"}}, {"uniqueid": "w14885624:a59393619", "current_trial": 37, "dateTime": 1693836579049, "trialdata": {"revealed_states": [], "clicked_states": ["23", "24", "25", "30", "33"], "num_clicks_accrued": [0, 0, 0, 0, 0, 0, 0, 0, 0, 0, 0, 0, 0], "stateRewards": ["", -1, 4, 3, 12, -27, 34, -33, 3, -63, 1, 6, 2, 2, -6, -11, -77, -85, 68, -6, 51, 81, -60, -2, -2, 1, 15, 20, 15, 68, -10, -14, 6, -4], "withholdReward": false, "trial_id": "mdp_trial_29", "block": "test", "trialIndex": 30, "score": -11.75, "costs": -4.75, "simulationMode": [null, null, null, null, null], "rewards": [-2, -2, 1, -10, 6], "path": ["0", "0", "23", "24", "25", "30", "32"], "rt": [13394, 334, 351, 95, 138], "actions": ["left", "left", "left", "down", "down"], "actionTimes": [14917, 15758, 16622, 17233, 17881], "queries": {"click": {"state": {"target": ["23", "24", "25", "30", "33"], "time": [2698, 3681, 4845, 5886, 6819]}, "edge": {"target": [], "time": []}}, "mouseover": {"state": {"target": ["23", "24", "25", "30", "33", "32"], "time": [2505, 3505, 4556, 5471, 6521, 13104]}, "edge": {"target": [], "time": []}}, "mouseout": {"state": {"target": ["0", "23", "24", "25", "30", "33", "32"], "time": [2289, 3339, 4322, 5392, 6437, 12820, 13354]}, "edge": {"target": [], "time": []}}}, "displayed_time": "18.39", "trialTime": 20874, "trial_type": "mouselab-mdp", "trial_index": 37, "time_elapsed": 1908305, "internal_node_id": "0.0-6.0-1.0-28.0"}}, {"uniqueid": "w14885624:a59393619", "current_trial": 38, "dateTime": 1693836636558, "trialdata": {"revealed_states": [], "clicked_states": ["12", "13", "14", "15", "18", "19", "21", "20", "23", "24", "25", "30", "31", "33", "29", "27", "2", "3", "4", "5", "7", "9", "11"], "num_clicks_accrued": [0, 0, 0, 0, 0, 0, 0, 0, 0, 0, 0, 0, 0], "stateRewards": ["", -2, -2, -7, -13, -10, 49, -68, -1, 84, 70, 88, 1, 4, 4, 12, -57, 25, 30, 8, -1, -77, 57, 2, 3, 2, 3, -18, -80, 23, -15, -41, 70, 11], "withholdReward": false, "trial_id": "mdp_trial_30", "block": "test", "trialIndex": 31, "score": 42.75000000000001, "costs": -33.24999999999999, "simulationMode": [null, null, null, null, null], "rewards": [-2, -2, -7, -1, 88], "path": ["0", "0", "1", "2", "3", "8", "11"], "rt": [50123, 213, 429, 301, 344], "actions": ["up", "up", "up", "left", "left"], "actionTimes": [51455, 52188, 53120, 53926, 54767], "queries": {"click": {"state": {"target": ["12", "13", "14", "15", "18", "19", "21", "20", "23", "24", "25", "30", "31", "33", "29", "27", "2", "3", "4", "5", "7", "9", "11"], "time": [2273, 3255, 4077, 4985, 5752, 8543, 9369, 12186, 17012, 18074, 19035, 19894, 20813, 23784, 27627, 31261, 35152, 36628, 37774, 38821, 42499, 45347, 48281]}, "edge": {"target": [], "time": []}}, "mouseover": {"state": {"target": ["12", "13", "14", "15", "18", "16", "17", "19", "21", "22", "20", "19", "22", "0", "23", "24", "25", "30", "31", "32", "33", "26", "28", "26", "29", "26", "27", "10", "1", "2", "3", "4", "5", "6", "6", "7", "3", "9", "11", "10"], "time": [1975, 2995, 3828, 4727, 5443, 6377, 7361, 8264, 9059, 10025, 10875, 12758, 13041, 16017, 16775, 17842, 18758, 19675, 20626, 21610, 23359, 24708, 25825, 27191, 27325, 28609, 29441, 31941, 32324, 34641, 36010, 37407, 38408, 39441, 40990, 42107, 43543, 43958, 46007, 49224]}, "edge": {"target": [], "time": []}}, "mouseout": {"state": {"target": ["0", "12", "13", "14", "15", "18", "16", "17", "19", "19", "21", "22", "19", "20", "19", "22", "0", "23", "24", "25", "30", "31", "32", "33", "26", "28", "26", "29", "26", "27", "10", "1", "2", "3", "4", "5", "6", "6", "7", "3", "9", "11"], "time": [725, 2827, 3386, 4202, 5393, 6193, 7077, 8009, 8687, 8991, 9742, 10724, 10808, 12741, 12858, 15624, 16176, 17592, 18677, 19525, 20443, 21294, 23292, 23958, 25727, 27142, 27242, 28326, 29392, 31399, 31991, 34473, 35792, 37208, 38340, 39324, 40492, 42040, 43358, 43676, 45923, 48856]}, "edge": {"target": [], "time": []}}}, "displayed_time": "55.27", "trialTime": 56987, "trial_type": "mouselab-mdp", "trial_index": 38, "time_elapsed": 1965813, "internal_node_id": "0.0-6.0-1.0-29.0"}}, {"uniqueid": "w14885624:a59393619", "current_trial": 39, "dateTime": 1693836660899, "trialdata": {"revealed_states": [], "clicked_states": ["7"], "num_clicks_accrued": [0, 0, 0, 0, 0, 0, 0, 0, 0, 0, 0, 0, 0], "stateRewards": ["", 1, 1, 4, 11, 83, -66, 18, -16, -23, 5, 25, 1, -3, 1, -12, 18, 24, -86, -11, -64, 36, 40, 2, 1, -6, 13, 55, 29, 72, -2, 81, -72, -41], "withholdReward": false, "trial_id": "mdp_trial_31", "block": "test", "trialIndex": 32, "score": 32.85, "costs": -2.15, "simulationMode": [null, null, null, null, null], "rewards": [1, 1, 4, 11, 18], "path": ["0", "0", "1", "2", "3", "4", "7"], "rt": [12744, 20, 62, 447, 275], "actions": ["up", "up", "up", "right", "down"], "actionTimes": [14441, 14978, 15552, 16521, 17299], "queries": {"click": {"state": {"target": ["7"], "time": [3732]}, "edge": {"target": [], "time": []}}, "mouseover": {"state": {"target": ["1", "7", "6", "5", "9", "11"], "time": [3088, 3255, 4488, 9788, 11522, 12921]}, "edge": {"target": [], "time": []}}, "mouseout": {"state": {"target": ["10", "1", "7", "6", "5", "9"], "time": [987, 3138, 4288, 9755, 11172, 12772]}, "edge": {"target": [], "time": []}}}, "displayed_time": "17.79", "trialTime": 24026, "trial_type": "mouselab-mdp", "trial_index": 39, "time_elapsed": 1990154, "internal_node_id": "0.0-6.0-1.0-30.0"}}, {"uniqueid": "w14885624:a59393619", "current_trial": 40, "dateTime": 1693836686905, "trialdata": {"revealed_states": [], "clicked_states": ["23", "24", "25", "30", "32", "31"], "num_clicks_accrued": [0, 0, 0, 0, 0, 0, 0, 0, 0, 0, 0, 0, 0], "stateRewards": ["", -1, -1, 4, -16, -75, 81, -51, -7, -84, 73, -30, -2, 1, -3, -16, -77, 33, 14, 1, 45, 87, -66, 2, 2, -5, -7, -19, -17, 79, -3, 8, 49, 47], "withholdReward": false, "trial_id": "mdp_trial_32", "block": "test", "trialIndex": 33, "score": 38.1, "costs": -6.9, "simulationMode": [null, null, null, null, null, null], "rewards": [2, 2, -5, -3, 49], "path": ["0", "0", "23", "24", "25", "30", "32"], "rt": [12920, 2034, 26, 639, 401, 346], "actions": ["left", "left", "left", "left", "down", "down"], "actionTimes": [15867, 17904, 18426, 19571, 20467, 21329], "queries": {"click": {"state": {"target": ["23", "24", "25", "30", "32", "31"], "time": [4491, 5359, 6321, 7639, 8932, 14419]}, "edge": {"target": [], "time": []}}, "mouseover": {"state": {"target": ["23", "24", "25", "30", "32", "33", "30", "31"], "time": [4015, 5098, 6032, 7132, 8680, 9998, 13582, 13681]}, "edge": {"target": [], "time": []}}, "mouseout": {"state": {"target": ["11", "23", "0", "23", "24", "25", "30", "32", "33", "30"], "time": [1047, 1331, 3865, 5065, 5998, 7065, 8414, 9698, 13514, 13631]}, "edge": {"target": [], "time": []}}}, "displayed_time": "21.85", "trialTime": 25692, "trial_type": "mouselab-mdp", "trial_index": 40, "time_elapsed": 2016160, "internal_node_id": "0.0-6.0-1.0-31.0"}}, {"uniqueid": "w14885624:a59393619", "current_trial": 41, "dateTime": 1693836733635, "trialdata": {"revealed_states": [], "clicked_states": ["12", "13", "14", "19", "22", "15", "17", "1", "2", "7", "5", "3", "8", "11", "27"], "num_clicks_accrued": [0, 0, 0, 0, 0, 0, 0, 0, 0, 0, 0, 0, 0], "stateRewards": ["", -1, -3, 1, 13, -64, -29, 12, -4, -33, 50, 56, 2, -3, 4, 11, -64, -58, -55, 12, 47, 38, -25, -2, 2, 5, -15, 85, 7, 84, 10, 8, 57, 26], "withholdReward": false, "trial_id": "mdp_trial_33", "block": "test", "trialIndex": 34, "score": 29.35, "costs": -19.65, "simulationMode": [null, null, null, null, null], "rewards": [-1, -3, 1, -4, 56], "path": ["0", "0", "1", "2", "3", "8", "11"], "rt": [35381, 321, 1819, 502, 219], "actions": ["up", "up", "up", "left", "left"], "actionTimes": [36928, 37743, 40074, 41088, 41822], "queries": {"click": {"state": {"target": ["12", "13", "14", "19", "22", "15", "17", "1", "2", "7", "5", "3", "8", "11", "27"], "time": [2688, 3455, 4290, 5093, 5889, 10768, 12153, 15450, 16647, 19018, 21958, 25586, 26990, 28092, 30959]}, "edge": {"target": [], "time": []}}, "mouseover": {"state": {"target": ["12", "13", "14", "19", "22", "21", "20", "15", "17", "16", "18", "1", "2", "7", "7", "4", "6", "5", "3", "8", "11", "9", "27"], "time": [2271, 3238, 4046, 4771, 5722, 6838, 7988, 10453, 11637, 12821, 14170, 15070, 16387, 17237, 18485, 19787, 20403, 21609, 25136, 26486, 27753, 28985, 30635]}, "edge": {"target": [], "time": []}}, "mouseout": {"state": {"target": ["31", "0", "12", "13", "14", "19", "22", "21", "20", "15", "17", "16", "18", "1", "2", "7", "7", "4", "6", "5", "3", "8", "11", "9", "11"], "time": [690, 2224, 3205, 3988, 4738, 5572, 6705, 7805, 10038, 11403, 12705, 13921, 14938, 16053, 17204, 17337, 19656, 20353, 21404, 24836, 26319, 27687, 28685, 30218, 30285]}, "edge": {"target": [], "time": []}}}, "displayed_time": "42.34", "trialTime": 46346, "trial_type": "mouselab-mdp", "trial_index": 41, "time_elapsed": 2062890, "internal_node_id": "0.0-6.0-1.0-32.0"}}, {"uniqueid": "w14885624:a59393619", "current_trial": 42, "dateTime": 1693836807983, "trialdata": {"revealed_states": [], "clicked_states": ["1", "2", "3", "4", "7", "9", "10", "23", "24", "25", "30", "32", "31", "29", "26", "12", "13", "14", "19", "22", "20", "15", "17", "18", "5", "11"], "num_clicks_accrued": [0, 0, 0, 0, 0, 0, 0, 0, 0, 0, 0, 0, 0], "stateRewards": ["", 2, -1, 5, 8, 75, -35, -77, 1, -9, -81, -58, 1, 2, -7, 5, 77, -16, 19, 16, -10, -18, 40, -2, 3, 7, -5, 64, 1, -62, 10, 27, 10, 65], "withholdReward": false, "trial_id": "mdp_trial_34", "block": "test", "trialIndex": 35, "score": 52.300000000000004, "costs": -36.699999999999996, "simulationMode": [null, null, null, null, null, null], "rewards": [2, -1, 5, 8, 75], "path": ["0", "0", "1", "2", "3", "4", "5"], "rt": [63310, 754, 701, 397, 564, 539], "actions": ["up", "up", "up", "up", "right", "up"], "actionTimes": [65884, 66642, 67851, 68762, 69830, 70888], "queries": {"click": {"state": {"target": ["1", "2", "3", "4", "7", "9", "10", "23", "24", "25", "30", "32", "31", "29", "26", "12", "13", "14", "19", "22", "20", "15", "17", "18", "5", "11"], "time": [5196, 6261, 7470, 8902, 9965, 14719, 18068, 21491, 22375, 24712, 25692, 27005, 30831, 34641, 38817, 40837, 41785, 43004, 44014, 44878, 48430, 52011, 52925, 56637, 60530, 63705]}, "edge": {"target": [], "time": []}}, "mouseover": {"state": {"target": ["1", "2", "3", "4", "7", "6", "5", "9", "11", "10", "11", "23", "24", "28", "25", "30", "32", "33", "30", "31", "26", "27", "29", "26", "28", "26", "28", "12", "13", "14", "19", "22", "21", "20", "19", "21", "19", "14", "15", "17", "16", "18", "7", "4", "6", "5", "9", "11"], "time": [4750, 6101, 7168, 8051, 9666, 10867, 12234, 14317, 15567, 17717, 19216, 20666, 22176, 23333, 24466, 25349, 26649, 27782, 30266, 30449, 31865, 32383, 34533, 35307, 35516, 38567, 39515, 40098, 41515, 42715, 43539, 44537, 45599, 47915, 49400, 49783, 51348, 51466, 51699, 52667, 53617, 54849, 57515, 57782, 57998, 60199, 61398, 61714]}, "edge": {"target": [], "time": []}}, "mouseout": {"state": {"target": ["27", "28", "23", "0", "1", "2", "3", "4", "4", "7", "6", "5", "9", "11", "10", "11", "23", "24", "28", "25", "30", "32", "33", "30", "31", "26", "27", "29", "26", "28", "26", "28", "12", "13", "14", "19", "22", "21", "20", "19", "21", "19", "14", "15", "17", "16", "18", "7", "4", "6", "5", "9"], "time": [967, 1051, 1367, 4417, 5901, 6867, 7983, 9022, 9500, 10516, 11884, 13818, 15300, 17566, 18966, 20150, 22117, 22491, 23649, 25282, 26399, 27583, 30217, 30351, 31566, 31999, 33934, 35250, 35416, 38499, 39499, 39565, 41465, 42315, 43465, 44466, 45466, 47750, 49033, 49417, 51315, 51382, 51549, 52549, 53483, 54483, 57381, 57632, 57932, 60048, 61248, 61448]}, "edge": {"target": [], "time": []}}}, "displayed_time": "71.40", "trialTime": 74010, "trial_type": "mouselab-mdp", "trial_index": 42, "time_elapsed": 2137238, "internal_node_id": "0.0-6.0-1.0-33.0"}}, {"uniqueid": "w14885624:a59393619", "current_trial": 43, "dateTime": 1693836831051, "trialdata": {"revealed_states": [], "clicked_states": ["1", "2", "3", "4", "6", "7"], "num_clicks_accrued": [0, 0, 0, 0, 0, 0, 0, 0, 0, 0, 0, 0, 0], "stateRewards": ["", 1, -4, 6, -3, 40, 76, -51, 5, -24, -63, 44, -2, -2, 8, 1, 76, -85, -58, 10, 59, 20, 11, -2, 3, -3, 3, -82, -10, 54, -7, -57, -6, -32], "withholdReward": false, "trial_id": "mdp_trial_35", "block": "test", "trialIndex": 36, "score": 69.1, "costs": -6.9, "simulationMode": [null, null, null, null, null, null], "rewards": [1, -4, 6, -3, 76], "path": ["0", "0", "1", "2", "3", "4", "6"], "rt": [10816, 972, 303, 286, 201, 219], "actions": ["up", "up", "up", "up", "right", "right"], "actionTimes": [13538, 14514, 15352, 16150, 16848, 17564], "queries": {"click": {"state": {"target": ["1", "2", "3", "4", "6", "7"], "time": [4149, 5007, 6194, 7373, 8240, 12389]}, "edge": {"target": [], "time": []}}, "mouseover": {"state": {"target": ["1", "2", "3", "4", "6", "5", "4", "7"], "time": [3879, 4778, 5801, 6996, 7948, 9113, 11000, 11278]}, "edge": {"target": [], "time": []}}, "mouseout": {"state": {"target": ["11", "10", "23", "1", "2", "3", "4", "6", "5", "4", "7"], "time": [1311, 1411, 1677, 4678, 5578, 6696, 7896, 8862, 10912, 11094, 21027]}, "edge": {"target": [], "time": []}}}, "displayed_time": "18.08", "trialTime": 22726, "trial_type": "mouselab-mdp", "trial_index": 43, "time_elapsed": 2160306, "internal_node_id": "0.0-6.0-1.0-34.0"}}, {"uniqueid": "w14885624:a59393619", "current_trial": 44, "dateTime": 1693836905620, "trialdata": {"revealed_states": [], "clicked_states": ["23", "24", "25", "30", "32", "33", "29", "27", "28", "13", "12", "14", "19", "22", "20", "17", "16", "1", "2", "3", "4", "7", "6", "5", "10"], "num_clicks_accrued": [0, 0, 0, 0, 0, 0, 0, 0, 0, 0, 0, 0, 0], "stateRewards": ["", 2, -1, 1, 10, -52, 86, -22, -2, -14, -63, 38, 1, 3, 7, -8, 11, -32, -27, 9, -71, 40, -87, -2, -1, 5, -7, 12, 31, -57, 13, 86, -58, 29], "withholdReward": false, "trial_id": "mdp_trial_36", "block": "test", "trialIndex": 37, "score": 62.25000000000001, "costs": -35.74999999999999, "simulationMode": [null, null, null, null, null, null], "rewards": [2, -1, 1, 10, 86], "path": ["0", "0", "1", "2", "3", "4", "6"], "rt": [66475, 706, 127, 420, 595, 167], "actions": ["up", "up", "up", "up", "right", "right"], "actionTimes": [67958, 68665, 69299, 70220, 71314, 71984], "queries": {"click": {"state": {"target": ["23", "24", "25", "30", "32", "33", "29", "27", "28", "13", "12", "14", "19", "22", "20", "17", "16", "1", "2", "3", "4", "7", "6", "5", "10"], "time": [2644, 3610, 4697, 6261, 7419, 10353, 14133, 16898, 21643, 25652, 26925, 28626, 29655, 30601, 33721, 39203, 43155, 47704, 48727, 50140, 51350, 52310, 56152, 60904, 66262]}, "edge": {"target": [], "time": []}}, "mouseover": {"state": {"target": ["23", "24", "25", "30", "32", "33", "30", "31", "26", "29", "27", "28", "1", "12", "13", "12", "14", "19", "22", "20", "21", "19", "14", "17", "15", "16", "18", "1", "2", "3", "4", "7", "6", "5", "5", "8", "10"], "time": [2284, 3452, 4235, 5318, 7152, 8336, 10886, 11186, 12452, 13785, 15201, 17602, 22551, 22785, 25468, 26235, 28150, 29268, 30283, 31283, 34617, 38167, 38350, 38701, 40450, 41417, 43900, 47232, 48399, 49733, 51083, 52000, 53168, 56783, 60400, 62716, 65783]}, "edge": {"target": [], "time": []}}, "mouseout": {"state": {"target": ["23", "0", "23", "24", "25", "30", "32", "33", "30", "31", "26", "29", "27", "28", "1", "12", "13", "12", "13", "14", "19", "22", "19", "20", "21", "19", "14", "17", "15", "16", "18", "1", "2", "3", "4", "7", "6", "5", "5", "8"], "time": [768, 2235, 3268, 4136, 5268, 6970, 7519, 10852, 10985, 12155, 13652, 14275, 17452, 22318, 22618, 24901, 26184, 27718, 27868, 29218, 30234, 31200, 31266, 34283, 38100, 38233, 38433, 40333, 41367, 43707, 46883, 48266, 49466, 50783, 51888, 52970, 56666, 60000, 61716, 65616]}, "edge": {"target": [], "time": []}}}, "displayed_time": "72.48", "trialTime": 74220, "trial_type": "mouselab-mdp", "trial_index": 44, "time_elapsed": 2234875, "internal_node_id": "0.0-6.0-1.0-35.0"}}, {"uniqueid": "w14885624:a59393619", "current_trial": 45, "dateTime": 1693836936660, "trialdata": {"revealed_states": [], "clicked_states": ["1", "2", "3", "8", "10", "11", "9", "4", "5"], "num_clicks_accrued": [0, 0, 0, 0, 0, 0, 0, 0, 0, 0, 0, 0, 0], "stateRewards": ["", 1, 2, -3, -5, 66, -50, -47, -5, 1, 28, -27, 1, 1, -1, -6, 37, -25, 56, 1, -82, -66, -40, -1, -4, -7, 15, -61, -23, 26, 10, 14, -56, 29], "withholdReward": false, "trial_id": "mdp_trial_37", "block": "test", "trialIndex": 38, "score": 48.25, "costs": -12.750000000000002, "simulationMode": [null, null, null, null, null], "rewards": [1, 2, -3, -5, 66], "path": ["0", "0", "1", "2", "3", "4", "5"], "rt": [22686, 110, 134, 139, 418], "actions": ["up", "up", "up", "right", "up"], "actionTimes": [24916, 25545, 26171, 26824, 27752], "queries": {"click": {"state": {"target": ["1", "2", "3", "8", "10", "11", "9", "4", "5"], "time": [3724, 4663, 5647, 7199, 8178, 12245, 16027, 18798, 20026]}, "edge": {"target": [], "time": []}}, "mouseover": {"state": {"target": ["1", "2", "3", "8", "10", "11", "9", "5", "4", "5", "6", "7"], "time": [3401, 4368, 5401, 6234, 7902, 8985, 13351, 16917, 17234, 19667, 20701, 23434]}, "edge": {"target": [], "time": []}}, "mouseout": {"state": {"target": ["10", "1", "2", "3", "8", "10", "11", "9", "5", "4", "5", "6", "7", "0"], "time": [884, 4234, 5218, 6185, 7819, 8851, 12969, 16684, 17134, 19434, 20650, 23101, 29800, 30117]}, "edge": {"target": [], "time": []}}}, "displayed_time": "28.27", "trialTime": 30698, "trial_type": "mouselab-mdp", "trial_index": 45, "time_elapsed": 2265916, "internal_node_id": "0.0-6.0-1.0-36.0"}}, {"uniqueid": "w14885624:a59393619", "current_trial": 46, "dateTime": 1693836970663, "trialdata": {"revealed_states": [], "clicked_states": ["12", "13", "14", "19", "22", "21", "20", "17", "16"], "num_clicks_accrued": [0, 0, 0, 0, 0, 0, 0, 0, 0, 0, 0, 0, 0], "stateRewards": ["", -1, 4, -5, 9, 29, -75, -42, -16, 24, -28, -41, 2, -3, 1, 10, 60, 47, 55, -1, -53, 22, -40, 2, -3, -6, 4, -26, 44, 54, 15, -76, 42, 14], "withholdReward": false, "trial_id": "mdp_trial_38", "block": "test", "trialIndex": 39, "score": 56.65, "costs": -13.350000000000001, "simulationMode": [null, null, null, null, null], "rewards": [2, -3, 1, 10, 60], "path": ["0", "0", "12", "13", "14", "15", "16"], "rt": [26084, 20, 437, 661, 137], "actions": ["right", "right", "right", "up", "up"], "actionTimes": [27981, 28504, 29453, 30610, 31255], "queries": {"click": {"state": {"target": ["12", "13", "14", "19", "22", "21", "20", "17", "16"], "time": [3506, 4512, 5735, 6843, 7851, 12901, 15697, 19710, 22673]}, "edge": {"target": [], "time": []}}, "mouseover": {"state": {"target": ["12", "13", "14", "19", "22", "21", "20", "15", "17", "16", "18"], "time": [3148, 4216, 5450, 6548, 7520, 8650, 13665, 17332, 18999, 20616, 23598]}, "edge": {"target": [], "time": []}}, "mouseout": {"state": {"target": ["0", "12", "13", "14", "19", "22", "21", "20", "15", "17", "16", "18"], "time": [2949, 4094, 5133, 6448, 7466, 8500, 13432, 16982, 18919, 20449, 23499, 32698]}, "edge": {"target": [], "time": []}}}, "displayed_time": "31.75", "trialTime": 33648, "trial_type": "mouselab-mdp", "trial_index": 46, "time_elapsed": 2299918, "internal_node_id": "0.0-6.0-1.0-37.0"}}, {"uniqueid": "w14885624:a59393619", "current_trial": 47, "dateTime": 1693837005373, "trialdata": {"revealed_states": [], "clicked_states": ["23", "24", "25", "30", "31", "33", "32", "29"], "num_clicks_accrued": [0, 0, 0, 0, 0, 0, 0, 0, 0, 0, 0, 0, 0], "stateRewards": ["", 1, 2, -3, 6, -88, 74, -45, 7, -46, 40, -77, 1, -4, 4, 3, 22, -25, -59, 8, -83, 19, -60, -1, -1, -1, -8, 26, -29, 64, -7, -88, -51, -55], "withholdReward": false, "trial_id": "mdp_trial_39", "block": "test", "trialIndex": 40, "score": 41.8, "costs": -11.200000000000001, "simulationMode": [null, null, null, null, null], "rewards": [-1, -1, -1, -8, 64], "path": ["0", "0", "23", "24", "25", "26", "29"], "rt": [23942, 65, 390, 360, 678], "actions": ["left", "left", "left", "up", "left"], "actionTimes": [26050, 26624, 27531, 28403, 29572], "queries": {"click": {"state": {"target": ["23", "24", "25", "30", "31", "33", "32", "29"], "time": [3412, 4394, 5224, 6243, 7435, 11195, 15593, 20277]}, "edge": {"target": [], "time": []}}, "mouseover": {"state": {"target": ["23", "24", "25", "30", "31", "32", "33", "32", "30", "25", "26", "29", "27"], "time": [2992, 4074, 4942, 5909, 7159, 8141, 10757, 12024, 16391, 16526, 17008, 19891, 21374]}, "edge": {"target": [], "time": []}}, "mouseout": {"state": {"target": ["0", "23", "24", "25", "30", "31", "32", "33", "32", "30", "25", "26", "29", "27", "26"], "time": [2893, 4024, 4909, 5875, 7025, 8024, 10557, 11874, 16324, 16424, 16641, 19791, 20940, 32306, 32356]}, "edge": {"target": [], "time": []}}}, "displayed_time": "30.09", "trialTime": 34353, "trial_type": "mouselab-mdp", "trial_index": 47, "time_elapsed": 2334629, "internal_node_id": "0.0-6.0-1.0-38.0"}}, {"uniqueid": "w14885624:a59393619", "current_trial": 48, "dateTime": 1693837025050, "trialdata": {"revealed_states": [], "clicked_states": ["1", "2", "3", "4", "7"], "num_clicks_accrued": [0, 0, 0, 0, 0, 0, 0, 0, 0, 0, 0, 0, 0], "stateRewards": ["", 2, -1, 4, -9, -43, 7, 54, -13, 38, -40, -83, -1, 2, -8, -10, 34, -33, 11, -14, -79, 65, 26, 1, 2, 4, 10, 21, 1, 86, 4, -53, 28, -29], "withholdReward": false, "trial_id": "mdp_trial_40", "block": "test", "trialIndex": 41, "score": 45.25, "costs": -4.75, "simulationMode": [null, null, null, null, null], "rewards": [2, -1, 4, -9, 54], "path": ["0", "0", "1", "2", "3", "4", "7"], "rt": [10766, 122, 633, 204, 133], "actions": ["up", "up", "up", "right", "down"], "actionTimes": [12477, 13112, 14255, 14975, 15629], "queries": {"click": {"state": {"target": ["1", "2", "3", "4", "7"], "time": [3103, 4153, 5446, 6489, 7613]}, "edge": {"target": [], "time": []}}, "mouseover": {"state": {"target": ["1", "2", "3", "4", "7", "6"], "time": [2787, 3953, 5020, 6086, 7403, 8887]}, "edge": {"target": [], "time": []}}, "mouseout": {"state": {"target": ["31", "0", "1", "2", "3", "4", "7", "4"], "time": [753, 2620, 3704, 4811, 5970, 7202, 8304, 8604]}, "edge": {"target": [], "time": []}}}, "displayed_time": "16.14", "trialTime": 19327, "trial_type": "mouselab-mdp", "trial_index": 48, "time_elapsed": 2354306, "internal_node_id": "0.0-6.0-1.0-39.0"}}, {"uniqueid": "w14885624:a59393619", "current_trial": 49, "dateTime": 1693837112536, "trialdata": {"rt": 87478, "response": {"Q0": "$-2 to $2", "Q1": "$-16 to $16", "Q2": "$-88 to $88", "Q3": "The cost for clicking on nodes varied between nodes.", "Q4": "Slightly motivated"}, "question_order": [0, 1, 2, 3, 4], "trial_id": "final_quiz_control", "trial_type": "survey-multi-choice", "trial_index": 49, "time_elapsed": 2441791, "internal_node_id": "0.0-6.0-2.0"}}, {"uniqueid": "w14885624:a59393619", "current_trial": 50, "dateTime": 1693837213982, "trialdata": {"rt": 101433, "response": {"Q0": "Clicking on the node in increments with every round.", "Q1": "Through trial and error, I believe I managed to improve.", "Q2": "Not so difficult."}, "trial_id": "self_report_control", "trial_type": "survey-text", "trial_index": 50, "time_elapsed": 2543238, "internal_node_id": "0.0-6.0-3.0"}}, {"uniqueid": "w14885624:a59393619", "current_trial": 51, "dateTime": 1693837303927, "trialdata": {"rt": 89936, "response": {"Q0": "Agree", "Q1": "Agree", "Q2": "Neither disagree nor agree", "Q3": "Neither disagree nor agree", "Q4": "Neither disagree nor agree", "Q5": "Agree", "Q6": "Disagree"}, "question_order": [0, 1, 2, 3, 4, 5, 6], "trial_id": "self_report_2", "trial_type": "survey-multi-choice", "trial_index": 51, "time_elapsed": 2633183, "internal_node_id": "0.0-6.0-4.0"}}, {"uniqueid": "w14885624:a59393619", "current_trial": 52, "dateTime": 1693837360047, "trialdata": {"rt": 56112, "response": {"gender": "male", "age": "31", "colorblind": "1", "effort": "1"}, "trial_type": "survey-html-form", "trial_index": 52, "time_elapsed": 2689303, "internal_node_id": "0.0-6.0-5.0"}}, {"uniqueid": "w14885624:a59393619", "current_trial": 53, "dateTime": 1693837445353, "trialdata": {"rt": 85296, "response": {"Q0": "In the beginning it may have seemed a bit perplexing.", "Q1": "Yes I did.", "Q2": "I am happy with the game/study."}, "trial_type": "survey-text", "trial_index": 53, "time_elapsed": 2774609, "internal_node_id": "0.0-6.0-6.0"}}, {"uniqueid": "w14885624:a59393619", "current_trial": 54, "dateTime": 1693837538468, "trialdata": {"rt": 93107, "stimulus": "<h1>Completion Code Instructions (1/2)</h1>\n<br><br><br><br>\nYou have reached the end of the experiment! The completion code consists of two parts: (1) a code with 2 characters (2) a code with 6 characters. On this page, you will receive the second part of the code. The first part of the completion code will be on the next page.\n<br><br>\nThe second part of your completion code is: <b>EWEK22</b>\n<br><br>\nPlease note this down. Then, press 'Next' in order to find the first part of your completion code. Once the data has been saved, you will receive this code either in this window or in the original browser window where you started the experiment.\n <br><br>\n<h2 style='color: red;'>Note: this is <strong>NOT</strong> the full completion code. Copy this down and click 'Next' to get the full completion code on the next page.</h2>", "response": 0, "trial_type": "html-button-response", "trial_index": 54, "time_elapsed": 2867723, "internal_node_id": "0.0-6.0-7.0"}}, {"uniqueid": "w14885624:a59393619", "current_trial": 55, "dateTime": 1693837539472, "trialdata": {"success": true, "trial_type": "fullscreen", "trial_index": 55, "time_elapsed": 2868728, "internal_node_id": "0.0-7.0"}}], "questiondata": {"params": {"CODE": "C6DMOQA6", "MIN_TIME": 14, "inspectCost": 1, "startTime": "Mon Sep 04 2023 15:37:47 GMT+0200 (South Africa Standard Time)", "bonusRate": 0.002, "variance": "1_2_4_8_44", "branching": "31123"}, "final_score": 913.2}, "eventdata": [{"eventtype": "initialized", "value": null, "timestamp": 1693834666683, "interval": 0}, {"eventtype": "window_resize", "value": [1024, 646], "timestamp": 1693834666683, "interval": 0}, {"eventtype": "window_resize", "value": [1024, 646], "timestamp": 1693834667213, "interval": 530}, {"eventtype": "window_resize", "value": [1366, 768], "timestamp": 1693834678095, "interval": 10882}, {"eventtype": "window_resize", "value": [1024, 646], "timestamp": 1693837538726, "interval": 2860631}], "useragent": "Mozilla/5.0 (Windows NT 10.0; Win64; x64) AppleWebKit/537.36 (KHTML, like Gecko) Chrome/116.0.0.0 Safari/537.36", "mode": "live", "id": "w14885624:a59393619", "status": "user data saved", "Beginhit": "2023-09-04 13:37:41.898793", "Beginexp": "2023-09-04 13:37:58.858368", "Endhit": "2023-09-04 14:25:42.041393", "psiturkStatus": 3, "browser": "<redacted>", "platform": "windows", "language": "en-ZA", "excludeReason": "alreadyparticipated"}