{"condition": 1, "counterbalance": 0, "assignmentId": "a35868854", "workerId": "w99417933", "hitId": "h26055669", "currenttrial": 68, "bonus": 0, "data": [{"uniqueid": "w99417933:a35868854", "current_trial": 0, "dateTime": 1693580123391, "trialdata": {"success": true, "trial_type": "fullscreen", "trial_index": 0, "time_elapsed": 19413, "internal_node_id": "0.0-0.0"}}, {"uniqueid": "w99417933:a35868854", "current_trial": 1, "dateTime": 1693580182824, "trialdata": {"view_history": [{"page_index": 0, "viewing_time": 59418}], "rt": 59419, "trial_id": "exp_instructions_misaligned", "trial_type": "instructions", "trial_index": 1, "time_elapsed": 78847, "internal_node_id": "0.0-1.0"}}, {"uniqueid": "w99417933:a35868854", "current_trial": 2, "dateTime": 1693581193845, "trialdata": {"view_history": [{"page_index": 0, "viewing_time": 492661}, {"page_index": 1, "viewing_time": 353566}, {"page_index": 2, "viewing_time": 61984}, {"page_index": 3, "viewing_time": 102806}], "rt": 1011018, "trial_id": "mouselab_instructions_1_misaligned", "trial_type": "instructions", "trial_index": 2, "time_elapsed": 1089868, "internal_node_id": "0.0-2.0-1.0"}}, {"uniqueid": "w99417933:a35868854", "current_trial": 3, "dateTime": 1693581270794, "trialdata": {"revealed_states": [], "clicked_states": ["29"], "num_clicks_accrued": [0, 0, 0, 0, 0, 0, 0, 0, 0, 0, 0, 0, 0], "stateRewards": ["", -10, -10, -10, -10, -10, -10, 10, -10, 10, -10, -10, -10, 10, 10, 10, 10, -10, 10, 10, 10, 10, 10, -10, 10, 10, -10, -10, 10, 10, 10, 10, -10, -10], "withholdReward": false, "trial_id": "practice_1", "block": "test", "trialIndex": 0, "score": 13, "costs": -0.5, "simulationMode": [null, null, null, null, null], "rewards": [-10, 10, 10, -10, 10], "path": ["0", "0", "23", "24", "25", "26", "29"], "rt": [8323, 720, 495, 724, 501], "actions": ["left", "left", "left", "up", "left"], "actionTimes": [16156, 17436, 18438, 19669, 20679], "queries": {"click": {"state": {"target": ["29"], "time": [12318]}, "edge": {"target": [], "time": []}}, "mouseover": {"state": {"target": ["0", "25", "29", "29", "25", "24"], "time": [9584, 10502, 10665, 11199, 12994, 13071]}, "edge": {"target": [], "time": []}}, "mouseout": {"state": {"target": ["20", "19", "22", "0", "0", "25", "29", "29", "25", "24", "22", "19", "20", "19", "12", "0", "26", "25", "30", "25", "26", "25", "30", "32", "30", "25", "26", "27", "26", "24", "23", "0", "12", "0", "23", "28", "26", "25", "24", "23", "23", "0", "12", "12", "0", "12", "23", "25", "26", "25", "30", "32", "13", "14", "19"], "time": [5495, 5625, 6155, 6304, 9594, 10536, 10714, 12976, 13038, 13451, 24879, 24967, 25971, 26057, 29458, 29488, 30047, 31700, 32454, 32533, 33288, 33740, 34242, 37389, 37462, 37497, 37567, 42871, 43009, 43548, 43632, 43732, 44902, 44945, 45014, 45114, 45986, 48220, 49742, 49913, 51047, 52170, 52281, 53657, 54373, 57318, 57357, 57998, 62810, 63044, 63446, 68729, 68804, 68824, 72534]}, "edge": {"target": [], "time": []}}}, "displayed_time": "21.18", "trialTime": 74933, "trial_type": "mouselab-mdp", "trial_index": 3, "time_elapsed": 1166816, "internal_node_id": "0.0-2.0-2.0-0.0"}}, {"uniqueid": "w99417933:a35868854", "current_trial": 4, "dateTime": 1693581298737, "trialdata": {"revealed_states": [], "clicked_states": ["17", "12"], "num_clicks_accrued": [0, 0, 0, 0, 0, 0, 0, 0, 0, 0, 0, 0, 0], "stateRewards": ["", -10, -10, 10, 10, -10, -10, -10, 10, 10, 10, 10, 10, 10, 10, 10, -10, 10, -10, 10, -10, -10, 10, -10, -10, -10, -10, 10, 10, -10, -10, 10, 10, -10], "withholdReward": false, "trial_id": "practice_2", "block": "test", "trialIndex": 1, "score": 52.5, "costs": -1, "simulationMode": [null, null, null, null, null], "rewards": [10, 10, 10, 10, 10], "path": ["0", "0", "12", "13", "14", "15", "17"], "rt": [9599, 1073, 458, 399, 199], "actions": ["right", "right", "right", "up", "right"], "actionTimes": [12956, 14535, 15506, 16420, 17119], "queries": {"click": {"state": {"target": ["17", "12"], "time": [8134, 10862]}, "edge": {"target": [], "time": []}}, "mouseover": {"state": {"target": ["18", "17", "14", "13", "12", "12"], "time": [4984, 6721, 8858, 9663, 9765, 10346]}, "edge": {"target": [], "time": []}}, "mouseout": {"state": {"target": ["0", "18", "17", "14", "13", "12", "12", "13", "14"], "time": [2674, 5019, 8806, 9601, 9728, 10047, 11402, 23336, 23381]}, "edge": {"target": [], "time": []}}}, "displayed_time": "17.64", "trialTime": 27313, "trial_type": "mouselab-mdp", "trial_index": 4, "time_elapsed": 1194759, "internal_node_id": "0.0-2.0-2.0-1.0"}}, {"uniqueid": "w99417933:a35868854", "current_trial": 5, "dateTime": 1693581465075, "trialdata": {"view_history": [{"page_index": 0, "viewing_time": 80827}, {"page_index": 1, "viewing_time": 85505}], "rt": 166333, "trial_id": "mouselab_instructions_2_misaligned", "trial_type": "instructions", "trial_index": 5, "time_elapsed": 1361098, "internal_node_id": "0.0-2.0-3.0"}}, {"uniqueid": "w99417933:a35868854", "current_trial": 6, "dateTime": 1693581720238, "trialdata": {"rt": 255112, "response": {"Q0": "The cost for clicking on nodes may vary between nodes.", "Q1": "The better I perform the higher my bonus will be.", "Q2": "No, the amount of cash at each node of the web may be different each time.", "Q3": "To get the highest total score.", "Q4": "Only before moving the spider.", "Q5": "10 seconds"}, "question_order": [0, 1, 2, 3, 4, 5], "correct": {"Q0": "The cost for clicking on nodes may vary between nodes.", "Q1": "The better I perform the higher my bonus will be.", "Q2": "No, the amount of cash at each node of the web may be different each time.", "Q3": "To get the highest total score.", "Q4": "Only before moving the spider.", "Q5": "3 seconds"}, "trial_id": "mouselab_quiz_misaligned", "trial_type": "survey-multi-choice", "trial_index": 6, "time_elapsed": 1616261, "internal_node_id": "0.0-2.0-4.0"}}, {"uniqueid": "w99417933:a35868854", "current_trial": 7, "dateTime": 1693581741848, "trialdata": {"success": true, "trial_type": "fullscreen", "trial_index": 7, "time_elapsed": 1637871, "internal_node_id": "0.0-2.1-0.1-0.1"}}, {"uniqueid": "w99417933:a35868854", "current_trial": 8, "dateTime": 1693582762184, "trialdata": {"view_history": [{"page_index": 0, "viewing_time": 322119}, {"page_index": 1, "viewing_time": 543226}, {"page_index": 2, "viewing_time": 62899}, {"page_index": 3, "viewing_time": 92088}], "rt": 1020333, "trial_id": "mouselab_instructions_1_misaligned", "trial_type": "instructions", "trial_index": 8, "time_elapsed": 2658207, "internal_node_id": "0.0-2.1-1.1"}}, {"uniqueid": "w99417933:a35868854", "current_trial": 9, "dateTime": 1693582785443, "trialdata": {"revealed_states": [], "clicked_states": ["27"], "num_clicks_accrued": [0, 0, 0, 0, 0, 0, 0, 0, 0, 0, 0, 0, 0], "stateRewards": ["", -10, -10, -10, -10, -10, -10, 10, -10, 10, -10, -10, -10, 10, 10, 10, 10, -10, 10, 10, 10, 10, 10, -10, 10, 10, -10, -10, 10, 10, 10, 10, -10, -10], "withholdReward": false, "trial_id": "practice_1", "block": "test", "trialIndex": 2, "score": -7, "costs": -0.5, "simulationMode": [null, null, null, null, null], "rewards": [-10, 10, 10, -10, -10], "path": ["0", "0", "23", "24", "25", "26", "27"], "rt": [8607, 334, 248, 307, 161], "actions": ["left", "left", "left", "up", "up"], "actionTimes": [12705, 13563, 14313, 15128, 15795], "queries": {"click": {"state": {"target": ["27"], "time": [9661]}, "edge": {"target": [], "time": []}}, "mouseover": {"state": {"target": ["12", "19", "20", "14", "13", "28", "27", "27", "24"], "time": [4636, 4700, 4724, 7645, 7675, 8129, 8208, 8631, 10284]}, "edge": {"target": [], "time": []}}, "mouseout": {"state": {"target": ["0", "12", "19", "20", "14", "13", "28", "27", "27", "24"], "time": [3275, 4653, 4717, 4738, 7663, 7685, 8149, 8379, 10221, 10310]}, "edge": {"target": [], "time": []}}}, "displayed_time": "16.30", "trialTime": 22816, "trial_type": "mouselab-mdp", "trial_index": 9, "time_elapsed": 2681465, "internal_node_id": "0.0-2.1-2.1-0.1"}}, {"uniqueid": "w99417933:a35868854", "current_trial": 10, "dateTime": 1693582822285, "trialdata": {"revealed_states": [], "clicked_states": ["19"], "num_clicks_accrued": [0, 0, 0, 0, 0, 0, 0, 0, 0, 0, 0, 0, 0], "stateRewards": ["", -10, -10, 10, 10, -10, -10, -10, 10, 10, 10, 10, 10, 10, 10, 10, -10, 10, -10, 10, -10, -10, 10, -10, -10, -10, -10, 10, 10, -10, -10, 10, 10, -10], "withholdReward": false, "trial_id": "practice_2", "block": "test", "trialIndex": 3, "score": 33, "costs": -0.5, "simulationMode": [null, null, null, null, null], "rewards": [10, 10, 10, 10, -10], "path": ["0", "0", "12", "13", "14", "19", "21"], "rt": [8713, 389, 458, 882, 7912], "actions": ["right", "right", "right", "down", "down"], "actionTimes": [11900, 12809, 13776, 15170, 23585], "queries": {"click": {"state": {"target": ["19"], "time": [10374]}, "edge": {"target": [], "time": []}}, "mouseover": {"state": {"target": ["12", "22", "22", "12", "0", "12", "13", "14", "19"], "time": [3994, 4076, 4825, 4892, 5327, 5926, 6509, 7432, 8086]}, "edge": {"target": [], "time": []}}, "mouseout": {"state": {"target": ["17", "15", "18", "0", "12", "22", "22", "12", "0", "12", "13", "14", "19", "20", "17", "15", "18", "12", "0", "23", "0", "12", "0", "12", "13"], "time": [1547, 1579, 1649, 3898, 4041, 4141, 4875, 5005, 5578, 6418, 6831, 7850, 10886, 19336, 28967, 29013, 29079, 29502, 29547, 29886, 30369, 31620, 32556, 33126, 33177]}, "edge": {"target": [], "time": []}}}, "displayed_time": "24.09", "trialTime": 36392, "trial_type": "mouselab-mdp", "trial_index": 10, "time_elapsed": 2718307, "internal_node_id": "0.0-2.1-2.1-1.1"}}, {"uniqueid": "w99417933:a35868854", "current_trial": 11, "dateTime": 1693582989652, "trialdata": {"view_history": [{"page_index": 0, "viewing_time": 162805}, {"page_index": 1, "viewing_time": 4558}], "rt": 167363, "trial_id": "mouselab_instructions_2_misaligned", "trial_type": "instructions", "trial_index": 11, "time_elapsed": 2885675, "internal_node_id": "0.0-2.1-3.1"}}, {"uniqueid": "w99417933:a35868854", "current_trial": 12, "dateTime": 1693583176189, "trialdata": {"rt": 186531, "response": {"Q0": "The cost for clicking on nodes may vary between nodes.", "Q1": "The better I perform the higher my bonus will be.", "Q2": "No, the structure of the web will be different each time.", "Q3": "To get the highest total score.", "Q4": "Only before moving the spider.", "Q5": "3 seconds"}, "question_order": [0, 1, 2, 3, 4, 5], "correct": {"Q0": "The cost for clicking on nodes may vary between nodes.", "Q1": "The better I perform the higher my bonus will be.", "Q2": "No, the amount of cash at each node of the web may be different each time.", "Q3": "To get the highest total score.", "Q4": "Only before moving the spider.", "Q5": "3 seconds"}, "trial_id": "mouselab_quiz_misaligned", "trial_type": "survey-multi-choice", "trial_index": 12, "time_elapsed": 3072212, "internal_node_id": "0.0-2.1-4.1"}}, {"uniqueid": "w99417933:a35868854", "current_trial": 13, "dateTime": 1693583194904, "trialdata": {"success": true, "trial_type": "fullscreen", "trial_index": 13, "time_elapsed": 3090927, "internal_node_id": "0.0-2.2-0.2-0.2"}}, {"uniqueid": "w99417933:a35868854", "current_trial": 14, "dateTime": 1693583444049, "trialdata": {"view_history": [{"page_index": 0, "viewing_time": 66962}, {"page_index": 1, "viewing_time": 32069}, {"page_index": 2, "viewing_time": 15802}, {"page_index": 1, "viewing_time": 16581}, {"page_index": 2, "viewing_time": 50195}, {"page_index": 3, "viewing_time": 67533}], "rt": 249142, "trial_id": "mouselab_instructions_1_misaligned", "trial_type": "instructions", "trial_index": 14, "time_elapsed": 3340072, "internal_node_id": "0.0-2.2-1.2"}}, {"uniqueid": "w99417933:a35868854", "current_trial": 15, "dateTime": 1693583464352, "trialdata": {"revealed_states": [], "clicked_states": ["21"], "num_clicks_accrued": [0, 0, 0, 0, 0, 0, 0, 0, 0, 0, 0, 0, 0], "stateRewards": ["", -10, -10, -10, -10, -10, -10, 10, -10, 10, -10, -10, -10, 10, 10, 10, 10, -10, 10, 10, 10, 10, 10, -10, 10, 10, -10, -10, 10, 10, 10, 10, -10, -10], "withholdReward": false, "trial_id": "practice_1", "block": "test", "trialIndex": 4, "score": 33, "costs": -0.5, "simulationMode": [null, null, null, null, null], "rewards": [-10, 10, 10, 10, 10], "path": ["0", "0", "12", "13", "14", "19", "21"], "rt": [9698, 350, 387, 245, 400], "actions": ["right", "right", "right", "down", "down"], "actionTimes": [12581, 13444, 14333, 15075, 15987], "queries": {"click": {"state": {"target": ["21"], "time": [10217]}, "edge": {"target": [], "time": []}}, "mouseover": {"state": {"target": ["12", "13", "14", "19", "21"], "time": [6088, 7030, 7676, 8513, 9333]}, "edge": {"target": [], "time": []}}, "mouseout": {"state": {"target": ["0", "12", "13", "14", "19", "21"], "time": [2007, 6942, 7276, 8429, 9181, 11058]}, "edge": {"target": [], "time": []}}}, "displayed_time": "16.50", "trialTime": 19809, "trial_type": "mouselab-mdp", "trial_index": 15, "time_elapsed": 3360373, "internal_node_id": "0.0-2.2-2.2-0.2"}}, {"uniqueid": "w99417933:a35868854", "current_trial": 16, "dateTime": 1693583490832, "trialdata": {"revealed_states": [], "clicked_states": ["5"], "num_clicks_accrued": [0, 0, 0, 0, 0, 0, 0, 0, 0, 0, 0, 0, 0], "stateRewards": ["", -10, -10, 10, 10, -10, -10, -10, 10, 10, 10, 10, 10, 10, 10, 10, -10, 10, -10, 10, -10, -10, 10, -10, -10, -10, -10, 10, 10, -10, -10, 10, 10, -10], "withholdReward": false, "trial_id": "practice_2", "block": "test", "trialIndex": 5, "score": 33, "costs": -0.5, "simulationMode": [null, null, null, null, null], "rewards": [10, 10, 10, 10, -10], "path": ["0", "0", "12", "13", "14", "15", "16"], "rt": [4751, 7055, 386, 1109, 406], "actions": ["right", "right", "right", "up", "up"], "actionTimes": [7320, 14888, 15788, 17397, 18313], "queries": {"click": {"state": {"target": ["5"], "time": [5840]}, "edge": {"target": [], "time": []}}, "mouseover": {"state": {"target": ["1", "2", "4", "5"], "time": [3385, 3684, 4674, 5236]}, "edge": {"target": [], "time": []}}, "mouseout": {"state": {"target": ["0", "1", "2", "4", "5", "5"], "time": [1827, 3482, 4620, 5191, 5972, 6315]}, "edge": {"target": [], "time": []}}}, "displayed_time": "18.83", "trialTime": 25943, "trial_type": "mouselab-mdp", "trial_index": 16, "time_elapsed": 3386854, "internal_node_id": "0.0-2.2-2.2-1.2"}}, {"uniqueid": "w99417933:a35868854", "current_trial": 17, "dateTime": 1693583503357, "trialdata": {"view_history": [{"page_index": 0, "viewing_time": 10312}, {"page_index": 1, "viewing_time": 2205}], "rt": 12518, "trial_id": "mouselab_instructions_2_misaligned", "trial_type": "instructions", "trial_index": 17, "time_elapsed": 3399380, "internal_node_id": "0.0-2.2-3.2"}}, {"uniqueid": "w99417933:a35868854", "current_trial": 18, "dateTime": 1693583616491, "trialdata": {"rt": 113130, "response": {"Q0": "The cost for clicking on nodes may vary between nodes.", "Q1": "The better I perform the higher my bonus will be.", "Q2": "No, the amount of cash at each node of the web may be different each time.", "Q3": "To get the highest total score.", "Q4": "Only before moving the spider.", "Q5": "3 seconds"}, "question_order": [0, 1, 2, 3, 4, 5], "correct": {"Q0": "The cost for clicking on nodes may vary between nodes.", "Q1": "The better I perform the higher my bonus will be.", "Q2": "No, the amount of cash at each node of the web may be different each time.", "Q3": "To get the highest total score.", "Q4": "Only before moving the spider.", "Q5": "3 seconds"}, "trial_id": "mouselab_quiz_misaligned", "trial_type": "survey-multi-choice", "trial_index": 18, "time_elapsed": 3512514, "internal_node_id": "0.0-2.2-4.2"}}, {"uniqueid": "w99417933:a35868854", "current_trial": 19, "dateTime": 1693583639022, "trialdata": {"rt": 22520, "response": {"Q0": "No"}, "question_order": [0], "trial_id": "repeat_check", "trial_type": "survey-multi-choice", "trial_index": 19, "time_elapsed": 3535045, "internal_node_id": "0.0-4.0-0.0"}}, {"uniqueid": "w99417933:a35868854", "current_trial": 20, "dateTime": 1693583671241, "trialdata": {"rt": 32210, "stimulus": "\n<h1> Get ready to start the game! </h1>\n\nThank you for reading the instructions. Get ready start with the 40 rounds of this game.\n<br><br>\nIf you need to take a break, feel free to take one after the end of a round, before continuing to the next one.\n<br><br>\nRemember, the more money the spider gets, the bigger your bonus will be!\n<br><br>\n<div style='text-align: center;'>Press <code>space</code> to begin.</div>\n\n<br><br>\n(If, at any point, the <code>space</code> key does not take you to the next page, click once on the text and try again.)", "response": " ", "trial_id": "mdp_ready", "trial_type": "html-keyboard-response", "trial_index": 20, "time_elapsed": 3567264, "internal_node_id": "0.0-6.0-0.0"}}, {"uniqueid": "w99417933:a35868854", "current_trial": 21, "dateTime": 1693583712170, "trialdata": {"revealed_states": [], "clicked_states": [], "num_clicks_accrued": [0, 0, 0, 0, 0, 0, 0, 0, 0, 0, 0, 0, 0], "stateRewards": ["", -2, -4, -2, -13, -15, 87, -19, -6, -80, 30, 12, 1, 1, -8, 2, 55, 56, 15, 11, -68, -7, 55, -2, 3, -3, -3, 48, 62, 4, 1, -3, 69, -33], "withholdReward": false, "trial_id": "mdp_trial_1", "block": "test", "trialIndex": 6, "score": -36, "costs": 0, "simulationMode": [null, null, null, null, null], "rewards": [-2, -4, -2, -13, -15], "path": ["0", "0", "1", "2", "3", "4", "5"], "rt": [16969, 1102, 6542, 655, 396], "actions": ["up", "up", "up", "right", "up"], "actionTimes": [19206, 20828, 27882, 29061, 29971], "queries": {"click": {"state": {"target": [], "time": []}, "edge": {"target": [], "time": []}}, "mouseover": {"state": {"target": ["0", "12", "3", "10", "2", "1", "1", "2", "8", "9", "11", "27", "12", "13", "14"], "time": [3075, 3726, 4595, 5013, 5093, 5214, 5393, 5477, 5865, 6497, 7882, 7936, 13321, 13360, 13676]}, "edge": {"target": [], "time": []}}, "mouseout": {"state": {"target": ["0", "0", "12", "3", "10", "2", "1", "1", "2", "8", "9", "11", "27", "12", "13", "14"], "time": [1275, 3109, 3757, 4730, 5031, 5143, 5298, 5444, 5565, 6016, 7836, 7899, 7951, 13342, 13667, 13701]}, "edge": {"target": [], "time": []}}}, "displayed_time": "30.48", "trialTime": 40426, "trial_type": "mouselab-mdp", "trial_index": 21, "time_elapsed": 3608192, "internal_node_id": "0.0-6.0-1.0-0.0"}}, {"uniqueid": "w99417933:a35868854", "current_trial": 22, "dateTime": 1693583735237, "trialdata": {"revealed_states": [], "clicked_states": ["21"], "num_clicks_accrued": [0, 0, 0, 0, 0, 0, 0, 0, 0, 0, 0, 0, 0], "stateRewards": ["", -2, -3, 7, -13, 60, 9, 37, -6, 37, 20, 1, 2, -2, -8, 6, -80, -31, -10, -7, 70, -65, -44, -1, 1, 7, 6, -11, 73, -85, 16, -21, 47, 34], "withholdReward": false, "trial_id": "mdp_trial_2", "block": "test", "trialIndex": 7, "score": -82.15, "costs": -2.15, "simulationMode": [null, null, null, null, null, null], "rewards": [2, -2, -8, -7, -65], "path": ["0", "0", "12", "13", "14", "19", "21"], "rt": [4902, 1975, 436, 394, 374, 328], "actions": ["right", "right", "right", "right", "down", "down"], "actionTimes": [8623, 10607, 11547, 12470, 13356, 14197], "queries": {"click": {"state": {"target": ["21"], "time": [6333]}, "edge": {"target": [], "time": []}}, "mouseover": {"state": {"target": ["12", "13", "19", "21"], "time": [5257, 5292, 5328, 5793]}, "edge": {"target": [], "time": []}}, "mouseout": {"state": {"target": ["20", "0", "12", "13", "19"], "time": [1714, 2775, 5277, 5308, 5702]}, "edge": {"target": [], "time": []}}}, "displayed_time": "17.72", "trialTime": 22538, "trial_type": "mouselab-mdp", "trial_index": 22, "time_elapsed": 3631258, "internal_node_id": "0.0-6.0-1.0-1.0"}}, {"uniqueid": "w99417933:a35868854", "current_trial": 23, "dateTime": 1693583757773, "trialdata": {"revealed_states": [], "clicked_states": ["32"], "num_clicks_accrued": [0, 0, 0, 0, 0, 0, 0, 0, 0, 0, 0, 0, 0], "stateRewards": ["", -2, -1, -1, 5, -54, -87, 35, 2, -8, 20, -22, 1, 3, 6, 13, -75, -32, -55, -3, 56, 62, -22, -1, -4, -1, -7, -51, 84, 70, 7, -15, 5, 55], "withholdReward": false, "trial_id": "mdp_trial_3", "block": "test", "trialIndex": 8, "score": 3.8499999999999996, "costs": -2.15, "simulationMode": [null, null, null, null, null, null], "rewards": [-1, -4, -1, 7, 5], "path": ["0", "0", "23", "24", "25", "30", "32"], "rt": [3937, 4096, 360, 360, 305, 282], "actions": ["left", "left", "left", "left", "down", "down"], "actionTimes": [6926, 11027, 11897, 12766, 13580, 14377], "queries": {"click": {"state": {"target": ["32"], "time": [4716]}, "edge": {"target": [], "time": []}}, "mouseover": {"state": {"target": ["31", "32"], "time": [3699, 4001]}, "edge": {"target": [], "time": []}}, "mouseout": {"state": {"target": ["21", "22", "12", "31"], "time": [1105, 1152, 1574, 3813]}, "edge": {"target": [], "time": []}}}, "displayed_time": "16.99", "trialTime": 21981, "trial_type": "mouselab-mdp", "trial_index": 23, "time_elapsed": 3653794, "internal_node_id": "0.0-6.0-1.0-2.0"}}, {"uniqueid": "w99417933:a35868854", "current_trial": 24, "dateTime": 1693583784310, "trialdata": {"revealed_states": [], "clicked_states": ["16"], "num_clicks_accrued": [0, 0, 0, 0, 0, 0, 0, 0, 0, 0, 0, 0, 0], "stateRewards": ["", -1, 2, -6, 6, 43, 78, 78, -2, 55, -29, -17, -2, -4, 1, -15, 13, 7, -79, 8, -28, -68, 36, -1, -3, 3, -16, 84, -18, 87, 10, 32, 13, -81], "withholdReward": false, "trial_id": "mdp_trial_4", "block": "test", "trialIndex": 9, "score": -9.149999999999999, "costs": -2.15, "simulationMode": [null, null, null, null, null, null], "rewards": [-2, -4, 1, -15, 13], "path": ["0", "0", "12", "13", "14", "15", "16"], "rt": [3703, 2816, 514, 136, 408, 213], "actions": ["right", "right", "right", "right", "up", "up"], "actionTimes": [6560, 9384, 10414, 11054, 11966, 12685], "queries": {"click": {"state": {"target": ["16"], "time": [5168]}, "edge": {"target": [], "time": []}}, "mouseover": {"state": {"target": ["12", "14", "15", "16"], "time": [3446, 3615, 4133, 4214]}, "edge": {"target": [], "time": []}}, "mouseout": {"state": {"target": ["32", "30", "28", "10", "1", "12", "14", "15", "16", "18", "12", "12", "13", "14", "15"], "time": [866, 893, 989, 1408, 1508, 3480, 3650, 4179, 19555, 19591, 19749, 20838, 22174, 22878, 23379]}, "edge": {"target": [], "time": []}}}, "displayed_time": "16.86", "trialTime": 25981, "trial_type": "mouselab-mdp", "trial_index": 24, "time_elapsed": 3680332, "internal_node_id": "0.0-6.0-1.0-3.0"}}, {"uniqueid": "w99417933:a35868854", "current_trial": 25, "dateTime": 1693583804892, "trialdata": {"revealed_states": [], "clicked_states": [], "num_clicks_accrued": [0, 0, 0, 0, 0, 0, 0, 0, 0, 0, 0, 0, 0], "stateRewards": ["", -2, -4, 2, 10, -17, 18, 73, 11, -32, 23, -13, -2, -4, 7, 12, -25, 66, -23, 15, 40, -76, -9, 1, 2, -7, -5, -20, 24, 3, -5, 16, -73, 70], "withholdReward": false, "trial_id": "mdp_trial_5", "block": "test", "trialIndex": 10, "score": -6, "costs": 0, "simulationMode": [null, null, null, null, null], "rewards": [-2, -4, 2, 11, -13], "path": ["0", "0", "1", "2", "3", "8", "11"], "rt": [5794, 857, 698, 1154, 573], "actions": ["up", "up", "up", "left", "left"], "actionTimes": [8184, 9558, 10766, 12426, 13518], "queries": {"click": {"state": {"target": [], "time": []}, "edge": {"target": [], "time": []}}, "mouseover": {"state": {"target": ["1", "2", "8", "9", "8"], "time": [3198, 3789, 3866, 4401, 4825]}, "edge": {"target": [], "time": []}}, "mouseout": {"state": {"target": ["16", "0", "1", "2", "8", "9", "8", "10"], "time": [806, 3063, 3245, 3833, 3896, 4647, 19364, 19399]}, "edge": {"target": [], "time": []}}}, "displayed_time": "16.39", "trialTime": 20066, "trial_type": "mouselab-mdp", "trial_index": 25, "time_elapsed": 3700914, "internal_node_id": "0.0-6.0-1.0-4.0"}}, {"uniqueid": "w99417933:a35868854", "current_trial": 26, "dateTime": 1693583825835, "trialdata": {"revealed_states": [], "clicked_states": ["21"], "num_clicks_accrued": [0, 0, 0, 0, 0, 0, 0, 0, 0, 0, 0, 0, 0], "stateRewards": ["", -1, 3, 8, 10, -86, 61, -36, 10, 17, -60, 24, -1, -3, 3, 11, 50, 60, 33, -3, -20, 58, -6, 1, -4, -4, 13, -70, -71, 43, 14, 52, 82, -11], "withholdReward": false, "trial_id": "mdp_trial_6", "block": "test", "trialIndex": 11, "score": 51.85, "costs": -2.15, "simulationMode": [null, null, null, null, null, null], "rewards": [-1, -3, 3, -3, 58], "path": ["0", "0", "12", "13", "14", "19", "21"], "rt": [3592, 1955, 100, 85, 460, 49], "actions": ["right", "right", "right", "right", "down", "down"], "actionTimes": [5826, 7789, 8416, 9003, 9979, 10536], "queries": {"click": {"state": {"target": ["21"], "time": [4021]}, "edge": {"target": [], "time": []}}, "mouseover": {"state": {"target": ["12", "19", "21"], "time": [2831, 2913, 3450]}, "edge": {"target": [], "time": []}}, "mouseout": {"state": {"target": ["1", "0", "12", "19"], "time": [743, 1391, 2852, 3267]}, "edge": {"target": [], "time": []}}}, "displayed_time": "16.23", "trialTime": 20395, "trial_type": "mouselab-mdp", "trial_index": 26, "time_elapsed": 3721857, "internal_node_id": "0.0-6.0-1.0-5.0"}}, {"uniqueid": "w99417933:a35868854", "current_trial": 27, "dateTime": 1693583847229, "trialdata": {"revealed_states": [], "clicked_states": ["32"], "num_clicks_accrued": [0, 0, 0, 0, 0, 0, 0, 0, 0, 0, 0, 0, 0], "stateRewards": ["", -1, -1, 4, -16, -75, 81, -51, -7, -84, 73, -30, -2, 1, -3, -16, -77, 33, 14, 1, 45, 87, -66, 2, 2, -5, -7, -19, -17, 79, -3, 8, 49, 47], "withholdReward": false, "trial_id": "mdp_trial_7", "block": "test", "trialIndex": 12, "score": 42.85, "costs": -2.15, "simulationMode": [null, null, null, null, null, null], "rewards": [2, 2, -5, -3, 49], "path": ["0", "0", "23", "24", "25", "30", "32"], "rt": [4084, 1000, 302, 219, 418, 269], "actions": ["left", "left", "left", "left", "down", "down"], "actionTimes": [7206, 8214, 9029, 9749, 10680, 11468], "queries": {"click": {"state": {"target": ["32"], "time": [4864]}, "edge": {"target": [], "time": []}}, "mouseover": {"state": {"target": ["23", "31", "32"], "time": [3652, 3708, 3961]}, "edge": {"target": [], "time": []}}, "mouseout": {"state": {"target": ["21", "22", "0", "23", "31"], "time": [1349, 1396, 3631, 3671, 3823]}, "edge": {"target": [], "time": []}}}, "displayed_time": "17.12", "trialTime": 20731, "trial_type": "mouselab-mdp", "trial_index": 27, "time_elapsed": 3743251, "internal_node_id": "0.0-6.0-1.0-6.0"}}, {"uniqueid": "w99417933:a35868854", "current_trial": 28, "dateTime": 1693583872482, "trialdata": {"revealed_states": [], "clicked_states": ["5"], "num_clicks_accrued": [0, 0, 0, 0, 0, 0, 0, 0, 0, 0, 0, 0, 0], "stateRewards": ["", -2, -4, -2, 10, -8, -15, -47, 7, -84, 53, 5, -1, 2, -7, 3, 83, 31, 47, -1, 30, -8, 69, 2, -4, -1, 8, -7, 12, -8, -8, -13, 30, -84], "withholdReward": false, "trial_id": "mdp_trial_8", "block": "test", "trialIndex": 13, "score": -8.15, "costs": -2.15, "simulationMode": [null, null, null, null, null], "rewards": [-2, -4, -2, 10, -8], "path": ["0", "0", "1", "2", "3", "4", "5"], "rt": [8205, 79, 1754, 341, 495], "actions": ["up", "up", "up", "right", "up"], "actionTimes": [10398, 10985, 13239, 14097, 15109], "queries": {"click": {"state": {"target": ["5"], "time": [4174]}, "edge": {"target": [], "time": []}}, "mouseover": {"state": {"target": ["4", "5"], "time": [2926, 3463]}, "edge": {"target": [], "time": []}}, "mouseout": {"state": {"target": ["32", "31", "0", "0", "4", "5"], "time": [623, 667, 801, 1254, 2972, 19667]}, "edge": {"target": [], "time": []}}}, "displayed_time": "16.19", "trialTime": 24703, "trial_type": "mouselab-mdp", "trial_index": 28, "time_elapsed": 3768504, "internal_node_id": "0.0-6.0-1.0-7.0"}}, {"uniqueid": "w99417933:a35868854", "current_trial": 29, "dateTime": 1693583893600, "trialdata": {"revealed_states": [], "clicked_states": ["27"], "num_clicks_accrued": [0, 0, 0, 0, 0, 0, 0, 0, 0, 0, 0, 0, 0], "stateRewards": ["", 2, 3, -3, 12, -43, 81, -82, -15, 58, -7, -75, -1, -1, 3, -5, 50, -25, -8, 4, 66, 65, -66, 2, -4, 2, -1, -10, 10, 37, 11, 88, -37, 8], "withholdReward": false, "trial_id": "mdp_trial_9", "block": "test", "trialIndex": 14, "score": -13.15, "costs": -2.15, "simulationMode": [null, null, null, null, null], "rewards": [2, -4, 2, -1, -10], "path": ["0", "0", "23", "24", "25", "26", "27"], "rt": [7644, 349, 307, 368, 407], "actions": ["left", "left", "left", "up", "up"], "actionTimes": [10890, 11756, 12577, 13460, 14384], "queries": {"click": {"state": {"target": ["27"], "time": [4765]}, "edge": {"target": [], "time": []}}, "mouseover": {"state": {"target": ["28", "27"], "time": [3996, 4212]}, "edge": {"target": [], "time": []}}, "mouseout": {"state": {"target": ["20", "13", "12", "0", "28", "27", "10", "1", "15"], "time": [1351, 1402, 1888, 2356, 4030, 4905, 16153, 16187, 16527]}, "edge": {"target": [], "time": []}}}, "displayed_time": "17.25", "trialTime": 20559, "trial_type": "mouselab-mdp", "trial_index": 29, "time_elapsed": 3789622, "internal_node_id": "0.0-6.0-1.0-8.0"}}, {"uniqueid": "w99417933:a35868854", "current_trial": 30, "dateTime": 1693583916322, "trialdata": {"revealed_states": [], "clicked_states": ["6"], "num_clicks_accrued": [0, 0, 0, 0, 0, 0, 0, 0, 0, 0, 0, 0, 0], "stateRewards": ["", -1, -2, -8, 8, -27, -82, 19, -14, -62, 4, 1, -2, 2, 6, 10, 73, -51, -2, 2, 73, -48, 54, -1, 2, -4, 11, -25, 47, 86, 15, 33, 43, -42], "withholdReward": false, "trial_id": "mdp_trial_10", "block": "test", "trialIndex": 15, "score": -87.15, "costs": -2.15, "simulationMode": [null, null, null, null, null], "rewards": [-1, -2, -8, 8, -82], "path": ["0", "0", "1", "2", "3", "4", "6"], "rt": [8328, 790, 501, 467, 401], "actions": ["up", "up", "up", "right", "right"], "actionTimes": [11327, 12631, 13646, 14613, 15518], "queries": {"click": {"state": {"target": ["6"], "time": [5124]}, "edge": {"target": [], "time": []}}, "mouseover": {"state": {"target": ["7", "6", "6"], "time": [3618, 3665, 4153]}, "edge": {"target": [], "time": []}}, "mouseout": {"state": {"target": ["15", "0", "7", "6"], "time": [993, 1794, 3637, 3786]}, "edge": {"target": [], "time": []}}}, "displayed_time": "17.00", "trialTime": 22154, "trial_type": "mouselab-mdp", "trial_index": 30, "time_elapsed": 3812344, "internal_node_id": "0.0-6.0-1.0-9.0"}}, {"uniqueid": "w99417933:a35868854", "current_trial": 31, "dateTime": 1693583934614, "trialdata": {"revealed_states": [], "clicked_states": ["21"], "num_clicks_accrued": [0, 0, 0, 0, 0, 0, 0, 0, 0, 0, 0, 0, 0], "stateRewards": ["", -2, 2, 2, -6, 9, 37, 50, -13, -7, -18, -75, -2, -4, 4, 7, 23, -57, -66, -7, -81, -48, -76, 1, 1, -8, 1, 51, -2, 70, 14, 59, 71, -37], "withholdReward": false, "trial_id": "mdp_trial_11", "block": "test", "trialIndex": 16, "score": -59.15, "costs": -2.15, "simulationMode": [null, null, null, null, null], "rewards": [-2, -4, 4, -7, -48], "path": ["0", "0", "12", "13", "14", "19", "21"], "rt": [5233, 364, 262, 327, 227], "actions": ["right", "right", "right", "down", "down"], "actionTimes": [7830, 8709, 9497, 10323, 11059], "queries": {"click": {"state": {"target": ["21"], "time": [4871]}, "edge": {"target": [], "time": []}}, "mouseover": {"state": {"target": ["12", "22", "21"], "time": [3208, 3254, 3675]}, "edge": {"target": [], "time": []}}, "mouseout": {"state": {"target": ["6", "7", "12", "22"], "time": [1268, 1300, 3233, 3274]}, "edge": {"target": [], "time": []}}}, "displayed_time": "16.60", "trialTime": 17684, "trial_type": "mouselab-mdp", "trial_index": 31, "time_elapsed": 3830636, "internal_node_id": "0.0-6.0-1.0-10.0"}}, {"uniqueid": "w99417933:a35868854", "current_trial": 32, "dateTime": 1693583954417, "trialdata": {"revealed_states": [], "clicked_states": ["33"], "num_clicks_accrued": [0, 0, 0, 0, 0, 0, 0, 0, 0, 0, 0, 0, 0], "stateRewards": ["", 1, 1, 4, 11, 83, -66, 18, -16, -23, 5, 25, 1, -3, 1, -12, 18, 24, -86, -11, -64, 36, 40, 2, 1, -6, 13, 55, 29, 72, -2, 81, -72, -41], "withholdReward": false, "trial_id": "mdp_trial_12", "block": "test", "trialIndex": 17, "score": -48.15, "costs": -2.15, "simulationMode": [null, null, null, null, null], "rewards": [2, 1, -6, -2, -41], "path": ["0", "0", "23", "24", "25", "30", "33"], "rt": [10053, 414, 343, 208, 320], "actions": ["left", "left", "left", "down", "left"], "actionTimes": [12307, 13235, 14089, 14806, 15630], "queries": {"click": {"state": {"target": ["33"], "time": [3688]}, "edge": {"target": [], "time": []}}, "mouseover": {"state": {"target": ["0", "23", "30", "33"], "time": [2534, 2574, 2690, 2992]}, "edge": {"target": [], "time": []}}, "mouseout": {"state": {"target": ["21", "0", "23", "30"], "time": [686, 2552, 2612, 2773]}, "edge": {"target": [], "time": []}}}, "displayed_time": "16.25", "trialTime": 19228, "trial_type": "mouselab-mdp", "trial_index": 32, "time_elapsed": 3850439, "internal_node_id": "0.0-6.0-1.0-11.0"}}, {"uniqueid": "w99417933:a35868854", "current_trial": 33, "dateTime": 1693583975484, "trialdata": {"revealed_states": [], "clicked_states": ["5"], "num_clicks_accrued": [0, 0, 0, 0, 0, 0, 0, 0, 0, 0, 0, 0, 0], "stateRewards": ["", -1, -1, 7, -15, -43, -21, -84, -9, -45, -66, 2, 1, -2, 2, 8, -27, 44, -52, -5, -84, 11, 53, 1, 4, -4, 16, 83, -82, -15, -16, 68, -43, 81], "withholdReward": false, "trial_id": "mdp_trial_13", "block": "test", "trialIndex": 18, "score": -55.15, "costs": -2.15, "simulationMode": [null, null, null, null, null], "rewards": [-1, -1, 7, -15, -43], "path": ["0", "0", "1", "2", "3", "4", "5"], "rt": [7926, 217, 219, 125, 268], "actions": ["up", "up", "up", "right", "up"], "actionTimes": [10386, 11101, 11823, 12447, 13230], "queries": {"click": {"state": {"target": ["5"], "time": [4170]}, "edge": {"target": [], "time": []}}, "mouseover": {"state": {"target": ["1", "2", "4", "5", "5"], "time": [2997, 3030, 3161, 3242, 3631]}, "edge": {"target": [], "time": []}}, "mouseout": {"state": {"target": ["33", "0", "1", "2", "4", "5"], "time": [878, 1257, 3015, 3044, 3180, 3277]}, "edge": {"target": [], "time": []}}}, "displayed_time": "16.46", "trialTime": 20416, "trial_type": "mouselab-mdp", "trial_index": 33, "time_elapsed": 3871506, "internal_node_id": "0.0-6.0-1.0-12.0"}}, {"uniqueid": "w99417933:a35868854", "current_trial": 34, "dateTime": 1693583997698, "trialdata": {"revealed_states": [], "clicked_states": ["11"], "num_clicks_accrued": [0, 0, 0, 0, 0, 0, 0, 0, 0, 0, 0, 0, 0], "stateRewards": ["", -2, 4, -3, -13, 63, -36, 62, 11, 78, 34, -51, 2, -2, 8, -6, -40, -18, 31, 9, 64, 39, 79, 1, 4, -4, 15, -12, 76, 73, -10, -77, 86, -4], "withholdReward": false, "trial_id": "mdp_trial_14", "block": "test", "trialIndex": 19, "score": -43.15, "costs": -2.15, "simulationMode": [null, null, null, null, null], "rewards": [-2, 4, -3, 11, -51], "path": ["0", "0", "1", "2", "3", "8", "11"], "rt": [6029, 572, 617, 336, 238], "actions": ["up", "up", "up", "left", "left"], "actionTimes": [9017, 10089, 11220, 12061, 12813], "queries": {"click": {"state": {"target": ["11"], "time": [5381]}, "edge": {"target": [], "time": []}}, "mouseover": {"state": {"target": ["10", "11", "11"], "time": [3600, 4357, 4853]}, "edge": {"target": [], "time": []}}, "mouseout": {"state": {"target": ["5", "4", "1", "0", "10", "11", "11"], "time": [955, 1002, 1508, 3501, 3637, 4469, 5513]}, "edge": {"target": [], "time": []}}}, "displayed_time": "16.99", "trialTime": 21499, "trial_type": "mouselab-mdp", "trial_index": 34, "time_elapsed": 3893720, "internal_node_id": "0.0-6.0-1.0-13.0"}}, {"uniqueid": "w99417933:a35868854", "current_trial": 35, "dateTime": 1693584018305, "trialdata": {"revealed_states": [], "clicked_states": ["20"], "num_clicks_accrued": [0, 0, 0, 0, 0, 0, 0, 0, 0, 0, 0, 0, 0], "stateRewards": ["", 1, -1, 4, 5, -32, 18, 20, 6, -88, -74, 9, -2, 1, -2, -14, 34, -77, -38, -1, 80, -36, 73, 2, 3, -8, 10, -48, -73, -71, -11, -22, 20, 54], "withholdReward": false, "trial_id": "mdp_trial_15", "block": "test", "trialIndex": 20, "score": 73.85, "costs": -2.15, "simulationMode": [null, null, null, null, null], "rewards": [-2, 1, -2, -1, 80], "path": ["0", "0", "12", "13", "14", "19", "20"], "rt": [5383, 577, 440, 322, 380], "actions": ["right", "right", "right", "down", "right"], "actionTimes": [7672, 8760, 9706, 10541, 11434], "queries": {"click": {"state": {"target": ["20"], "time": [4568]}, "edge": {"target": [], "time": []}}, "mouseover": {"state": {"target": ["12", "22", "19", "20"], "time": [2866, 2915, 3518, 4031]}, "edge": {"target": [], "time": []}}, "mouseout": {"state": {"target": ["11", "10", "12", "22", "19"], "time": [756, 841, 2894, 2982, 3549]}, "edge": {"target": [], "time": []}}}, "displayed_time": "16.29", "trialTime": 19334, "trial_type": "mouselab-mdp", "trial_index": 35, "time_elapsed": 3914327, "internal_node_id": "0.0-6.0-1.0-14.0"}}, {"uniqueid": "w99417933:a35868854", "current_trial": 36, "dateTime": 1693584037979, "trialdata": {"revealed_states": [], "clicked_states": ["33"], "num_clicks_accrued": [0, 0, 0, 0, 0, 0, 0, 0, 0, 0, 0, 0, 0], "stateRewards": ["", 1, -1, 8, 4, 76, -33, -17, -3, -1, -54, -74, -2, 2, -5, 13, -51, 63, 83, 1, 84, 29, -36, 2, -1, 7, -12, -10, -44, -43, -14, 8, -69, 19], "withholdReward": false, "trial_id": "mdp_trial_16", "block": "test", "trialIndex": 21, "score": 10.85, "costs": -2.15, "simulationMode": [null, null, null, null, null, null], "rewards": [2, -1, 7, -14, 19], "path": ["0", "0", "23", "24", "25", "30", "33"], "rt": [5155, 922, 368, 314, 148, 274], "actions": ["left", "left", "left", "left", "down", "left"], "actionTimes": [7620, 8548, 9427, 10241, 10893, 11673], "queries": {"click": {"state": {"target": ["33"], "time": [5292]}, "edge": {"target": [], "time": []}}, "mouseover": {"state": {"target": ["33"], "time": [4560]}, "edge": {"target": [], "time": []}}, "mouseout": {"state": {"target": ["20", "19", "12", "0"], "time": [760, 779, 1282, 1351]}, "edge": {"target": [], "time": []}}}, "displayed_time": "16.47", "trialTime": 19068, "trial_type": "mouselab-mdp", "trial_index": 36, "time_elapsed": 3934000, "internal_node_id": "0.0-6.0-1.0-15.0"}}, {"uniqueid": "w99417933:a35868854", "current_trial": 37, "dateTime": 1693584055929, "trialdata": {"revealed_states": [], "clicked_states": ["6"], "num_clicks_accrued": [0, 0, 0, 0, 0, 0, 0, 0, 0, 0, 0, 0, 0], "stateRewards": ["", -1, -4, -6, -15, 21, -67, -63, 9, 51, 69, -14, -1, 3, 8, -8, 39, 72, 63, 15, 19, 47, 15, 1, 4, 5, 16, -18, 34, 35, -14, -80, 40, 1], "withholdReward": false, "trial_id": "mdp_trial_17", "block": "test", "trialIndex": 22, "score": -95.15, "costs": -2.15, "simulationMode": [null, null, null, null, null], "rewards": [-1, -4, -6, -15, -67], "path": ["0", "0", "1", "2", "3", "4", "6"], "rt": [5705, 371, 269, 69, 178], "actions": ["up", "up", "up", "right", "right"], "actionTimes": [7754, 8639, 9423, 9992, 10670], "queries": {"click": {"state": {"target": ["6"], "time": [3890]}, "edge": {"target": [], "time": []}}, "mouseover": {"state": {"target": ["7", "6"], "time": [2685, 3299]}, "edge": {"target": [], "time": []}}, "mouseout": {"state": {"target": ["33", "24", "23", "7"], "time": [672, 743, 797, 2768]}, "edge": {"target": [], "time": []}}}, "displayed_time": "16.05", "trialTime": 17334, "trial_type": "mouselab-mdp", "trial_index": 37, "time_elapsed": 3951950, "internal_node_id": "0.0-6.0-1.0-16.0"}}, {"uniqueid": "w99417933:a35868854", "current_trial": 38, "dateTime": 1693584078689, "trialdata": {"revealed_states": [], "clicked_states": ["11"], "num_clicks_accrued": [0, 0, 0, 0, 0, 0, 0, 0, 0, 0, 0, 0, 0], "stateRewards": ["", 2, -1, 1, 10, -52, 86, -22, -2, -14, -63, 38, 1, 3, 7, -8, 11, -32, -27, 9, -71, 40, -87, -2, -1, 5, -7, 12, 31, -57, 13, 86, -58, 29], "withholdReward": false, "trial_id": "mdp_trial_18", "block": "test", "trialIndex": 23, "score": 35.85, "costs": -2.15, "simulationMode": [null, null, null, null, null], "rewards": [2, -1, 1, -2, 38], "path": ["0", "0", "1", "2", "3", "8", "11"], "rt": [7046, 249, 215, 64, 72], "actions": ["up", "up", "up", "left", "left"], "actionTimes": [10156, 10915, 11647, 12210, 12792], "queries": {"click": {"state": {"target": ["11"], "time": [5643]}, "edge": {"target": [], "time": []}}, "mouseover": {"state": {"target": ["27", "11"], "time": [4340, 4808]}, "edge": {"target": [], "time": []}}, "mouseout": {"state": {"target": ["6", "2", "10", "1", "27", "11", "10", "0"], "time": [713, 864, 1873, 2000, 4725, 19138, 19225, 20561]}, "edge": {"target": [], "time": []}}}, "displayed_time": "17.11", "trialTime": 22103, "trial_type": "mouselab-mdp", "trial_index": 38, "time_elapsed": 3974711, "internal_node_id": "0.0-6.0-1.0-17.0"}}, {"uniqueid": "w99417933:a35868854", "current_trial": 39, "dateTime": 1693584098376, "trialdata": {"revealed_states": [], "clicked_states": ["32"], "num_clicks_accrued": [0, 0, 0, 0, 0, 0, 0, 0, 0, 0, 0, 0, 0], "stateRewards": ["", 1, -2, -8, -3, 31, -84, -55, -14, 15, -58, 17, -2, -3, 7, 7, -12, 48, 67, 4, -44, -68, 46, 2, 3, -5, -7, 76, 27, 5, 11, 57, 52, 59], "withholdReward": false, "trial_id": "mdp_trial_19", "block": "test", "trialIndex": 24, "score": 60.85, "costs": -2.15, "simulationMode": [null, null, null, null, null], "rewards": [2, 3, -5, 11, 52], "path": ["0", "0", "23", "24", "25", "30", "32"], "rt": [4455, 225, 95, 409, 105], "actions": ["left", "left", "left", "down", "down"], "actionTimes": [7080, 7810, 8415, 9338, 9956], "queries": {"click": {"state": {"target": ["32"], "time": [4185]}, "edge": {"target": [], "time": []}}, "mouseover": {"state": {"target": ["0", "32"], "time": [3237, 3333]}, "edge": {"target": [], "time": []}}, "mouseout": {"state": {"target": ["12", "0", "32"], "time": [1296, 3257, 17275]}, "edge": {"target": [], "time": []}}}, "displayed_time": "16.63", "trialTime": 19052, "trial_type": "mouselab-mdp", "trial_index": 39, "time_elapsed": 3994398, "internal_node_id": "0.0-6.0-1.0-18.0"}}, {"uniqueid": "w99417933:a35868854", "current_trial": 40, "dateTime": 1693584122049, "trialdata": {"revealed_states": [], "clicked_states": ["21"], "num_clicks_accrued": [0, 0, 0, 0, 0, 0, 0, 0, 0, 0, 0, 0, 0], "stateRewards": ["", 1, 4, -8, -5, -15, -7, 21, 13, -30, 40, -65, 1, 1, 5, -14, 35, 27, -38, -11, 36, -58, -47, -2, 4, -3, 13, -16, -49, 22, 15, -56, -44, -10], "withholdReward": false, "trial_id": "mdp_trial_20", "block": "test", "trialIndex": 25, "score": -64.15, "costs": -2.15, "simulationMode": [null, null, null, null, null, null], "rewards": [1, 1, 5, -11, -58], "path": ["0", "0", "12", "13", "14", "19", "21"], "rt": [2823, 2670, 49, 99, 109, 225], "actions": ["right", "right", "right", "right", "down", "down"], "actionTimes": [6752, 9429, 9992, 10636, 11254, 11989], "queries": {"click": {"state": {"target": ["21"], "time": [5579]}, "edge": {"target": [], "time": []}}, "mouseover": {"state": {"target": ["22", "21"], "time": [4560, 4674]}, "edge": {"target": [], "time": []}}, "mouseout": {"state": {"target": ["0", "22", "21"], "time": [4072, 4607, 5711]}, "edge": {"target": [], "time": []}}}, "displayed_time": "17.93", "trialTime": 22980, "trial_type": "mouselab-mdp", "trial_index": 40, "time_elapsed": 4018071, "internal_node_id": "0.0-6.0-1.0-19.0"}}, {"uniqueid": "w99417933:a35868854", "current_trial": 41, "dateTime": 1693584142448, "trialdata": {"revealed_states": [], "clicked_states": ["33"], "num_clicks_accrued": [0, 0, 0, 0, 0, 0, 0, 0, 0, 0, 0, 0, 0], "stateRewards": ["", -1, 2, -2, 13, -56, -28, 10, 14, 53, -80, -29, 1, -3, -3, -14, 14, 9, -40, -9, 18, 18, 48, 1, 1, 1, -9, 64, -39, -9, 7, -52, -78, 7], "withholdReward": false, "trial_id": "mdp_trial_21", "block": "test", "trialIndex": 26, "score": 14.85, "costs": -2.15, "simulationMode": [null, null, null, null, null], "rewards": [1, 1, 1, 7, 7], "path": ["0", "0", "23", "24", "25", "30", "33"], "rt": [6704, 223, 244, 192, 357], "actions": ["left", "left", "left", "down", "left"], "actionTimes": [9032, 9763, 10522, 11216, 12086], "queries": {"click": {"state": {"target": ["33"], "time": [4923]}, "edge": {"target": [], "time": []}}, "mouseover": {"state": {"target": ["23", "31", "30", "33", "30", "31"], "time": [3100, 3281, 3431, 3953, 5664, 5714]}, "edge": {"target": [], "time": []}}, "mouseout": {"state": {"target": ["0", "23", "31", "30", "33", "30", "31"], "time": [1478, 3127, 3381, 3482, 5643, 5691, 5751]}, "edge": {"target": [], "time": []}}}, "displayed_time": "16.34", "trialTime": 19634, "trial_type": "mouselab-mdp", "trial_index": 41, "time_elapsed": 4038470, "internal_node_id": "0.0-6.0-1.0-20.0"}}, {"uniqueid": "w99417933:a35868854", "current_trial": 42, "dateTime": 1693584165569, "trialdata": {"revealed_states": [], "clicked_states": ["22"], "num_clicks_accrued": [0, 0, 0, 0, 0, 0, 0, 0, 0, 0, 0, 0, 0], "stateRewards": ["", -2, 4, 3, 5, -61, 4, 30, 1, -47, 83, 10, 1, 4, 7, -14, 19, -74, -83, 6, -2, -2, -65, -1, -2, 4, -11, 12, -1, -68, 11, -38, -28, 66], "withholdReward": false, "trial_id": "mdp_trial_22", "block": "test", "trialIndex": 27, "score": 13.85, "costs": -2.15, "simulationMode": [null, null, null, null, null], "rewards": [1, 4, 7, 6, -2], "path": ["0", "0", "12", "13", "14", "19", "21"], "rt": [5287, 253, 175, 215, 218], "actions": ["right", "right", "right", "down", "down"], "actionTimes": [7857, 8617, 9324, 10049, 10772], "queries": {"click": {"state": {"target": ["22"], "time": [4459]}, "edge": {"target": [], "time": []}}, "mouseover": {"state": {"target": ["22", "22"], "time": [3231, 3600]}, "edge": {"target": [], "time": []}}, "mouseout": {"state": {"target": ["0", "22", "22"], "time": [3147, 3268, 5095]}, "edge": {"target": [], "time": []}}}, "displayed_time": "16.57", "trialTime": 22402, "trial_type": "mouselab-mdp", "trial_index": 42, "time_elapsed": 4061591, "internal_node_id": "0.0-6.0-1.0-21.0"}}, {"uniqueid": "w99417933:a35868854", "current_trial": 43, "dateTime": 1693584184579, "trialdata": {"revealed_states": [], "clicked_states": [], "num_clicks_accrued": [0, 0, 0, 0, 0, 0, 0, 0, 0, 0, 0, 0, 0], "stateRewards": ["", 2, 3, -1, 6, 44, -4, -59, -14, -3, 64, 16, 1, -3, 3, 6, 3, 49, 19, 3, -49, -14, -86, 1, 2, -3, -8, -33, 14, 32, -13, -77, -47, -67], "withholdReward": false, "trial_id": "mdp_trial_23", "block": "test", "trialIndex": 28, "score": -90, "costs": 0, "simulationMode": [null, null, null, null, null], "rewards": [1, 2, -3, -13, -77], "path": ["0", "0", "23", "24", "25", "30", "31"], "rt": [4753, 263, 186, 235, 333], "actions": ["left", "left", "left", "down", "right"], "actionTimes": [6848, 7626, 8330, 9102, 9946], "queries": {"click": {"state": {"target": [], "time": []}, "edge": {"target": [], "time": []}}, "mouseover": {"state": {"target": ["23", "24", "31"], "time": [3865, 3996, 4899]}, "edge": {"target": [], "time": []}}, "mouseout": {"state": {"target": ["0", "23", "24", "31"], "time": [3845, 3907, 4430, 17457]}, "edge": {"target": [], "time": []}}}, "displayed_time": "16.11", "trialTime": 18302, "trial_type": "mouselab-mdp", "trial_index": 43, "time_elapsed": 4080601, "internal_node_id": "0.0-6.0-1.0-22.0"}}, {"uniqueid": "w99417933:a35868854", "current_trial": 44, "dateTime": 1693584209191, "trialdata": {"revealed_states": [], "clicked_states": ["6"], "num_clicks_accrued": [0, 0, 0, 0, 0, 0, 0, 0, 0, 0, 0, 0, 0], "stateRewards": ["", 1, -1, 1, 13, 31, -56, 72, 2, 41, 5, 63, -2, -3, -2, 3, -71, -26, 52, 13, -31, 24, -67, 2, -2, 5, 4, 66, 43, 72, 9, 86, -26, 44], "withholdReward": false, "trial_id": "mdp_trial_24", "block": "test", "trialIndex": 29, "score": -44.15, "costs": -2.15, "simulationMode": [null, null, null, null, null, null], "rewards": [1, -1, 1, 13, -56], "path": ["0", "0", "1", "2", "3", "4", "6"], "rt": [4117, 1537, 358, 243, 158, 208], "actions": ["up", "up", "up", "up", "right", "right"], "actionTimes": [12328, 13874, 14744, 15496, 16163, 16881], "queries": {"click": {"state": {"target": ["6"], "time": [10049]}, "edge": {"target": [], "time": []}}, "mouseover": {"state": {"target": ["7", "6"], "time": [8827, 9202]}, "edge": {"target": [], "time": []}}, "mouseout": {"state": {"target": ["20", "12", "0", "7"], "time": [5104, 5672, 6540, 8847]}, "edge": {"target": [], "time": []}}}, "displayed_time": "22.21", "trialTime": 23926, "trial_type": "mouselab-mdp", "trial_index": 44, "time_elapsed": 4105212, "internal_node_id": "0.0-6.0-1.0-23.0"}}, {"uniqueid": "w99417933:a35868854", "current_trial": 45, "dateTime": 1693584228823, "trialdata": {"revealed_states": [], "clicked_states": ["11"], "num_clicks_accrued": [0, 0, 0, 0, 0, 0, 0, 0, 0, 0, 0, 0, 0], "stateRewards": ["", -2, 2, 8, -6, -25, 3, 87, 2, -62, -2, 74, -2, -1, 2, -1, 79, 49, -37, -14, 5, 67, -9, -1, 2, -2, 5, 15, 38, 32, -14, -38, -38, 30], "withholdReward": false, "trial_id": "mdp_trial_25", "block": "test", "trialIndex": 30, "score": 81.85, "costs": -2.15, "simulationMode": [null, null, null, null, null, null], "rewards": [-2, 2, 8, 2, 74], "path": ["0", "0", "1", "2", "3", "8", "11"], "rt": [3423, 1373, 185, 178, 68, 22], "actions": ["up", "up", "up", "up", "left", "left"], "actionTimes": [6210, 7591, 8280, 8965, 9533, 10056], "queries": {"click": {"state": {"target": ["11"], "time": [4318]}, "edge": {"target": [], "time": []}}, "mouseover": {"state": {"target": ["10", "11", "11"], "time": [3497, 3545, 3866]}, "edge": {"target": [], "time": []}}, "mouseout": {"state": {"target": ["6", "7", "1", "10", "11", "11"], "time": [1106, 1153, 1558, 3521, 3612, 4469]}, "edge": {"target": [], "time": []}}}, "displayed_time": "16.79", "trialTime": 18946, "trial_type": "mouselab-mdp", "trial_index": 45, "time_elapsed": 4124845, "internal_node_id": "0.0-6.0-1.0-24.0"}}, {"uniqueid": "w99417933:a35868854", "current_trial": 46, "dateTime": 1693584246352, "trialdata": {"revealed_states": [], "clicked_states": ["20"], "num_clicks_accrued": [0, 0, 0, 0, 0, 0, 0, 0, 0, 0, 0, 0, 0], "stateRewards": ["", -2, 1, -5, 2, -68, 80, 33, 10, 67, -59, 20, -1, -3, 3, 14, 74, -2, 24, -16, 63, 80, 46, -1, 4, 6, 12, 83, -38, -43, -4, 43, 14, -79], "withholdReward": false, "trial_id": "mdp_trial_26", "block": "test", "trialIndex": 31, "score": 43.85, "costs": -2.15, "simulationMode": [null, null, null, null, null, null], "rewards": [-1, -3, 3, -16, 63], "path": ["0", "0", "12", "13", "14", "19", "20"], "rt": [3677, 730, 304, 134, 164, 310], "actions": ["right", "right", "right", "right", "down", "right"], "actionTimes": [6066, 6803, 7604, 8241, 8921, 9740], "queries": {"click": {"state": {"target": ["20"], "time": [4349]}, "edge": {"target": [], "time": []}}, "mouseover": {"state": {"target": ["12", "13", "20"], "time": [2666, 3066, 3583]}, "edge": {"target": [], "time": []}}, "mouseout": {"state": {"target": ["11", "23", "12", "13"], "time": [722, 1197, 3049, 3134]}, "edge": {"target": [], "time": []}}}, "displayed_time": "16.39", "trialTime": 16818, "trial_type": "mouselab-mdp", "trial_index": 46, "time_elapsed": 4142374, "internal_node_id": "0.0-6.0-1.0-25.0"}}, {"uniqueid": "w99417933:a35868854", "current_trial": 47, "dateTime": 1693584268626, "trialdata": {"revealed_states": [], "clicked_states": ["5"], "num_clicks_accrued": [0, 0, 0, 0, 0, 0, 0, 0, 0, 0, 0, 0, 0], "stateRewards": ["", -2, 2, -5, 1, 42, -63, -58, -6, 2, 16, 81, -2, 4, 7, -10, 33, 3, -33, -2, -52, -84, -27, 2, -3, -3, 15, -74, -14, -5, -5, -84, 79, -31], "withholdReward": false, "trial_id": "mdp_trial_27", "block": "test", "trialIndex": 32, "score": 35.85, "costs": -2.15, "simulationMode": [null, null, null, null, null, null], "rewards": [-2, 2, -5, 1, 42], "path": ["0", "0", "1", "2", "3", "4", "5"], "rt": [4071, 584, 10, 7, 321, 256], "actions": ["up", "up", "up", "up", "right", "up"], "actionTimes": [8257, 8850, 9374, 9909, 10753, 11528], "queries": {"click": {"state": {"target": ["5"], "time": [6379]}, "edge": {"target": [], "time": []}}, "mouseover": {"state": {"target": ["1", "7", "6", "5"], "time": [4996, 5020, 5127, 5715]}, "edge": {"target": [], "time": []}}, "mouseout": {"state": {"target": ["20", "19", "22", "12", "1", "7", "6", "5", "2"], "time": [1747, 1798, 1850, 2622, 5014, 5037, 5178, 18461, 18512]}, "edge": {"target": [], "time": []}}}, "displayed_time": "18.19", "trialTime": 21505, "trial_type": "mouselab-mdp", "trial_index": 47, "time_elapsed": 4164647, "internal_node_id": "0.0-6.0-1.0-26.0"}}, {"uniqueid": "w99417933:a35868854", "current_trial": 48, "dateTime": 1693584286784, "trialdata": {"revealed_states": [], "clicked_states": ["31"], "num_clicks_accrued": [0, 0, 0, 0, 0, 0, 0, 0, 0, 0, 0, 0, 0], "stateRewards": ["", 1, 1, -3, 7, 49, 78, 26, -5, 26, 48, -43, -1, -3, 2, -5, 4, -1, -60, 10, -35, 51, 81, -2, 1, -7, -5, -39, -86, -54, 4, -3, 74, 77], "withholdReward": false, "trial_id": "mdp_trial_28", "block": "test", "trialIndex": 33, "score": -9.15, "costs": -2.15, "simulationMode": [null, null, null, null, null, null], "rewards": [-2, 1, -7, 4, -3], "path": ["0", "0", "23", "24", "25", "30", "31"], "rt": [3191, 1137, 101, 12, 223, 358], "actions": ["left", "left", "left", "left", "down", "right"], "actionTimes": [5482, 6628, 7251, 7766, 8526, 9397], "queries": {"click": {"state": {"target": ["31"], "time": [3824]}, "edge": {"target": [], "time": []}}, "mouseover": {"state": {"target": ["31"], "time": [2935]}, "edge": {"target": [], "time": []}}, "mouseout": {"state": {"target": ["31", "0", "31"], "time": [861, 1014, 4386]}, "edge": {"target": [], "time": []}}}, "displayed_time": "16.29", "trialTime": 17453, "trial_type": "mouselab-mdp", "trial_index": 48, "time_elapsed": 4182805, "internal_node_id": "0.0-6.0-1.0-27.0"}}, {"uniqueid": "w99417933:a35868854", "current_trial": 49, "dateTime": 1693584308053, "trialdata": {"revealed_states": [], "clicked_states": ["18"], "num_clicks_accrued": [0, 0, 0, 0, 0, 0, 0, 0, 0, 0, 0, 0, 0], "stateRewards": ["", -1, 3, 1, -11, -22, -36, 19, -5, -70, -52, 50, -2, -4, 4, -2, -41, -83, 29, -2, 22, 10, -6, -2, 3, -2, 14, 54, 44, 77, -9, -65, -37, -40], "withholdReward": false, "trial_id": "mdp_trial_29", "block": "test", "trialIndex": 34, "score": 22.85, "costs": -2.15, "simulationMode": [null, null, null, null, null, null], "rewards": [-2, -4, 4, -2, 29], "path": ["0", "0", "12", "13", "14", "15", "18"], "rt": [3934, 874, 222, 166, 250, 232], "actions": ["right", "right", "right", "right", "up", "left"], "actionTimes": [7723, 8604, 9341, 10021, 10772, 11507], "queries": {"click": {"state": {"target": ["18"], "time": [5922]}, "edge": {"target": [], "time": []}}, "mouseover": {"state": {"target": ["18", "15", "18"], "time": [4455, 4497, 4984]}, "edge": {"target": [], "time": []}}, "mouseout": {"state": {"target": ["0", "18", "15", "18", "23", "24", "24"], "time": [2929, 4475, 4818, 6567, 18974, 19052, 19724]}, "edge": {"target": [], "time": []}}}, "displayed_time": "17.79", "trialTime": 20545, "trial_type": "mouselab-mdp", "trial_index": 49, "time_elapsed": 4204075, "internal_node_id": "0.0-6.0-1.0-28.0"}}, {"uniqueid": "w99417933:a35868854", "current_trial": 50, "dateTime": 1693584326723, "trialdata": {"revealed_states": [], "clicked_states": ["28"], "num_clicks_accrued": [0, 0, 0, 0, 0, 0, 0, 0, 0, 0, 0, 0, 0], "stateRewards": ["", 2, 4, -5, 7, 81, 35, 6, 11, 14, -72, 42, -1, 2, 3, -7, -77, -44, -40, -15, -85, 51, -32, -2, -1, -5, 7, -74, 47, 52, 16, -49, 48, -46], "withholdReward": false, "trial_id": "mdp_trial_30", "block": "test", "trialIndex": 35, "score": 43.85, "costs": -2.15, "simulationMode": [null, null, null, null, null, null], "rewards": [-2, -1, -5, 7, 47], "path": ["0", "0", "23", "24", "25", "26", "28"], "rt": [3175, 776, 49, 109, 238, 66], "actions": ["left", "left", "left", "left", "up", "right"], "actionTimes": [5315, 6099, 6703, 7341, 8094, 8673], "queries": {"click": {"state": {"target": ["28"], "time": [3648]}, "edge": {"target": [], "time": []}}, "mouseover": {"state": {"target": ["0", "23", "24", "25", "26", "28"], "time": [2400, 2482, 2532, 2583, 2681, 3038]}, "edge": {"target": [], "time": []}}, "mouseout": {"state": {"target": ["0", "0", "23", "24", "25", "26"], "time": [1124, 2447, 2515, 2566, 2614, 3004]}, "edge": {"target": [], "time": []}}}, "displayed_time": "16.14", "trialTime": 17883, "trial_type": "mouselab-mdp", "trial_index": 50, "time_elapsed": 4222745, "internal_node_id": "0.0-6.0-1.0-29.0"}}, {"uniqueid": "w99417933:a35868854", "current_trial": 51, "dateTime": 1693584346111, "trialdata": {"revealed_states": [], "clicked_states": ["6"], "num_clicks_accrued": [0, 0, 0, 0, 0, 0, 0, 0, 0, 0, 0, 0, 0], "stateRewards": ["", 2, 2, 3, -15, 23, -14, 73, -7, -32, -20, -6, 1, 1, -5, -12, 73, 6, -84, 11, -81, -57, 13, -2, -1, -4, -8, -52, -58, 49, 13, 5, -41, -41], "withholdReward": false, "trial_id": "mdp_trial_31", "block": "test", "trialIndex": 36, "score": -24.15, "costs": -2.15, "simulationMode": [null, null, null, null, null], "rewards": [2, 2, 3, -15, -14], "path": ["0", "0", "1", "2", "3", "4", "6"], "rt": [5101, 204, 105, 7, 20], "actions": ["up", "up", "up", "right", "right"], "actionTimes": [7776, 8515, 9143, 9680, 10237], "queries": {"click": {"state": {"target": ["6"], "time": [4775]}, "edge": {"target": [], "time": []}}, "mouseover": {"state": {"target": ["1", "4", "6"], "time": [3550, 3619, 4154]}, "edge": {"target": [], "time": []}}, "mouseout": {"state": {"target": ["28", "1", "4"], "time": [1230, 3570, 3638]}, "edge": {"target": [], "time": []}}}, "displayed_time": "16.68", "trialTime": 18476, "trial_type": "mouselab-mdp", "trial_index": 51, "time_elapsed": 4242133, "internal_node_id": "0.0-6.0-1.0-30.0"}}, {"uniqueid": "w99417933:a35868854", "current_trial": 52, "dateTime": 1693584364677, "trialdata": {"revealed_states": [], "clicked_states": ["7"], "num_clicks_accrued": [0, 0, 0, 0, 0, 0, 0, 0, 0, 0, 0, 0, 0], "stateRewards": ["", -2, 4, -7, -3, -76, 39, -28, 10, 14, 12, 60, 2, -3, 6, -10, 88, -34, -41, -3, 72, -13, -56, 1, 3, 2, 8, -51, 23, -57, 1, 14, -46, -16], "withholdReward": false, "trial_id": "mdp_trial_32", "block": "test", "trialIndex": 37, "score": -38.15, "costs": -2.15, "simulationMode": [null, null, null, null, null, null], "rewards": [-2, 4, -7, -3, -28], "path": ["0", "0", "1", "2", "3", "4", "7"], "rt": [4453, 824, 224, 120, 86, 246], "actions": ["up", "up", "up", "up", "right", "down"], "actionTimes": [6955, 7784, 8537, 9184, 9782, 10537], "queries": {"click": {"state": {"target": ["7"], "time": [4516]}, "edge": {"target": [], "time": []}}, "mouseover": {"state": {"target": ["1", "7"], "time": [3125, 3413]}, "edge": {"target": [], "time": []}}, "mouseout": {"state": {"target": ["6", "7", "1", "1", "7"], "time": [954, 987, 1022, 3250, 5072]}, "edge": {"target": [], "time": []}}}, "displayed_time": "16.50", "trialTime": 17690, "trial_type": "mouselab-mdp", "trial_index": 52, "time_elapsed": 4260698, "internal_node_id": "0.0-6.0-1.0-31.0"}}, {"uniqueid": "w99417933:a35868854", "current_trial": 53, "dateTime": 1693584383643, "trialdata": {"revealed_states": [], "clicked_states": ["11"], "num_clicks_accrued": [0, 0, 0, 0, 0, 0, 0, 0, 0, 0, 0, 0, 0], "stateRewards": ["", 1, 2, -3, -6, 50, -7, 7, -7, -80, 21, -1, 2, 2, 4, -1, 33, 84, 1, 14, -53, 81, 6, -2, -2, -3, -9, -87, -38, -59, -5, -74, -3, -71], "withholdReward": false, "trial_id": "mdp_trial_33", "block": "test", "trialIndex": 38, "score": -10.15, "costs": -2.15, "simulationMode": [null, null, null, null, null], "rewards": [1, 2, -3, -7, -1], "path": ["0", "0", "1", "2", "3", "8", "11"], "rt": [5514, 236, 147, 66, 168], "actions": ["up", "up", "up", "left", "left"], "actionTimes": [8347, 9093, 9755, 10328, 11012], "queries": {"click": {"state": {"target": ["11"], "time": [5096]}, "edge": {"target": [], "time": []}}, "mouseover": {"state": {"target": ["10", "11"], "time": [3773, 4410]}, "edge": {"target": [], "time": []}}, "mouseout": {"state": {"target": ["10"], "time": [4330]}, "edge": {"target": [], "time": []}}}, "displayed_time": "16.84", "trialTime": 18184, "trial_type": "mouselab-mdp", "trial_index": 53, "time_elapsed": 4279665, "internal_node_id": "0.0-6.0-1.0-32.0"}}, {"uniqueid": "w99417933:a35868854", "current_trial": 54, "dateTime": 1693584402454, "trialdata": {"revealed_states": [], "clicked_states": ["31"], "num_clicks_accrued": [0, 0, 0, 0, 0, 0, 0, 0, 0, 0, 0, 0, 0], "stateRewards": ["", 1, 1, -7, -9, -44, 24, -83, -15, 44, -24, 72, -2, -3, 4, -5, 57, 55, 29, -11, 22, 12, -25, -1, 2, 7, 12, 33, -8, 47, -4, 8, 50, -4], "withholdReward": false, "trial_id": "mdp_trial_34", "block": "test", "trialIndex": 39, "score": 9.85, "costs": -2.15, "simulationMode": [null, null, null, null, null, null], "rewards": [-1, 2, 7, -4, 8], "path": ["0", "0", "23", "24", "25", "30", "31"], "rt": [3571, 779, 8, 33, 165, 431], "actions": ["left", "left", "left", "left", "down", "right"], "actionTimes": [5897, 6685, 7207, 7764, 8431, 9366], "queries": {"click": {"state": {"target": ["31"], "time": [3800]}, "edge": {"target": [], "time": []}}, "mouseover": {"state": {"target": ["0", "31"], "time": [3101, 3230]}, "edge": {"target": [], "time": []}}, "mouseout": {"state": {"target": ["11", "23", "0", "0", "31"], "time": [759, 1244, 1444, 3126, 4307]}, "edge": {"target": [], "time": []}}}, "displayed_time": "16.33", "trialTime": 18079, "trial_type": "mouselab-mdp", "trial_index": 54, "time_elapsed": 4298476, "internal_node_id": "0.0-6.0-1.0-33.0"}}, {"uniqueid": "w99417933:a35868854", "current_trial": 55, "dateTime": 1693584421208, "trialdata": {"revealed_states": [], "clicked_states": ["20"], "num_clicks_accrued": [0, 0, 0, 0, 0, 0, 0, 0, 0, 0, 0, 0, 0], "stateRewards": ["", -1, -3, -7, -4, -85, -70, 79, 8, 84, -66, 42, 2, -2, -3, -16, -54, -66, 68, -3, 21, -14, 7, -2, -1, -3, -8, 75, 80, 86, -7, -84, 73, -16], "withholdReward": false, "trial_id": "mdp_trial_35", "block": "test", "trialIndex": 40, "score": 12.85, "costs": -2.15, "simulationMode": [null, null, null, null, null, null], "rewards": [2, -2, -3, -3, 21], "path": ["0", "0", "12", "13", "14", "19", "20"], "rt": [3819, 960, 204, 130, 205, 299], "actions": ["right", "right", "right", "right", "down", "right"], "actionTimes": [6210, 7175, 7890, 8524, 9231, 10045], "queries": {"click": {"state": {"target": ["20"], "time": [4020]}, "edge": {"target": [], "time": []}}, "mouseover": {"state": {"target": ["12", "19", "20"], "time": [2971, 3034, 3421]}, "edge": {"target": [], "time": []}}, "mouseout": {"state": {"target": ["0", "12", "19", "20", "19", "13", "18"], "time": [1297, 2997, 3343, 13594, 13678, 15033, 15119]}, "edge": {"target": [], "time": []}}}, "displayed_time": "16.39", "trialTime": 17960, "trial_type": "mouselab-mdp", "trial_index": 55, "time_elapsed": 4317230, "internal_node_id": "0.0-6.0-1.0-34.0"}}, {"uniqueid": "w99417933:a35868854", "current_trial": 56, "dateTime": 1693584439189, "trialdata": {"revealed_states": [], "clicked_states": ["16"], "num_clicks_accrued": [0, 0, 0, 0, 0, 0, 0, 0, 0, 0, 0, 0, 0], "stateRewards": ["", -1, -3, 1, -4, -48, -63, -49, -2, -84, -19, 65, 2, -2, -2, -12, -4, 59, 9, 6, 75, 69, -13, -1, -3, -3, -2, -37, -68, -36, 13, 32, 18, -14], "withholdReward": false, "trial_id": "mdp_trial_36", "block": "test", "trialIndex": 41, "score": -20.15, "costs": -2.15, "simulationMode": [null, null, null, null, null, null], "rewards": [2, -2, -2, -12, -4], "path": ["0", "0", "12", "13", "14", "15", "16"], "rt": [3029, 995, 90, 6, 234, 72], "actions": ["right", "right", "right", "right", "up", "up"], "actionTimes": [5049, 6051, 6659, 7188, 7949, 8524], "queries": {"click": {"state": {"target": ["16"], "time": [3601]}, "edge": {"target": [], "time": []}}, "mouseover": {"state": {"target": ["15", "16"], "time": [2414, 2766]}, "edge": {"target": [], "time": []}}, "mouseout": {"state": {"target": ["16", "15"], "time": [628, 2493]}, "edge": {"target": [], "time": []}}}, "displayed_time": "16.02", "trialTime": 17239, "trial_type": "mouselab-mdp", "trial_index": 56, "time_elapsed": 4335210, "internal_node_id": "0.0-6.0-1.0-35.0"}}, {"uniqueid": "w99417933:a35868854", "current_trial": 57, "dateTime": 1693584457817, "trialdata": {"revealed_states": [], "clicked_states": ["28"], "num_clicks_accrued": [0, 0, 0, 0, 0, 0, 0, 0, 0, 0, 0, 0, 0], "stateRewards": ["", 1, 1, -2, 7, -31, -6, 76, 1, -36, -16, -53, 2, 1, 7, 13, -47, -10, 47, -7, 72, 46, -56, -2, -2, -2, 11, -80, 44, 38, 16, 67, 85, -78], "withholdReward": false, "trial_id": "mdp_trial_37", "block": "test", "trialIndex": 42, "score": 46.85, "costs": -2.15, "simulationMode": [null, null, null, null, null, null], "rewards": [-2, -2, -2, 11, 44], "path": ["0", "0", "23", "24", "25", "26", "28"], "rt": [4027, 547, 479, 9, 174, 109], "actions": ["left", "left", "left", "left", "up", "right"], "actionTimes": [6441, 6995, 7996, 8506, 9211, 9826], "queries": {"click": {"state": {"target": ["28"], "time": [3732]}, "edge": {"target": [], "time": []}}, "mouseover": {"state": {"target": ["23", "28"], "time": [3034, 3079]}, "edge": {"target": [], "time": []}}, "mouseout": {"state": {"target": ["16", "18", "12", "0", "23"], "time": [904, 954, 1090, 1587, 3061]}, "edge": {"target": [], "time": []}}}, "displayed_time": "16.42", "trialTime": 17856, "trial_type": "mouselab-mdp", "trial_index": 57, "time_elapsed": 4353839, "internal_node_id": "0.0-6.0-1.0-36.0"}}, {"uniqueid": "w99417933:a35868854", "current_trial": 58, "dateTime": 1693584476503, "trialdata": {"revealed_states": [], "clicked_states": ["6"], "num_clicks_accrued": [0, 0, 0, 0, 0, 0, 0, 0, 0, 0, 0, 0, 0], "stateRewards": ["", -2, 3, -5, -7, 66, 43, -60, -4, -70, -75, 4, -1, 2, 2, -13, 54, 11, -40, -1, 77, 32, 15, -2, 3, -8, -9, -35, 83, -27, 6, -74, -34, 44], "withholdReward": false, "trial_id": "mdp_trial_38", "block": "test", "trialIndex": 43, "score": 29.85, "costs": -2.15, "simulationMode": [null, null, null, null, null, null], "rewards": [-2, 3, -5, -7, 43], "path": ["0", "0", "1", "2", "3", "4", "6"], "rt": [4731, 606, 97, 88, 639, 76], "actions": ["up", "up", "up", "up", "right", "right"], "actionTimes": [7562, 8177, 8778, 9372, 10520, 11121], "queries": {"click": {"state": {"target": ["6"], "time": [5505]}, "edge": {"target": [], "time": []}}, "mouseover": {"state": {"target": ["12", "13", "15", "17", "16", "6"], "time": [3396, 3444, 3558, 4009, 4361, 4894]}, "edge": {"target": [], "time": []}}, "mouseout": {"state": {"target": ["28", "12", "13", "15", "17", "16"], "time": [1103, 3426, 3477, 3950, 4281, 4849]}, "edge": {"target": [], "time": []}}}, "displayed_time": "16.83", "trialTime": 17962, "trial_type": "mouselab-mdp", "trial_index": 58, "time_elapsed": 4372525, "internal_node_id": "0.0-6.0-1.0-37.0"}}, {"uniqueid": "w99417933:a35868854", "current_trial": 59, "dateTime": 1693584494690, "trialdata": {"revealed_states": [], "clicked_states": ["21"], "num_clicks_accrued": [0, 0, 0, 0, 0, 0, 0, 0, 0, 0, 0, 0, 0], "stateRewards": ["", 2, -1, 5, 8, 75, -35, -77, 1, -9, -81, -58, 1, 2, -7, 5, 77, -16, 19, 16, -10, -18, 40, -2, 3, 7, -5, 64, 1, -62, 10, 27, 10, 65], "withholdReward": false, "trial_id": "mdp_trial_39", "block": "test", "trialIndex": 44, "score": -8.15, "costs": -2.15, "simulationMode": [null, null, null, null, null, null], "rewards": [1, 2, -7, 16, -18], "path": ["0", "0", "12", "13", "14", "19", "21"], "rt": [3181, 655, 7, 17, 435, 235], "actions": ["right", "right", "right", "right", "down", "down"], "actionTimes": [5501, 6164, 6687, 7208, 8167, 8920], "queries": {"click": {"state": {"target": ["21"], "time": [3972]}, "edge": {"target": [], "time": []}}, "mouseover": {"state": {"target": ["21"], "time": [3546]}, "edge": {"target": [], "time": []}}, "mouseout": {"state": {"target": ["6", "7", "21"], "time": [818, 865, 4110]}, "edge": {"target": [], "time": []}}}, "displayed_time": "16.32", "trialTime": 17454, "trial_type": "mouselab-mdp", "trial_index": 59, "time_elapsed": 4390712, "internal_node_id": "0.0-6.0-1.0-38.0"}}, {"uniqueid": "w99417933:a35868854", "current_trial": 60, "dateTime": 1693584514631, "trialdata": {"revealed_states": [], "clicked_states": [], "num_clicks_accrued": [0, 0, 0, 0, 0, 0, 0, 0, 0, 0, 0, 0, 0], "stateRewards": ["", -2, 1, -7, 9, 8, 25, 61, -7, -17, 69, -81, 1, 4, -4, -11, 16, 67, 44, 3, 6, -45, -54, -2, 3, 6, -11, -15, 32, -47, 3, -39, -6, -88], "withholdReward": false, "trial_id": "mdp_trial_40", "block": "test", "trialIndex": 45, "score": -51, "costs": 0, "simulationMode": [null, null, null, null, null], "rewards": [-2, 3, 6, -11, -47], "path": ["0", "0", "23", "24", "25", "26", "29"], "rt": [4666, 81, 18, 124, 46], "actions": ["left", "left", "left", "up", "left"], "actionTimes": [6701, 7291, 7824, 8487, 9043], "queries": {"click": {"state": {"target": [], "time": []}, "edge": {"target": [], "time": []}}, "mouseover": {"state": {"target": ["23", "24", "26", "29"], "time": [2944, 3082, 3631, 4784]}, "edge": {"target": [], "time": []}}, "mouseout": {"state": {"target": ["0", "23", "24", "26"], "time": [1230, 3010, 3164, 4567]}, "edge": {"target": [], "time": []}}}, "displayed_time": "16.04", "trialTime": 19220, "trial_type": "mouselab-mdp", "trial_index": 60, "time_elapsed": 4410653, "internal_node_id": "0.0-6.0-1.0-39.0"}}, {"uniqueid": "w99417933:a35868854", "current_trial": 61, "dateTime": 1693584617188, "trialdata": {"rt": 101918, "response": {"Q0": "$-16 to 16", "Q1": "$-32 to $32", "Q2": "$-88 to $88", "Q3": "The cost for clicking on nodes varied between nodes.", "Q4": "Very motivated"}, "question_order": [0, 1, 2, 3, 4], "trial_id": "final_quiz_control", "trial_type": "survey-multi-choice", "trial_index": 61, "time_elapsed": 4513210, "internal_node_id": "0.0-6.0-2.0"}}, {"uniqueid": "w99417933:a35868854", "current_trial": 62, "dateTime": 1693584885796, "trialdata": {"rt": 268064, "response": {"Q0": "I have using different move for the the game. I had to make sure I use the inspection node. And also keeping time.", "Q1": "Yes I had to move the spider in a different way.", "Q2": "The difficult was to choose the right node."}, "trial_id": "self_report_control", "trial_type": "survey-text", "trial_index": 62, "time_elapsed": 4781819, "internal_node_id": "0.0-6.0-3.0"}}, {"uniqueid": "w99417933:a35868854", "current_trial": 63, "dateTime": 1693584971475, "trialdata": {"rt": 85665, "response": {"Q0": "Strongly disagree", "Q1": "Strongly disagree", "Q2": "Agree", "Q3": "Disagree", "Q4": "Agree", "Q5": "Agree", "Q6": "Strongly disagree"}, "question_order": [0, 1, 2, 3, 4, 5, 6], "trial_id": "self_report_2", "trial_type": "survey-multi-choice", "trial_index": 63, "time_elapsed": 4867497, "internal_node_id": "0.0-6.0-4.0"}}, {"uniqueid": "w99417933:a35868854", "current_trial": 64, "dateTime": 1693585023202, "trialdata": {"rt": 51628, "response": {"gender": "male", "age": "26", "colorblind": "0", "effort": "0"}, "trial_type": "survey-html-form", "trial_index": 64, "time_elapsed": 4919225, "internal_node_id": "0.0-6.0-5.0"}}, {"uniqueid": "w99417933:a35868854", "current_trial": 65, "dateTime": 1693585096905, "trialdata": {"rt": 73693, "response": {"Q0": "nop", "Q1": "oky", "Q2": "its was a good survey indeed."}, "trial_type": "survey-text", "trial_index": 65, "time_elapsed": 4992928, "internal_node_id": "0.0-6.0-6.0"}}, {"uniqueid": "w99417933:a35868854", "current_trial": 66, "dateTime": 1693585144962, "trialdata": {"rt": 48003, "stimulus": "<h1>Completion Code Instructions (1/2)</h1>\n<br><br><br><br>\nYou have reached the end of the experiment! The completion code consists of two parts: (1) a code with 2 characters (2) a code with 6 characters. On this page, you will receive the second part of the code. The first part of the completion code will be on the next page.\n<br><br>\nThe second part of your completion code is: <b>EWEK22</b>\n<br><br>\nPlease note this down. Then, press 'Next' in order to find the first part of your completion code. Once the data has been saved, you will receive this code either in this window or in the original browser window where you started the experiment.\n <br><br>\n<h2 style='color: red;'>Note: this is <strong>NOT</strong> the full completion code. Copy this down and click 'Next' to get the full completion code on the next page.</h2>", "response": 0, "trial_type": "html-button-response", "trial_index": 66, "time_elapsed": 5040985, "internal_node_id": "0.0-6.0-7.0"}}, {"uniqueid": "w99417933:a35868854", "current_trial": 67, "dateTime": 1693585146062, "trialdata": {"success": true, "trial_type": "fullscreen", "trial_index": 67, "time_elapsed": 5042085, "internal_node_id": "0.0-7.0"}}], "questiondata": {"params": {"CODE": "C6DMOQA6", "MIN_TIME": 14, "inspectCost": 1, "startTime": "Fri Sep 01 2023 16:54:58 GMT+0200 (South Africa Standard Time)", "bonusRate": 0.002, "variance": "1_2_4_8_44", "branching": "31123"}, "final_score": -265.4}, "eventdata": [{"eventtype": "initialized", "value": null, "timestamp": 1693580097413, "interval": 0}, {"eventtype": "window_resize", "value": [1024, 654], "timestamp": 1693580097413, "interval": 0}, {"eventtype": "window_resize", "value": [1024, 654], "timestamp": 1693580098408, "interval": 995}, {"eventtype": "window_resize", "value": [1366, 768], "timestamp": 1693580122667, "interval": 24259}, {"eventtype": "focus", "value": "off", "timestamp": 1693581738065, "interval": 1615398}, {"eventtype": "focus", "value": "on", "timestamp": 1693581738065, "interval": 0}, {"eventtype": "window_resize", "value": [1024, 654], "timestamp": 1693581738280, "interval": 215}, {"eventtype": "window_resize", "value": [1366, 768], "timestamp": 1693581741090, "interval": 2810}, {"eventtype": "focus", "value": "off", "timestamp": 1693583191574, "interval": 1450484}, {"eventtype": "focus", "value": "on", "timestamp": 1693583191574, "interval": 0}, {"eventtype": "window_resize", "value": [1024, 654], "timestamp": 1693583191789, "interval": 215}, {"eventtype": "window_resize", "value": [1366, 768], "timestamp": 1693583194146, "interval": 2357}, {"eventtype": "window_resize", "value": [1024, 654], "timestamp": 1693585145817, "interval": 1951671}], "useragent": "Mozilla/5.0 (Windows NT 10.0; Win64; x64) AppleWebKit/537.36 (KHTML, like Gecko) Chrome/116.0.0.0 Safari/537.36", "mode": "live", "id": "w99417933:a35868854", "status": "user data saved", "Beginhit": "2023-09-01 14:54:49.360922", "Beginexp": "2023-09-01 14:55:23.281685", "Endhit": "2023-09-01 16:19:09.938129", "psiturkStatus": 3, "browser": "<redacted>", "platform": "windows", "language": "en-US", "excludeReason": "exceededTime"}