{"condition": 1, "counterbalance": 0, "assignmentId": "a86161874", "workerId": "w68022550", "hitId": "h96448356", "currenttrial": 56, "bonus": 0, "data": [{"uniqueid": "w68022550:a86161874", "current_trial": 0, "dateTime": 1693564712716, "trialdata": {"success": true, "trial_type": "fullscreen", "trial_index": 0, "time_elapsed": 7164, "internal_node_id": "0.0-0.0"}}, {"uniqueid": "w68022550:a86161874", "current_trial": 1, "dateTime": 1693564774165, "trialdata": {"view_history": [{"page_index": 0, "viewing_time": 61428}], "rt": 61434, "trial_id": "exp_instructions_misaligned", "trial_type": "instructions", "trial_index": 1, "time_elapsed": 68614, "internal_node_id": "0.0-1.0"}}, {"uniqueid": "w68022550:a86161874", "current_trial": 2, "dateTime": 1693565014632, "trialdata": {"view_history": [{"page_index": 0, "viewing_time": 66650}, {"page_index": 1, "viewing_time": 133984}, {"page_index": 2, "viewing_time": 14087}, {"page_index": 3, "viewing_time": 25744}], "rt": 240467, "trial_id": "mouselab_instructions_1_misaligned", "trial_type": "instructions", "trial_index": 2, "time_elapsed": 309081, "internal_node_id": "0.0-2.0-1.0"}}, {"uniqueid": "w68022550:a86161874", "current_trial": 3, "dateTime": 1693565057743, "trialdata": {"revealed_states": [], "clicked_states": ["12"], "num_clicks_accrued": [0, 0, 0, 0, 0, 0, 0, 0, 0, 0, 0, 0, 0], "stateRewards": ["", -10, 10, 10, 10, 10, -10, 10, -10, 10, 10, -10, 10, 10, 10, -10, -10, 10, 10, -10, 10, -10, -10, 10, 10, -10, 10, -10, 10, 10, -10, 10, 10, 10], "withholdReward": false, "trial_id": "practice_1", "block": "test", "trialIndex": 0, "score": 33, "costs": -0.5, "simulationMode": [null, null, null, null, null], "rewards": [10, 10, 10, -10, 10], "path": ["0", "0", "12", "13", "14", "15", "17"], "rt": [23544, 4168, 1363, 1586, 111], "actions": ["right", "right", "right", "up", "right"], "actionTimes": [28112, 32787, 34663, 36753, 37376], "queries": {"click": {"state": {"target": ["12"], "time": [8137]}, "edge": {"target": [], "time": []}}, "mouseover": {"state": {"target": ["0", "12", "12", "0", "12"], "time": [7465, 7582, 16215, 17699, 18282]}, "edge": {"target": [], "time": []}}, "mouseout": {"state": {"target": ["0", "0", "12", "12", "0", "12"], "time": [3781, 7498, 10396, 16733, 18015, 23401]}, "edge": {"target": [], "time": []}}}, "displayed_time": "37.90", "trialTime": 41875, "trial_type": "mouselab-mdp", "trial_index": 3, "time_elapsed": 352191, "internal_node_id": "0.0-2.0-2.0-0.0"}}, {"uniqueid": "w68022550:a86161874", "current_trial": 4, "dateTime": 1693565076294, "trialdata": {"revealed_states": [], "clicked_states": [], "num_clicks_accrued": [0, 0, 0, 0, 0, 0, 0, 0, 0, 0, 0, 0, 0], "stateRewards": ["", -10, 10, 10, -10, 10, 10, 10, -10, -10, -10, -10, 10, 10, -10, 10, 10, 10, -10, -10, 10, 10, 10, 10, -10, -10, -10, 10, -10, 10, -10, 10, 10, 10], "withholdReward": false, "trial_id": "practice_2", "block": "test", "trialIndex": 1, "score": -6.5, "costs": 0, "simulationMode": [null, null, null, null, null], "rewards": [10, -10, -10, -10, 10], "path": ["0", "0", "23", "24", "25", "30", "31"], "rt": [5976, 245, 158, 1109, 495], "actions": ["left", "left", "left", "down", "right"], "actionTimes": [9809, 10556, 11217, 12836, 13836], "queries": {"click": {"state": {"target": [], "time": []}, "edge": {"target": [], "time": []}}, "mouseover": {"state": {"target": [], "time": []}, "edge": {"target": [], "time": []}}, "mouseout": {"state": {"target": [], "time": []}, "edge": {"target": [], "time": []}}}, "displayed_time": "14.34", "trialTime": 17855, "trial_type": "mouselab-mdp", "trial_index": 4, "time_elapsed": 370740, "internal_node_id": "0.0-2.0-2.0-1.0"}}, {"uniqueid": "w68022550:a86161874", "current_trial": 5, "dateTime": 1693565094393, "trialdata": {"view_history": [{"page_index": 0, "viewing_time": 5649}, {"page_index": 1, "viewing_time": 12440}], "rt": 18090, "trial_id": "mouselab_instructions_2_misaligned", "trial_type": "instructions", "trial_index": 5, "time_elapsed": 388842, "internal_node_id": "0.0-2.0-3.0"}}, {"uniqueid": "w68022550:a86161874", "current_trial": 6, "dateTime": 1693565142684, "trialdata": {"rt": 48278, "response": {"Q0": "The cost for clicking on nodes may vary between nodes.", "Q1": "The better I perform the higher my bonus will be.", "Q2": "No, the amount of cash at each node of the web may be different each time.", "Q3": "To get the highest total score.", "Q4": "Only before moving the spider.", "Q5": "3 seconds"}, "question_order": [0, 1, 2, 3, 4, 5], "correct": {"Q0": "The cost for clicking on nodes may vary between nodes.", "Q1": "The better I perform the higher my bonus will be.", "Q2": "No, the amount of cash at each node of the web may be different each time.", "Q3": "To get the highest total score.", "Q4": "Only before moving the spider.", "Q5": "3 seconds"}, "trial_id": "mouselab_quiz_misaligned", "trial_type": "survey-multi-choice", "trial_index": 6, "time_elapsed": 437133, "internal_node_id": "0.0-2.0-4.0"}}, {"uniqueid": "w68022550:a86161874", "current_trial": 7, "dateTime": 1693565149426, "trialdata": {"rt": 6725, "response": {"Q0": "No"}, "question_order": [0], "trial_id": "repeat_check", "trial_type": "survey-multi-choice", "trial_index": 7, "time_elapsed": 443874, "internal_node_id": "0.0-4.0-0.0"}}, {"uniqueid": "w68022550:a86161874", "current_trial": 8, "dateTime": 1693565163174, "trialdata": {"rt": 13725, "stimulus": "\n<h1> Get ready to start the game! </h1>\n\nThank you for reading the instructions. Get ready start with the 40 rounds of this game.\n<br><br>\nIf you need to take a break, feel free to take one after the end of a round, before continuing to the next one.\n<br><br>\nRemember, the more money the spider gets, the bigger your bonus will be!\n<br><br>\n<div style='text-align: center;'>Press <code>space</code> to begin.</div>\n\n<br><br>\n(If, at any point, the <code>space</code> key does not take you to the next page, click once on the text and try again.)", "response": " ", "trial_id": "mdp_ready", "trial_type": "html-keyboard-response", "trial_index": 8, "time_elapsed": 457623, "internal_node_id": "0.0-6.0-0.0"}}, {"uniqueid": "w68022550:a86161874", "current_trial": 9, "dateTime": 1693565183903, "trialdata": {"revealed_states": [], "clicked_states": [], "num_clicks_accrued": [0, 0, 0, 0, 0, 0, 0, 0, 0, 0, 0, 0, 0], "stateRewards": ["", -2, 2, -5, 1, 42, -63, -58, -6, 2, 16, 81, -2, 4, 7, -10, 33, 3, -33, -2, -52, -84, -27, 2, -3, -3, 15, -74, -14, -5, -5, -84, 79, -31], "withholdReward": false, "trial_id": "mdp_trial_1", "block": "test", "trialIndex": 2, "score": -62, "costs": 0, "simulationMode": [null, null, null, null, null], "rewards": [-2, 2, -5, 1, -58], "path": ["0", "0", "1", "2", "3", "4", "7"], "rt": [1833, 655, 897, 125, 31], "actions": ["up", "up", "up", "right", "down"], "actionTimes": [5407, 6573, 7970, 8599, 9136], "queries": {"click": {"state": {"target": [], "time": []}, "edge": {"target": [], "time": []}}, "mouseover": {"state": {"target": [], "time": []}, "edge": {"target": [], "time": []}}, "mouseout": {"state": {"target": ["0", "0"], "time": [1351, 1951]}, "edge": {"target": [], "time": []}}}, "displayed_time": "17.58", "trialTime": 20054, "trial_type": "mouselab-mdp", "trial_index": 9, "time_elapsed": 478350, "internal_node_id": "0.0-6.0-1.0-0.0"}}, {"uniqueid": "w68022550:a86161874", "current_trial": 10, "dateTime": 1693565207068, "trialdata": {"revealed_states": [], "clicked_states": [], "num_clicks_accrued": [0, 0, 0, 0, 0, 0, 0, 0, 0, 0, 0, 0, 0], "stateRewards": ["", 1, 1, 5, 6, -29, -7, 3, -16, 9, -46, 65, -1, 4, -1, -16, -63, -77, -87, 8, 80, -50, 43, -1, -1, -5, 5, -38, -71, -62, 9, 81, -50, -52], "withholdReward": false, "trial_id": "mdp_trial_2", "block": "test", "trialIndex": 3, "score": -101, "costs": 0, "simulationMode": [null, null, null, null, null], "rewards": [-1, 4, -1, -16, -87], "path": ["0", "0", "12", "13", "14", "15", "18"], "rt": [386, 481, 258, 169, 766], "actions": ["right", "right", "right", "up", "left"], "actionTimes": [5171, 6154, 6914, 7591, 8870], "queries": {"click": {"state": {"target": [], "time": []}, "edge": {"target": [], "time": []}}, "mouseover": {"state": {"target": [], "time": []}, "edge": {"target": [], "time": []}}, "mouseout": {"state": {"target": ["0", "0"], "time": [4327, 13413]}, "edge": {"target": [], "time": []}}}, "displayed_time": "18.79", "trialTime": 22390, "trial_type": "mouselab-mdp", "trial_index": 10, "time_elapsed": 501515, "internal_node_id": "0.0-6.0-1.0-1.0"}}, {"uniqueid": "w68022550:a86161874", "current_trial": 11, "dateTime": 1693565225919, "trialdata": {"revealed_states": [], "clicked_states": [], "num_clicks_accrued": [0, 0, 0, 0, 0, 0, 0, 0, 0, 0, 0, 0, 0], "stateRewards": ["", -2, -4, 2, 10, -17, 18, 73, 11, -32, 23, -13, -2, -4, 7, 12, -25, 66, -23, 15, 40, -76, -9, 1, 2, -7, -5, -20, 24, 3, -5, 16, -73, 70], "withholdReward": false, "trial_id": "mdp_trial_3", "block": "test", "trialIndex": 4, "score": -60, "costs": 0, "simulationMode": [null, null, null, null, null], "rewards": [-2, -4, 7, 15, -76], "path": ["0", "0", "12", "13", "14", "19", "21"], "rt": [687, 484, 466, 37, 290], "actions": ["right", "right", "right", "down", "down"], "actionTimes": [1593, 2590, 3553, 4089, 4902], "queries": {"click": {"state": {"target": [], "time": []}, "edge": {"target": [], "time": []}}, "mouseover": {"state": {"target": [], "time": []}, "edge": {"target": [], "time": []}}, "mouseout": {"state": {"target": ["0"], "time": [432]}, "edge": {"target": [], "time": []}}}, "displayed_time": "14.91", "trialTime": 18128, "trial_type": "mouselab-mdp", "trial_index": 11, "time_elapsed": 520366, "internal_node_id": "0.0-6.0-1.0-2.0"}}, {"uniqueid": "w68022550:a86161874", "current_trial": 12, "dateTime": 1693565245894, "trialdata": {"revealed_states": [], "clicked_states": [], "num_clicks_accrued": [0, 0, 0, 0, 0, 0, 0, 0, 0, 0, 0, 0, 0], "stateRewards": ["", 1, 4, 5, 8, -55, -11, 8, 16, -37, 77, -22, -2, 3, -8, -10, 45, 87, -67, 4, 17, -33, -22, -1, -3, 7, 6, -39, -85, 75, -1, 7, -48, 45], "withholdReward": false, "trial_id": "mdp_trial_4", "block": "test", "trialIndex": 5, "score": 47, "costs": 0, "simulationMode": [null, null, null, null, null], "rewards": [-1, -3, 7, -1, 45], "path": ["0", "0", "23", "24", "25", "30", "33"], "rt": [497, 710, 128, 779, 1230], "actions": ["left", "left", "left", "down", "left"], "actionTimes": [1482, 2820, 3447, 4747, 6494], "queries": {"click": {"state": {"target": [], "time": []}, "edge": {"target": [], "time": []}}, "mouseover": {"state": {"target": [], "time": []}, "edge": {"target": [], "time": []}}, "mouseout": {"state": {"target": ["0"], "time": [498]}, "edge": {"target": [], "time": []}}}, "displayed_time": "15.00", "trialTime": 19223, "trial_type": "mouselab-mdp", "trial_index": 12, "time_elapsed": 540341, "internal_node_id": "0.0-6.0-1.0-3.0"}}, {"uniqueid": "w68022550:a86161874", "current_trial": 13, "dateTime": 1693565268321, "trialdata": {"revealed_states": [], "clicked_states": [], "num_clicks_accrued": [0, 0, 0, 0, 0, 0, 0, 0, 0, 0, 0, 0, 0], "stateRewards": ["", 1, 2, -6, -13, -51, 22, -4, -12, -44, -12, 6, -2, -2, -2, -14, -46, -4, -77, -2, 36, -79, 41, 2, -4, 2, -6, -55, 59, 70, -5, 39, -19, 24], "withholdReward": false, "trial_id": "mdp_trial_5", "block": "test", "trialIndex": 6, "score": -24, "costs": 0, "simulationMode": [null, null, null, null, null], "rewards": [2, -4, 2, -5, -19], "path": ["0", "0", "23", "24", "25", "30", "32"], "rt": [2016, 75, 422, 721, 503], "actions": ["left", "left", "left", "down", "down"], "actionTimes": [3555, 4151, 5097, 6337, 7360], "queries": {"click": {"state": {"target": [], "time": []}, "edge": {"target": [], "time": []}}, "mouseover": {"state": {"target": [], "time": []}, "edge": {"target": [], "time": []}}, "mouseout": {"state": {"target": ["0"], "time": [494]}, "edge": {"target": [], "time": []}}}, "displayed_time": "15.55", "trialTime": 21645, "trial_type": "mouselab-mdp", "trial_index": 13, "time_elapsed": 562768, "internal_node_id": "0.0-6.0-1.0-4.0"}}, {"uniqueid": "w68022550:a86161874", "current_trial": 14, "dateTime": 1693565287058, "trialdata": {"revealed_states": [], "clicked_states": [], "num_clicks_accrued": [0, 0, 0, 0, 0, 0, 0, 0, 0, 0, 0, 0, 0], "stateRewards": ["", -2, 1, 6, -2, -10, -78, -69, 14, -15, 7, -1, 1, -1, -2, 13, 77, 32, 87, 5, -74, 30, -26, 1, 3, 4, 12, 39, 54, -43, 2, 10, 23, 13], "withholdReward": false, "trial_id": "mdp_trial_6", "block": "test", "trialIndex": 7, "score": -7, "costs": 0, "simulationMode": [null, null, null, null, null], "rewards": [-2, 1, 6, -2, -10], "path": ["0", "0", "1", "2", "3", "4", "5"], "rt": [1680, 484, 399, 14, 1722], "actions": ["up", "up", "up", "right", "up"], "actionTimes": [2570, 3559, 4457, 4972, 7229], "queries": {"click": {"state": {"target": [], "time": []}, "edge": {"target": [], "time": []}}, "mouseover": {"state": {"target": [], "time": []}, "edge": {"target": [], "time": []}}, "mouseout": {"state": {"target": ["0"], "time": [373]}, "edge": {"target": [], "time": []}}}, "displayed_time": "14.89", "trialTime": 17887, "trial_type": "mouselab-mdp", "trial_index": 14, "time_elapsed": 581505, "internal_node_id": "0.0-6.0-1.0-5.0"}}, {"uniqueid": "w68022550:a86161874", "current_trial": 15, "dateTime": 1693565307412, "trialdata": {"revealed_states": [], "clicked_states": [], "num_clicks_accrued": [0, 0, 0, 0, 0, 0, 0, 0, 0, 0, 0, 0, 0], "stateRewards": ["", -1, 3, -5, -2, -13, -9, -34, -7, -81, 32, 35, -2, -2, 1, -14, -32, 81, 7, 4, 82, 56, -8, -1, 3, -8, 6, -24, -24, -53, 2, 38, 61, 54], "withholdReward": false, "trial_id": "mdp_trial_7", "block": "test", "trialIndex": 8, "score": 83, "costs": 0, "simulationMode": [null, null, null, null, null], "rewards": [-2, -2, 1, 4, 82], "path": ["0", "0", "12", "13", "14", "19", "20"], "rt": [1463, 757, 348, 209, 1470], "actions": ["right", "right", "right", "down", "right"], "actionTimes": [2590, 3858, 4736, 5467, 7438], "queries": {"click": {"state": {"target": [], "time": []}, "edge": {"target": [], "time": []}}, "mouseover": {"state": {"target": [], "time": []}, "edge": {"target": [], "time": []}}, "mouseout": {"state": {"target": ["0"], "time": [603]}, "edge": {"target": [], "time": []}}}, "displayed_time": "15.14", "trialTime": 19491, "trial_type": "mouselab-mdp", "trial_index": 15, "time_elapsed": 601859, "internal_node_id": "0.0-6.0-1.0-6.0"}}, {"uniqueid": "w68022550:a86161874", "current_trial": 16, "dateTime": 1693565330493, "trialdata": {"revealed_states": [], "clicked_states": [], "num_clicks_accrued": [0, 0, 0, 0, 0, 0, 0, 0, 0, 0, 0, 0, 0], "stateRewards": ["", -1, 1, 3, -8, -23, -15, -14, -11, -23, 58, 68, 1, 3, 5, 12, -17, -41, -7, -10, -4, 82, 10, 1, 4, -4, 11, 73, 55, -55, -1, -86, -86, 54], "withholdReward": false, "trial_id": "mdp_trial_8", "block": "test", "trialIndex": 9, "score": 54, "costs": 0, "simulationMode": [null, null, null, null, null], "rewards": [1, 4, -4, -1, 54], "path": ["0", "0", "23", "24", "25", "30", "33"], "rt": [9022, 329, 35, 118, 803], "actions": ["left", "left", "left", "down", "left"], "actionTimes": [10471, 11319, 11867, 12523, 13825], "queries": {"click": {"state": {"target": [], "time": []}, "edge": {"target": [], "time": []}}, "mouseover": {"state": {"target": [], "time": []}, "edge": {"target": [], "time": []}}, "mouseout": {"state": {"target": ["0"], "time": [866]}, "edge": {"target": [], "time": []}}}, "displayed_time": "15.45", "trialTime": 22234, "trial_type": "mouselab-mdp", "trial_index": 16, "time_elapsed": 624940, "internal_node_id": "0.0-6.0-1.0-7.0"}}, {"uniqueid": "w68022550:a86161874", "current_trial": 17, "dateTime": 1693565350915, "trialdata": {"revealed_states": [], "clicked_states": [], "num_clicks_accrued": [0, 0, 0, 0, 0, 0, 0, 0, 0, 0, 0, 0, 0], "stateRewards": ["", 2, -1, 8, -2, -16, 69, -39, -7, -13, -27, -86, 2, -2, 2, 13, -34, -16, -20, -5, 19, 81, 32, -2, -1, 2, -14, 20, 80, 58, 4, 70, 12, 73], "withholdReward": false, "trial_id": "mdp_trial_9", "block": "test", "trialIndex": 10, "score": 16, "costs": 0, "simulationMode": [null, null, null, null, null], "rewards": [2, -2, 2, -5, 19], "path": ["0", "0", "12", "13", "14", "19", "20"], "rt": [5328, 439, 176, 276, 414], "actions": ["right", "right", "right", "down", "right"], "actionTimes": [8233, 9189, 9871, 10655, 11576], "queries": {"click": {"state": {"target": [], "time": []}, "edge": {"target": [], "time": []}}, "mouseover": {"state": {"target": [], "time": []}, "edge": {"target": [], "time": []}}, "mouseout": {"state": {"target": ["0"], "time": [2315]}, "edge": {"target": [], "time": []}}}, "displayed_time": "16.91", "trialTime": 19615, "trial_type": "mouselab-mdp", "trial_index": 17, "time_elapsed": 645362, "internal_node_id": "0.0-6.0-1.0-8.0"}}, {"uniqueid": "w68022550:a86161874", "current_trial": 18, "dateTime": 1693565370593, "trialdata": {"revealed_states": [], "clicked_states": [], "num_clicks_accrued": [0, 0, 0, 0, 0, 0, 0, 0, 0, 0, 0, 0, 0], "stateRewards": ["", 2, 3, 6, -12, -29, 12, 87, 4, 35, -30, 67, 2, 3, -5, -9, 44, 69, -8, 1, 45, -8, 28, -2, -1, -8, 11, -12, -5, 81, 9, 87, 82, 88], "withholdReward": false, "trial_id": "mdp_trial_10", "block": "test", "trialIndex": 11, "score": 86, "costs": 0, "simulationMode": [null, null, null, null, null], "rewards": [-2, -1, -8, 9, 88], "path": ["0", "0", "23", "24", "25", "30", "33"], "rt": [528, 49, 74, 157, 737], "actions": ["left", "left", "left", "down", "left"], "actionTimes": [2046, 2601, 3208, 3895, 5138], "queries": {"click": {"state": {"target": [], "time": []}, "edge": {"target": [], "time": []}}, "mouseover": {"state": {"target": [], "time": []}, "edge": {"target": [], "time": []}}, "mouseout": {"state": {"target": ["0"], "time": [930]}, "edge": {"target": [], "time": []}}}, "displayed_time": "15.52", "trialTime": 18804, "trial_type": "mouselab-mdp", "trial_index": 18, "time_elapsed": 665040, "internal_node_id": "0.0-6.0-1.0-9.0"}}, {"uniqueid": "w68022550:a86161874", "current_trial": 19, "dateTime": 1693565467421, "trialdata": {"revealed_states": [], "clicked_states": [], "num_clicks_accrued": [0, 0, 0, 0, 0, 0, 0, 0, 0, 0, 0, 0, 0], "stateRewards": ["", -1, -4, -3, 1, -45, -67, -24, 14, 32, 22, 22, -1, 1, -5, -7, 72, 84, -79, -5, 19, -40, -2, -1, -2, 8, -3, 84, -25, -28, 11, 64, -66, 77], "withholdReward": false, "trial_id": "mdp_trial_11", "block": "test", "trialIndex": 12, "score": 93, "costs": 0, "simulationMode": [null, null, null, null, null], "rewards": [-1, -2, 8, 11, 77], "path": ["0", "0", "23", "24", "25", "30", "33"], "rt": [2416, 352, 149, 484, 376], "actions": ["left", "left", "left", "down", "left"], "actionTimes": [79598, 80465, 81129, 82115, 82988], "queries": {"click": {"state": {"target": [], "time": []}, "edge": {"target": [], "time": []}}, "mouseover": {"state": {"target": [], "time": []}, "edge": {"target": [], "time": []}}, "mouseout": {"state": {"target": ["0"], "time": [76574]}, "edge": {"target": [], "time": []}}}, "displayed_time": "93.19", "trialTime": 95867, "trial_type": "mouselab-mdp", "trial_index": 19, "time_elapsed": 761868, "internal_node_id": "0.0-6.0-1.0-10.0"}}, {"uniqueid": "w68022550:a86161874", "current_trial": 20, "dateTime": 1693565495391, "trialdata": {"revealed_states": [], "clicked_states": [], "num_clicks_accrued": [0, 0, 0, 0, 0, 0, 0, 0, 0, 0, 0, 0, 0], "stateRewards": ["", -2, 3, -1, 2, -72, 63, 20, -1, 62, -66, 39, -2, 3, -6, 14, 22, 47, 1, 8, -49, -1, -41, 2, 2, -6, -16, -64, -60, -34, 16, 54, 22, -7], "withholdReward": false, "trial_id": "mdp_trial_12", "block": "test", "trialIndex": 13, "score": -46, "costs": 0, "simulationMode": [null, null, null, null, null], "rewards": [-2, 3, -6, 8, -49], "path": ["0", "0", "12", "13", "14", "19", "20"], "rt": [1045, 319, 79, 539, 190], "actions": ["right", "right", "right", "down", "right"], "actionTimes": [3057, 3915, 4491, 5551, 6252], "queries": {"click": {"state": {"target": [], "time": []}, "edge": {"target": [], "time": []}}, "mouseover": {"state": {"target": [], "time": []}, "edge": {"target": [], "time": []}}, "mouseout": {"state": {"target": ["0"], "time": [900]}, "edge": {"target": [], "time": []}}}, "displayed_time": "16.02", "trialTime": 26911, "trial_type": "mouselab-mdp", "trial_index": 20, "time_elapsed": 789839, "internal_node_id": "0.0-6.0-1.0-11.0"}}, {"uniqueid": "w68022550:a86161874", "current_trial": 21, "dateTime": 1693565518277, "trialdata": {"revealed_states": [], "clicked_states": [], "num_clicks_accrued": [0, 0, 0, 0, 0, 0, 0, 0, 0, 0, 0, 0, 0], "stateRewards": ["", 1, -1, -7, -7, -22, 15, -13, 13, 26, -32, 38, -1, 1, -7, -4, 16, -62, 86, 12, -54, 56, 64, -2, -1, 6, 14, -57, 37, 62, -6, -25, 50, -70], "withholdReward": false, "trial_id": "mdp_trial_13", "block": "test", "trialIndex": 14, "score": -73, "costs": 0, "simulationMode": [null, null, null, null, null], "rewards": [-2, -1, 6, -6, -70], "path": ["0", "0", "23", "24", "25", "30", "33"], "rt": [523, 436, 164, 246, 90], "actions": ["left", "left", "left", "down", "left"], "actionTimes": [3294, 4240, 4899, 5648, 6254], "queries": {"click": {"state": {"target": [], "time": []}, "edge": {"target": [], "time": []}}, "mouseover": {"state": {"target": [], "time": []}, "edge": {"target": [], "time": []}}, "mouseout": {"state": {"target": ["0"], "time": [2154]}, "edge": {"target": [], "time": []}}}, "displayed_time": "16.78", "trialTime": 21792, "trial_type": "mouselab-mdp", "trial_index": 21, "time_elapsed": 812724, "internal_node_id": "0.0-6.0-1.0-12.0"}}, {"uniqueid": "w68022550:a86161874", "current_trial": 22, "dateTime": 1693565538657, "trialdata": {"revealed_states": [], "clicked_states": [], "num_clicks_accrued": [0, 0, 0, 0, 0, 0, 0, 0, 0, 0, 0, 0, 0], "stateRewards": ["", -1, -4, -1, -5, -28, -23, -15, -15, -38, 59, -87, 2, 2, -5, 9, -55, -39, -71, -6, 85, -85, -11, -1, -2, 5, -10, 1, 25, 41, -4, 69, -35, 86], "withholdReward": false, "trial_id": "mdp_trial_14", "block": "test", "trialIndex": 15, "score": -34, "costs": 0, "simulationMode": [null, null, null, null, null], "rewards": [-1, -4, -1, -5, -23], "path": ["0", "0", "1", "2", "3", "4", "6"], "rt": [849, 512, 98, 1260, 106], "actions": ["up", "up", "up", "right", "right"], "actionTimes": [2655, 3717, 4320, 6082, 6694], "queries": {"click": {"state": {"target": [], "time": []}, "edge": {"target": [], "time": []}}, "mouseover": {"state": {"target": [], "time": []}, "edge": {"target": [], "time": []}}, "mouseout": {"state": {"target": ["0"], "time": [703]}, "edge": {"target": [], "time": []}}}, "displayed_time": "15.81", "trialTime": 19350, "trial_type": "mouselab-mdp", "trial_index": 22, "time_elapsed": 833104, "internal_node_id": "0.0-6.0-1.0-13.0"}}, {"uniqueid": "w68022550:a86161874", "current_trial": 23, "dateTime": 1693565567590, "trialdata": {"revealed_states": [], "clicked_states": [], "num_clicks_accrued": [0, 0, 0, 0, 0, 0, 0, 0, 0, 0, 0, 0, 0], "stateRewards": ["", -2, 1, -7, -8, -37, -76, -87, 11, 30, -63, 80, -1, 4, 2, -1, 42, 17, 52, -3, -75, -80, -68, 2, -3, -5, -15, -48, 82, 24, -7, 5, -22, -71], "withholdReward": false, "trial_id": "mdp_trial_15", "block": "test", "trialIndex": 16, "score": -53, "costs": 0, "simulationMode": [null, null, null, null, null], "rewards": [-2, 1, -7, -8, -37], "path": ["0", "0", "1", "2", "3", "4", "5"], "rt": [3963, 1480, 498, 1236, 2106], "actions": ["up", "up", "up", "right", "up"], "actionTimes": [11679, 13691, 14731, 16465, 19068], "queries": {"click": {"state": {"target": [], "time": []}, "edge": {"target": [], "time": []}}, "mouseover": {"state": {"target": [], "time": []}, "edge": {"target": [], "time": []}}, "mouseout": {"state": {"target": ["0"], "time": [7071]}, "edge": {"target": [], "time": []}}}, "displayed_time": "21.72", "trialTime": 27698, "trial_type": "mouselab-mdp", "trial_index": 23, "time_elapsed": 862038, "internal_node_id": "0.0-6.0-1.0-14.0"}}, {"uniqueid": "w68022550:a86161874", "current_trial": 24, "dateTime": 1693565594045, "trialdata": {"revealed_states": [], "clicked_states": [], "num_clicks_accrued": [0, 0, 0, 0, 0, 0, 0, 0, 0, 0, 0, 0, 0], "stateRewards": ["", -2, 4, -7, -3, -76, 39, -28, 10, 14, 12, 60, 2, -3, 6, -10, 88, -34, -41, -3, 72, -13, -56, 1, 3, 2, 8, -51, 23, -57, 1, 14, -46, -16], "withholdReward": false, "trial_id": "mdp_trial_16", "block": "test", "trialIndex": 17, "score": 74, "costs": 0, "simulationMode": [null, null, null, null, null], "rewards": [2, -3, 6, -3, 72], "path": ["0", "0", "12", "13", "14", "19", "20"], "rt": [2583, 270, 4, 323, 180], "actions": ["right", "right", "right", "down", "right"], "actionTimes": [12099, 12931, 13433, 14284, 15005], "queries": {"click": {"state": {"target": [], "time": []}, "edge": {"target": [], "time": []}}, "mouseover": {"state": {"target": [], "time": []}, "edge": {"target": [], "time": []}}, "mouseout": {"state": {"target": ["0"], "time": [8846]}, "edge": {"target": [], "time": []}}}, "displayed_time": "23.52", "trialTime": 25344, "trial_type": "mouselab-mdp", "trial_index": 24, "time_elapsed": 888492, "internal_node_id": "0.0-6.0-1.0-15.0"}}, {"uniqueid": "w68022550:a86161874", "current_trial": 25, "dateTime": 1693565626695, "trialdata": {"revealed_states": [], "clicked_states": [], "num_clicks_accrued": [0, 0, 0, 0, 0, 0, 0, 0, 0, 0, 0, 0, 0], "stateRewards": ["", 1, 3, 1, -13, 52, -28, 67, -14, 3, 63, -70, -1, -4, 7, -11, -10, 47, -18, 6, 69, -9, -61, 2, 3, -6, 10, 63, -34, 40, -6, -79, -35, -32], "withholdReward": false, "trial_id": "mdp_trial_17", "block": "test", "trialIndex": 18, "score": -39, "costs": 0, "simulationMode": [null, null, null, null, null], "rewards": [2, 3, -6, -6, -32], "path": ["0", "0", "23", "24", "25", "30", "33"], "rt": [1085, 411, 90, 321, 104], "actions": ["left", "left", "left", "down", "left"], "actionTimes": [3566, 4494, 5089, 5927, 6535], "queries": {"click": {"state": {"target": [], "time": []}, "edge": {"target": [], "time": []}}, "mouseover": {"state": {"target": [], "time": []}, "edge": {"target": [], "time": []}}, "mouseout": {"state": {"target": ["0"], "time": [1809]}, "edge": {"target": [], "time": []}}}, "displayed_time": "16.48", "trialTime": 31473, "trial_type": "mouselab-mdp", "trial_index": 25, "time_elapsed": 921143, "internal_node_id": "0.0-6.0-1.0-16.0"}}, {"uniqueid": "w68022550:a86161874", "current_trial": 26, "dateTime": 1693565650675, "trialdata": {"revealed_states": [], "clicked_states": [], "num_clicks_accrued": [0, 0, 0, 0, 0, 0, 0, 0, 0, 0, 0, 0, 0], "stateRewards": ["", -2, -1, 3, -3, 71, -58, -21, 7, -10, -75, -37, 2, 4, -1, -12, -79, -29, -48, 3, -41, -10, -30, -1, -2, 1, -15, 13, 66, 22, -1, -42, -86, -55], "withholdReward": false, "trial_id": "mdp_trial_18", "block": "test", "trialIndex": 19, "score": -33, "costs": 0, "simulationMode": [null, null, null, null, null], "rewards": [2, 4, -1, 3, -41], "path": ["0", "0", "12", "13", "14", "19", "20"], "rt": [663, 4, 196, 289, 817], "actions": ["right", "right", "right", "down", "right"], "actionTimes": [2582, 3119, 3858, 4652, 5979], "queries": {"click": {"state": {"target": [], "time": []}, "edge": {"target": [], "time": []}}, "mouseover": {"state": {"target": [], "time": []}, "edge": {"target": [], "time": []}}, "mouseout": {"state": {"target": ["0"], "time": [1250]}, "edge": {"target": [], "time": []}}}, "displayed_time": "15.93", "trialTime": 22938, "trial_type": "mouselab-mdp", "trial_index": 26, "time_elapsed": 945122, "internal_node_id": "0.0-6.0-1.0-17.0"}}, {"uniqueid": "w68022550:a86161874", "current_trial": 27, "dateTime": 1693565681932, "trialdata": {"revealed_states": [], "clicked_states": [], "num_clicks_accrued": [0, 0, 0, 0, 0, 0, 0, 0, 0, 0, 0, 0, 0], "stateRewards": ["", -2, 3, 3, -14, 62, 36, 49, 16, 11, 17, -84, 2, -1, 6, 2, -82, -73, 49, -6, -87, 48, 50, -1, -2, -1, -16, -11, 37, -44, 4, 55, 73, -10], "withholdReward": false, "trial_id": "mdp_trial_19", "block": "test", "trialIndex": 20, "score": 26, "costs": 0, "simulationMode": [null, null, null, null, null], "rewards": [-2, 3, 3, -14, 36], "path": ["0", "0", "1", "2", "3", "4", "6"], "rt": [414, 200, 19, 83, 2120], "actions": ["up", "up", "up", "right", "right"], "actionTimes": [6619, 7333, 7848, 8463, 11100], "queries": {"click": {"state": {"target": [], "time": []}, "edge": {"target": [], "time": []}}, "mouseover": {"state": {"target": [], "time": []}, "edge": {"target": [], "time": []}}, "mouseout": {"state": {"target": ["0"], "time": [4929]}, "edge": {"target": [], "time": []}}}, "displayed_time": "20.21", "trialTime": 30187, "trial_type": "mouselab-mdp", "trial_index": 27, "time_elapsed": 976380, "internal_node_id": "0.0-6.0-1.0-18.0"}}, {"uniqueid": "w68022550:a86161874", "current_trial": 28, "dateTime": 1693565700885, "trialdata": {"revealed_states": [], "clicked_states": [], "num_clicks_accrued": [0, 0, 0, 0, 0, 0, 0, 0, 0, 0, 0, 0, 0], "stateRewards": ["", 1, -2, -8, -3, 31, -84, -55, -14, 15, -58, 17, -2, -3, 7, 7, -12, 48, 67, 4, -44, -68, 46, 2, 3, -5, -7, 76, 27, 5, 11, 57, 52, 59], "withholdReward": false, "trial_id": "mdp_trial_20", "block": "test", "trialIndex": 21, "score": -6, "costs": 0, "simulationMode": [null, null, null, null, null], "rewards": [1, -2, -8, -14, 17], "path": ["0", "0", "1", "2", "3", "8", "11"], "rt": [478, 149, 72, 174, 148], "actions": ["up", "up", "up", "left", "left"], "actionTimes": [2626, 4095, 4681, 5380, 6037], "queries": {"click": {"state": {"target": [], "time": []}, "edge": {"target": [], "time": []}}, "mouseover": {"state": {"target": [], "time": []}, "edge": {"target": [], "time": []}}, "mouseout": {"state": {"target": ["0"], "time": [1541]}, "edge": {"target": [], "time": []}}}, "displayed_time": "16.15", "trialTime": 17893, "trial_type": "mouselab-mdp", "trial_index": 28, "time_elapsed": 995333, "internal_node_id": "0.0-6.0-1.0-19.0"}}, {"uniqueid": "w68022550:a86161874", "current_trial": 29, "dateTime": 1693565725573, "trialdata": {"revealed_states": [], "clicked_states": [], "num_clicks_accrued": [0, 0, 0, 0, 0, 0, 0, 0, 0, 0, 0, 0, 0], "stateRewards": ["", -1, -4, -6, -15, 21, -67, -63, 9, 51, 69, -14, -1, 3, 8, -8, 39, 72, 63, 15, 19, 47, 15, 1, 4, 5, 16, -18, 34, 35, -14, -80, 40, 1], "withholdReward": false, "trial_id": "mdp_trial_21", "block": "test", "trialIndex": 22, "score": 44, "costs": 0, "simulationMode": [null, null, null, null, null], "rewards": [-1, 3, 8, 15, 19], "path": ["0", "0", "12", "13", "14", "19", "20"], "rt": [1030, 395, 110, 77, 14], "actions": ["right", "right", "right", "down", "right"], "actionTimes": [3606, 4516, 5129, 5712, 6249], "queries": {"click": {"state": {"target": [], "time": []}, "edge": {"target": [], "time": []}}, "mouseover": {"state": {"target": [], "time": []}, "edge": {"target": [], "time": []}}, "mouseout": {"state": {"target": ["0"], "time": [1867]}, "edge": {"target": [], "time": []}}}, "displayed_time": "16.58", "trialTime": 23679, "trial_type": "mouselab-mdp", "trial_index": 29, "time_elapsed": 1020020, "internal_node_id": "0.0-6.0-1.0-20.0"}}, {"uniqueid": "w68022550:a86161874", "current_trial": 30, "dateTime": 1693565752114, "trialdata": {"revealed_states": [], "clicked_states": [], "num_clicks_accrued": [0, 0, 0, 0, 0, 0, 0, 0, 0, 0, 0, 0, 0], "stateRewards": ["", -2, 2, 2, -6, 9, 37, 50, -13, -7, -18, -75, -2, -4, 4, 7, 23, -57, -66, -7, -81, -48, -76, 1, 1, -8, 1, 51, -2, 70, 14, 59, 71, -37], "withholdReward": false, "trial_id": "mdp_trial_22", "block": "test", "trialIndex": 23, "score": -29, "costs": 0, "simulationMode": [null, null, null, null, null], "rewards": [1, 1, -8, 14, -37], "path": ["0", "0", "23", "24", "25", "30", "33"], "rt": [480, 504, 157, 465, 388], "actions": ["left", "left", "left", "down", "left"], "actionTimes": [2305, 3311, 3979, 4971, 5860], "queries": {"click": {"state": {"target": [], "time": []}, "edge": {"target": [], "time": []}}, "mouseover": {"state": {"target": [], "time": []}, "edge": {"target": [], "time": []}}, "mouseout": {"state": {"target": ["0"], "time": [1273]}, "edge": {"target": [], "time": []}}}, "displayed_time": "15.83", "trialTime": 25449, "trial_type": "mouselab-mdp", "trial_index": 30, "time_elapsed": 1046562, "internal_node_id": "0.0-6.0-1.0-21.0"}}, {"uniqueid": "w68022550:a86161874", "current_trial": 31, "dateTime": 1693565775879, "trialdata": {"revealed_states": [], "clicked_states": [], "num_clicks_accrued": [0, 0, 0, 0, 0, 0, 0, 0, 0, 0, 0, 0, 0], "stateRewards": ["", -1, 1, -6, -1, 80, 23, 2, -11, 73, -81, 59, 1, 3, 5, -1, -26, 28, -3, 16, -59, -13, -50, -2, -2, 2, 15, -50, 86, 17, -4, 37, 35, 44], "withholdReward": false, "trial_id": "mdp_trial_23", "block": "test", "trialIndex": 24, "score": -34, "costs": 0, "simulationMode": [null, null, null, null, null], "rewards": [1, 3, 5, 16, -59], "path": ["0", "0", "12", "13", "14", "19", "20"], "rt": [2994, 431, 181, 678, 282], "actions": ["right", "right", "right", "down", "right"], "actionTimes": [7283, 8275, 8962, 10142, 10930], "queries": {"click": {"state": {"target": [], "time": []}, "edge": {"target": [], "time": []}}, "mouseover": {"state": {"target": [], "time": []}, "edge": {"target": [], "time": []}}, "mouseout": {"state": {"target": ["0"], "time": [3658]}, "edge": {"target": [], "time": []}}}, "displayed_time": "18.30", "trialTime": 22828, "trial_type": "mouselab-mdp", "trial_index": 31, "time_elapsed": 1070326, "internal_node_id": "0.0-6.0-1.0-22.0"}}, {"uniqueid": "w68022550:a86161874", "current_trial": 32, "dateTime": 1693565800180, "trialdata": {"revealed_states": [], "clicked_states": [], "num_clicks_accrued": [0, 0, 0, 0, 0, 0, 0, 0, 0, 0, 0, 0, 0], "stateRewards": ["", 1, 2, -8, 9, 18, -83, -11, 6, -64, -48, 17, -2, -2, -5, -3, -24, -3, -86, -2, 48, -41, -22, -2, 4, 7, 8, 81, 13, -48, 10, 61, 19, 57], "withholdReward": false, "trial_id": "mdp_trial_24", "block": "test", "trialIndex": 25, "score": 76, "costs": 0, "simulationMode": [null, null, null, null, null], "rewards": [-2, 4, 7, 10, 57], "path": ["0", "0", "23", "24", "25", "30", "33"], "rt": [13704, 8, 242, 103, 147], "actions": ["left", "left", "left", "down", "left"], "actionTimes": [15464, 15979, 16765, 17374, 18031], "queries": {"click": {"state": {"target": [], "time": []}, "edge": {"target": [], "time": []}}, "mouseover": {"state": {"target": [], "time": []}, "edge": {"target": [], "time": []}}, "mouseout": {"state": {"target": ["0"], "time": [1216]}, "edge": {"target": [], "time": []}}}, "displayed_time": "18.53", "trialTime": 23262, "trial_type": "mouselab-mdp", "trial_index": 32, "time_elapsed": 1094629, "internal_node_id": "0.0-6.0-1.0-23.0"}}, {"uniqueid": "w68022550:a86161874", "current_trial": 33, "dateTime": 1693565819662, "trialdata": {"revealed_states": [], "clicked_states": [], "num_clicks_accrued": [0, 0, 0, 0, 0, 0, 0, 0, 0, 0, 0, 0, 0], "stateRewards": ["", 1, -2, -8, -13, 4, 34, -84, -4, -49, 88, -70, -1, 3, -4, 10, -77, 13, -34, 15, -21, -16, 27, 1, -2, 8, -8, -6, 38, -26, 6, -15, 66, -3], "withholdReward": false, "trial_id": "mdp_trial_25", "block": "test", "trialIndex": 26, "score": -8, "costs": 0, "simulationMode": [null, null, null, null, null], "rewards": [-1, 3, -4, 15, -21], "path": ["0", "0", "12", "13", "14", "19", "20"], "rt": [4331, 484, 381, 255, 48], "actions": ["right", "right", "right", "down", "right"], "actionTimes": [6888, 7876, 8758, 9514, 10073], "queries": {"click": {"state": {"target": [], "time": []}, "edge": {"target": [], "time": []}}, "mouseover": {"state": {"target": [], "time": []}, "edge": {"target": [], "time": []}}, "mouseout": {"state": {"target": ["0"], "time": [1821]}, "edge": {"target": [], "time": []}}}, "displayed_time": "16.57", "trialTime": 18418, "trial_type": "mouselab-mdp", "trial_index": 33, "time_elapsed": 1114109, "internal_node_id": "0.0-6.0-1.0-24.0"}}, {"uniqueid": "w68022550:a86161874", "current_trial": 34, "dateTime": 1693565838456, "trialdata": {"revealed_states": [], "clicked_states": [], "num_clicks_accrued": [0, 0, 0, 0, 0, 0, 0, 0, 0, 0, 0, 0, 0], "stateRewards": ["", 2, 4, 7, -6, -76, -81, 2, 5, -66, -3, 36, -2, -4, 6, -2, -69, 4, -49, -6, 67, 38, -67, 2, 1, 1, 6, -68, -21, 52, -16, -16, 6, -70], "withholdReward": false, "trial_id": "mdp_trial_26", "block": "test", "trialIndex": 27, "score": -82, "costs": 0, "simulationMode": [null, null, null, null, null], "rewards": [2, 1, 1, -16, -70], "path": ["0", "0", "23", "24", "25", "30", "33"], "rt": [1100, 628, 209, 1444, 700], "actions": ["left", "left", "left", "down", "left"], "actionTimes": [3195, 4370, 5084, 7036, 8241], "queries": {"click": {"state": {"target": [], "time": []}, "edge": {"target": [], "time": []}}, "mouseover": {"state": {"target": [], "time": []}, "edge": {"target": [], "time": []}}, "mouseout": {"state": {"target": ["0"], "time": [1598]}, "edge": {"target": [], "time": []}}}, "displayed_time": "16.10", "trialTime": 17094, "trial_type": "mouselab-mdp", "trial_index": 34, "time_elapsed": 1132903, "internal_node_id": "0.0-6.0-1.0-25.0"}}, {"uniqueid": "w68022550:a86161874", "current_trial": 35, "dateTime": 1693565859553, "trialdata": {"revealed_states": [], "clicked_states": [], "num_clicks_accrued": [0, 0, 0, 0, 0, 0, 0, 0, 0, 0, 0, 0, 0], "stateRewards": ["", 2, 3, 8, 11, 25, -80, 6, -4, -56, 84, -23, -2, -4, -3, 4, -51, -9, -61, -15, -64, 67, -35, 1, -1, -7, -6, 83, 59, -15, 12, -79, 56, 41], "withholdReward": false, "trial_id": "mdp_trial_27", "block": "test", "trialIndex": 28, "score": -14, "costs": 0, "simulationMode": [null, null, null, null, null], "rewards": [2, 3, 8, -4, -23], "path": ["0", "0", "1", "2", "3", "8", "11"], "rt": [1641, 12, 129, 76, 559], "actions": ["up", "up", "up", "left", "left"], "actionTimes": [3527, 4076, 4729, 5431, 6526], "queries": {"click": {"state": {"target": [], "time": []}, "edge": {"target": [], "time": []}}, "mouseover": {"state": {"target": [], "time": []}, "edge": {"target": [], "time": []}}, "mouseout": {"state": {"target": ["0"], "time": [1341]}, "edge": {"target": [], "time": []}}}, "displayed_time": "15.89", "trialTime": 19926, "trial_type": "mouselab-mdp", "trial_index": 35, "time_elapsed": 1154001, "internal_node_id": "0.0-6.0-1.0-26.0"}}, {"uniqueid": "w68022550:a86161874", "current_trial": 36, "dateTime": 1693565877718, "trialdata": {"revealed_states": [], "clicked_states": [], "num_clicks_accrued": [0, 0, 0, 0, 0, 0, 0, 0, 0, 0, 0, 0, 0], "stateRewards": ["", -1, -3, -7, -7, -76, 30, -49, 11, -70, 56, 2, 1, 4, -3, -14, -59, -83, -25, -9, -21, -67, -73, -2, 4, 4, -9, -11, -32, 60, 9, -87, 22, -64], "withholdReward": false, "trial_id": "mdp_trial_28", "block": "test", "trialIndex": 29, "score": -28, "costs": 0, "simulationMode": [null, null, null, null, null], "rewards": [1, 4, -3, -9, -21], "path": ["0", "0", "12", "13", "14", "19", "20"], "rt": [439, 23, 99, 39, 502], "actions": ["right", "right", "right", "down", "right"], "actionTimes": [2243, 2780, 3408, 3945, 4990], "queries": {"click": {"state": {"target": [], "time": []}, "edge": {"target": [], "time": []}}, "mouseover": {"state": {"target": [], "time": []}, "edge": {"target": [], "time": []}}, "mouseout": {"state": {"target": ["0"], "time": [1287]}, "edge": {"target": [], "time": []}}}, "displayed_time": "15.80", "trialTime": 16901, "trial_type": "mouselab-mdp", "trial_index": 36, "time_elapsed": 1172166, "internal_node_id": "0.0-6.0-1.0-27.0"}}, {"uniqueid": "w68022550:a86161874", "current_trial": 37, "dateTime": 1693565899148, "trialdata": {"revealed_states": [], "clicked_states": [], "num_clicks_accrued": [0, 0, 0, 0, 0, 0, 0, 0, 0, 0, 0, 0, 0], "stateRewards": ["", 2, 2, 3, -15, 23, -14, 73, -7, -32, -20, -6, 1, 1, -5, -12, 73, 6, -84, 11, -81, -57, 13, -2, -1, -4, -8, -52, -58, 49, 13, 5, -41, -41], "withholdReward": false, "trial_id": "mdp_trial_29", "block": "test", "trialIndex": 30, "score": -22, "costs": 0, "simulationMode": [null, null, null, null, null], "rewards": [2, 2, 3, -15, -14], "path": ["0", "0", "1", "2", "3", "4", "6"], "rt": [619, 187, 157, 29, 64], "actions": ["up", "up", "up", "right", "right"], "actionTimes": [5227, 5919, 6571, 7109, 7695], "queries": {"click": {"state": {"target": [], "time": []}, "edge": {"target": [], "time": []}}, "mouseover": {"state": {"target": [], "time": []}, "edge": {"target": [], "time": []}}, "mouseout": {"state": {"target": ["0"], "time": [3930]}, "edge": {"target": [], "time": []}}}, "displayed_time": "18.62", "trialTime": 20177, "trial_type": "mouselab-mdp", "trial_index": 37, "time_elapsed": 1193595, "internal_node_id": "0.0-6.0-1.0-28.0"}}, {"uniqueid": "w68022550:a86161874", "current_trial": 38, "dateTime": 1693565917678, "trialdata": {"revealed_states": [], "clicked_states": [], "num_clicks_accrued": [0, 0, 0, 0, 0, 0, 0, 0, 0, 0, 0, 0, 0], "stateRewards": ["", -1, -2, -1, -10, -57, 73, -72, -16, 75, -14, -46, -2, -3, -7, -1, -61, -60, 76, -4, 50, 4, 14, 2, 2, -7, 12, -65, -32, 15, -8, -76, -25, -61], "withholdReward": false, "trial_id": "mdp_trial_30", "block": "test", "trialIndex": 31, "score": -72, "costs": 0, "simulationMode": [null, null, null, null, null], "rewards": [2, 2, -7, -8, -61], "path": ["0", "0", "23", "24", "25", "30", "33"], "rt": [1112, 7, 85, 97, 482], "actions": ["left", "left", "left", "down", "left"], "actionTimes": [3565, 4103, 4727, 5322, 6308], "queries": {"click": {"state": {"target": [], "time": []}, "edge": {"target": [], "time": []}}, "mouseover": {"state": {"target": [], "time": []}, "edge": {"target": [], "time": []}}, "mouseout": {"state": {"target": ["0"], "time": [1867]}, "edge": {"target": [], "time": []}}}, "displayed_time": "16.46", "trialTime": 17456, "trial_type": "mouselab-mdp", "trial_index": 38, "time_elapsed": 1212125, "internal_node_id": "0.0-6.0-1.0-29.0"}}, {"uniqueid": "w68022550:a86161874", "current_trial": 39, "dateTime": 1693565939793, "trialdata": {"revealed_states": [], "clicked_states": [], "num_clicks_accrued": [0, 0, 0, 0, 0, 0, 0, 0, 0, 0, 0, 0, 0], "stateRewards": ["", 1, 1, 1, 15, -76, 52, -32, 14, -57, 37, 49, 1, -4, -3, 6, 83, -76, 25, 9, 36, -1, -17, -1, 4, 4, -2, -22, -21, 58, -15, -57, 49, -24], "withholdReward": false, "trial_id": "mdp_trial_31", "block": "test", "trialIndex": 32, "score": 39, "costs": 0, "simulationMode": [null, null, null, null, null], "rewards": [1, -4, -3, 9, 36], "path": ["0", "0", "12", "13", "14", "19", "20"], "rt": [9911, 464, 109, 642, 851], "actions": ["right", "right", "right", "down", "right"], "actionTimes": [12145, 13124, 13736, 14884, 16241], "queries": {"click": {"state": {"target": [], "time": []}, "edge": {"target": [], "time": []}}, "mouseover": {"state": {"target": [], "time": []}, "edge": {"target": [], "time": []}}, "mouseout": {"state": {"target": ["0"], "time": [1555]}, "edge": {"target": [], "time": []}}}, "displayed_time": "16.74", "trialTime": 21030, "trial_type": "mouselab-mdp", "trial_index": 39, "time_elapsed": 1234241, "internal_node_id": "0.0-6.0-1.0-30.0"}}, {"uniqueid": "w68022550:a86161874", "current_trial": 40, "dateTime": 1693565960683, "trialdata": {"revealed_states": [], "clicked_states": [], "num_clicks_accrued": [0, 0, 0, 0, 0, 0, 0, 0, 0, 0, 0, 0, 0], "stateRewards": ["", -1, -3, -6, -2, -7, 80, -45, -3, -38, -72, 76, 2, 1, 7, 4, -62, 14, -74, 14, -87, -21, -88, -2, 1, -7, -10, 66, 56, -76, 10, -29, -72, -70], "withholdReward": false, "trial_id": "mdp_trial_32", "block": "test", "trialIndex": 33, "score": -68, "costs": 0, "simulationMode": [null, null, null, null, null], "rewards": [-2, 1, -7, 10, -70], "path": ["0", "0", "23", "24", "25", "30", "33"], "rt": [1642, 351, 78, 268, 261], "actions": ["left", "left", "left", "down", "left"], "actionTimes": [5319, 6172, 6748, 7539, 8298], "queries": {"click": {"state": {"target": [], "time": []}, "edge": {"target": [], "time": []}}, "mouseover": {"state": {"target": [], "time": []}, "edge": {"target": [], "time": []}}, "mouseout": {"state": {"target": ["0"], "time": [3152]}, "edge": {"target": [], "time": []}}}, "displayed_time": "17.68", "trialTime": 19542, "trial_type": "mouselab-mdp", "trial_index": 40, "time_elapsed": 1255132, "internal_node_id": "0.0-6.0-1.0-31.0"}}, {"uniqueid": "w68022550:a86161874", "current_trial": 41, "dateTime": 1693565981375, "trialdata": {"revealed_states": [], "clicked_states": [], "num_clicks_accrued": [0, 0, 0, 0, 0, 0, 0, 0, 0, 0, 0, 0, 0], "stateRewards": ["", -1, 1, 6, -6, 70, 66, 67, -16, -75, -35, 37, -1, 4, 4, -6, 47, -9, 63, 15, 21, -63, 13, 1, 3, -6, 10, 79, -29, 18, -15, 9, -67, -19], "withholdReward": false, "trial_id": "mdp_trial_33", "block": "test", "trialIndex": 34, "score": 43, "costs": 0, "simulationMode": [null, null, null, null, null], "rewards": [-1, 4, 4, 15, 21], "path": ["0", "0", "12", "13", "14", "19", "20"], "rt": [2217, 731, 84, 1026, 374], "actions": ["right", "right", "right", "down", "right"], "actionTimes": [6137, 7373, 7959, 9485, 10372], "queries": {"click": {"state": {"target": [], "time": []}, "edge": {"target": [], "time": []}}, "mouseover": {"state": {"target": [], "time": []}, "edge": {"target": [], "time": []}}, "mouseout": {"state": {"target": ["0"], "time": [3317]}, "edge": {"target": [], "time": []}}}, "displayed_time": "17.93", "trialTime": 19122, "trial_type": "mouselab-mdp", "trial_index": 41, "time_elapsed": 1275822, "internal_node_id": "0.0-6.0-1.0-32.0"}}, {"uniqueid": "w68022550:a86161874", "current_trial": 42, "dateTime": 1693566002340, "trialdata": {"revealed_states": [], "clicked_states": [], "num_clicks_accrued": [0, 0, 0, 0, 0, 0, 0, 0, 0, 0, 0, 0, 0], "stateRewards": ["", 2, 3, -6, -5, -3, 55, 40, 11, 61, 11, 51, 2, -4, -6, 9, -25, 29, -15, -6, 7, -77, -2, -2, -4, 1, 14, -43, -1, 56, -12, -54, 41, -74], "withholdReward": false, "trial_id": "mdp_trial_34", "block": "test", "trialIndex": 35, "score": -91, "costs": 0, "simulationMode": [null, null, null, null, null], "rewards": [-2, -4, 1, -12, -74], "path": ["0", "0", "23", "24", "25", "30", "33"], "rt": [480, 181, 534, 1319, 754], "actions": ["left", "left", "left", "down", "left"], "actionTimes": [4153, 4839, 5875, 7694, 8994], "queries": {"click": {"state": {"target": [], "time": []}, "edge": {"target": [], "time": []}}, "mouseover": {"state": {"target": [], "time": []}, "edge": {"target": [], "time": []}}, "mouseout": {"state": {"target": ["0"], "time": [2901]}, "edge": {"target": [], "time": []}}}, "displayed_time": "17.68", "trialTime": 19392, "trial_type": "mouselab-mdp", "trial_index": 42, "time_elapsed": 1296787, "internal_node_id": "0.0-6.0-1.0-33.0"}}, {"uniqueid": "w68022550:a86161874", "current_trial": 43, "dateTime": 1693566031094, "trialdata": {"revealed_states": [], "clicked_states": [], "num_clicks_accrued": [0, 0, 0, 0, 0, 0, 0, 0, 0, 0, 0, 0, 0], "stateRewards": ["", 2, -1, 5, 8, 75, -35, -77, 1, -9, -81, -58, 1, 2, -7, 5, 77, -16, 19, 16, -10, -18, 40, -2, 3, 7, -5, 64, 1, -62, 10, 27, 10, 65], "withholdReward": false, "trial_id": "mdp_trial_35", "block": "test", "trialIndex": 36, "score": 2, "costs": 0, "simulationMode": [null, null, null, null, null], "rewards": [1, 2, -7, 16, -10], "path": ["0", "0", "12", "13", "14", "19", "20"], "rt": [427, 61, 31, 153, 121], "actions": ["right", "right", "right", "down", "right"], "actionTimes": [2420, 2981, 3551, 4224, 4853], "queries": {"click": {"state": {"target": [], "time": []}, "edge": {"target": [], "time": []}}, "mouseover": {"state": {"target": [], "time": []}, "edge": {"target": [], "time": []}}, "mouseout": {"state": {"target": ["0"], "time": [1320]}, "edge": {"target": [], "time": []}}}, "displayed_time": "15.99", "trialTime": 27580, "trial_type": "mouselab-mdp", "trial_index": 43, "time_elapsed": 1325542, "internal_node_id": "0.0-6.0-1.0-34.0"}}, {"uniqueid": "w68022550:a86161874", "current_trial": 44, "dateTime": 1693566050326, "trialdata": {"revealed_states": [], "clicked_states": [], "num_clicks_accrued": [0, 0, 0, 0, 0, 0, 0, 0, 0, 0, 0, 0, 0], "stateRewards": ["", 1, 4, 7, -16, -84, -6, -46, -12, -7, -49, -26, -1, 2, -4, 2, 22, 37, -64, 1, 88, -13, -10, 1, -4, -2, 5, 2, -10, -34, 9, 66, 55, 38], "withholdReward": false, "trial_id": "mdp_trial_36", "block": "test", "trialIndex": 37, "score": 42, "costs": 0, "simulationMode": [null, null, null, null, null], "rewards": [1, -4, -2, 9, 38], "path": ["0", "0", "23", "24", "25", "30", "33"], "rt": [2254, 40, 107, 285, 30], "actions": ["left", "left", "left", "down", "left"], "actionTimes": [4459, 5005, 5654, 6468, 7013], "queries": {"click": {"state": {"target": [], "time": []}, "edge": {"target": [], "time": []}}, "mouseover": {"state": {"target": [], "time": []}, "edge": {"target": [], "time": []}}, "mouseout": {"state": {"target": ["0"], "time": [1569]}, "edge": {"target": [], "time": []}}}, "displayed_time": "16.21", "trialTime": 18046, "trial_type": "mouselab-mdp", "trial_index": 44, "time_elapsed": 1344773, "internal_node_id": "0.0-6.0-1.0-35.0"}}, {"uniqueid": "w68022550:a86161874", "current_trial": 45, "dateTime": 1693566072788, "trialdata": {"revealed_states": [], "clicked_states": [], "num_clicks_accrued": [0, 0, 0, 0, 0, 0, 0, 0, 0, 0, 0, 0, 0], "stateRewards": ["", 1, -3, -1, 9, -34, -40, 22, -7, 45, 53, -11, 2, 4, 5, 15, 21, 37, -49, -3, 80, -28, -34, 1, -3, 1, 1, -40, -6, -5, -16, -85, -86, 59], "withholdReward": false, "trial_id": "mdp_trial_37", "block": "test", "trialIndex": 38, "score": 88, "costs": 0, "simulationMode": [null, null, null, null, null], "rewards": [2, 4, 5, -3, 80], "path": ["0", "0", "12", "13", "14", "19", "20"], "rt": [495, 182, 737, 26, 43], "actions": ["right", "right", "right", "down", "right"], "actionTimes": [6483, 7174, 8412, 8950, 9505], "queries": {"click": {"state": {"target": [], "time": []}, "edge": {"target": [], "time": []}}, "mouseover": {"state": {"target": [], "time": []}, "edge": {"target": [], "time": []}}, "mouseout": {"state": {"target": ["0"], "time": [5294]}, "edge": {"target": [], "time": []}}}, "displayed_time": "19.99", "trialTime": 21258, "trial_type": "mouselab-mdp", "trial_index": 45, "time_elapsed": 1367235, "internal_node_id": "0.0-6.0-1.0-36.0"}}, {"uniqueid": "w68022550:a86161874", "current_trial": 46, "dateTime": 1693566091735, "trialdata": {"revealed_states": [], "clicked_states": [], "num_clicks_accrued": [0, 0, 0, 0, 0, 0, 0, 0, 0, 0, 0, 0, 0], "stateRewards": ["", -2, -2, -3, -6, -15, -11, 41, -12, -63, -76, 2, -2, -3, 8, 9, -36, -2, -18, -16, -32, -85, -17, -2, 1, 5, -16, 82, 35, -88, -1, 80, -82, -20], "withholdReward": false, "trial_id": "mdp_trial_38", "block": "test", "trialIndex": 39, "score": -100, "costs": 0, "simulationMode": [null, null, null, null, null], "rewards": [-2, 1, 5, -16, -88], "path": ["0", "0", "23", "24", "25", "26", "29"], "rt": [2795, 167, 164, 2551, 651], "actions": ["left", "left", "left", "up", "left"], "actionTimes": [4832, 5501, 6166, 9219, 10397], "queries": {"click": {"state": {"target": [], "time": []}, "edge": {"target": [], "time": []}}, "mouseover": {"state": {"target": [], "time": []}, "edge": {"target": [], "time": []}}, "mouseout": {"state": {"target": ["0"], "time": [1265]}, "edge": {"target": [], "time": []}}}, "displayed_time": "16.04", "trialTime": 17436, "trial_type": "mouselab-mdp", "trial_index": 46, "time_elapsed": 1386182, "internal_node_id": "0.0-6.0-1.0-37.0"}}, {"uniqueid": "w68022550:a86161874", "current_trial": 47, "dateTime": 1693566111541, "trialdata": {"revealed_states": [], "clicked_states": [], "num_clicks_accrued": [0, 0, 0, 0, 0, 0, 0, 0, 0, 0, 0, 0, 0], "stateRewards": ["", -2, -3, 8, -4, -30, 31, 69, 9, 66, 87, 64, -2, 2, 8, 5, 47, 16, -39, -8, -54, 51, -19, 1, -2, -2, -11, -25, -26, 43, -9, 19, -84, 86], "withholdReward": false, "trial_id": "mdp_trial_39", "block": "test", "trialIndex": 40, "score": -54, "costs": 0, "simulationMode": [null, null, null, null, null], "rewards": [-2, 2, 8, -8, -54], "path": ["0", "0", "12", "13", "14", "19", "20"], "rt": [1421, 494, 746, 907, 548], "actions": ["right", "right", "right", "down", "right"], "actionTimes": [3449, 4447, 5745, 7160, 8217], "queries": {"click": {"state": {"target": [], "time": []}, "edge": {"target": [], "time": []}}, "mouseover": {"state": {"target": [], "time": []}, "edge": {"target": [], "time": []}}, "mouseout": {"state": {"target": ["0"], "time": [1366]}, "edge": {"target": [], "time": []}}}, "displayed_time": "16.03", "trialTime": 17980, "trial_type": "mouselab-mdp", "trial_index": 47, "time_elapsed": 1405987, "internal_node_id": "0.0-6.0-1.0-38.0"}}, {"uniqueid": "w68022550:a86161874", "current_trial": 48, "dateTime": 1693566130691, "trialdata": {"revealed_states": [], "clicked_states": [], "num_clicks_accrued": [0, 0, 0, 0, 0, 0, 0, 0, 0, 0, 0, 0, 0], "stateRewards": ["", 2, 4, 4, 9, -88, -10, 44, 16, -54, 64, 78, 1, 2, 5, 16, 80, 36, 7, -4, 9, -47, -70, -1, -3, 6, -16, 11, 80, 28, 8, -1, 34, -17], "withholdReward": false, "trial_id": "mdp_trial_40", "block": "test", "trialIndex": 41, "score": 90, "costs": 0, "simulationMode": [null, null, null, null, null], "rewards": [2, 4, 4, 16, 64], "path": ["0", "0", "1", "2", "3", "8", "10"], "rt": [511, 658, 244, 1572, 526], "actions": ["up", "up", "up", "left", "down"], "actionTimes": [2853, 4023, 4775, 6857, 7890], "queries": {"click": {"state": {"target": [], "time": []}, "edge": {"target": [], "time": []}}, "mouseover": {"state": {"target": [], "time": []}, "edge": {"target": [], "time": []}}, "mouseout": {"state": {"target": ["0"], "time": [1765]}, "edge": {"target": [], "time": []}}}, "displayed_time": "16.35", "trialTime": 17760, "trial_type": "mouselab-mdp", "trial_index": 48, "time_elapsed": 1425137, "internal_node_id": "0.0-6.0-1.0-39.0"}}, {"uniqueid": "w68022550:a86161874", "current_trial": 49, "dateTime": 1693566226096, "trialdata": {"rt": 95187, "response": {"Q0": "$-2 to $2", "Q1": "$-4 to $4", "Q2": "$-16 to $16", "Q3": "The cost for clicking on nodes varied between nodes.", "Q4": "Very motivated"}, "question_order": [0, 1, 2, 3, 4], "trial_id": "final_quiz_control", "trial_type": "survey-multi-choice", "trial_index": 49, "time_elapsed": 1520544, "internal_node_id": "0.0-6.0-2.0"}}, {"uniqueid": "w68022550:a86161874", "current_trial": 50, "dateTime": 1693566337792, "trialdata": {"rt": 111258, "response": {"Q0": "Always moving in the direction that always gave me more cash.", "Q1": "No. I don't think I did.", "Q2": "It was difficult because when I received a negative balance of cash, it always overpowered the positive balance of cash I received."}, "trial_id": "self_report_control", "trial_type": "survey-text", "trial_index": 50, "time_elapsed": 1632241, "internal_node_id": "0.0-6.0-3.0"}}, {"uniqueid": "w68022550:a86161874", "current_trial": 51, "dateTime": 1693566390912, "trialdata": {"rt": 53099, "response": {"Q0": "Strongly disagree", "Q1": "Strongly disagree", "Q2": "Strongly disagree", "Q3": "Strongly disagree", "Q4": "Agree", "Q5": "Strongly disagree", "Q6": "Neither disagree nor agree"}, "question_order": [0, 1, 2, 3, 4, 5, 6], "trial_id": "self_report_2", "trial_type": "survey-multi-choice", "trial_index": 51, "time_elapsed": 1685361, "internal_node_id": "0.0-6.0-4.0"}}, {"uniqueid": "w68022550:a86161874", "current_trial": 52, "dateTime": 1693566423387, "trialdata": {"rt": 32457, "response": {"gender": "female", "age": "26", "colorblind": "0", "effort": "0"}, "trial_type": "survey-html-form", "trial_index": 52, "time_elapsed": 1717836, "internal_node_id": "0.0-6.0-5.0"}}, {"uniqueid": "w68022550:a86161874", "current_trial": 53, "dateTime": 1693566524086, "trialdata": {"rt": 100669, "response": {"Q0": "Some questions in the questionnaire immediately after the Web of Cash HIT. ", "Q1": "No. This was my first time participating in a Web of Cash HIT.", "Q2": "N/A"}, "trial_type": "survey-text", "trial_index": 53, "time_elapsed": 1818534, "internal_node_id": "0.0-6.0-6.0"}}, {"uniqueid": "w68022550:a86161874", "current_trial": 54, "dateTime": 1693566555930, "trialdata": {"rt": 31834, "stimulus": "<h1>Completion Code Instructions (1/2)</h1>\n<br><br><br><br>\nYou have reached the end of the experiment! The completion code consists of two parts: (1) a code with 2 characters (2) a code with 6 characters. On this page, you will receive the second part of the code. The first part of the completion code will be on the next page.\n<br><br>\nThe second part of your completion code is: <b>EWEK22</b>\n<br><br>\nPlease note this down. Then, press 'Finish HIT' in order to find the first part of your completion code. Once the data has been saved, you will receive this code either in this window or in the original browser window where you started the experiment.\n", "response": 0, "trial_type": "html-button-response", "trial_index": 54, "time_elapsed": 1850378, "internal_node_id": "0.0-6.0-7.0"}}, {"uniqueid": "w68022550:a86161874", "current_trial": 55, "dateTime": 1693566556970, "trialdata": {"success": true, "trial_type": "fullscreen", "trial_index": 55, "time_elapsed": 1851419, "internal_node_id": "0.0-7.0"}}], "questiondata": {"params": {"CODE": "C6DMOQA6", "MIN_TIME": 14, "inspectCost": 1, "startTime": "Fri Sep 01 2023 12:38:23 GMT+0200 (South Africa Standard Time)", "bonusRate": 0.002, "variance": "1_2_4_8_44", "branching": "31123"}, "final_score": -237}, "eventdata": [{"eventtype": "initialized", "value": null, "timestamp": 1693564702655, "interval": 0}, {"eventtype": "window_resize", "value": [1366, 662], "timestamp": 1693564702655, "interval": 0}, {"eventtype": "window_resize", "value": [1366, 662], "timestamp": 1693564703288, "interval": 633}, {"eventtype": "window_resize", "value": [1366, 768], "timestamp": 1693564712052, "interval": 8764}], "useragent": "Mozilla/5.0 (Windows NT 10.0; Win64; x64) AppleWebKit/537.36 (KHTML, like Gecko) Chrome/116.0.0.0 Safari/537.36", "mode": "live", "id": "w68022550:a86161874", "status": "user data saved", "Beginhit": "2023-09-01 10:38:15.838254", "Beginexp": "2023-09-01 10:38:31.433654", "Endhit": "2023-09-01 11:09:20.671875", "psiturkStatus": 3, "browser": "<redacted>", "platform": "windows", "language": "en-US"}