{"condition": 1, "counterbalance": 0, "assignmentId": "a96918990", "workerId": "w50106814", "hitId": "h66751982", "currenttrial": 56, "bonus": 0, "data": [{"uniqueid": "w50106814:a96918990", "current_trial": 0, "dateTime": 1693480906799, "trialdata": {"success": true, "trial_type": "fullscreen", "trial_index": 0, "time_elapsed": 6712, "internal_node_id": "0.0-0.0"}}, {"uniqueid": "w50106814:a96918990", "current_trial": 1, "dateTime": 1693480930292, "trialdata": {"view_history": [{"page_index": 0, "viewing_time": 23477}], "rt": 23478, "trial_id": "exp_instructions_misaligned", "trial_type": "instructions", "trial_index": 1, "time_elapsed": 30206, "internal_node_id": "0.0-1.0"}}, {"uniqueid": "w50106814:a96918990", "current_trial": 2, "dateTime": 1693481212505, "trialdata": {"view_history": [{"page_index": 0, "viewing_time": 92275}, {"page_index": 1, "viewing_time": 116979}, {"page_index": 2, "viewing_time": 25222}, {"page_index": 3, "viewing_time": 47734}], "rt": 282211, "trial_id": "mouselab_instructions_1_misaligned", "trial_type": "instructions", "trial_index": 2, "time_elapsed": 312418, "internal_node_id": "0.0-2.0-1.0"}}, {"uniqueid": "w50106814:a96918990", "current_trial": 3, "dateTime": 1693481235991, "trialdata": {"revealed_states": [], "clicked_states": [], "num_clicks_accrued": [0, 0, 0, 0, 0, 0, 0, 0, 0, 0, 0, 0, 0], "stateRewards": ["", 10, 10, 10, -10, 10, 10, -10, -10, -10, 10, 10, 10, -10, -10, -10, 10, -10, 10, 10, 10, -10, 10, 10, -10, 10, 10, 10, 10, 10, 10, 10, 10, 10], "withholdReward": false, "trial_id": "practice_1", "block": "test", "trialIndex": 0, "score": -6.5, "costs": 0, "simulationMode": [null, null, null, null, null], "rewards": [10, -10, -10, 10, -10], "path": ["0", "0", "12", "13", "14", "19", "21"], "rt": [5503, 907, 357, 1011, 5096], "actions": ["right", "right", "right", "down", "down"], "actionTimes": [8850, 10275, 11136, 12657, 18259], "queries": {"click": {"state": {"target": [], "time": []}, "edge": {"target": [], "time": []}}, "mouseover": {"state": {"target": ["0", "23", "0"], "time": [4127, 7003, 8129]}, "edge": {"target": [], "time": []}}, "mouseout": {"state": {"target": ["0", "0", "0", "23", "0", "12", "22"], "time": [2149, 2766, 4277, 8045, 8261, 14801, 14860]}, "edge": {"target": [], "time": []}}}, "displayed_time": "18.76", "trialTime": 22613, "trial_type": "mouselab-mdp", "trial_index": 3, "time_elapsed": 335904, "internal_node_id": "0.0-2.0-2.0-0.0"}}, {"uniqueid": "w50106814:a96918990", "current_trial": 4, "dateTime": 1693481257927, "trialdata": {"revealed_states": [], "clicked_states": ["25", "26", "23"], "num_clicks_accrued": [0, 0, 0, 0, 0, 0, 0, 0, 0, 0, 0, 0, 0], "stateRewards": ["", -10, 10, -10, -10, 10, -10, -10, 10, 10, 10, 10, -10, -10, 10, 10, 10, -10, 10, 10, -10, -10, 10, -10, -10, 10, 10, 10, 10, -10, -10, -10, -10, -10], "withholdReward": false, "trial_id": "practice_2", "block": "test", "trialIndex": 1, "score": -8, "costs": -1.5, "simulationMode": [null, null, null, null, null], "rewards": [-10, -10, 10, 10, -10], "path": ["0", "0", "23", "24", "25", "26", "29"], "rt": [7439, 347, 186, 413, 668], "actions": ["left", "left", "left", "up", "left"], "actionTimes": [12618, 13464, 14149, 15061, 16248], "queries": {"click": {"state": {"target": ["25", "26", "23"], "time": [7888, 9124, 11164]}, "edge": {"target": [], "time": []}}, "mouseover": {"state": {"target": ["23", "24", "25", "26", "24", "23", "0"], "time": [5863, 6046, 7414, 8662, 9728, 10326, 12179]}, "edge": {"target": [], "time": []}}, "mouseout": {"state": {"target": ["21", "13", "18", "16", "17", "20", "0", "23", "24", "25", "26", "24", "23", "0"], "time": [848, 994, 1042, 1226, 1427, 1559, 5818, 5964, 7383, 8583, 9678, 9878, 11898, 18311]}, "edge": {"target": [], "time": []}}}, "displayed_time": "16.75", "trialTime": 21666, "trial_type": "mouselab-mdp", "trial_index": 4, "time_elapsed": 357840, "internal_node_id": "0.0-2.0-2.0-1.0"}}, {"uniqueid": "w50106814:a96918990", "current_trial": 5, "dateTime": 1693481307819, "trialdata": {"view_history": [{"page_index": 0, "viewing_time": 38843}, {"page_index": 1, "viewing_time": 11040}], "rt": 49884, "trial_id": "mouselab_instructions_2_misaligned", "trial_type": "instructions", "trial_index": 5, "time_elapsed": 407733, "internal_node_id": "0.0-2.0-3.0"}}, {"uniqueid": "w50106814:a96918990", "current_trial": 6, "dateTime": 1693481353117, "trialdata": {"rt": 45293, "response": {"Q0": "The cost for clicking on nodes may vary between nodes.", "Q1": "The better I perform the higher my bonus will be.", "Q2": "No, the amount of cash at each node of the web may be different each time.", "Q3": "To get the highest total score.", "Q4": "Only before moving the spider.", "Q5": "3 seconds"}, "question_order": [0, 1, 2, 3, 4, 5], "correct": {"Q0": "The cost for clicking on nodes may vary between nodes.", "Q1": "The better I perform the higher my bonus will be.", "Q2": "No, the amount of cash at each node of the web may be different each time.", "Q3": "To get the highest total score.", "Q4": "Only before moving the spider.", "Q5": "3 seconds"}, "trial_id": "mouselab_quiz_misaligned", "trial_type": "survey-multi-choice", "trial_index": 6, "time_elapsed": 453031, "internal_node_id": "0.0-2.0-4.0"}}, {"uniqueid": "w50106814:a96918990", "current_trial": 7, "dateTime": 1693481363793, "trialdata": {"rt": 10671, "response": {"Q0": "No"}, "question_order": [0], "trial_id": "repeat_check", "trial_type": "survey-multi-choice", "trial_index": 7, "time_elapsed": 463707, "internal_node_id": "0.0-4.0-0.0"}}, {"uniqueid": "w50106814:a96918990", "current_trial": 8, "dateTime": 1693481387512, "trialdata": {"rt": 23710, "stimulus": "\n<h1> Get ready to start the game! </h1>\n\nThank you for reading the instructions. Get ready start with the 40 rounds of this game.\n<br><br>\nIf you need to take a break, feel free to take one after the end of a round, before continuing to the next one.\n<br><br>\nRemember, the more money the spider gets, the bigger your bonus will be!\n<br><br>\n<div style='text-align: center;'>Press <code>space</code> to begin.</div>\n\n<br><br>\n(If, at any point, the <code>space</code> key does not take you to the next page, click once on the text and try again.)", "response": " ", "trial_id": "mdp_ready", "trial_type": "html-keyboard-response", "trial_index": 8, "time_elapsed": 487426, "internal_node_id": "0.0-6.0-0.0"}}, {"uniqueid": "w50106814:a96918990", "current_trial": 9, "dateTime": 1693481413128, "trialdata": {"revealed_states": [], "clicked_states": [], "num_clicks_accrued": [0, 0, 0, 0, 0, 0, 0, 0, 0, 0, 0, 0, 0], "stateRewards": ["", 2, 4, 7, 7, -79, -2, -21, -5, -53, 47, -21, 1, -3, -1, 7, 83, 7, 84, -7, 80, -37, 69, 2, -4, 5, 2, 4, -20, -30, 7, 71, 44, -81], "withholdReward": false, "trial_id": "mdp_trial_1", "block": "test", "trialIndex": 2, "score": -71, "costs": 0, "simulationMode": [null, null, null, null, null], "rewards": [2, -4, 5, 7, -81], "path": ["0", "0", "23", "24", "25", "30", "33"], "rt": [1226, 123, 260, 95, 458], "actions": ["left", "left", "left", "down", "left"], "actionTimes": [4998, 5621, 6374, 6977, 7941], "queries": {"click": {"state": {"target": [], "time": []}, "edge": {"target": [], "time": []}}, "mouseover": {"state": {"target": [], "time": []}, "edge": {"target": [], "time": []}}, "mouseout": {"state": {"target": ["23", "0", "0"], "time": [1516, 1878, 10378]}, "edge": {"target": [], "time": []}}}, "displayed_time": "17.77", "trialTime": 25235, "trial_type": "mouselab-mdp", "trial_index": 9, "time_elapsed": 513040, "internal_node_id": "0.0-6.0-1.0-0.0"}}, {"uniqueid": "w50106814:a96918990", "current_trial": 10, "dateTime": 1693481438444, "trialdata": {"revealed_states": [], "clicked_states": ["33", "27"], "num_clicks_accrued": [0, 0, 0, 0, 0, 0, 0, 0, 0, 0, 0, 0, 0], "stateRewards": ["", -2, 4, -5, -12, 85, -24, -18, -15, -78, -22, 26, -1, -1, 2, 14, -45, 52, -23, 7, -33, 24, -6, -2, -4, 5, -7, -16, 36, -39, 5, 71, -87, -23], "withholdReward": false, "trial_id": "mdp_trial_2", "block": "test", "trialIndex": 3, "score": 3.6999999999999993, "costs": -4.3, "simulationMode": [null, null, null, null, null], "rewards": [-2, 4, -5, -15, 26], "path": ["0", "0", "1", "2", "3", "8", "11"], "rt": [9715, 240, 48, 213, 68], "actions": ["up", "up", "up", "left", "left"], "actionTimes": [13196, 13927, 14486, 15200, 15778], "queries": {"click": {"state": {"target": ["33", "27"], "time": [5233, 9643]}, "edge": {"target": [], "time": []}}, "mouseover": {"state": {"target": ["23", "24", "25", "33", "24", "24", "26", "29", "27", "10", "8", "9", "9", "8", "1", "0"], "time": [3981, 4037, 4102, 4724, 6085, 6236, 6352, 6686, 8185, 10485, 10685, 11319, 12335, 12468, 12601, 12650]}, "edge": {"target": [], "time": []}}, "mouseout": {"state": {"target": ["12", "12", "0", "23", "24", "25", "33", "24", "24", "26", "29", "27", "10", "8", "9", "9", "8", "1", "0", "0"], "time": [1105, 2074, 3960, 4003, 4070, 4119, 5990, 6102, 6268, 6485, 7835, 10203, 10519, 11285, 11468, 12419, 12517, 12633, 12667, 17705]}, "edge": {"target": [], "time": []}}}, "displayed_time": "17.48", "trialTime": 25024, "trial_type": "mouselab-mdp", "trial_index": 10, "time_elapsed": 538357, "internal_node_id": "0.0-6.0-1.0-1.0"}}, {"uniqueid": "w50106814:a96918990", "current_trial": 11, "dateTime": 1693481461914, "trialdata": {"revealed_states": [], "clicked_states": ["6", "9"], "num_clicks_accrued": [0, 0, 0, 0, 0, 0, 0, 0, 0, 0, 0, 0, 0], "stateRewards": ["", 2, -2, 7, -11, -76, -65, -23, 16, -58, 30, 81, 1, 2, 7, 14, 9, 55, -2, 6, 11, -15, 31, -1, -1, -3, 2, 15, 2, 46, 15, 18, 45, -34], "withholdReward": false, "trial_id": "mdp_trial_3", "block": "test", "trialIndex": 4, "score": 17.7, "costs": -4.3, "simulationMode": [null, null, null, null, null, null], "rewards": [1, 2, 7, 14, -2], "path": ["0", "0", "12", "13", "14", "15", "18"], "rt": [7151, 1528, 161, 361, 155, 514], "actions": ["right", "right", "right", "right", "up", "left"], "actionTimes": [9453, 10985, 11664, 12528, 13272, 14283], "queries": {"click": {"state": {"target": ["6", "9"], "time": [4086, 7565]}, "edge": {"target": [], "time": []}}, "mouseover": {"state": {"target": ["1", "4", "6", "5", "3", "9"], "time": [2897, 2984, 3385, 4950, 6416, 6616]}, "edge": {"target": [], "time": []}}, "mouseout": {"state": {"target": ["0", "1", "4", "6", "5", "3", "9"], "time": [1089, 2920, 3317, 4850, 6334, 6517, 21700]}, "edge": {"target": [], "time": []}}}, "displayed_time": "16.30", "trialTime": 23123, "trial_type": "mouselab-mdp", "trial_index": 11, "time_elapsed": 561826, "internal_node_id": "0.0-6.0-1.0-2.0"}}, {"uniqueid": "w50106814:a96918990", "current_trial": 12, "dateTime": 1693481484202, "trialdata": {"revealed_states": [], "clicked_states": [], "num_clicks_accrued": [0, 0, 0, 0, 0, 0, 0, 0, 0, 0, 0, 0, 0], "stateRewards": ["", -2, 1, -5, 2, -68, 80, 33, 10, 67, -59, 20, -1, -3, 3, 14, 74, -2, 24, -16, 63, 80, 46, -1, 4, 6, 12, 83, -38, -43, -4, 43, 14, -79], "withholdReward": false, "trial_id": "mdp_trial_4", "block": "test", "trialIndex": 5, "score": -55, "costs": 0, "simulationMode": [null, null, null, null, null], "rewards": [-2, 1, -5, 10, -59], "path": ["0", "0", "1", "2", "3", "8", "10"], "rt": [1149, 94, 588, 225, 89], "actions": ["up", "up", "up", "left", "down"], "actionTimes": [6786, 7400, 8479, 9215, 9814], "queries": {"click": {"state": {"target": [], "time": []}, "edge": {"target": [], "time": []}}, "mouseover": {"state": {"target": [], "time": []}, "edge": {"target": [], "time": []}}, "mouseout": {"state": {"target": ["9", "1", "0", "0", "0"], "time": [4388, 4456, 4491, 5040, 12523]}, "edge": {"target": [], "time": []}}}, "displayed_time": "19.65", "trialTime": 21985, "trial_type": "mouselab-mdp", "trial_index": 12, "time_elapsed": 584114, "internal_node_id": "0.0-6.0-1.0-3.0"}}, {"uniqueid": "w50106814:a96918990", "current_trial": 13, "dateTime": 1693481515285, "trialdata": {"revealed_states": [], "clicked_states": ["19", "21", "31", "29"], "num_clicks_accrued": [0, 0, 0, 0, 0, 0, 0, 0, 0, 0, 0, 0, 0], "stateRewards": ["", 2, 3, -1, 6, 44, -4, -59, -14, -3, 64, 16, 1, -3, 3, 6, 3, 49, 19, 3, -49, -14, -86, 1, 2, -3, -8, -33, 14, 32, -13, -77, -47, -67], "withholdReward": false, "trial_id": "mdp_trial_5", "block": "test", "trialIndex": 6, "score": 16, "costs": -8, "simulationMode": [null, null, null, null, null, null], "rewards": [1, 2, -3, -8, 32], "path": ["0", "0", "23", "24", "25", "26", "29"], "rt": [10219, 7187, 171, 279, 549, 189], "actions": ["left", "left", "left", "left", "up", "left"], "actionTimes": [13999, 21189, 21858, 22652, 23708, 24411], "queries": {"click": {"state": {"target": ["19", "21", "31", "29"], "time": [5968, 8293, 11639, 16362]}, "edge": {"target": [], "time": []}}, "mouseover": {"state": {"target": ["0", "22", "19", "22", "21", "21", "31", "30", "32", "31", "30", "25", "29", "27"], "time": [4806, 4869, 5367, 6586, 7268, 7651, 9119, 9186, 9555, 10853, 12652, 13052, 15550, 17018]}, "edge": {"target": [], "time": []}}, "mouseout": {"state": {"target": ["0", "0", "22", "19", "22", "21", "21", "31", "30", "32", "31", "30", "25", "29", "27"], "time": [3558, 4822, 4884, 6502, 6619, 7300, 9035, 9151, 9503, 10819, 11759, 13035, 13287, 16868, 29633]}, "edge": {"target": [], "time": []}}}, "displayed_time": "24.90", "trialTime": 30685, "trial_type": "mouselab-mdp", "trial_index": 13, "time_elapsed": 615199, "internal_node_id": "0.0-6.0-1.0-4.0"}}, {"uniqueid": "w50106814:a96918990", "current_trial": 14, "dateTime": 1693481538720, "trialdata": {"revealed_states": [], "clicked_states": ["17", "16"], "num_clicks_accrued": [0, 0, 0, 0, 0, 0, 0, 0, 0, 0, 0, 0, 0], "stateRewards": ["", -1, 2, -6, 6, -82, -19, -39, -16, -83, 11, -33, -2, -2, 4, -6, -82, -1, -19, -6, -10, -67, -41, -2, 1, -7, 16, -23, -78, -52, 14, 31, -71, 74], "withholdReward": false, "trial_id": "mdp_trial_6", "block": "test", "trialIndex": 7, "score": -85.3, "costs": -4.3, "simulationMode": [null, null, null, null, null], "rewards": [-1, 2, -6, 6, -82], "path": ["0", "0", "1", "2", "3", "4", "5"], "rt": [8758, 117, 280, 257, 399], "actions": ["up", "up", "up", "right", "up"], "actionTimes": [16603, 17233, 18013, 18785, 19714], "queries": {"click": {"state": {"target": ["17", "16"], "time": [9319, 13000]}, "edge": {"target": [], "time": []}}, "mouseover": {"state": {"target": ["18", "15", "17", "16", "16"], "time": [8362, 8414, 8909, 10029, 10495]}, "edge": {"target": [], "time": []}}, "mouseout": {"state": {"target": ["27", "1", "18", "15", "17", "16", "16"], "time": [6677, 6761, 8381, 8610, 9928, 10063, 13114]}, "edge": {"target": [], "time": []}}}, "displayed_time": "21.84", "trialTime": 23159, "trial_type": "mouselab-mdp", "trial_index": 14, "time_elapsed": 638632, "internal_node_id": "0.0-6.0-1.0-5.0"}}, {"uniqueid": "w50106814:a96918990", "current_trial": 15, "dateTime": 1693481563428, "trialdata": {"revealed_states": [], "clicked_states": [], "num_clicks_accrued": [0, 0, 0, 0, 0, 0, 0, 0, 0, 0, 0, 0, 0], "stateRewards": ["", 1, -1, 4, 5, -32, 18, 20, 6, -88, -74, 9, -2, 1, -2, -14, 34, -77, -38, -1, 80, -36, 73, 2, 3, -8, 10, -48, -73, -71, -11, -22, 20, 54], "withholdReward": false, "trial_id": "mdp_trial_7", "block": "test", "trialIndex": 8, "score": 6, "costs": 0, "simulationMode": [null, null, null, null, null], "rewards": [2, 3, -8, -11, 20], "path": ["0", "0", "23", "24", "25", "30", "32"], "rt": [9017, 582, 364, 625, 168], "actions": ["left", "left", "left", "down", "down"], "actionTimes": [18087, 19172, 20039, 21198, 21861], "queries": {"click": {"state": {"target": [], "time": []}, "edge": {"target": [], "time": []}}, "mouseover": {"state": {"target": ["23", "28", "25", "30", "32", "30", "24", "23", "0"], "time": [11172, 11222, 11656, 12757, 12823, 14325, 14792, 15876, 15972]}, "edge": {"target": [], "time": []}}, "mouseout": {"state": {"target": ["31", "33", "30", "0", "23", "28", "25", "30", "32", "30", "24", "23", "0"], "time": [6827, 6905, 6957, 11156, 11188, 11578, 12732, 12792, 14291, 14343, 14841, 15905, 16065]}, "edge": {"target": [], "time": []}}}, "displayed_time": "23.07", "trialTime": 24432, "trial_type": "mouselab-mdp", "trial_index": 15, "time_elapsed": 663342, "internal_node_id": "0.0-6.0-1.0-6.0"}}, {"uniqueid": "w50106814:a96918990", "current_trial": 16, "dateTime": 1693481583919, "trialdata": {"revealed_states": [], "clicked_states": ["14", "18", "17"], "num_clicks_accrued": [0, 0, 0, 0, 0, 0, 0, 0, 0, 0, 0, 0, 0], "stateRewards": ["", -1, 3, -4, -14, 78, 67, 2, 13, -32, 28, 39, -2, 1, -4, -4, -4, -42, -86, 11, 64, -29, -32, -1, -4, 2, -7, 5, 68, -61, 2, -21, 85, 50], "withholdReward": false, "trial_id": "mdp_trial_8", "block": "test", "trialIndex": 9, "score": -26.25, "costs": -5.25, "simulationMode": [null, null, null, null, null], "rewards": [-1, 3, -4, 13, -32], "path": ["0", "0", "1", "2", "3", "8", "9"], "rt": [10627, 131, 208, 440, 259], "actions": ["up", "up", "up", "left", "up"], "actionTimes": [14474, 15128, 15838, 16785, 17538], "queries": {"click": {"state": {"target": ["14", "18", "17"], "time": [5880, 7693, 11271]}, "edge": {"target": [], "time": []}}, "mouseover": {"state": {"target": ["0", "12", "13", "14", "15", "18", "15", "17"], "time": [4309, 4889, 4910, 4959, 6478, 6711, 8344, 8728]}, "edge": {"target": [], "time": []}}, "mouseout": {"state": {"target": ["0", "0", "12", "13", "14", "15", "18", "15", "17", "17", "22"], "time": [2799, 4865, 4906, 4920, 6001, 6660, 8261, 8460, 11384, 19336, 19413]}, "edge": {"target": [], "time": []}}}, "displayed_time": "18.05", "trialTime": 20224, "trial_type": "mouselab-mdp", "trial_index": 16, "time_elapsed": 683832, "internal_node_id": "0.0-6.0-1.0-7.0"}}, {"uniqueid": "w50106814:a96918990", "current_trial": 17, "dateTime": 1693481605726, "trialdata": {"revealed_states": [], "clicked_states": ["32", "9", "5"], "num_clicks_accrued": [0, 0, 0, 0, 0, 0, 0, 0, 0, 0, 0, 0, 0], "stateRewards": ["", -1, -4, 8, 8, -68, 47, 24, -7, -61, 49, -69, -1, -1, 8, -7, 42, 1, -45, -11, 10, -63, -6, 1, 4, 6, -16, 79, -37, -58, -12, 81, 18, -53], "withholdReward": false, "trial_id": "mdp_trial_9", "block": "test", "trialIndex": 10, "score": 10.55, "costs": -6.449999999999999, "simulationMode": [null, null, null, null, null], "rewards": [1, 4, 6, -12, 18], "path": ["0", "0", "23", "24", "25", "30", "32"], "rt": [13122, 118, 210, 315, 294], "actions": ["left", "left", "left", "down", "down"], "actionTimes": [15219, 15859, 16584, 17409, 18234], "queries": {"click": {"state": {"target": ["32", "9", "5"], "time": [4581, 8284, 11611]}, "edge": {"target": [], "time": []}}, "mouseover": {"state": {"target": ["23", "31", "32", "30", "11", "9", "5"], "time": [3330, 3897, 4073, 5122, 5206, 5306, 9272]}, "edge": {"target": [], "time": []}}, "mouseout": {"state": {"target": ["0", "23", "31", "32", "30", "11", "9", "5", "4", "2", "31"], "time": [3295, 3446, 3931, 5106, 5140, 5223, 8973, 14106, 20624, 20654, 20804]}, "edge": {"target": [], "time": []}}}, "displayed_time": "18.74", "trialTime": 21492, "trial_type": "mouselab-mdp", "trial_index": 17, "time_elapsed": 705638, "internal_node_id": "0.0-6.0-1.0-8.0"}}, {"uniqueid": "w50106814:a96918990", "current_trial": 18, "dateTime": 1693481637339, "trialdata": {"revealed_states": [], "clicked_states": [], "num_clicks_accrued": [0, 0, 0, 0, 0, 0, 0, 0, 0, 0, 0, 0, 0], "stateRewards": ["", -1, -2, 4, 9, 10, -75, 39, 16, -43, 88, -19, -1, 1, 2, 4, -31, 10, 73, 12, 41, -64, -81, -2, 2, -6, 1, -81, -1, -26, 3, -59, -3, -20], "withholdReward": false, "trial_id": "mdp_trial_10", "block": "test", "trialIndex": 11, "score": -6, "costs": 0, "simulationMode": [null, null, null, null, null], "rewards": [-2, 2, -6, 1, -1], "path": ["0", "0", "23", "24", "25", "26", "28"], "rt": [1232, 893, 374, 375, 203], "actions": ["left", "left", "left", "up", "right"], "actionTimes": [7436, 8843, 9723, 10606, 11319], "queries": {"click": {"state": {"target": [], "time": []}, "edge": {"target": [], "time": []}}, "mouseover": {"state": {"target": [], "time": []}, "edge": {"target": [], "time": []}}, "mouseout": {"state": {"target": ["31", "0", "0"], "time": [5261, 5660, 12944]}, "edge": {"target": [], "time": []}}}, "displayed_time": "20.21", "trialTime": 31329, "trial_type": "mouselab-mdp", "trial_index": 18, "time_elapsed": 737251, "internal_node_id": "0.0-6.0-1.0-9.0"}}, {"uniqueid": "w50106814:a96918990", "current_trial": 19, "dateTime": 1693481661205, "trialdata": {"revealed_states": [], "clicked_states": ["14", "25", "29"], "num_clicks_accrued": [0, 0, 0, 0, 0, 0, 0, 0, 0, 0, 0, 0, 0], "stateRewards": ["", 1, 4, 5, 8, -55, -11, 8, 16, -37, 77, -22, -2, 3, -8, -10, 45, 87, -67, 4, 17, -33, -22, -1, -3, 7, 6, -39, -85, 75, -1, 7, -48, 45], "withholdReward": false, "trial_id": "mdp_trial_11", "block": "test", "trialIndex": 12, "score": 79.95, "costs": -4.05, "simulationMode": [null, null, null, null, null], "rewards": [-1, -3, 7, 6, 75], "path": ["0", "0", "23", "24", "25", "26", "29"], "rt": [11286, 94, 172, 379, 222], "actions": ["left", "left", "left", "up", "left"], "actionTimes": [14500, 15102, 15780, 16654, 17397], "queries": {"click": {"state": {"target": ["14", "25", "29"], "time": [5673, 8121, 10297]}, "edge": {"target": [], "time": []}}, "mouseover": {"state": {"target": ["12", "13", "12", "13", "14", "15", "16", "1", "25", "28", "8", "11", "29", "29", "27", "28"], "time": [3981, 4162, 4774, 5024, 5091, 6340, 6506, 6707, 7326, 8773, 8973, 9374, 9559, 9908, 10839, 12689]}, "edge": {"target": [], "time": []}}, "mouseout": {"state": {"target": ["0", "12", "13", "12", "13", "14", "15", "16", "1", "25", "28", "8", "11", "29", "29", "27"], "time": [1663, 4023, 4379, 4991, 5056, 5782, 6406, 6623, 7017, 8690, 8789, 9325, 9442, 9591, 10756, 12374]}, "edge": {"target": [], "time": []}}}, "displayed_time": "17.89", "trialTime": 23506, "trial_type": "mouselab-mdp", "trial_index": 19, "time_elapsed": 761118, "internal_node_id": "0.0-6.0-1.0-10.0"}}, {"uniqueid": "w50106814:a96918990", "current_trial": 20, "dateTime": 1693481694876, "trialdata": {"revealed_states": [], "clicked_states": ["20", "18", "28", "29"], "num_clicks_accrued": [0, 0, 0, 0, 0, 0, 0, 0, 0, 0, 0, 0, 0], "stateRewards": ["", -1, -3, -7, -7, -76, 30, -49, 11, -70, 56, 2, 1, 4, -3, -14, -59, -83, -25, -9, -21, -67, -73, -2, 4, 4, -9, -11, -32, 60, 9, -87, 22, -64], "withholdReward": false, "trial_id": "mdp_trial_12", "block": "test", "trialIndex": 13, "score": 48.4, "costs": -8.6, "simulationMode": [null, null, null, null, null], "rewards": [-2, 4, 4, -9, 60], "path": ["0", "0", "23", "24", "25", "26", "29"], "rt": [16365, 15, 118, 540, 969], "actions": ["left", "left", "left", "up", "left"], "actionTimes": [21851, 22362, 23014, 24052, 25516], "queries": {"click": {"state": {"target": ["20", "18", "28", "29"], "time": [7379, 11686, 15055, 18555]}, "edge": {"target": [], "time": []}}, "mouseover": {"state": {"target": ["12", "13", "14", "20", "17", "15", "18", "1", "28", "11", "29", "25", "24", "31"], "time": [6016, 6044, 6079, 6834, 8312, 10976, 11211, 12261, 12778, 16062, 17412, 19195, 19294, 19445]}, "edge": {"target": [], "time": []}}, "mouseout": {"state": {"target": ["28", "12", "13", "14", "20", "17", "15", "18", "1", "28", "11", "29", "25", "24", "31"], "time": [4367, 6035, 6054, 6111, 7490, 10955, 10997, 12182, 12445, 15828, 16083, 19145, 19229, 19394, 30038]}, "edge": {"target": [], "time": []}}}, "displayed_time": "26.03", "trialTime": 33348, "trial_type": "mouselab-mdp", "trial_index": 20, "time_elapsed": 794789, "internal_node_id": "0.0-6.0-1.0-11.0"}}, {"uniqueid": "w50106814:a96918990", "current_trial": 21, "dateTime": 1693481715389, "trialdata": {"revealed_states": [], "clicked_states": ["6", "11", "10"], "num_clicks_accrued": [0, 0, 0, 0, 0, 0, 0, 0, 0, 0, 0, 0, 0], "stateRewards": ["", -2, 1, -7, -8, -37, -76, -87, 11, 30, -63, 80, -1, 4, 2, -1, 42, 17, 52, -3, -75, -80, -68, 2, -3, -5, -15, -48, 82, 24, -7, 5, -22, -71], "withholdReward": false, "trial_id": "mdp_trial_13", "block": "test", "trialIndex": 14, "score": 76.55, "costs": -6.449999999999999, "simulationMode": [null, null, null, null, null], "rewards": [-2, 1, -7, 11, 80], "path": ["0", "0", "1", "2", "3", "8", "11"], "rt": [12200, 56, 147, 264, 124], "actions": ["up", "up", "up", "left", "left"], "actionTimes": [15009, 15585, 16243, 17007, 17653], "queries": {"click": {"state": {"target": ["6", "11", "10"], "time": [4430, 7774, 11585]}, "edge": {"target": [], "time": []}}, "mouseover": {"state": {"target": ["1", "7", "6", "6", "4", "3", "8", "11", "9", "8", "10", "10"], "time": [3533, 3577, 3657, 4032, 5025, 5076, 5148, 5409, 8458, 9792, 9859, 10359]}, "edge": {"target": [], "time": []}}, "mouseout": {"state": {"target": ["12", "1", "7", "6", "6", "4", "3", "8", "11", "9", "8", "10", "10"], "time": [1245, 3553, 3608, 3742, 5009, 5058, 5129, 5276, 8261, 9759, 9825, 9976, 19324]}, "edge": {"target": [], "time": []}}}, "displayed_time": "18.14", "trialTime": 20192, "trial_type": "mouselab-mdp", "trial_index": 21, "time_elapsed": 815302, "internal_node_id": "0.0-6.0-1.0-12.0"}}, {"uniqueid": "w50106814:a96918990", "current_trial": 22, "dateTime": 1693481752453, "trialdata": {"revealed_states": [], "clicked_states": ["6", "29", "31", "22", "9"], "num_clicks_accrued": [0, 0, 0, 0, 0, 0, 0, 0, 0, 0, 0, 0, 0], "stateRewards": ["", -2, 3, -5, -7, 66, 43, -60, -4, -70, -75, 4, -1, 2, 2, -13, 54, 11, -40, -1, 77, 32, 15, -2, 3, -8, -9, -35, 83, -27, 6, -74, -34, 44], "withholdReward": false, "trial_id": "mdp_trial_14", "block": "test", "trialIndex": 15, "score": 21.25, "costs": -10.75, "simulationMode": [null, null, null, null, null], "rewards": [-2, 3, -5, -7, 43], "path": ["0", "0", "1", "2", "3", "4", "6"], "rt": [22842, 69, 170, 335, 48], "actions": ["up", "up", "up", "right", "right"], "actionTimes": [30342, 30904, 31590, 32417, 32980], "queries": {"click": {"state": {"target": ["6", "29", "31", "22", "9"], "time": [9254, 13156, 17590, 21874, 27135]}, "edge": {"target": [], "time": []}}, "mouseover": {"state": {"target": ["1", "4", "6", "4", "10", "29", "27", "28", "31", "22", "22", "2", "3", "9"], "time": [8452, 8515, 8632, 9979, 10047, 11614, 13797, 16287, 16649, 20987, 21371, 26020, 26055, 26482]}, "edge": {"target": [], "time": []}}, "mouseout": {"state": {"target": ["10", "18", "15", "15", "12", "1", "4", "6", "4", "10", "29", "27", "28", "31", "22", "22", "2", "3", "9", "28", "24"], "time": [851, 964, 1031, 6484, 6580, 8474, 8562, 9963, 9997, 10064, 13269, 13814, 16306, 18396, 21017, 22747, 26046, 26421, 34763, 34880, 36087]}, "edge": {"target": [], "time": []}}}, "displayed_time": "33.50", "trialTime": 36746, "trial_type": "mouselab-mdp", "trial_index": 22, "time_elapsed": 852366, "internal_node_id": "0.0-6.0-1.0-13.0"}}, {"uniqueid": "w50106814:a96918990", "current_trial": 23, "dateTime": 1693481779543, "trialdata": {"revealed_states": [], "clicked_states": ["11", "33", "22", "17"], "num_clicks_accrued": [0, 0, 0, 0, 0, 0, 0, 0, 0, 0, 0, 0, 0], "stateRewards": ["", -1, 1, 8, -3, -24, 11, -65, -6, -77, 48, 44, -2, 1, -2, -7, -55, -35, 33, 8, -28, 19, -53, -1, -1, -5, -5, -70, 10, 44, 8, -58, -70, 51], "withholdReward": false, "trial_id": "mdp_trial_15", "block": "test", "trialIndex": 16, "score": 43.4, "costs": -8.6, "simulationMode": [null, null, null, null, null], "rewards": [-1, -1, -5, 8, 51], "path": ["0", "0", "23", "24", "25", "30", "33"], "rt": [16861, 710, 168, 378, 935], "actions": ["left", "left", "left", "down", "left"], "actionTimes": [19025, 20274, 20939, 21832, 23273], "queries": {"click": {"state": {"target": ["11", "33", "22", "17"], "time": [3551, 7317, 11507, 15496]}, "edge": {"target": [], "time": []}}, "mouseover": {"state": {"target": ["10", "11", "27", "26", "33", "30", "31", "22", "19", "14", "17", "12"], "time": [2738, 3085, 4321, 4370, 4828, 8085, 8118, 10845, 14069, 14302, 14751, 16119]}, "edge": {"target": [], "time": []}}, "mouseout": {"state": {"target": ["10", "11", "27", "26", "33", "30", "31", "22", "22", "19", "14", "17", "12"], "time": [2903, 4268, 4337, 4386, 8069, 8102, 8135, 12319, 13675, 14086, 14434, 16070, 16136]}, "edge": {"target": [], "time": []}}}, "displayed_time": "23.79", "trialTime": 26772, "trial_type": "mouselab-mdp", "trial_index": 23, "time_elapsed": 879455, "internal_node_id": "0.0-6.0-1.0-14.0"}}, {"uniqueid": "w50106814:a96918990", "current_trial": 24, "dateTime": 1693481803821, "trialdata": {"revealed_states": [], "clicked_states": ["28", "18"], "num_clicks_accrued": [0, 0, 0, 0, 0, 0, 0, 0, 0, 0, 0, 0, 0], "stateRewards": ["", 1, 2, 2, -15, -84, 28, -26, 13, 31, 86, 30, -2, 1, -1, -8, 66, -40, -1, -10, -32, 57, -17, 1, 2, -2, 9, -23, 77, 85, 12, -32, -62, -35], "withholdReward": false, "trial_id": "mdp_trial_16", "block": "test", "trialIndex": 17, "score": 82.7, "costs": -4.3, "simulationMode": [null, null, null, null, null], "rewards": [1, 2, -2, 9, 77], "path": ["0", "0", "23", "24", "25", "26", "28"], "rt": [8887, 164, 130, 198, 69], "actions": ["left", "left", "left", "up", "right"], "actionTimes": [13441, 14100, 14750, 15451, 16039], "queries": {"click": {"state": {"target": ["28", "18"], "time": [5957, 9940]}, "edge": {"target": [], "time": []}}, "mouseover": {"state": {"target": ["23", "28", "18"], "time": [5074, 5406, 9440]}, "edge": {"target": [], "time": []}}, "mouseout": {"state": {"target": ["12", "1", "23", "28", "18", "12"], "time": [1438, 3584, 5102, 7201, 11817, 22135]}, "edge": {"target": [], "time": []}}}, "displayed_time": "18.55", "trialTime": 23931, "trial_type": "mouselab-mdp", "trial_index": 24, "time_elapsed": 903733, "internal_node_id": "0.0-6.0-1.0-15.0"}}, {"uniqueid": "w50106814:a96918990", "current_trial": 25, "dateTime": 1693481830403, "trialdata": {"revealed_states": [], "clicked_states": ["27", "33", "20", "16"], "num_clicks_accrued": [0, 0, 0, 0, 0, 0, 0, 0, 0, 0, 0, 0, 0], "stateRewards": ["", 1, 2, -5, 14, 54, -14, -25, 16, -5, -87, 78, -1, 1, 3, -3, 52, 53, 53, -10, 73, -69, -48, 2, 3, 1, 8, -62, -7, 85, 7, 82, 52, -28], "withholdReward": false, "trial_id": "mdp_trial_17", "block": "test", "trialIndex": 18, "score": 57.4, "costs": -8.6, "simulationMode": [null, null, null, null, null], "rewards": [-1, 1, 3, -10, 73], "path": ["0", "0", "12", "13", "14", "19", "20"], "rt": [18097, 103, 229, 192, 174], "actions": ["right", "right", "right", "down", "right"], "actionTimes": [20228, 20853, 21578, 22293, 22975], "queries": {"click": {"state": {"target": ["27", "33", "20", "16"], "time": [3834, 8135, 11907, 16865]}, "edge": {"target": [], "time": []}}, "mouseover": {"state": {"target": ["28", "27", "26", "33", "33", "30", "31", "21", "20", "0", "7", "16"], "time": [3196, 3264, 4382, 4797, 7287, 8636, 8652, 10848, 11147, 14048, 14264, 14530]}, "edge": {"target": [], "time": []}}, "mouseout": {"state": {"target": ["0", "28", "27", "27", "26", "33", "33", "30", "31", "21", "20", "0", "7", "16", "18"], "time": [3138, 3213, 3953, 4349, 4399, 5082, 8617, 8649, 8664, 10865, 12880, 14064, 14280, 16877, 24488]}, "edge": {"target": [], "time": []}}}, "displayed_time": "23.47", "trialTime": 26227, "trial_type": "mouselab-mdp", "trial_index": 25, "time_elapsed": 930315, "internal_node_id": "0.0-6.0-1.0-16.0"}}, {"uniqueid": "w50106814:a96918990", "current_trial": 26, "dateTime": 1693481850288, "trialdata": {"revealed_states": [], "clicked_states": [], "num_clicks_accrued": [0, 0, 0, 0, 0, 0, 0, 0, 0, 0, 0, 0, 0], "stateRewards": ["", -2, -4, 4, -11, -63, -60, -7, 2, -14, 81, -43, -1, -1, -5, 7, 10, 69, 40, 8, -83, 52, 60, 1, 2, 5, -5, 16, 64, 14, -3, 29, 7, -51], "withholdReward": false, "trial_id": "mdp_trial_18", "block": "test", "trialIndex": 19, "score": 40, "costs": 0, "simulationMode": [null, null, null, null, null], "rewards": [-1, -1, -5, 7, 40], "path": ["0", "0", "12", "13", "14", "15", "18"], "rt": [7316, 405, 235, 93, 266], "actions": ["right", "right", "right", "up", "left"], "actionTimes": [10359, 11281, 12028, 12636, 13410], "queries": {"click": {"state": {"target": [], "time": []}, "edge": {"target": [], "time": []}}, "mouseover": {"state": {"target": ["18", "6", "6", "7"], "time": [5709, 6041, 7115, 8843]}, "edge": {"target": [], "time": []}}, "mouseout": {"state": {"target": ["0", "18", "6", "6", "7", "1", "23", "31"], "time": [2259, 5959, 6559, 8814, 8875, 14901, 14960, 18103]}, "edge": {"target": [], "time": []}}}, "displayed_time": "17.04", "trialTime": 19557, "trial_type": "mouselab-mdp", "trial_index": 26, "time_elapsed": 950201, "internal_node_id": "0.0-6.0-1.0-17.0"}}, {"uniqueid": "w50106814:a96918990", "current_trial": 27, "dateTime": 1693481871387, "trialdata": {"revealed_states": [], "clicked_states": ["10", "6", "29"], "num_clicks_accrued": [0, 0, 0, 0, 0, 0, 0, 0, 0, 0, 0, 0, 0], "stateRewards": ["", 1, 1, -3, 7, 49, 78, 26, -5, 26, 48, -43, -1, -3, 2, -5, 4, -1, -60, 10, -35, 51, 81, -2, 1, -7, -5, -39, -86, -54, 4, -3, 74, 77], "withholdReward": false, "trial_id": "mdp_trial_19", "block": "test", "trialIndex": 20, "score": 77.55, "costs": -6.449999999999999, "simulationMode": [null, null, null, null, null], "rewards": [1, 1, -3, 7, 78], "path": ["0", "0", "1", "2", "3", "4", "6"], "rt": [12816, 89, 210, 192, 100], "actions": ["up", "up", "up", "right", "right"], "actionTimes": [15227, 15829, 16534, 17249, 17858], "queries": {"click": {"state": {"target": ["10", "6", "29"], "time": [3933, 7409, 11672]}, "edge": {"target": [], "time": []}}, "mouseover": {"state": {"target": ["1", "2", "10", "6", "29", "29"], "time": [2845, 2905, 3472, 5427, 10596, 11179]}, "edge": {"target": [], "time": []}}, "mouseout": {"state": {"target": ["0", "1", "2", "10", "6", "29", "29", "25"], "time": [1392, 2878, 3277, 4044, 8146, 10777, 14171, 20344]}, "edge": {"target": [], "time": []}}}, "displayed_time": "18.36", "trialTime": 20719, "trial_type": "mouselab-mdp", "trial_index": 27, "time_elapsed": 971300, "internal_node_id": "0.0-6.0-1.0-18.0"}}, {"uniqueid": "w50106814:a96918990", "current_trial": 28, "dateTime": 1693481895850, "trialdata": {"revealed_states": [], "clicked_states": ["17", "22", "31"], "num_clicks_accrued": [0, 0, 0, 0, 0, 0, 0, 0, 0, 0, 0, 0, 0], "stateRewards": ["", 1, -2, -3, 14, -42, -87, -37, -11, -50, 33, -44, -2, 4, -7, 13, 48, -75, -66, 12, 23, -2, 82, 1, -4, 3, 12, 51, -15, -26, -11, -52, -29, 82], "withholdReward": false, "trial_id": "mdp_trial_20", "block": "test", "trialIndex": 21, "score": 82.55, "costs": -6.449999999999999, "simulationMode": [null, null, null, null, null], "rewards": [-2, 4, -7, 12, 82], "path": ["0", "0", "12", "13", "14", "19", "22"], "rt": [12672, 143, 210, 523, 372], "actions": ["right", "right", "right", "down", "left"], "actionTimes": [16324, 16977, 17694, 18724, 19610], "queries": {"click": {"state": {"target": ["17", "22", "31"], "time": [5938, 9298, 12597]}, "edge": {"target": [], "time": []}}, "mouseover": {"state": {"target": ["14", "17", "15", "0", "12", "22", "31", "30", "31", "28"], "time": [5000, 5319, 6635, 7401, 7848, 7931, 9898, 9948, 10282, 13515]}, "edge": {"target": [], "time": []}}, "mouseout": {"state": {"target": ["24", "23", "14", "17", "15", "0", "12", "22", "31", "30", "31", "28", "24", "30"], "time": [1170, 1234, 5017, 6629, 6648, 7814, 7865, 9782, 9916, 10231, 13248, 14932, 21766, 22034]}, "edge": {"target": [], "time": []}}}, "displayed_time": "20.77", "trialTime": 24108, "trial_type": "mouselab-mdp", "trial_index": 28, "time_elapsed": 995762, "internal_node_id": "0.0-6.0-1.0-19.0"}}, {"uniqueid": "w50106814:a96918990", "current_trial": 29, "dateTime": 1693481951903, "trialdata": {"revealed_states": [], "clicked_states": ["33", "27", "5", "10", "17", "22", "21"], "num_clicks_accrued": [0, 0, 0, 0, 0, 0, 0, 0, 0, 0, 0, 0, 0], "stateRewards": ["", 2, 3, -3, 12, -43, 81, -82, -15, 58, -7, -75, -1, -1, 3, -5, 50, -25, -8, 4, 66, 65, -66, 2, -4, 2, -1, -10, 10, 37, 11, 88, -37, 8], "withholdReward": false, "trial_id": "mdp_trial_21", "block": "test", "trialIndex": 22, "score": 54.95, "costs": -15.05, "simulationMode": [null, null, null, null, null], "rewards": [-1, -1, 3, 4, 65], "path": ["0", "0", "12", "13", "14", "19", "21"], "rt": [26798, 29, 105, 297, 242], "actions": ["right", "right", "right", "down", "down"], "actionTimes": [50046, 50573, 51197, 51991, 52719], "queries": {"click": {"state": {"target": ["33", "27", "5", "10", "17", "22", "21"], "time": [25048, 28515, 31832, 35253, 38575, 42767, 46219]}, "edge": {"target": [], "time": []}}, "mouseover": {"state": {"target": ["33", "27", "8", "5", "6", "7", "2", "10", "2", "7", "16", "17", "20", "19", "22", "19", "21"], "time": [24344, 26192, 29109, 29425, 32375, 34109, 34175, 34309, 35975, 36010, 36125, 36641, 41834, 42127, 42209, 43509, 45291]}, "edge": {"target": [], "time": []}}, "mouseout": {"state": {"target": ["0", "33", "27", "8", "5", "6", "7", "2", "10", "2", "7", "16", "17", "20", "19", "22", "19", "21"], "time": [24199, 25575, 28958, 29126, 32309, 32792, 34142, 34226, 35958, 35991, 36043, 36191, 40058, 42077, 42161, 43475, 43542, 47026]}, "edge": {"target": [], "time": []}}}, "displayed_time": "53.21", "trialTime": 55722, "trial_type": "mouselab-mdp", "trial_index": 29, "time_elapsed": 1051815, "internal_node_id": "0.0-6.0-1.0-20.0"}}, {"uniqueid": "w50106814:a96918990", "current_trial": 30, "dateTime": 1693481978555, "trialdata": {"revealed_states": [], "clicked_states": ["17", "28", "10", "6", "31"], "num_clicks_accrued": [0, 0, 0, 0, 0, 0, 0, 0, 0, 0, 0, 0, 0], "stateRewards": ["", 1, -4, 6, -3, 40, 76, -51, 5, -24, -63, 44, -2, -2, 8, 1, 76, -85, -58, 10, 59, 20, 11, -2, 3, -3, 3, -82, -10, 54, -7, -57, -6, -32], "withholdReward": false, "trial_id": "mdp_trial_22", "block": "test", "trialIndex": 23, "score": 65.25, "costs": -10.75, "simulationMode": [null, null, null, null, null], "rewards": [1, -4, 6, -3, 76], "path": ["0", "0", "1", "2", "3", "4", "6"], "rt": [19028, 684, 138, 179, 74], "actions": ["up", "up", "up", "right", "right"], "actionTimes": [20798, 21975, 22629, 23303, 23882], "queries": {"click": {"state": {"target": ["17", "28", "10", "6", "31"], "time": [3368, 6786, 10049, 13630, 17183]}, "edge": {"target": [], "time": []}}, "mouseover": {"state": {"target": ["1", "15", "17", "15", "12", "24", "28", "10", "4", "6", "7", "31"], "time": [2478, 2607, 2740, 4107, 4256, 5126, 5340, 7523, 10591, 10690, 14239, 14556]}, "edge": {"target": [], "time": []}}, "mouseout": {"state": {"target": ["0", "0", "1", "15", "17", "15", "12", "24", "28", "10", "4", "6", "7", "31"], "time": [778, 2377, 2507, 2673, 4090, 4140, 4356, 5139, 7240, 10511, 10623, 14207, 14256, 17739]}, "edge": {"target": [], "time": []}}}, "displayed_time": "24.39", "trialTime": 26289, "trial_type": "mouselab-mdp", "trial_index": 30, "time_elapsed": 1078468, "internal_node_id": "0.0-6.0-1.0-21.0"}}, {"uniqueid": "w50106814:a96918990", "current_trial": 31, "dateTime": 1693482037194, "trialdata": {"revealed_states": [], "clicked_states": [], "num_clicks_accrued": [0, 0, 0, 0, 0, 0, 0, 0, 0, 0, 0, 0, 0], "stateRewards": ["", 1, 3, 3, -10, 52, 68, 59, 12, 7, 49, 21, -2, -3, -4, -2, -2, 63, 63, -4, 44, 43, -76, -2, -3, -6, 13, 48, 36, 12, -5, -36, -33, -11], "withholdReward": false, "trial_id": "mdp_trial_23", "block": "test", "trialIndex": 24, "score": -49, "costs": 0, "simulationMode": [null, null, null, null, null], "rewards": [-2, -3, -6, -5, -33], "path": ["0", "0", "23", "24", "25", "30", "32"], "rt": [4227, 110, 279, 220, 229], "actions": ["left", "left", "left", "down", "down"], "actionTimes": [6470, 7101, 7885, 8648, 9369], "queries": {"click": {"state": {"target": [], "time": []}, "edge": {"target": [], "time": []}}, "mouseover": {"state": {"target": ["23", "23", "24", "25", "33"], "time": [3742, 4104, 4153, 4303, 5209]}, "edge": {"target": [], "time": []}}, "mouseout": {"state": {"target": ["0", "23", "23", "24", "25", "33", "33", "30"], "time": [1409, 3786, 4136, 4254, 5126, 10955, 11693, 11721]}, "edge": {"target": [], "time": []}}}, "displayed_time": "16.25", "trialTime": 58295, "trial_type": "mouselab-mdp", "trial_index": 31, "time_elapsed": 1137107, "internal_node_id": "0.0-6.0-1.0-22.0"}}, {"uniqueid": "w50106814:a96918990", "current_trial": 32, "dateTime": 1693482058926, "trialdata": {"revealed_states": [], "clicked_states": ["33", "27", "6"], "num_clicks_accrued": [0, 0, 0, 0, 0, 0, 0, 0, 0, 0, 0, 0, 0], "stateRewards": ["", 2, -4, -4, 13, -80, 62, 13, -11, 57, -13, -44, 1, 4, 3, -4, -29, -88, 15, 16, -58, 68, -45, -1, -3, -1, -9, -44, -86, -19, -7, -36, 59, 66], "withholdReward": false, "trial_id": "mdp_trial_24", "block": "test", "trialIndex": 25, "score": 47.55, "costs": -6.449999999999999, "simulationMode": [null, null, null, null, null], "rewards": [-1, -3, -1, -7, 66], "path": ["0", "0", "23", "24", "25", "30", "33"], "rt": [12085, 100, 131, 199, 379], "actions": ["left", "left", "left", "down", "left"], "actionTimes": [15785, 16405, 17036, 17754, 18651], "queries": {"click": {"state": {"target": ["33", "27", "6"], "time": [5052, 8697, 12202]}, "edge": {"target": [], "time": []}}, "mouseover": {"state": {"target": ["30", "33", "29", "27", "8", "3", "16", "6", "18", "13", "22"], "time": [4235, 4575, 5770, 6171, 9420, 9470, 10070, 10287, 12920, 12953, 13053]}, "edge": {"target": [], "time": []}}, "mouseout": {"state": {"target": ["0", "0", "30", "33", "29", "27", "8", "3", "16", "6", "18", "13", "22"], "time": [2586, 4146, 4319, 5670, 5887, 9303, 9437, 9520, 10220, 12853, 12937, 12987, 20644]}, "edge": {"target": [], "time": []}}}, "displayed_time": "19.15", "trialTime": 21390, "trial_type": "mouselab-mdp", "trial_index": 32, "time_elapsed": 1158838, "internal_node_id": "0.0-6.0-1.0-23.0"}}, {"uniqueid": "w50106814:a96918990", "current_trial": 33, "dateTime": 1693482093732, "trialdata": {"revealed_states": [], "clicked_states": ["17", "21", "32", "27"], "num_clicks_accrued": [0, 0, 0, 0, 0, 0, 0, 0, 0, 0, 0, 0, 0], "stateRewards": ["", -2, -3, 7, -13, 60, 9, 37, -6, 37, 20, 1, 2, -2, -8, 6, -80, -31, -10, -7, 70, -65, -44, -1, 1, 7, 6, -11, 73, -85, 16, -21, 47, 34], "withholdReward": false, "trial_id": "mdp_trial_25", "block": "test", "trialIndex": 26, "score": 61.4, "costs": -8.6, "simulationMode": [null, null, null, null, null], "rewards": [-1, 1, 7, 16, 47], "path": ["0", "0", "23", "24", "25", "30", "32"], "rt": [18626, 640, 202, 394, 117], "actions": ["left", "left", "left", "down", "down"], "actionTimes": [23629, 24774, 25469, 26377, 27000], "queries": {"click": {"state": {"target": ["17", "21", "32", "27"], "time": [6479, 10675, 14901, 19483]}, "edge": {"target": [], "time": []}}, "mouseover": {"state": {"target": ["12", "13", "14", "17", "20", "21", "32", "31", "30", "33", "29", "27", "28", "24"], "time": [5514, 5566, 5631, 5915, 9922, 10104, 14067, 17016, 17082, 17349, 18840, 18981, 20265, 20315]}, "edge": {"target": [], "time": []}}, "mouseout": {"state": {"target": ["0", "12", "13", "14", "17", "20", "21", "32", "31", "30", "33", "29", "27", "27", "28", "24"], "time": [4234, 5548, 5599, 5831, 7715, 9966, 11415, 15432, 17049, 17165, 18822, 18858, 19604, 20232, 20281, 20348]}, "edge": {"target": [], "time": []}}}, "displayed_time": "27.50", "trialTime": 34474, "trial_type": "mouselab-mdp", "trial_index": 33, "time_elapsed": 1193645, "internal_node_id": "0.0-6.0-1.0-24.0"}}, {"uniqueid": "w50106814:a96918990", "current_trial": 34, "dateTime": 1693482125753, "trialdata": {"revealed_states": [], "clicked_states": ["33", "27", "6", "22", "17"], "num_clicks_accrued": [0, 0, 0, 0, 0, 0, 0, 0, 0, 0, 0, 0, 0], "stateRewards": ["", 2, -3, 5, 11, -79, 54, 11, -9, -78, 33, 22, -2, -1, 2, 14, 43, 34, 1, 10, 49, -65, 39, -1, 1, -1, 3, -16, -2, 11, 2, 12, 48, -65], "withholdReward": false, "trial_id": "mdp_trial_26", "block": "test", "trialIndex": 27, "score": 58.25, "costs": -10.75, "simulationMode": [null, null, null, null, null], "rewards": [2, -3, 5, 11, 54], "path": ["0", "0", "1", "2", "3", "4", "6"], "rt": [19917, 117, 175, 335, 106], "actions": ["up", "up", "up", "right", "right"], "actionTimes": [23727, 24359, 25052, 25894, 26515], "queries": {"click": {"state": {"target": ["33", "27", "6", "22", "17"], "time": [5948, 9277, 12608, 16445, 20405]}, "edge": {"target": [], "time": []}}, "mouseover": {"state": {"target": ["0", "31", "30", "33", "30", "25", "26", "27", "6", "22", "22", "19", "20", "17", "13"], "time": [4829, 5146, 5328, 5441, 6724, 6874, 7024, 7606, 10794, 14774, 15333, 17809, 17841, 19623, 21340]}, "edge": {"target": [], "time": []}}, "mouseout": {"state": {"target": ["0", "31", "30", "33", "30", "25", "26", "27", "6", "22", "22", "22", "19", "20", "17", "13"], "time": [5013, 5309, 5373, 6708, 6758, 6940, 7490, 10791, 13062, 14791, 16563, 17806, 17824, 17858, 21274, 21357]}, "edge": {"target": [], "time": []}}}, "displayed_time": "27.03", "trialTime": 31654, "trial_type": "mouselab-mdp", "trial_index": 34, "time_elapsed": 1225666, "internal_node_id": "0.0-6.0-1.0-25.0"}}, {"uniqueid": "w50106814:a96918990", "current_trial": 35, "dateTime": 1693482165698, "trialdata": {"revealed_states": [], "clicked_states": ["17", "7", "11", "29", "31", "22", "20", "10"], "num_clicks_accrued": [0, 0, 0, 0, 0, 0, 0, 0, 0, 0, 0, 0, 0], "stateRewards": ["", 2, 3, 8, 11, 25, -80, 6, -4, -56, 84, -23, -2, -4, -3, 4, -51, -9, -61, -15, -64, 67, -35, 1, -1, -7, -6, 83, 59, -15, 12, -79, 56, 41], "withholdReward": false, "trial_id": "mdp_trial_27", "block": "test", "trialIndex": 28, "score": 75.8, "costs": -17.2, "simulationMode": [null, null, null, null, null], "rewards": [2, 3, 8, -4, 84], "path": ["0", "0", "1", "2", "3", "8", "10"], "rt": [29652, 300, 164, 318, 160], "actions": ["up", "up", "up", "left", "down"], "actionTimes": [33472, 34289, 34973, 35806, 36465], "queries": {"click": {"state": {"target": ["17", "7", "11", "29", "31", "22", "20", "10"], "time": [5630, 8960, 12546, 15891, 19273, 22613, 25972, 29470]}, "edge": {"target": [], "time": []}}, "mouseover": {"state": {"target": ["17", "16", "6", "7", "2", "10", "11", "27", "29", "25", "31", "22", "19", "20", "20", "19", "0", "1", "10", "23", "32"], "time": [5193, 6185, 6370, 7053, 9452, 9486, 9719, 13153, 13491, 16603, 16953, 20487, 24020, 24120, 24486, 26552, 27870, 27952, 28702, 30107, 31953]}, "edge": {"target": [], "time": []}}, "mouseout": {"state": {"target": ["0", "17", "16", "6", "7", "2", "10", "11", "27", "29", "25", "31", "22", "19", "20", "20", "19", "0", "1", "10", "10", "23", "32"], "time": [3156, 6126, 6236, 6953, 9420, 9469, 9542, 13120, 13187, 16537, 16687, 19870, 23985, 24069, 24237, 26536, 26569, 27886, 28053, 29594, 30069, 30131, 38476]}, "edge": {"target": [], "time": []}}}, "displayed_time": "36.95", "trialTime": 39611, "trial_type": "mouselab-mdp", "trial_index": 35, "time_elapsed": 1265611, "internal_node_id": "0.0-6.0-1.0-26.0"}}, {"uniqueid": "w50106814:a96918990", "current_trial": 36, "dateTime": 1693482200740, "trialdata": {"revealed_states": [], "clicked_states": ["33", "27", "7", "20", "16", "9"], "num_clicks_accrued": [0, 0, 0, 0, 0, 0, 0, 0, 0, 0, 0, 0, 0], "stateRewards": ["", 2, -3, 5, -14, -63, -9, -24, -11, -54, -43, 68, 2, -2, -4, 7, -64, 30, 47, 12, -74, 11, 86, 1, -3, 3, 10, -71, -42, -52, -1, -29, -16, 69], "withholdReward": false, "trial_id": "mdp_trial_28", "block": "test", "trialIndex": 29, "score": 56.1, "costs": -12.9, "simulationMode": [null, null, null, null, null], "rewards": [1, -3, 3, -1, 69], "path": ["0", "0", "23", "24", "25", "30", "33"], "rt": [23904, 117, 144, 228, 89], "actions": ["left", "left", "left", "down", "left"], "actionTimes": [29783, 30415, 31074, 31840, 32436], "queries": {"click": {"state": {"target": ["33", "27", "7", "20", "16", "9"], "time": [8570, 12258, 15914, 19267, 22650, 26035]}, "edge": {"target": [], "time": []}}, "mouseover": {"state": {"target": ["33", "29", "29", "27", "7", "12", "22", "19", "20", "17", "16", "6", "5", "9"], "time": [8078, 9361, 9928, 10129, 13895, 16896, 17295, 17373, 17563, 20429, 20812, 23229, 23312, 23812]}, "edge": {"target": [], "time": []}}, "mouseout": {"state": {"target": ["0", "33", "29", "29", "27", "7", "7", "12", "22", "19", "20", "17", "16", "6", "5", "9", "10"], "time": [7530, 8685, 9395, 9996, 13429, 16029, 16829, 16929, 17348, 17481, 20248, 20529, 23195, 23262, 23412, 27212, 33968]}, "edge": {"target": [], "time": []}}}, "displayed_time": "32.95", "trialTime": 34711, "trial_type": "mouselab-mdp", "trial_index": 36, "time_elapsed": 1300652, "internal_node_id": "0.0-6.0-1.0-27.0"}}, {"uniqueid": "w50106814:a96918990", "current_trial": 37, "dateTime": 1693482230190, "trialdata": {"revealed_states": [], "clicked_states": ["33", "7", "22", "21", "32"], "num_clicks_accrued": [0, 0, 0, 0, 0, 0, 0, 0, 0, 0, 0, 0, 0], "stateRewards": ["", -1, 2, -2, 13, -56, -28, 10, 14, 53, -80, -29, 1, -3, -3, -14, 14, 9, -40, -9, 18, 18, 48, 1, 1, 1, -9, 64, -39, -9, 7, -52, -78, 7], "withholdReward": false, "trial_id": "mdp_trial_29", "block": "test", "trialIndex": 30, "score": 23.25, "costs": -10.75, "simulationMode": [null, null, null, null, null], "rewards": [1, -3, -3, -9, 48], "path": ["0", "0", "12", "13", "14", "19", "22"], "rt": [22158, 77, 100, 122, 334], "actions": ["right", "right", "right", "down", "left"], "actionTimes": [24259, 24851, 25457, 26098, 26942], "queries": {"click": {"state": {"target": ["33", "7", "22", "21", "32"], "time": [3217, 6766, 10271, 15009, 20546]}, "edge": {"target": [], "time": []}}, "mouseover": {"state": {"target": ["30", "33", "29", "27", "28", "2", "7", "7", "12", "22", "19", "20", "19", "19", "21", "20", "32"], "time": [2522, 2705, 3840, 4006, 4289, 4623, 4757, 5089, 7756, 8122, 12940, 13188, 13907, 14123, 14423, 15589, 20198]}, "edge": {"target": [], "time": []}}, "mouseout": {"state": {"target": ["0", "30", "33", "29", "27", "28", "2", "7", "7", "12", "22", "19", "20", "19", "19", "21", "20", "32"], "time": [2404, 2588, 3739, 3892, 4172, 4307, 4706, 4840, 7672, 7789, 11440, 13023, 13744, 13973, 14190, 15540, 15623, 21090]}, "edge": {"target": [], "time": []}}}, "displayed_time": "27.44", "trialTime": 29089, "trial_type": "mouselab-mdp", "trial_index": 37, "time_elapsed": 1330102, "internal_node_id": "0.0-6.0-1.0-28.0"}}, {"uniqueid": "w50106814:a96918990", "current_trial": 38, "dateTime": 1693482272048, "trialdata": {"revealed_states": [], "clicked_states": ["11", "6", "17", "20", "33", "29", "28", "31"], "num_clicks_accrued": [0, 0, 0, 0, 0, 0, 0, 0, 0, 0, 0, 0, 0], "stateRewards": ["", -2, -1, 3, -3, 71, -58, -21, 7, -10, -75, -37, 2, 4, -1, -12, -79, -29, -48, 3, -41, -10, -30, -1, -2, 1, -15, 13, 66, 22, -1, -42, -86, -55], "withholdReward": false, "trial_id": "mdp_trial_30", "block": "test", "trialIndex": 31, "score": 31.799999999999997, "costs": -17.2, "simulationMode": [null, null, null, null, null], "rewards": [-1, -2, 1, -15, 66], "path": ["0", "0", "23", "24", "25", "26", "28"], "rt": [32353, 57, 113, 104, 291], "actions": ["left", "left", "left", "up", "right"], "actionTimes": [34485, 35066, 35685, 36311, 37098], "queries": {"click": {"state": {"target": ["11", "6", "17", "20", "33", "29", "28", "31"], "time": [4203, 7803, 11490, 15129, 18466, 21787, 25667, 30403]}, "edge": {"target": [], "time": []}}, "mouseover": {"state": {"target": ["11", "8", "3", "4", "6", "16", "17", "19", "22", "19", "20", "19", "22", "30", "33", "29", "26", "28", "2", "31"], "time": [3512, 4838, 4889, 4939, 5238, 8422, 8514, 12088, 12472, 12906, 12955, 15622, 15641, 16239, 16371, 19722, 24156, 24255, 27142, 29889]}, "edge": {"target": [], "time": []}}, "mouseout": {"state": {"target": ["11", "8", "3", "4", "6", "16", "17", "19", "22", "19", "20", "19", "22", "30", "33", "29", "26", "28", "2", "31"], "time": [4821, 4873, 4923, 5045, 8389, 8462, 12022, 12155, 12888, 12939, 15605, 15639, 15656, 16289, 19256, 24154, 24205, 26839, 28836, 32071]}, "edge": {"target": [], "time": []}}}, "displayed_time": "37.59", "trialTime": 41428, "trial_type": "mouselab-mdp", "trial_index": 38, "time_elapsed": 1371960, "internal_node_id": "0.0-6.0-1.0-29.0"}}, {"uniqueid": "w50106814:a96918990", "current_trial": 39, "dateTime": 1693482292778, "trialdata": {"revealed_states": [], "clicked_states": ["17", "10", "33"], "num_clicks_accrued": [0, 0, 0, 0, 0, 0, 0, 0, 0, 0, 0, 0, 0], "stateRewards": ["", -1, 3, 8, 9, -53, 20, -84, 2, -28, -62, -31, -1, -2, -7, 2, 51, 58, 45, -4, -17, -41, 36, 2, -2, -7, -15, 29, -54, -37, -16, -43, 65, -17], "withholdReward": false, "trial_id": "mdp_trial_31", "block": "test", "trialIndex": 32, "score": 43.55, "costs": -6.449999999999999, "simulationMode": [null, null, null, null, null], "rewards": [-1, -2, -7, 2, 58], "path": ["0", "0", "12", "13", "14", "15", "17"], "rt": [12941, 44, 74, 144, 89], "actions": ["right", "right", "right", "up", "right"], "actionTimes": [16115, 16671, 17263, 17916, 18513], "queries": {"click": {"state": {"target": ["17", "10", "33"], "time": [4631, 8144, 12102]}, "edge": {"target": [], "time": []}}, "mouseover": {"state": {"target": ["17", "4", "4", "7", "2", "10", "28", "25", "30", "33", "30"], "time": [4212, 5438, 5621, 5838, 5955, 6305, 10938, 11359, 11455, 11637, 14471]}, "edge": {"target": [], "time": []}}, "mouseout": {"state": {"target": ["0", "0", "32", "30", "23", "0", "17", "4", "4", "7", "2", "10", "10", "28", "25", "30", "33", "30"], "time": [1004, 1454, 1656, 2075, 2271, 3662, 5287, 5521, 5672, 5905, 6022, 8261, 10888, 10971, 11389, 11487, 14439, 14489]}, "edge": {"target": [], "time": []}}}, "displayed_time": "19.01", "trialTime": 20360, "trial_type": "mouselab-mdp", "trial_index": 39, "time_elapsed": 1392691, "internal_node_id": "0.0-6.0-1.0-30.0"}}, {"uniqueid": "w50106814:a96918990", "current_trial": 40, "dateTime": 1693482366065, "trialdata": {"revealed_states": [], "clicked_states": ["5"], "num_clicks_accrued": [0, 0, 0, 0, 0, 0, 0, 0, 0, 0, 0, 0, 0], "stateRewards": ["", -1, 1, -6, -1, 80, 23, 2, -11, 73, -81, 59, 1, 3, 5, -1, -26, 28, -3, 16, -59, -13, -50, -2, -2, 2, 15, -50, 86, 17, -4, 37, 35, 44], "withholdReward": false, "trial_id": "mdp_trial_32", "block": "test", "trialIndex": 33, "score": 70.85, "costs": -2.15, "simulationMode": [null, null, null, null, null], "rewards": [-1, 1, -6, -1, 80], "path": ["0", "0", "1", "2", "3", "4", "5"], "rt": [5788, 84, 124, 606, 100], "actions": ["up", "up", "up", "right", "up"], "actionTimes": [8371, 8956, 9579, 10677, 11288], "queries": {"click": {"state": {"target": ["5"], "time": [4017]}, "edge": {"target": [], "time": []}}, "mouseover": {"state": {"target": ["1", "2", "4", "5", "4", "7", "23", "24", "25", "30", "32"], "time": [3010, 3052, 3186, 3453, 4603, 4657, 4803, 4854, 5403, 5454, 5736]}, "edge": {"target": [], "time": []}}, "mouseout": {"state": {"target": ["0", "1", "2", "4", "5", "4", "7", "23", "24", "25", "30", "32"], "time": [1659, 3035, 3118, 3235, 4554, 4619, 4683, 4819, 4870, 5420, 5519, 14593]}, "edge": {"target": [], "time": []}}}, "displayed_time": "16.59", "trialTime": 72927, "trial_type": "mouselab-mdp", "trial_index": 40, "time_elapsed": 1465977, "internal_node_id": "0.0-6.0-1.0-31.0"}}, {"uniqueid": "w50106814:a96918990", "current_trial": 41, "dateTime": 1693482401791, "trialdata": {"revealed_states": [], "clicked_states": ["33", "11", "17", "22", "29", "10", "6"], "num_clicks_accrued": [0, 0, 0, 0, 0, 0, 0, 0, 0, 0, 0, 0, 0], "stateRewards": ["", -1, 3, 1, -7, 56, 76, 57, 3, 11, -9, 14, 1, -2, 2, 8, -77, -3, 79, -5, 88, 24, -66, -2, -1, 7, -7, -30, 14, -76, 11, -36, 28, -6], "withholdReward": false, "trial_id": "mdp_trial_33", "block": "test", "trialIndex": 34, "score": 56.95, "costs": -15.05, "simulationMode": [null, null, null, null, null], "rewards": [-1, 3, 1, -7, 76], "path": ["0", "0", "1", "2", "3", "4", "6"], "rt": [28285, 44, 117, 200, 101], "actions": ["up", "up", "up", "right", "right"], "actionTimes": [30177, 30741, 31347, 32047, 32648], "queries": {"click": {"state": {"target": ["33", "11", "17", "22", "29", "10", "6"], "time": [3082, 6450, 9905, 13367, 17644, 21760, 25875]}, "edge": {"target": [], "time": []}}, "mouseover": {"state": {"target": ["23", "24", "33", "11", "11", "8", "3", "4", "6", "16", "17", "14", "22", "31", "29", "26", "2", "10", "23", "0", "7", "6", "7", "1", "23", "23", "3", "5", "8", "11"], "time": [2163, 2196, 2411, 4145, 4446, 6929, 6962, 6980, 7028, 7295, 7862, 10728, 10861, 16651, 17185, 20079, 21101, 21297, 22812, 23895, 24428, 25447, 26628, 26666, 26697, 29018, 29110, 29177, 29461, 29528]}, "edge": {"target": [], "time": []}}, "mouseout": {"state": {"target": ["31", "23", "0", "23", "24", "33", "11", "11", "8", "3", "4", "6", "16", "17", "14", "22", "31", "29", "26", "2", "10", "23", "0", "7", "6", "7", "1", "23", "23", "3", "5", "8"], "time": [848, 896, 1129, 2181, 2210, 3745, 4212, 6913, 6947, 6978, 6995, 7094, 7778, 10661, 10779, 14461, 16667, 20062, 20096, 21214, 22778, 22829, 23962, 25146, 26595, 26645, 26693, 26723, 29050, 29126, 29414, 29483]}, "edge": {"target": [], "time": []}}}, "displayed_time": "33.15", "trialTime": 35312, "trial_type": "mouselab-mdp", "trial_index": 41, "time_elapsed": 1501704, "internal_node_id": "0.0-6.0-1.0-32.0"}}, {"uniqueid": "w50106814:a96918990", "current_trial": 42, "dateTime": 1693482434986, "trialdata": {"revealed_states": [], "clicked_states": ["32", "28", "18", "7", "9"], "num_clicks_accrued": [0, 0, 0, 0, 0, 0, 0, 0, 0, 0, 0, 0, 0], "stateRewards": ["", -1, 4, -5, 9, 29, -75, -42, -16, 24, -28, -41, 2, -3, 1, 10, 60, 47, 55, -1, -53, 22, -40, 2, -3, -6, 4, -26, 44, 54, 15, -76, 42, 14], "withholdReward": false, "trial_id": "mdp_trial_34", "block": "test", "trialIndex": 35, "score": 54.25, "costs": -10.75, "simulationMode": [null, null, null, null, null], "rewards": [2, -3, 1, 10, 55], "path": ["0", "0", "12", "13", "14", "15", "18"], "rt": [21543, 156, 196, 229, 216], "actions": ["right", "right", "right", "up", "left"], "actionTimes": [25201, 25879, 26585, 27319, 28039], "queries": {"click": {"state": {"target": ["32", "28", "18", "7", "9"], "time": [4913, 8278, 11942, 16052, 21092]}, "edge": {"target": [], "time": []}}, "mouseover": {"state": {"target": ["23", "31", "30", "32", "28", "18", "13", "22", "0", "7", "1", "2", "10", "8", "9", "8", "10", "0"], "time": [3887, 3953, 4004, 4409, 5621, 9170, 12838, 12887, 14057, 15952, 19407, 19624, 19789, 20397, 20688, 21737, 21771, 21838]}, "edge": {"target": [], "time": []}}, "mouseout": {"state": {"target": ["11", "27", "29", "25", "24", "23", "0", "23", "31", "30", "32", "28", "18", "13", "22", "0", "7", "7", "1", "2", "10", "8", "9", "9", "8", "10", "0"], "time": [825, 887, 972, 1692, 1755, 2625, 3856, 3905, 3971, 4054, 5471, 8821, 12821, 12871, 12921, 14105, 16063, 16654, 19589, 19654, 20361, 20439, 21210, 21721, 21754, 21788, 21854]}, "edge": {"target": [], "time": []}}}, "displayed_time": "28.56", "trialTime": 32833, "trial_type": "mouselab-mdp", "trial_index": 42, "time_elapsed": 1534899, "internal_node_id": "0.0-6.0-1.0-33.0"}}, {"uniqueid": "w50106814:a96918990", "current_trial": 43, "dateTime": 1693482469511, "trialdata": {"revealed_states": [], "clicked_states": ["16", "21", "31"], "num_clicks_accrued": [0, 0, 0, 0, 0, 0, 0, 0, 0, 0, 0, 0, 0], "stateRewards": ["", 1, 3, -2, 15, 51, 15, -19, 11, 67, -45, -73, 2, 4, -2, -13, 36, 9, -28, 10, -30, 31, 16, 1, 2, -1, -16, 14, -22, 36, -1, 88, -5, 45], "withholdReward": false, "trial_id": "mdp_trial_35", "block": "test", "trialIndex": 36, "score": 82.55, "costs": -6.449999999999999, "simulationMode": [null, null, null, null, null], "rewards": [1, 2, -1, -1, 88], "path": ["0", "0", "23", "24", "25", "30", "31"], "rt": [13814, 127, 154, 163, 510], "actions": ["left", "left", "left", "down", "right"], "actionTimes": [15838, 16467, 17128, 17787, 18816], "queries": {"click": {"state": {"target": ["16", "21", "31"], "time": [4119, 8264, 11910]}, "edge": {"target": [], "time": []}}, "mouseover": {"state": {"target": ["16", "16", "6", "4", "7", "13", "19", "21", "31", "30", "32", "31", "24", "28", "10", "10"], "time": [2706, 3779, 4689, 4871, 4939, 6039, 6172, 7806, 8872, 9222, 9405, 10355, 12674, 12722, 12905, 13306]}, "edge": {"target": [], "time": []}}, "mouseout": {"state": {"target": ["0", "16", "16", "6", "4", "7", "13", "19", "21", "31", "30", "32", "31", "24", "28", "10"], "time": [1004, 2921, 4232, 4706, 4905, 4988, 6105, 7479, 8394, 8905, 9339, 10039, 12639, 12706, 12788, 13122]}, "edge": {"target": [], "time": []}}}, "displayed_time": "19.33", "trialTime": 34093, "trial_type": "mouselab-mdp", "trial_index": 43, "time_elapsed": 1569424, "internal_node_id": "0.0-6.0-1.0-34.0"}}, {"uniqueid": "w50106814:a96918990", "current_trial": 44, "dateTime": 1693482501490, "trialdata": {"revealed_states": [], "clicked_states": ["17", "7", "11", "29", "32", "5"], "num_clicks_accrued": [0, 0, 0, 0, 0, 0, 0, 0, 0, 0, 0, 0, 0], "stateRewards": ["", -1, 2, 7, 8, 75, 67, -11, 6, 52, -17, 38, -1, 4, -8, 14, 74, -37, -17, -12, 52, 55, 71, -2, -1, -5, 2, 21, 6, -88, -14, 64, -61, -47], "withholdReward": false, "trial_id": "mdp_trial_36", "block": "test", "trialIndex": 37, "score": 78.1, "costs": -12.9, "simulationMode": [null, null, null, null, null], "rewards": [-1, 2, 7, 8, 75], "path": ["0", "0", "1", "2", "3", "4", "5"], "rt": [23662, 113, 89, 48, 260], "actions": ["up", "up", "up", "right", "up"], "actionTimes": [25876, 26490, 27104, 27657, 28437], "queries": {"click": {"state": {"target": ["17", "7", "11", "29", "32", "5"], "time": [3604, 6980, 10277, 13711, 17171, 21269]}, "edge": {"target": [], "time": []}}, "mouseover": {"state": {"target": ["16", "17", "16", "6", "7", "2", "10", "11", "26", "29", "30", "32", "32", "22", "13", "18", "6", "5", "4", "10"], "time": [2849, 3159, 4225, 4312, 4558, 7409, 7459, 7675, 10908, 12376, 14309, 14642, 15009, 18242, 18292, 18359, 19059, 20726, 22325, 23792]}, "edge": {"target": [], "time": []}}, "mouseout": {"state": {"target": ["10", "1", "0", "16", "17", "16", "6", "7", "2", "10", "11", "26", "29", "30", "32", "32", "22", "13", "18", "6", "5", "4"], "time": [1029, 1362, 2694, 3011, 4176, 4242, 4458, 7392, 7443, 7475, 10809, 10975, 14226, 14343, 14676, 17626, 18259, 18326, 18458, 20599, 22308, 22344]}, "edge": {"target": [], "time": []}}}, "displayed_time": "28.94", "trialTime": 31559, "trial_type": "mouselab-mdp", "trial_index": 44, "time_elapsed": 1601403, "internal_node_id": "0.0-6.0-1.0-35.0"}}, {"uniqueid": "w50106814:a96918990", "current_trial": 45, "dateTime": 1693482531958, "trialdata": {"revealed_states": [], "clicked_states": ["17"], "num_clicks_accrued": [0, 0, 0, 0, 0, 0, 0, 0, 0, 0, 0, 0, 0], "stateRewards": ["", -1, 3, -5, -2, -13, -9, -34, -7, -81, 32, 35, -2, -2, 1, -14, -32, 81, 7, 4, 82, 56, -8, -1, 3, -8, 6, -24, -24, -53, 2, 38, 61, 54], "withholdReward": false, "trial_id": "mdp_trial_37", "block": "test", "trialIndex": 38, "score": 61.85, "costs": -2.15, "simulationMode": [null, null, null, null, null], "rewards": [-2, -2, 1, -14, 81], "path": ["0", "0", "12", "13", "14", "15", "17"], "rt": [6405, 50, 168, 242, 18], "actions": ["right", "right", "right", "up", "right"], "actionTimes": [8526, 9077, 9761, 10519, 11028], "queries": {"click": {"state": {"target": ["17"], "time": [4305]}, "edge": {"target": [], "time": []}}, "mouseover": {"state": {"target": ["12", "15", "17", "17", "23", "28"], "time": [2698, 2807, 2873, 3866, 7060, 7275]}, "edge": {"target": [], "time": []}}, "mouseout": {"state": {"target": ["10", "1", "12", "15", "17", "17", "23", "28"], "time": [1059, 1124, 2722, 2824, 2957, 4926, 7124, 7879]}, "edge": {"target": [], "time": []}}}, "displayed_time": "16.12", "trialTime": 29709, "trial_type": "mouselab-mdp", "trial_index": 45, "time_elapsed": 1631870, "internal_node_id": "0.0-6.0-1.0-36.0"}}, {"uniqueid": "w50106814:a96918990", "current_trial": 46, "dateTime": 1693482554753, "trialdata": {"revealed_states": [], "clicked_states": [], "num_clicks_accrued": [0, 0, 0, 0, 0, 0, 0, 0, 0, 0, 0, 0, 0], "stateRewards": ["", 2, 4, 4, 9, -88, -10, 44, 16, -54, 64, 78, 1, 2, 5, 16, 80, 36, 7, -4, 9, -47, -70, -1, -3, 6, -16, 11, 80, 28, 8, -1, 34, -17], "withholdReward": false, "trial_id": "mdp_trial_38", "block": "test", "trialIndex": 39, "score": 66, "costs": 0, "simulationMode": [null, null, null, null, null], "rewards": [-1, -3, 6, -16, 80], "path": ["0", "0", "23", "24", "25", "26", "28"], "rt": [4424, 27, 241, 158, 304], "actions": ["left", "left", "left", "up", "right"], "actionTimes": [7171, 7690, 8439, 9105, 9918], "queries": {"click": {"state": {"target": [], "time": []}, "edge": {"target": [], "time": []}}, "mouseover": {"state": {"target": ["23", "24", "25", "33", "30", "31"], "time": [5214, 5265, 5297, 5665, 6676, 6750]}, "edge": {"target": [], "time": []}}, "mouseout": {"state": {"target": ["0", "1", "1", "0", "0", "23", "24", "25", "33", "30", "31"], "time": [1479, 1563, 1733, 1891, 2133, 5234, 5282, 5327, 6671, 6740, 17812]}, "edge": {"target": [], "time": []}}}, "displayed_time": "16.75", "trialTime": 21507, "trial_type": "mouselab-mdp", "trial_index": 46, "time_elapsed": 1654666, "internal_node_id": "0.0-6.0-1.0-37.0"}}, {"uniqueid": "w50106814:a96918990", "current_trial": 47, "dateTime": 1693482583484, "trialdata": {"revealed_states": [], "clicked_states": ["33", "6", "9", "17", "22"], "num_clicks_accrued": [0, 0, 0, 0, 0, 0, 0, 0, 0, 0, 0, 0, 0], "stateRewards": ["", -2, 4, 3, 5, -61, 4, 30, 1, -47, 83, 10, 1, 4, 7, -14, 19, -74, -83, 6, -2, -2, -65, -1, -2, 4, -11, 12, -1, -68, 11, -38, -28, 66], "withholdReward": false, "trial_id": "mdp_trial_39", "block": "test", "trialIndex": 40, "score": 67.25, "costs": -10.75, "simulationMode": [null, null, null, null, null], "rewards": [-1, -2, 4, 11, 66], "path": ["0", "0", "23", "24", "25", "30", "33"], "rt": [20392, 96, 151, 622, 101], "actions": ["left", "left", "left", "down", "left"], "actionTimes": [22374, 22964, 23619, 24740, 25351], "queries": {"click": {"state": {"target": ["33", "6", "9", "17", "22"], "time": [3129, 6744, 10685, 14870, 18937]}, "edge": {"target": [], "time": []}}, "mouseover": {"state": {"target": ["23", "24", "30", "33", "30", "31", "0", "1", "4", "6", "2", "9", "8", "10", "22", "17", "19", "22"], "time": [2286, 2332, 2432, 2715, 3700, 3732, 4433, 4467, 4700, 4842, 7433, 10199, 11367, 11400, 14023, 14416, 15667, 18439]}, "edge": {"target": [], "time": []}}, "mouseout": {"state": {"target": ["0", "23", "24", "30", "33", "30", "31", "0", "1", "4", "6", "2", "9", "8", "10", "22", "17", "19"], "time": [2266, 2315, 2349, 2649, 3684, 3716, 3752, 4450, 4483, 4784, 7349, 7449, 11334, 11383, 11416, 14051, 15550, 15684]}, "edge": {"target": [], "time": []}}}, "displayed_time": "25.87", "trialTime": 28276, "trial_type": "mouselab-mdp", "trial_index": 47, "time_elapsed": 1683397, "internal_node_id": "0.0-6.0-1.0-38.0"}}, {"uniqueid": "w50106814:a96918990", "current_trial": 48, "dateTime": 1693482619652, "trialdata": {"revealed_states": [], "clicked_states": ["28", "20", "16", "11", "5", "32", "33"], "num_clicks_accrued": [0, 0, 0, 0, 0, 0, 0, 0, 0, 0, 0, 0, 0], "stateRewards": ["", 2, -3, -8, 14, -7, -51, 73, 2, 36, 36, -43, -1, 3, -4, 1, 6, 87, -65, 15, 61, -42, -83, -1, 3, -2, -7, 30, -48, 35, 13, 26, 60, 78], "withholdReward": false, "trial_id": "mdp_trial_40", "block": "test", "trialIndex": 41, "score": 75.95, "costs": -15.05, "simulationMode": [null, null, null, null, null], "rewards": [-1, 3, -2, 13, 78], "path": ["0", "0", "23", "24", "25", "30", "33"], "rt": [29064, 147, 259, 57, 91], "actions": ["left", "left", "left", "down", "left"], "actionTimes": [31188, 31836, 32614, 33186, 33778], "queries": {"click": {"state": {"target": ["28", "20", "16", "11", "5", "32", "33"], "time": [3407, 6794, 11025, 14494, 18116, 22443, 27265]}, "edge": {"target": [], "time": []}}, "mouseover": {"state": {"target": ["23", "24", "28", "23", "20", "17", "16", "8", "11", "10", "2", "7", "5", "4", "7", "23", "31", "30", "32", "31", "24", "25", "33", "30", "31"], "time": [2638, 2736, 2978, 4103, 5204, 9989, 10103, 11837, 12270, 15337, 15386, 15437, 17319, 18669, 18704, 21462, 21587, 21652, 21735, 25586, 25919, 26209, 26744, 27820, 27853]}, "edge": {"target": [], "time": []}}, "mouseout": {"state": {"target": ["22", "0", "23", "24", "28", "23", "20", "17", "16", "8", "11", "10", "2", "7", "5", "4", "7", "23", "31", "30", "32", "31", "24", "25", "33", "30", "31"], "time": [1024, 2611, 2685, 2820, 4070, 4120, 6910, 10039, 11145, 11871, 15286, 15370, 15419, 15486, 18654, 18687, 18737, 21496, 21620, 21669, 23220, 25686, 25937, 26237, 27804, 27837, 27871]}, "edge": {"target": [], "time": []}}}, "displayed_time": "34.29", "trialTime": 35781, "trial_type": "mouselab-mdp", "trial_index": 48, "time_elapsed": 1719564, "internal_node_id": "0.0-6.0-1.0-39.0"}}, {"uniqueid": "w50106814:a96918990", "current_trial": 49, "dateTime": 1693482692311, "trialdata": {"rt": 71956, "response": {"Q0": "$-16 to 16", "Q1": "$-16 to $16", "Q2": "$-88 to $88", "Q3": "The cost for clicking on nodes varied between nodes.", "Q4": "Very motivated"}, "question_order": [0, 1, 2, 3, 4], "trial_id": "final_quiz_control", "trial_type": "survey-multi-choice", "trial_index": 49, "time_elapsed": 1792224, "internal_node_id": "0.0-6.0-2.0"}}, {"uniqueid": "w50106814:a96918990", "current_trial": 50, "dateTime": 1693482840685, "trialdata": {"rt": 147355, "response": {"Q0": "I was only inspecting the last nodes", "Q1": "i started off inspecting any nodes but then started using my strategy of inspecting the last nodes", "Q2": "it was not difficult"}, "trial_id": "self_report_control", "trial_type": "survey-text", "trial_index": 50, "time_elapsed": 1940599, "internal_node_id": "0.0-6.0-3.0"}}, {"uniqueid": "w50106814:a96918990", "current_trial": 51, "dateTime": 1693482892401, "trialdata": {"rt": 51391, "response": {"Q0": "Strongly disagree", "Q1": "Disagree", "Q2": "Disagree", "Q3": "Neither disagree nor agree", "Q4": "Neither disagree nor agree", "Q5": "Neither disagree nor agree", "Q6": "Disagree"}, "question_order": [0, 1, 2, 3, 4, 5, 6], "trial_id": "self_report_2", "trial_type": "survey-multi-choice", "trial_index": 51, "time_elapsed": 1992315, "internal_node_id": "0.0-6.0-4.0"}}, {"uniqueid": "w50106814:a96918990", "current_trial": 52, "dateTime": 1693482928013, "trialdata": {"rt": 35419, "response": {"gender": "female", "age": "22", "colorblind": "0", "effort": "0"}, "trial_type": "survey-html-form", "trial_index": 52, "time_elapsed": 2027926, "internal_node_id": "0.0-6.0-5.0"}}, {"uniqueid": "w50106814:a96918990", "current_trial": 53, "dateTime": 1693482972584, "trialdata": {"rt": 44561, "response": {"Q0": "nothing was confusing", "Q1": "no", "Q2": ""}, "trial_type": "survey-text", "trial_index": 53, "time_elapsed": 2072498, "internal_node_id": "0.0-6.0-6.0"}}, {"uniqueid": "w50106814:a96918990", "current_trial": 54, "dateTime": 1693483013864, "trialdata": {"rt": 41070, "stimulus": "<h1>Completion Code Instructions (1/2)</h1>\n<br><br><br><br>\nYou have reached the end of the experiment! The completion code consists of two parts: (1) a code with 2 characters (2) a code with 6 characters. On this page, you will receive the second part of the code. The first part of the completion code will be on the next page.\n<br><br>\nThe second part of your completion code is: <b>EWEK22</b>\n<br><br>\nPlease note this down. Then, press 'Finish HIT' in order to find the first part of your completion code. Once the data has been saved, you will receive this code either in this window or in the original browser window where you started the experiment.\n", "response": 0, "trial_type": "html-button-response", "trial_index": 54, "time_elapsed": 2113778, "internal_node_id": "0.0-6.0-7.0"}}, {"uniqueid": "w50106814:a96918990", "current_trial": 55, "dateTime": 1693483014939, "trialdata": {"success": true, "trial_type": "fullscreen", "trial_index": 55, "time_elapsed": 2114852, "internal_node_id": "0.0-7.0"}}], "questiondata": {"params": {"CODE": "C6DMOQA6", "MIN_TIME": 14, "inspectCost": 1, "startTime": "Thu Aug 31 2023 13:21:36 GMT+0200 (South Africa Standard Time)", "bonusRate": 0.002, "variance": "1_2_4_8_44", "branching": "31123"}, "final_score": 1502.8}, "eventdata": [{"eventtype": "initialized", "value": null, "timestamp": 1693480896212, "interval": 0}, {"eventtype": "window_resize", "value": [1024, 694], "timestamp": 1693480896212, "interval": 0}, {"eventtype": "window_resize", "value": [1024, 694], "timestamp": 1693480896786, "interval": 574}, {"eventtype": "window_resize", "value": [1366, 768], "timestamp": 1693480906287, "interval": 9501}], "useragent": "Mozilla/5.0 (Windows NT 10.0; Win64; x64) AppleWebKit/537.36 (KHTML, like Gecko) Chrome/116.0.0.0 Safari/537.36", "mode": "live", "id": "w50106814:a96918990", "status": "user data saved", "Beginhit": "2023-08-31 11:21:33.216809", "Beginexp": "2023-08-31 11:21:46.979149", "Endhit": "2023-08-31 11:57:00.509997", "psiturkStatus": 3, "browser": "<redacted>", "platform": "windows", "language": "en-US"}