{"condition": 0, "counterbalance": 0, "assignmentId": "a49910168", "workerId": "w44124483", "hitId": "h25588860", "currenttrial": 55, "bonus": 0, "data": [{"uniqueid": "w44124483:a49910168", "current_trial": 0, "dateTime": 1693388693350, "trialdata": {"success": true, "trial_type": "fullscreen", "trial_index": 0, "time_elapsed": 3268, "internal_node_id": "0.0-0.0"}}, {"uniqueid": "w44124483:a49910168", "current_trial": 1, "dateTime": 1693388709177, "trialdata": {"view_history": [{"page_index": 0, "viewing_time": 15820}], "rt": 15820, "trial_id": "exp_instructions_control", "trial_type": "instructions", "trial_index": 1, "time_elapsed": 19095, "internal_node_id": "0.0-1.0"}}, {"uniqueid": "w44124483:a49910168", "current_trial": 2, "dateTime": 1693388901632, "trialdata": {"view_history": [{"page_index": 0, "viewing_time": 72270}, {"page_index": 1, "viewing_time": 58512}, {"page_index": 2, "viewing_time": 23387}, {"page_index": 3, "viewing_time": 38285}], "rt": 192454, "trial_id": "mouselab_instructions_1_control", "trial_type": "instructions", "trial_index": 2, "time_elapsed": 211550, "internal_node_id": "0.0-2.0-1.0"}}, {"uniqueid": "w44124483:a49910168", "current_trial": 3, "dateTime": 1693388922484, "trialdata": {"revealed_states": [], "clicked_states": ["23", "12", "25", "22"], "num_clicks_accrued": [0, 0, 0, 0, 0, 0, 0, 0, 0, 0, 0, 0, 0], "stateRewards": ["", 10, -10, 10, -10, 10, -10, -10, -10, -10, 10, -10, 10, -10, 10, 10, 10, 10, -10, -10, -10, -10, 10, -10, -10, 10, -10, -10, 10, 10, 10, -10, -10, -10], "withholdReward": false, "trial_id": "practice_1", "block": "test", "trialIndex": 0, "score": 11.5, "costs": -2, "simulationMode": [null, null, null, null, null], "rewards": [10, -10, 10, -10, 10], "path": ["0", "0", "12", "13", "14", "19", "22"], "rt": [9298, 217, 497, 137, 293], "actions": ["right", "right", "right", "down", "left"], "actionTimes": [11095, 11836, 12832, 13470, 14260], "queries": {"click": {"state": {"target": ["23", "12", "25", "22"], "time": [3061, 4137, 5548, 8928]}, "edge": {"target": [], "time": []}}, "mouseover": {"state": {"target": ["23", "0", "12", "0", "24", "25", "31", "22"], "time": [2833, 3349, 3599, 4848, 4951, 5335, 6332, 7084]}, "edge": {"target": [], "time": []}}, "mouseout": {"state": {"target": ["0", "23", "0", "12", "0", "23", "24", "25", "31", "22", "0"], "time": [2767, 3332, 3449, 4799, 4898, 4949, 5214, 6215, 6764, 9314, 14056]}, "edge": {"target": [], "time": []}}}, "displayed_time": "14.79", "trialTime": 19522, "trial_type": "mouselab-mdp", "trial_index": 3, "time_elapsed": 232400, "internal_node_id": "0.0-2.0-2.0-0.0"}}, {"uniqueid": "w44124483:a49910168", "current_trial": 4, "dateTime": 1693388936760, "trialdata": {"revealed_states": [], "clicked_states": ["22", "31", "28", "18"], "num_clicks_accrued": [0, 0, 0, 0, 0, 0, 0, 0, 0, 0, 0, 0, 0], "stateRewards": ["", 10, 10, -10, -10, -10, 10, 10, 10, -10, 10, -10, 10, 10, -10, -10, 10, 10, 10, 10, -10, 10, 10, 10, -10, -10, -10, 10, -10, -10, 10, 10, -10, 10], "withholdReward": false, "trial_id": "practice_2", "block": "test", "trialIndex": 1, "score": 11.5, "costs": -2, "simulationMode": [null, null, null, null, null], "rewards": [10, 10, -10, -10, 10], "path": ["0", "0", "12", "13", "14", "15", "18"], "rt": [6955, 107, 264, 257, 77], "actions": ["right", "right", "right", "up", "left"], "actionTimes": [9117, 9743, 10498, 11273, 11865], "queries": {"click": {"state": {"target": ["22", "31", "28", "18"], "time": [2709, 4548, 5987, 7500]}, "edge": {"target": [], "time": []}}, "mouseover": {"state": {"target": ["0", "22", "31", "28", "1", "18", "13", "0"], "time": [2231, 2406, 3316, 5548, 6149, 6266, 7732, 8975]}, "edge": {"target": [], "time": []}}, "mouseout": {"state": {"target": ["23", "0", "22", "31", "28", "1", "18", "13"], "time": [1504, 2286, 2832, 4799, 6116, 6166, 7715, 7766]}, "edge": {"target": [], "time": []}}}, "displayed_time": "12.38", "trialTime": 13868, "trial_type": "mouselab-mdp", "trial_index": 4, "time_elapsed": 246676, "internal_node_id": "0.0-2.0-2.0-1.0"}}, {"uniqueid": "w44124483:a49910168", "current_trial": 5, "dateTime": 1693388964026, "trialdata": {"view_history": [{"page_index": 0, "viewing_time": 24019}, {"page_index": 1, "viewing_time": 3233}], "rt": 27252, "trial_id": "mouselab_instructions_2_control", "trial_type": "instructions", "trial_index": 5, "time_elapsed": 273944, "internal_node_id": "0.0-2.0-3.0"}}, {"uniqueid": "w44124483:a49910168", "current_trial": 6, "dateTime": 1693388996976, "trialdata": {"rt": 32945, "response": {"Q0": "The cost for clicking on nodes may vary between nodes.", "Q1": "The better I perform the higher my bonus will be.", "Q2": "No, the amount of cash at each node of the web may be different each time.", "Q3": "To get the highest total score.", "Q4": "Only before moving the spider.", "Q5": "3 seconds"}, "question_order": [0, 1, 2, 3, 4, 5], "correct": {"Q0": "The cost for clicking on nodes may vary between nodes.", "Q1": "The better I perform the higher my bonus will be.", "Q2": "No, the amount of cash at each node of the web may be different each time.", "Q3": "To get the highest total score.", "Q4": "Only before moving the spider.", "Q5": "3 seconds"}, "trial_id": "mouselab_quiz_control", "trial_type": "survey-multi-choice", "trial_index": 6, "time_elapsed": 306894, "internal_node_id": "0.0-2.0-4.0"}}, {"uniqueid": "w44124483:a49910168", "current_trial": 7, "dateTime": 1693389003094, "trialdata": {"rt": 6110, "response": {"Q0": "No"}, "question_order": [0], "trial_id": "repeat_check", "trial_type": "survey-multi-choice", "trial_index": 7, "time_elapsed": 313012, "internal_node_id": "0.0-4.0-0.0"}}, {"uniqueid": "w44124483:a49910168", "current_trial": 8, "dateTime": 1693389021807, "trialdata": {"rt": 18702, "stimulus": "\n<h1> Get ready to start the game! </h1>\n\nThank you for reading the instructions. Get ready start with the 40 rounds of this game.\n<br><br>\nIf you need to take a break, feel free to take one after the end of a round, before continuing to the next one.\n<br><br>\nRemember, the more money the spider gets, the bigger your bonus will be!\n<br><br>\n<div style='text-align: center;'>Press <code>space</code> to begin.</div>\n\n<br><br>\n(If, at any point, the <code>space</code> key does not take you to the next page, click once on the text and try again.)", "response": " ", "trial_id": "mdp_ready", "trial_type": "html-keyboard-response", "trial_index": 8, "time_elapsed": 331724, "internal_node_id": "0.0-6.0-0.0"}}, {"uniqueid": "w44124483:a49910168", "current_trial": 9, "dateTime": 1693389039506, "trialdata": {"revealed_states": [], "clicked_states": ["22", "31"], "num_clicks_accrued": [0, 0, 0, 0, 0, 0, 0, 0, 0, 0, 0, 0, 0], "stateRewards": ["", -2, 2, 3, -7, -31, -33, 29, -8, -57, 50, -83, -1, -1, 5, 13, -23, -62, 25, 5, -66, -85, 14, 1, -2, -1, 16, 71, 33, -19, -14, 5, -43, 79], "withholdReward": false, "trial_id": "mdp_trial_1", "block": "test", "trialIndex": 2, "score": 19.2, "costs": -2.8, "simulationMode": [null, null, null, null, null], "rewards": [-1, -1, 5, 5, 14], "path": ["0", "0", "12", "13", "14", "19", "22"], "rt": [5339, 291, 457, 414, 274], "actions": ["right", "right", "right", "down", "left"], "actionTimes": [6786, 7604, 8569, 9490, 10282], "queries": {"click": {"state": {"target": ["22", "31"], "time": [2024, 4063]}, "edge": {"target": [], "time": []}}, "mouseover": {"state": {"target": ["22", "31"], "time": [1743, 2574]}, "edge": {"target": [], "time": []}}, "mouseout": {"state": {"target": ["6", "12", "0", "22", "31"], "time": [633, 692, 1540, 2124, 4907]}, "edge": {"target": [], "time": []}}}, "displayed_time": "15.46", "trialTime": 17267, "trial_type": "mouselab-mdp", "trial_index": 9, "time_elapsed": 349422, "internal_node_id": "0.0-6.0-1.0-0.0"}}, {"uniqueid": "w44124483:a49910168", "current_trial": 10, "dateTime": 1693389059529, "trialdata": {"revealed_states": [], "clicked_states": ["28", "10", "7"], "num_clicks_accrued": [0, 0, 0, 0, 0, 0, 0, 0, 0, 0, 0, 0, 0], "stateRewards": ["", 1, 2, 2, -15, -84, 28, -26, 13, 31, 86, 30, -2, 1, -1, -8, 66, -40, -1, -10, -32, 57, -17, 1, 2, -2, 9, -23, 77, 85, 12, -32, -62, -35], "withholdReward": false, "trial_id": "mdp_trial_2", "block": "test", "trialIndex": 3, "score": 99.8, "costs": -4.199999999999999, "simulationMode": [null, null, null, null, null], "rewards": [1, 2, 2, 13, 86], "path": ["0", "0", "1", "2", "3", "8", "10"], "rt": [9624, 84, 2169, 130, 43], "actions": ["up", "up", "up", "left", "down"], "actionTimes": [12272, 12866, 15550, 16181, 16742], "queries": {"click": {"state": {"target": ["28", "10", "7"], "time": [4199, 6895, 9500]}, "edge": {"target": [], "time": []}}, "mouseover": {"state": {"target": ["23", "28", "10", "2", "7"], "time": [3068, 3685, 5134, 7231, 9288]}, "edge": {"target": [], "time": []}}, "mouseout": {"state": {"target": ["0", "23", "28", "10", "2"], "time": [3027, 3086, 4997, 7214, 7248]}, "edge": {"target": [], "time": []}}}, "displayed_time": "17.26", "trialTime": 19600, "trial_type": "mouselab-mdp", "trial_index": 10, "time_elapsed": 369445, "internal_node_id": "0.0-6.0-1.0-1.0"}}, {"uniqueid": "w44124483:a49910168", "current_trial": 11, "dateTime": 1693389079678, "trialdata": {"revealed_states": [], "clicked_states": ["31", "22", "18", "7", "28"], "num_clicks_accrued": [0, 0, 0, 0, 0, 0, 0, 0, 0, 0, 0, 0, 0], "stateRewards": ["", 1, -2, -8, -13, 4, 34, -84, -4, -49, 88, -70, -1, 3, -4, 10, -77, 13, -34, 15, -21, -16, 27, 1, -2, 8, -8, -6, 38, -26, 6, -15, 66, -3], "withholdReward": false, "trial_id": "mdp_trial_3", "block": "test", "trialIndex": 4, "score": 30, "costs": -7, "simulationMode": [null, null, null, null, null], "rewards": [1, -2, 8, -8, 38], "path": ["0", "0", "23", "24", "25", "26", "28"], "rt": [12748, 80, 182, 75, 128], "actions": ["left", "left", "left", "up", "right"], "actionTimes": [14573, 15170, 15875, 16465, 17085], "queries": {"click": {"state": {"target": ["31", "22", "18", "7", "28"], "time": [3329, 5222, 7562, 9680, 12042]}, "edge": {"target": [], "time": []}}, "mouseover": {"state": {"target": ["12", "31", "22", "13", "7", "7", "18", "7", "2", "10", "28"], "time": [2612, 3031, 4139, 5906, 6056, 6373, 6522, 7772, 9871, 10005, 11869]}, "edge": {"target": [], "time": []}}, "mouseout": {"state": {"target": ["7", "0", "12", "31", "22", "13", "7", "7", "18", "7", "2", "10", "28"], "time": [1083, 1410, 2676, 3856, 5277, 5922, 6122, 6410, 7578, 9839, 9905, 11700, 12094]}, "edge": {"target": [], "time": []}}}, "displayed_time": "17.59", "trialTime": 19758, "trial_type": "mouselab-mdp", "trial_index": 11, "time_elapsed": 389594, "internal_node_id": "0.0-6.0-1.0-2.0"}}, {"uniqueid": "w44124483:a49910168", "current_trial": 12, "dateTime": 1693389098469, "trialdata": {"revealed_states": [], "clicked_states": ["31", "28", "18", "22", "10"], "num_clicks_accrued": [0, 0, 0, 0, 0, 0, 0, 0, 0, 0, 0, 0, 0], "stateRewards": ["", -1, -1, 4, -16, -75, 81, -51, -7, -84, 73, -30, -2, 1, -3, -16, -77, 33, 14, 1, 45, 87, -66, 2, 2, -5, -7, -19, -17, 79, -3, 8, 49, 47], "withholdReward": false, "trial_id": "mdp_trial_4", "block": "test", "trialIndex": 5, "score": 61, "costs": -7, "simulationMode": [null, null, null, null, null], "rewards": [-1, -1, 4, -7, 73], "path": ["0", "0", "1", "2", "3", "8", "10"], "rt": [12152, 442, 140, 26, 91], "actions": ["up", "up", "up", "left", "down"], "actionTimes": [13589, 14532, 15178, 15713, 16327], "queries": {"click": {"state": {"target": ["31", "28", "18", "22", "10"], "time": [2710, 4672, 6727, 8773, 10799]}, "edge": {"target": [], "time": []}}, "mouseover": {"state": {"target": ["23", "24", "31", "24", "28", "1", "18", "18", "22", "12", "1", "2", "10", "2", "7"], "time": [2259, 2291, 2577, 2904, 2987, 4920, 4954, 5504, 7257, 9669, 9770, 9886, 10120, 11019, 11086]}, "edge": {"target": [], "time": []}}, "mouseout": {"state": {"target": ["0", "0", "23", "24", "31", "24", "28", "1", "18", "18", "22", "12", "1", "2", "10", "2"], "time": [843, 2191, 2279, 2404, 2854, 2938, 4726, 4937, 4987, 6904, 8808, 9686, 9819, 9920, 11003, 11036]}, "edge": {"target": [], "time": []}}}, "displayed_time": "16.84", "trialTime": 18372, "trial_type": "mouselab-mdp", "trial_index": 12, "time_elapsed": 408386, "internal_node_id": "0.0-6.0-1.0-3.0"}}, {"uniqueid": "w44124483:a49910168", "current_trial": 13, "dateTime": 1693389119010, "trialdata": {"revealed_states": [], "clicked_states": ["10", "6", "17", "21", "31"], "num_clicks_accrued": [0, 0, 0, 0, 0, 0, 0, 0, 0, 0, 0, 0, 0], "stateRewards": ["", 2, -3, -5, 5, 11, -9, -33, 6, 67, 6, -30, -1, -2, -6, 13, 55, 13, 72, -14, 75, 21, -66, -2, -4, 6, 15, -1, -35, 60, 2, 51, -73, 12], "withholdReward": false, "trial_id": "mdp_trial_5", "block": "test", "trialIndex": 6, "score": 46, "costs": -7, "simulationMode": [null, null, null, null, null], "rewards": [-2, -4, 6, 2, 51], "path": ["0", "0", "23", "24", "25", "30", "31"], "rt": [14213, 106, 160, 46, 141], "actions": ["left", "left", "left", "down", "right"], "actionTimes": [15571, 16183, 16855, 17425, 18101], "queries": {"click": {"state": {"target": ["10", "6", "17", "21", "31"], "time": [2318, 4361, 6366, 9606, 12950]}, "edge": {"target": [], "time": []}}, "mouseover": {"state": {"target": ["1", "10", "10", "6", "16", "17", "19", "20", "20", "21", "22", "31"], "time": [1576, 1867, 2117, 3510, 5864, 6145, 6610, 8407, 8543, 9464, 12177, 12728]}, "edge": {"target": [], "time": []}}, "mouseout": {"state": {"target": ["7", "0", "1", "10", "10", "6", "16", "17", "19", "20", "20", "21", "22", "31"], "time": [93, 1477, 1627, 1928, 2527, 4593, 5894, 6559, 8389, 8429, 9129, 11925, 12375, 13242]}, "edge": {"target": [], "time": []}}}, "displayed_time": "18.61", "trialTime": 20153, "trial_type": "mouselab-mdp", "trial_index": 13, "time_elapsed": 428926, "internal_node_id": "0.0-6.0-1.0-4.0"}}, {"uniqueid": "w44124483:a49910168", "current_trial": 14, "dateTime": 1693389141477, "trialdata": {"revealed_states": [], "clicked_states": ["31", "32", "20", "17", "7", "10"], "num_clicks_accrued": [0, 0, 0, 0, 0, 0, 0, 0, 0, 0, 0, 0, 0], "stateRewards": ["", -2, 3, -1, 2, -72, 63, 20, -1, 62, -66, 39, -2, 3, -6, 14, 22, 47, 1, 8, -49, -1, -41, 2, 2, -6, -16, -64, -60, -34, 16, 54, 22, -7], "withholdReward": false, "trial_id": "mdp_trial_6", "block": "test", "trialIndex": 7, "score": 59.6, "costs": -8.4, "simulationMode": [null, null, null, null, null], "rewards": [2, 2, -6, 16, 54], "path": ["0", "0", "23", "24", "25", "30", "31"], "rt": [16239, 48, 125, 49, 88], "actions": ["left", "left", "left", "down", "right"], "actionTimes": [17609, 18158, 18818, 19378, 19981], "queries": {"click": {"state": {"target": ["31", "32", "20", "17", "7", "10"], "time": [2802, 5110, 7087, 9774, 12380, 14984]}, "edge": {"target": [], "time": []}}, "mouseover": {"state": {"target": ["0", "23", "24", "31", "32", "20", "21", "17", "17", "16", "7", "2", "10", "10"], "time": [1887, 2295, 2412, 2662, 3326, 5993, 7676, 9346, 9639, 12048, 12226, 14318, 14341, 14660]}, "edge": {"target": [], "time": []}}, "mouseout": {"state": {"target": ["0", "0", "23", "24", "31", "31", "32", "20", "21", "17", "17", "16", "7", "2", "10", "10"], "time": [1492, 2249, 2378, 2429, 2858, 3210, 5876, 7310, 9271, 9395, 12029, 12065, 14312, 14330, 14349, 17200]}, "edge": {"target": [], "time": []}}}, "displayed_time": "20.49", "trialTime": 22068, "trial_type": "mouselab-mdp", "trial_index": 14, "time_elapsed": 451392, "internal_node_id": "0.0-6.0-1.0-5.0"}}, {"uniqueid": "w44124483:a49910168", "current_trial": 15, "dateTime": 1693389164578, "trialdata": {"revealed_states": [], "clicked_states": ["29", "17", "9", "7", "21", "32"], "num_clicks_accrued": [0, 0, 0, 0, 0, 0, 0, 0, 0, 0, 0, 0, 0], "stateRewards": ["", 2, 4, 7, -6, -76, -81, 2, 5, -66, -3, 36, -2, -4, 6, -2, -69, 4, -49, -6, 67, 38, -67, 2, 1, 1, 6, -68, -21, 52, -16, -16, 6, -70], "withholdReward": false, "trial_id": "mdp_trial_7", "block": "test", "trialIndex": 8, "score": 53.6, "costs": -8.4, "simulationMode": [null, null, null, null, null], "rewards": [2, 1, 1, 6, 52], "path": ["0", "0", "23", "24", "25", "26", "29"], "rt": [16260, 428, 144, 44, 25], "actions": ["left", "left", "left", "up", "left"], "actionTimes": [18510, 19440, 20103, 20654, 21217], "queries": {"click": {"state": {"target": ["29", "17", "9", "7", "21", "32"], "time": [3334, 5691, 8303, 10875, 13279, 16040]}, "edge": {"target": [], "time": []}}, "mouseover": {"state": {"target": ["23", "24", "25", "29", "26", "18", "15", "17", "17", "15", "7", "3", "9", "9", "3", "2", "7", "22", "21", "21", "32", "32"], "time": [2677, 2753, 2778, 3082, 4874, 5029, 5160, 5192, 5511, 7674, 7703, 7743, 7878, 8134, 10343, 10532, 10643, 12694, 12727, 13073, 15510, 15782]}, "edge": {"target": [], "time": []}}, "mouseout": {"state": {"target": ["1", "0", "23", "24", "25", "29", "26", "18", "15", "17", "17", "15", "7", "3", "9", "9", "3", "2", "7", "22", "21", "21", "32", "32"], "time": [1479, 2633, 2731, 2761, 2808, 4871, 4888, 5075, 5175, 5209, 5976, 7689, 7712, 7826, 7924, 8350, 10443, 10578, 12509, 12714, 12743, 14526, 15528, 16113]}, "edge": {"target": [], "time": []}}}, "displayed_time": "21.73", "trialTime": 22693, "trial_type": "mouselab-mdp", "trial_index": 15, "time_elapsed": 474495, "internal_node_id": "0.0-6.0-1.0-6.0"}}, {"uniqueid": "w44124483:a49910168", "current_trial": 16, "dateTime": 1693389189637, "trialdata": {"revealed_states": [], "clicked_states": ["32", "31", "7", "10", "18", "16", "27"], "num_clicks_accrued": [0, 0, 0, 0, 0, 0, 0, 0, 0, 0, 0, 0, 0], "stateRewards": ["", 1, 4, -8, -5, -15, -7, 21, 13, -30, 40, -65, 1, 1, 5, -14, 35, 27, -38, -11, 36, -58, -47, -2, 4, -3, 13, -16, -49, 22, 15, -56, -44, -10], "withholdReward": false, "trial_id": "mdp_trial_8", "block": "test", "trialIndex": 9, "score": 40.2, "costs": -9.8, "simulationMode": [null, null, null, null, null], "rewards": [1, 4, -8, 13, 40], "path": ["0", "0", "1", "2", "3", "8", "10"], "rt": [15373, 61, 1038, 81, 1092], "actions": ["up", "up", "up", "left", "down"], "actionTimes": [18007, 18610, 20168, 20761, 22377], "queries": {"click": {"state": {"target": ["32", "31", "7", "10", "18", "16", "27"], "time": [3297, 5391, 7401, 9343, 11320, 13236, 16016]}, "edge": {"target": [], "time": []}}, "mouseover": {"state": {"target": ["32", "31", "23", "1", "7", "2", "10", "2", "15", "18", "16", "27"], "time": [3004, 3831, 5564, 6081, 6648, 7598, 7814, 9514, 9933, 10264, 11746, 15800]}, "edge": {"target": [], "time": []}}, "mouseout": {"state": {"target": ["32", "0", "32", "31", "23", "1", "7", "2", "10", "2", "7", "15", "18", "16"], "time": [185, 1982, 3352, 5547, 5580, 6416, 7580, 7717, 9497, 9530, 9547, 10064, 11647, 15366]}, "edge": {"target": [], "time": []}}}, "displayed_time": "22.88", "trialTime": 24655, "trial_type": "mouselab-mdp", "trial_index": 16, "time_elapsed": 499553, "internal_node_id": "0.0-6.0-1.0-7.0"}}, {"uniqueid": "w44124483:a49910168", "current_trial": 17, "dateTime": 1693389209078, "trialdata": {"revealed_states": [], "clicked_states": ["11", "6", "21", "32", "28", "18"], "num_clicks_accrued": [0, 0, 0, 0, 0, 0, 0, 0, 0, 0, 0, 0, 0], "stateRewards": ["", -2, 1, -7, 9, 8, 25, 61, -7, -17, 69, -81, 1, 4, -4, -11, 16, 67, 44, 3, 6, -45, -54, -2, 3, 6, -11, -15, 32, -47, 3, -39, -6, -88], "withholdReward": false, "trial_id": "mdp_trial_9", "block": "test", "trialIndex": 10, "score": 25.6, "costs": -8.4, "simulationMode": [null, null, null, null, null], "rewards": [1, 4, -4, -11, 44], "path": ["0", "0", "12", "13", "14", "15", "18"], "rt": [13050, 75, 99, 60, 69], "actions": ["right", "right", "right", "up", "left"], "actionTimes": [14210, 14802, 15410, 15989, 16580], "queries": {"click": {"state": {"target": ["11", "6", "21", "32", "28", "18"], "time": [2188, 4043, 5795, 7700, 9755, 12212]}, "edge": {"target": [], "time": []}}, "mouseover": {"state": {"target": ["1", "10", "11", "8", "3", "4", "6", "14", "21", "32", "23", "28", "23", "12", "18"], "time": [1597, 1794, 2011, 2343, 2376, 2394, 2476, 4477, 4893, 6293, 9242, 9408, 9943, 11704, 11945]}, "edge": {"target": [], "time": []}}, "mouseout": {"state": {"target": ["27", "28", "23", "0", "1", "10", "11", "8", "3", "4", "6", "14", "21", "32", "23", "28", "23", "12"], "time": [452, 511, 544, 1563, 1695, 1920, 2326, 2359, 2392, 2445, 4293, 4496, 5961, 7826, 9292, 9926, 9976, 11844]}, "edge": {"target": [], "time": []}}}, "displayed_time": "17.08", "trialTime": 19047, "trial_type": "mouselab-mdp", "trial_index": 17, "time_elapsed": 518994, "internal_node_id": "0.0-6.0-1.0-8.0"}}, {"uniqueid": "w44124483:a49910168", "current_trial": 18, "dateTime": 1693389227377, "trialdata": {"revealed_states": [], "clicked_states": ["18"], "num_clicks_accrued": [0, 0, 0, 0, 0, 0, 0, 0, 0, 0, 0, 0, 0], "stateRewards": ["", 1, -1, 4, -2, -75, -75, 84, -9, -60, -79, 59, 2, -4, 8, 9, -17, -82, 80, 14, -4, 49, 49, -1, 3, 6, -11, -33, 34, 55, 9, -57, 5, 59], "withholdReward": false, "trial_id": "mdp_trial_10", "block": "test", "trialIndex": 11, "score": 93.6, "costs": -1.4, "simulationMode": [null, null, null, null, null], "rewards": [2, -4, 8, 9, 80], "path": ["0", "0", "12", "13", "14", "15", "18"], "rt": [2902, 123, 93, 784, 94], "actions": ["right", "right", "right", "up", "left"], "actionTimes": [6128, 6775, 7377, 8686, 9278], "queries": {"click": {"state": {"target": ["18"], "time": [3653]}, "edge": {"target": [], "time": []}}, "mouseover": {"state": {"target": ["18", "13", "12"], "time": [3419, 3832, 4049]}, "edge": {"target": [], "time": []}}, "mouseout": {"state": {"target": ["18", "18", "13", "12"], "time": [2517, 3799, 3949, 4249]}, "edge": {"target": [], "time": []}}}, "displayed_time": "17.23", "trialTime": 17902, "trial_type": "mouselab-mdp", "trial_index": 18, "time_elapsed": 537292, "internal_node_id": "0.0-6.0-1.0-9.0"}}, {"uniqueid": "w44124483:a49910168", "current_trial": 19, "dateTime": 1693389247958, "trialdata": {"revealed_states": [], "clicked_states": ["10", "7"], "num_clicks_accrued": [0, 0, 0, 0, 0, 0, 0, 0, 0, 0, 0, 0, 0], "stateRewards": ["", -1, -4, -1, -5, -28, -23, -15, -15, -38, 59, -87, 2, 2, -5, 9, -55, -39, -71, -6, 85, -85, -11, -1, -2, 5, -10, 1, 25, 41, -4, 69, -35, 86], "withholdReward": false, "trial_id": "mdp_trial_11", "block": "test", "trialIndex": 12, "score": 35.2, "costs": -2.8, "simulationMode": [null, null, null, null, null], "rewards": [-1, -4, -1, -15, 59], "path": ["0", "0", "1", "2", "3", "8", "10"], "rt": [4917, 116, 75, 52, 40], "actions": ["up", "up", "up", "left", "down"], "actionTimes": [6237, 6845, 7455, 7997, 8568], "queries": {"click": {"state": {"target": ["10", "7"], "time": [2295, 4419]}, "edge": {"target": [], "time": []}}, "mouseover": {"state": {"target": ["1", "10", "7"], "time": [1565, 2134, 2561]}, "edge": {"target": [], "time": []}}, "mouseout": {"state": {"target": ["0", "1", "10", "7"], "time": [1332, 1899, 2411, 11476]}, "edge": {"target": [], "time": []}}}, "displayed_time": "16.32", "trialTime": 20136, "trial_type": "mouselab-mdp", "trial_index": 19, "time_elapsed": 557875, "internal_node_id": "0.0-6.0-1.0-10.0"}}, {"uniqueid": "w44124483:a49910168", "current_trial": 20, "dateTime": 1693389270571, "trialdata": {"revealed_states": [], "clicked_states": ["27", "17", "33", "21", "10", "7"], "num_clicks_accrued": [0, 0, 0, 0, 0, 0, 0, 0, 0, 0, 0, 0, 0], "stateRewards": ["", -2, 1, -3, -16, -39, -52, 30, -7, -41, -59, 11, 2, 1, 8, 2, -11, -26, -42, -13, 87, -59, -48, -1, -1, -1, 16, -79, 31, 50, -1, -84, 34, -82], "withholdReward": false, "trial_id": "mdp_trial_12", "block": "test", "trialIndex": 13, "score": 1.6000000000000014, "costs": -8.4, "simulationMode": [null, null, null, null, null], "rewards": [-2, 1, -3, -16, 30], "path": ["0", "0", "1", "2", "3", "4", "7"], "rt": [15591, 11, 61, 568, 100], "actions": ["up", "up", "up", "right", "down"], "actionTimes": [17960, 18493, 19093, 20180, 20796], "queries": {"click": {"state": {"target": ["27", "17", "33", "21", "10", "7"], "time": [3656, 5560, 7958, 10767, 13033, 15061]}, "edge": {"target": [], "time": []}}, "mouseover": {"state": {"target": ["23", "28", "27", "1", "18", "15", "16", "17", "14", "13", "33", "32", "21", "21", "10", "2", "7", "13", "18"], "time": [2800, 3150, 3466, 3963, 4046, 4065, 4300, 4412, 7440, 7466, 7732, 9934, 10284, 10553, 12785, 14494, 14777, 15578, 17126]}, "edge": {"target": [], "time": []}}, "mouseout": {"state": {"target": ["23", "28", "27", "1", "18", "15", "16", "17", "14", "13", "33", "32", "21", "21", "10", "2", "7", "13", "18"], "time": [2831, 3368, 3912, 3979, 4062, 4079, 4363, 5812, 7457, 7478, 8214, 9956, 10315, 10945, 14446, 14594, 15494, 17097, 21973]}, "edge": {"target": [], "time": []}}}, "displayed_time": "21.29", "trialTime": 22188, "trial_type": "mouselab-mdp", "trial_index": 20, "time_elapsed": 580488, "internal_node_id": "0.0-6.0-1.0-11.0"}}, {"uniqueid": "w44124483:a49910168", "current_trial": 21, "dateTime": 1693389288376, "trialdata": {"revealed_states": [], "clicked_states": ["7"], "num_clicks_accrued": [0, 0, 0, 0, 0, 0, 0, 0, 0, 0, 0, 0, 0], "stateRewards": ["", 1, -4, -4, 8, 1, -79, 68, -10, -79, 8, -74, -1, -3, -6, 14, 43, 23, 9, 5, -51, 63, 61, -2, 4, 6, -10, 69, -32, 57, 15, -80, -80, -77], "withholdReward": false, "trial_id": "mdp_trial_13", "block": "test", "trialIndex": 14, "score": 67.6, "costs": -1.4, "simulationMode": [null, null, null, null, null], "rewards": [1, -4, -4, 8, 68], "path": ["0", "0", "1", "2", "3", "4", "7"], "rt": [3589, 63, 117, 45, 71], "actions": ["up", "up", "up", "right", "down"], "actionTimes": [5260, 5850, 6465, 7010, 7586], "queries": {"click": {"state": {"target": ["7"], "time": [2414]}, "edge": {"target": [], "time": []}}, "mouseover": {"state": {"target": ["1", "7", "13", "18"], "time": [1965, 2265, 2598, 4165]}, "edge": {"target": [], "time": []}}, "mouseout": {"state": {"target": ["0", "1", "7", "13", "18"], "time": [1385, 1983, 2530, 4102, 10066]}, "edge": {"target": [], "time": []}}}, "displayed_time": "15.68", "trialTime": 17379, "trial_type": "mouselab-mdp", "trial_index": 21, "time_elapsed": 598293, "internal_node_id": "0.0-6.0-1.0-12.0"}}, {"uniqueid": "w44124483:a49910168", "current_trial": 22, "dateTime": 1693389306391, "trialdata": {"revealed_states": [], "clicked_states": ["6", "9", "28"], "num_clicks_accrued": [0, 0, 0, 0, 0, 0, 0, 0, 0, 0, 0, 0, 0], "stateRewards": ["", 1, 1, 1, -3, -7, -1, -41, -10, 20, -72, -63, 1, -4, -2, 2, -66, 30, -84, -2, 49, 23, 71, -1, -4, 4, -12, 67, 5, 18, -16, 88, 56, -5], "withholdReward": false, "trial_id": "mdp_trial_14", "block": "test", "trialIndex": 15, "score": 8.8, "costs": -4.199999999999999, "simulationMode": [null, null, null, null, null], "rewards": [1, 1, 1, -10, 20], "path": ["0", "0", "1", "2", "3", "8", "9"], "rt": [9708, 54, 66, 81, 24], "actions": ["up", "up", "up", "left", "up"], "actionTimes": [11789, 12359, 12936, 13533, 14076], "queries": {"click": {"state": {"target": ["6", "9", "28"], "time": [3014, 6104, 9607]}, "edge": {"target": [], "time": []}}, "mouseover": {"state": {"target": ["7", "6", "7", "3", "9", "9", "3", "9", "2", "1", "28", "28"], "time": [2506, 2719, 3437, 4992, 5018, 5306, 5746, 5954, 6252, 8038, 9187, 9390]}, "edge": {"target": [], "time": []}}, "mouseout": {"state": {"target": ["0", "7", "6", "7", "3", "9", "9", "3", "9", "2", "1", "28"], "time": [2111, 2638, 3202, 4973, 5001, 5034, 5336, 5853, 6219, 6268, 8954, 9238]}, "edge": {"target": [], "time": []}}}, "displayed_time": "16.08", "trialTime": 17615, "trial_type": "mouselab-mdp", "trial_index": 22, "time_elapsed": 616307, "internal_node_id": "0.0-6.0-1.0-13.0"}}, {"uniqueid": "w44124483:a49910168", "current_trial": 23, "dateTime": 1693389323153, "trialdata": {"revealed_states": [], "clicked_states": ["22"], "num_clicks_accrued": [0, 0, 0, 0, 0, 0, 0, 0, 0, 0, 0, 0, 0], "stateRewards": ["", 1, 1, 5, 6, -29, -7, 3, -16, 9, -46, 65, -1, 4, -1, -16, -63, -77, -87, 8, 80, -50, 43, -1, -1, -5, 5, -38, -71, -62, 9, 81, -50, -52], "withholdReward": false, "trial_id": "mdp_trial_15", "block": "test", "trialIndex": 16, "score": 51.6, "costs": -1.4, "simulationMode": [null, null, null, null, null], "rewards": [-1, 4, -1, 8, 43], "path": ["0", "0", "12", "13", "14", "19", "22"], "rt": [3583, 302, 63, 7, 382], "actions": ["right", "right", "right", "down", "left"], "actionTimes": [5063, 5878, 6458, 6965, 7856], "queries": {"click": {"state": {"target": ["22"], "time": [2297]}, "edge": {"target": [], "time": []}}, "mouseover": {"state": {"target": ["12", "22", "31"], "time": [1880, 2057, 2956]}, "edge": {"target": [], "time": []}}, "mouseout": {"state": {"target": ["28", "23", "0", "12", "22", "22", "31"], "time": [797, 908, 1831, 1909, 2311, 2591, 10098]}, "edge": {"target": [], "time": []}}}, "displayed_time": "15.48", "trialTime": 16320, "trial_type": "mouselab-mdp", "trial_index": 23, "time_elapsed": 633070, "internal_node_id": "0.0-6.0-1.0-14.0"}}, {"uniqueid": "w44124483:a49910168", "current_trial": 24, "dateTime": 1693389348788, "trialdata": {"revealed_states": [], "clicked_states": ["31", "33", "20", "22", "18", "7", "11"], "num_clicks_accrued": [0, 0, 0, 0, 0, 0, 0, 0, 0, 0, 0, 0, 0], "stateRewards": ["", 2, -3, -4, -1, 25, -16, 16, 10, -71, -20, -55, 1, 3, -4, -9, 1, 32, 11, -6, 32, -50, -41, -1, 4, 4, -8, 7, -81, 70, 2, -52, 45, -10], "withholdReward": false, "trial_id": "mdp_trial_16", "block": "test", "trialIndex": 17, "score": 16.2, "costs": -9.8, "simulationMode": [null, null, null, null, null], "rewards": [1, 3, -4, -6, 32], "path": ["0", "0", "12", "13", "14", "19", "20"], "rt": [16147, 129, 170, 139, 112], "actions": ["right", "right", "right", "down", "right"], "actionTimes": [19586, 20214, 20887, 21523, 22146], "queries": {"click": {"state": {"target": ["31", "33", "20", "22", "18", "7", "11"], "time": [4421, 6266, 8201, 10194, 12089, 14165, 17631]}, "edge": {"target": [], "time": []}}, "mouseover": {"state": {"target": ["30", "31", "31", "30", "33", "30", "19", "20", "20", "19", "22", "13", "18", "7", "2", "10", "11"], "time": [3890, 4074, 4264, 4684, 4937, 6754, 6833, 6917, 7216, 8400, 8435, 10401, 10516, 13399, 17083, 17134, 17464]}, "edge": {"target": [], "time": []}}, "mouseout": {"state": {"target": ["0", "30", "31", "31", "31", "30", "33", "30", "31", "19", "20", "20", "19", "22", "13", "18", "7", "2", "10"], "time": [3476, 4055, 4087, 4489, 4668, 4750, 6751, 6767, 6784, 6900, 6951, 8368, 8433, 10368, 10433, 12139, 17055, 17117, 17184]}, "edge": {"target": [], "time": []}}}, "displayed_time": "22.65", "trialTime": 25169, "trial_type": "mouselab-mdp", "trial_index": 24, "time_elapsed": 658705, "internal_node_id": "0.0-6.0-1.0-15.0"}}, {"uniqueid": "w44124483:a49910168", "current_trial": 25, "dateTime": 1693389365491, "trialdata": {"revealed_states": [], "clicked_states": ["6"], "num_clicks_accrued": [0, 0, 0, 0, 0, 0, 0, 0, 0, 0, 0, 0, 0], "stateRewards": ["", 2, -2, -8, 9, -20, 55, -58, 14, 42, 2, 36, 1, -3, -5, 5, -58, 57, 60, 16, 57, 30, -70, -2, 1, 3, 10, 59, 23, 77, -13, -26, 88, -72], "withholdReward": false, "trial_id": "mdp_trial_17", "block": "test", "trialIndex": 18, "score": 54.6, "costs": -1.4, "simulationMode": [null, null, null, null, null], "rewards": [2, -2, -8, 9, 55], "path": ["0", "0", "1", "2", "3", "4", "6"], "rt": [3112, 159, 174, 62, 193], "actions": ["up", "up", "up", "right", "right"], "actionTimes": [4503, 5169, 5835, 6406, 7102], "queries": {"click": {"state": {"target": ["6"], "time": [2068]}, "edge": {"target": [], "time": []}}, "mouseover": {"state": {"target": ["1", "7", "6", "2"], "time": [1417, 1661, 1908, 2291]}, "edge": {"target": [], "time": []}}, "mouseout": {"state": {"target": ["11", "23", "23", "0", "1", "7", "6"], "time": [568, 627, 895, 1095, 1507, 1775, 2258]}, "edge": {"target": [], "time": []}}}, "displayed_time": "15.40", "trialTime": 16260, "trial_type": "mouselab-mdp", "trial_index": 25, "time_elapsed": 675406, "internal_node_id": "0.0-6.0-1.0-16.0"}}, {"uniqueid": "w44124483:a49910168", "current_trial": 26, "dateTime": 1693389382003, "trialdata": {"revealed_states": [], "clicked_states": ["29", "9", "6"], "num_clicks_accrued": [0, 0, 0, 0, 0, 0, 0, 0, 0, 0, 0, 0, 0], "stateRewards": ["", -1, 2, -2, 13, -56, -28, 10, 14, 53, -80, -29, 1, -3, -3, -14, 14, 9, -40, -9, 18, 18, 48, 1, 1, 1, -9, 64, -39, -9, 7, -52, -78, 7], "withholdReward": false, "trial_id": "mdp_trial_18", "block": "test", "trialIndex": 19, "score": 61.8, "costs": -4.199999999999999, "simulationMode": [null, null, null, null, null], "rewards": [-1, 2, -2, 14, 53], "path": ["0", "0", "1", "2", "3", "8", "9"], "rt": [9310, 75, 84, 432, 80], "actions": ["up", "up", "up", "left", "up"], "actionTimes": [10790, 11388, 11962, 12910, 13493], "queries": {"click": {"state": {"target": ["29", "9", "6"], "time": [3148, 5769, 8670]}, "edge": {"target": [], "time": []}}, "mouseover": {"state": {"target": ["26", "29", "26", "10", "4", "9", "2", "1", "6"], "time": [2417, 2948, 5078, 5161, 5195, 5612, 6028, 6061, 8463]}, "edge": {"target": [], "time": []}}, "mouseout": {"state": {"target": ["0", "26", "29", "26", "10", "4", "9", "2", "1"], "time": [1802, 2684, 5056, 5096, 5178, 5213, 5994, 6044, 8025]}, "edge": {"target": [], "time": []}}}, "displayed_time": "15.49", "trialTime": 16013, "trial_type": "mouselab-mdp", "trial_index": 26, "time_elapsed": 691919, "internal_node_id": "0.0-6.0-1.0-17.0"}}, {"uniqueid": "w44124483:a49910168", "current_trial": 27, "dateTime": 1693389398579, "trialdata": {"revealed_states": [], "clicked_states": ["20"], "num_clicks_accrued": [0, 0, 0, 0, 0, 0, 0, 0, 0, 0, 0, 0, 0], "stateRewards": ["", 1, -3, -2, 14, 49, -40, -39, 2, 26, -61, 73, 1, -4, -8, 12, 79, 29, -65, -13, 55, -26, 27, -1, 3, 3, 9, -17, -60, -18, -8, 35, -88, 69], "withholdReward": false, "trial_id": "mdp_trial_19", "block": "test", "trialIndex": 20, "score": 29.6, "costs": -1.4, "simulationMode": [null, null, null, null, null], "rewards": [1, -4, -8, -13, 55], "path": ["0", "0", "12", "13", "14", "19", "20"], "rt": [4077, 202, 90, 40, 89], "actions": ["right", "right", "right", "down", "right"], "actionTimes": [5454, 6148, 6752, 7303, 7884], "queries": {"click": {"state": {"target": ["20"], "time": [2504]}, "edge": {"target": [], "time": []}}, "mouseover": {"state": {"target": ["12", "13", "14", "20", "31", "30", "33"], "time": [2013, 2077, 2161, 2298, 2861, 2895, 2943]}, "edge": {"target": [], "time": []}}, "mouseout": {"state": {"target": ["6", "0", "12", "13", "14", "20", "31", "30", "33", "31"], "time": [559, 1962, 2048, 2144, 2178, 2661, 2878, 2914, 10389, 10459]}, "edge": {"target": [], "time": []}}}, "displayed_time": "15.38", "trialTime": 16113, "trial_type": "mouselab-mdp", "trial_index": 27, "time_elapsed": 708497, "internal_node_id": "0.0-6.0-1.0-18.0"}}, {"uniqueid": "w44124483:a49910168", "current_trial": 28, "dateTime": 1693389414744, "trialdata": {"revealed_states": [], "clicked_states": ["10", "28", "18"], "num_clicks_accrued": [0, 0, 0, 0, 0, 0, 0, 0, 0, 0, 0, 0, 0], "stateRewards": ["", -2, -3, -6, -7, 9, 16, 65, 5, -41, 20, -25, -1, -4, 1, -11, -49, -4, 71, 1, 39, -62, 52, -2, -3, 7, -9, -28, -70, 84, 8, 24, -58, 82], "withholdReward": false, "trial_id": "mdp_trial_20", "block": "test", "trialIndex": 21, "score": 51.8, "costs": -4.199999999999999, "simulationMode": [null, null, null, null, null], "rewards": [-1, -4, 1, -11, 71], "path": ["0", "0", "12", "13", "14", "15", "18"], "rt": [8143, 536, 246, 145, 41], "actions": ["right", "right", "right", "up", "left"], "actionTimes": [8992, 10059, 10804, 11469, 12032], "queries": {"click": {"state": {"target": ["10", "28", "18"], "time": [2541, 4415, 6318]}, "edge": {"target": [], "time": []}}, "mouseover": {"state": {"target": ["23", "24", "1", "10", "28", "1", "18", "7"], "time": [1376, 1493, 1992, 2308, 3090, 4606, 4656, 6773]}, "edge": {"target": [], "time": []}}, "mouseout": {"state": {"target": ["23", "24", "1", "10", "28", "1", "18"], "time": [1447, 1859, 2106, 2673, 4556, 4623, 6472]}, "edge": {"target": [], "time": []}}}, "displayed_time": "14.85", "trialTime": 15719, "trial_type": "mouselab-mdp", "trial_index": 28, "time_elapsed": 724660, "internal_node_id": "0.0-6.0-1.0-19.0"}}, {"uniqueid": "w44124483:a49910168", "current_trial": 29, "dateTime": 1693389435792, "trialdata": {"revealed_states": [], "clicked_states": ["7", "27", "32", "21", "18", "17"], "num_clicks_accrued": [0, 0, 0, 0, 0, 0, 0, 0, 0, 0, 0, 0, 0], "stateRewards": ["", -2, -1, -6, -14, -55, 78, -13, 11, 14, -71, 59, 2, 2, 6, -6, 9, 38, 14, 7, 85, 11, 68, 1, -4, -1, -3, -63, -85, 9, -2, 63, -86, -10], "withholdReward": false, "trial_id": "mdp_trial_21", "block": "test", "trialIndex": 22, "score": 33.6, "costs": -8.4, "simulationMode": [null, null, null, null, null], "rewards": [2, 2, 6, -6, 38], "path": ["0", "0", "12", "13", "14", "15", "17"], "rt": [15101, 225, 118, 118, 11], "actions": ["right", "right", "right", "up", "right"], "actionTimes": [16842, 17573, 18200, 18814, 19344], "queries": {"click": {"state": {"target": ["7", "27", "32", "21", "18", "17"], "time": [2238, 4339, 6232, 8128, 11535, 14241]}, "edge": {"target": [], "time": []}}, "mouseover": {"state": {"target": ["7", "28", "26", "27", "24", "31", "24", "27", "26", "32", "21", "21", "19", "14", "18", "14", "17"], "time": [2066, 2497, 2564, 2980, 3346, 3365, 3897, 4118, 4463, 4847, 6463, 6731, 11102, 11126, 11335, 13449, 13718]}, "edge": {"target": [], "time": []}}, "mouseout": {"state": {"target": ["7", "7", "28", "26", "27", "24", "31", "24", "27", "26", "32", "21", "21", "19", "14", "18", "14", "17"], "time": [883, 2413, 2548, 2931, 3330, 3363, 3380, 3913, 4447, 4480, 6396, 6479, 9030, 11120, 11163, 11568, 13530, 15529]}, "edge": {"target": [], "time": []}}}, "displayed_time": "19.86", "trialTime": 20596, "trial_type": "mouselab-mdp", "trial_index": 29, "time_elapsed": 745709, "internal_node_id": "0.0-6.0-1.0-20.0"}}, {"uniqueid": "w44124483:a49910168", "current_trial": 30, "dateTime": 1693389452108, "trialdata": {"revealed_states": [], "clicked_states": ["20"], "num_clicks_accrued": [0, 0, 0, 0, 0, 0, 0, 0, 0, 0, 0, 0, 0], "stateRewards": ["", 1, -2, -2, 10, -31, -77, 35, 9, -47, 8, 48, -2, 1, -4, -3, -26, -50, 43, -11, 76, -38, 17, 1, -1, 6, 10, 15, -9, 12, -8, 85, 11, -55], "withholdReward": false, "trial_id": "mdp_trial_22", "block": "test", "trialIndex": 23, "score": 58.6, "costs": -1.4, "simulationMode": [null, null, null, null, null], "rewards": [-2, 1, -4, -11, 76], "path": ["0", "0", "12", "13", "14", "19", "20"], "rt": [4649, 268, 154, 111, 152], "actions": ["right", "right", "right", "down", "right"], "actionTimes": [5986, 6754, 7421, 8047, 8718], "queries": {"click": {"state": {"target": ["20"], "time": [2416]}, "edge": {"target": [], "time": []}}, "mouseover": {"state": {"target": ["12", "19", "20", "17"], "time": [1689, 1751, 1983, 2616]}, "edge": {"target": [], "time": []}}, "mouseout": {"state": {"target": ["14", "0", "12", "19", "20", "17", "13", "12", "32", "32", "31"], "time": [306, 1030, 1710, 1899, 2516, 10248, 10285, 10303, 10349, 10536, 10604]}, "edge": {"target": [], "time": []}}}, "displayed_time": "15.34", "trialTime": 15863, "trial_type": "mouselab-mdp", "trial_index": 30, "time_elapsed": 762024, "internal_node_id": "0.0-6.0-1.0-21.0"}}, {"uniqueid": "w44124483:a49910168", "current_trial": 31, "dateTime": 1693389468054, "trialdata": {"revealed_states": [], "clicked_states": ["16", "10", "7"], "num_clicks_accrued": [0, 0, 0, 0, 0, 0, 0, 0, 0, 0, 0, 0, 0], "stateRewards": ["", -1, 3, 8, 10, -86, 61, -36, 10, 17, -60, 24, -1, -3, 3, 11, 50, 60, 33, -3, -20, 58, -6, 1, -4, -4, 13, -70, -71, 43, 14, 52, 82, -11], "withholdReward": false, "trial_id": "mdp_trial_23", "block": "test", "trialIndex": 24, "score": 55.8, "costs": -4.199999999999999, "simulationMode": [null, null, null, null, null], "rewards": [-1, -3, 3, 11, 50], "path": ["0", "0", "12", "13", "14", "15", "16"], "rt": [7878, 73, 48, 23, 90], "actions": ["right", "right", "right", "up", "up"], "actionTimes": [8847, 9439, 10003, 10538, 11122], "queries": {"click": {"state": {"target": ["16", "10", "7"], "time": [2174, 4174, 6988]}, "edge": {"target": [], "time": []}}, "mouseover": {"state": {"target": ["18", "16", "7", "2", "10", "2", "7", "7"], "time": [1497, 1956, 2501, 2516, 2664, 6182, 6315, 6638]}, "edge": {"target": [], "time": []}}, "mouseout": {"state": {"target": ["0", "18", "16", "7", "2", "10", "2", "7"], "time": [682, 1581, 2399, 2514, 2566, 6136, 6254, 6454]}, "edge": {"target": [], "time": []}}}, "displayed_time": "14.97", "trialTime": 15493, "trial_type": "mouselab-mdp", "trial_index": 31, "time_elapsed": 777969, "internal_node_id": "0.0-6.0-1.0-22.0"}}, {"uniqueid": "w44124483:a49910168", "current_trial": 32, "dateTime": 1693389484313, "trialdata": {"revealed_states": [], "clicked_states": ["10", "22"], "num_clicks_accrued": [0, 0, 0, 0, 0, 0, 0, 0, 0, 0, 0, 0, 0], "stateRewards": ["", -1, 3, 2, 9, 41, 4, -46, -12, -54, -87, -25, 2, 3, -1, 11, -77, 12, -33, -9, -32, 35, 72, 1, 3, -7, 4, 37, 65, -73, 6, 77, -43, 8], "withholdReward": false, "trial_id": "mdp_trial_24", "block": "test", "trialIndex": 25, "score": 64.2, "costs": -2.8, "simulationMode": [null, null, null, null, null], "rewards": [2, 3, -1, -9, 72], "path": ["0", "0", "12", "13", "14", "19", "22"], "rt": [5490, 145, 141, 76, 181], "actions": ["right", "right", "right", "down", "left"], "actionTimes": [6703, 7371, 8034, 8619, 9307], "queries": {"click": {"state": {"target": ["10", "22"], "time": [2296, 4192]}, "edge": {"target": [], "time": []}}, "mouseover": {"state": {"target": ["10", "12", "22", "31", "30", "33", "25", "31"], "time": [2096, 2542, 3041, 4360, 4377, 4407, 4507, 4691]}, "edge": {"target": [], "time": []}}, "mouseout": {"state": {"target": ["7", "1", "10", "12", "22", "31", "30", "33", "25", "31", "0"], "time": [625, 660, 2491, 2575, 4358, 4374, 4392, 4441, 4607, 10945, 11213]}, "edge": {"target": [], "time": []}}}, "displayed_time": "15.22", "trialTime": 15799, "trial_type": "mouselab-mdp", "trial_index": 32, "time_elapsed": 794229, "internal_node_id": "0.0-6.0-1.0-23.0"}}, {"uniqueid": "w44124483:a49910168", "current_trial": 33, "dateTime": 1693389503157, "trialdata": {"revealed_states": [], "clicked_states": ["7", "18", "10", "28", "31"], "num_clicks_accrued": [0, 0, 0, 0, 0, 0, 0, 0, 0, 0, 0, 0, 0], "stateRewards": ["", 2, -1, 5, 8, 75, -35, -77, 1, -9, -81, -58, 1, 2, -7, 5, 77, -16, 19, 16, -10, -18, 40, -2, 3, 7, -5, 64, 1, -62, 10, 27, 10, 65], "withholdReward": false, "trial_id": "mdp_trial_25", "block": "test", "trialIndex": 26, "score": 38, "costs": -7, "simulationMode": [null, null, null, null, null], "rewards": [-2, 3, 7, 10, 27], "path": ["0", "0", "23", "24", "25", "30", "31"], "rt": [12409, 164, 133, 354, 77], "actions": ["left", "left", "left", "down", "right"], "actionTimes": [13919, 14583, 15235, 16104, 16678], "queries": {"click": {"state": {"target": ["7", "18", "10", "28", "31"], "time": [2638, 4641, 7007, 9016, 11054]}, "edge": {"target": [], "time": []}}, "mouseover": {"state": {"target": ["7", "13", "13", "18", "10", "28", "24", "31", "19", "22"], "time": [2456, 2901, 4001, 4100, 5300, 7568, 9333, 9633, 11583, 11817]}, "edge": {"target": [], "time": []}}, "mouseout": {"state": {"target": ["0", "7", "13", "13", "18", "10", "28", "24", "31", "19"], "time": [1239, 2850, 3640, 4034, 4794, 7367, 9317, 9367, 11300, 11784]}, "edge": {"target": [], "time": []}}}, "displayed_time": "17.18", "trialTime": 18389, "trial_type": "mouselab-mdp", "trial_index": 33, "time_elapsed": 813072, "internal_node_id": "0.0-6.0-1.0-24.0"}}, {"uniqueid": "w44124483:a49910168", "current_trial": 34, "dateTime": 1693389521270, "trialdata": {"revealed_states": [], "clicked_states": ["18"], "num_clicks_accrued": [0, 0, 0, 0, 0, 0, 0, 0, 0, 0, 0, 0, 0], "stateRewards": ["", 1, -2, -8, -3, 31, -84, -55, -14, 15, -58, 17, -2, -3, 7, 7, -12, 48, 67, 4, -44, -68, 46, 2, 3, -5, -7, 76, 27, 5, 11, 57, 52, 59], "withholdReward": false, "trial_id": "mdp_trial_26", "block": "test", "trialIndex": 27, "score": 74.6, "costs": -1.4, "simulationMode": [null, null, null, null, null], "rewards": [-2, -3, 7, 7, 67], "path": ["0", "0", "12", "13", "14", "15", "18"], "rt": [4186, 112, 39, 42, 3], "actions": ["right", "right", "right", "up", "left"], "actionTimes": [7272, 7880, 8439, 8993, 9503], "queries": {"click": {"state": {"target": ["18"], "time": [4547]}, "edge": {"target": [], "time": []}}, "mouseover": {"state": {"target": ["18", "18", "19", "20"], "time": [3703, 4356, 4716, 4850]}, "edge": {"target": [], "time": []}}, "mouseout": {"state": {"target": ["22", "0", "18", "18", "19"], "time": [2477, 3182, 3803, 4700, 4733]}, "edge": {"target": [], "time": []}}}, "displayed_time": "17.09", "trialTime": 17638, "trial_type": "mouselab-mdp", "trial_index": 34, "time_elapsed": 831186, "internal_node_id": "0.0-6.0-1.0-25.0"}}, {"uniqueid": "w44124483:a49910168", "current_trial": 35, "dateTime": 1693389542584, "trialdata": {"revealed_states": [], "clicked_states": ["11", "5", "16"], "num_clicks_accrued": [0, 0, 0, 0, 0, 0, 0, 0, 0, 0, 0, 0, 0], "stateRewards": ["", -2, 1, -5, 2, -68, 80, 33, 10, 67, -59, 20, -1, -3, 3, 14, 74, -2, 24, -16, 63, 80, 46, -1, 4, 6, 12, 83, -38, -43, -4, 43, 14, -79], "withholdReward": false, "trial_id": "mdp_trial_27", "block": "test", "trialIndex": 28, "score": 82.8, "costs": -4.199999999999999, "simulationMode": [null, null, null, null, null], "rewards": [-1, -3, 3, 14, 74], "path": ["0", "0", "12", "13", "14", "15", "16"], "rt": [8214, 162, 145, 53, 156], "actions": ["right", "right", "right", "up", "up"], "actionTimes": [13959, 14629, 15296, 15853, 16522], "queries": {"click": {"state": {"target": ["11", "5", "16"], "time": [6636, 9411, 11427]}, "edge": {"target": [], "time": []}}, "mouseover": {"state": {"target": ["10", "11", "11", "10", "1", "7", "4", "5", "18", "16", "18", "14", "15"], "time": [5883, 5902, 6509, 6851, 6883, 8939, 8984, 9233, 10583, 10816, 11740, 12649, 13373]}, "edge": {"target": [], "time": []}}, "mouseout": {"state": {"target": ["20", "10", "11", "10", "1", "10", "11", "11", "10", "1", "7", "4", "5", "18", "16", "18", "14", "15", "15", "12"], "time": [662, 1721, 1870, 5087, 5269, 5899, 5916, 6833, 6867, 6900, 8967, 9055, 9583, 10683, 11700, 12316, 12690, 18286, 18480, 18784]}, "edge": {"target": [], "time": []}}}, "displayed_time": "19.75", "trialTime": 20842, "trial_type": "mouselab-mdp", "trial_index": 35, "time_elapsed": 852501, "internal_node_id": "0.0-6.0-1.0-26.0"}}, {"uniqueid": "w44124483:a49910168", "current_trial": 36, "dateTime": 1693389559676, "trialdata": {"revealed_states": [], "clicked_states": ["28", "31", "22"], "num_clicks_accrued": [0, 0, 0, 0, 0, 0, 0, 0, 0, 0, 0, 0, 0], "stateRewards": ["", 2, 3, -1, 16, -78, -11, 46, 2, -20, 79, -67, 2, 3, 2, 11, -83, -42, -58, -11, -67, -22, 55, 2, -1, -1, -16, -83, -82, 23, -11, -29, 13, 13], "withholdReward": false, "trial_id": "mdp_trial_28", "block": "test", "trialIndex": 29, "score": 46.8, "costs": -4.199999999999999, "simulationMode": [null, null, null, null, null], "rewards": [2, 3, 2, -11, 55], "path": ["0", "0", "12", "13", "14", "19", "22"], "rt": [9231, 50, 67, 34, 69], "actions": ["right", "right", "right", "down", "left"], "actionTimes": [10265, 10826, 11410, 11960, 12528], "queries": {"click": {"state": {"target": ["28", "31", "22"], "time": [3981, 5867, 7763]}, "edge": {"target": [], "time": []}}, "mouseover": {"state": {"target": ["28", "28", "24", "31", "22", "13", "18"], "time": [2280, 3757, 4176, 4259, 6292, 8041, 8158]}, "edge": {"target": [], "time": []}}, "mouseout": {"state": {"target": ["28", "28", "28", "24", "31", "22", "13", "18"], "time": [2313, 4025, 4159, 4225, 6042, 7941, 8125, 8325]}, "edge": {"target": [], "time": []}}}, "displayed_time": "15.04", "trialTime": 16643, "trial_type": "mouselab-mdp", "trial_index": 36, "time_elapsed": 869593, "internal_node_id": "0.0-6.0-1.0-27.0"}}, {"uniqueid": "w44124483:a49910168", "current_trial": 37, "dateTime": 1693389576407, "trialdata": {"revealed_states": [], "clicked_states": ["7"], "num_clicks_accrued": [0, 0, 0, 0, 0, 0, 0, 0, 0, 0, 0, 0, 0], "stateRewards": ["", -1, 2, -6, 6, 43, 78, 78, -2, 55, -29, -17, -2, -4, 1, -15, 13, 7, -79, 8, -28, -68, 36, -1, -3, 3, -16, 84, -18, 87, 10, 32, 13, -81], "withholdReward": false, "trial_id": "mdp_trial_29", "block": "test", "trialIndex": 30, "score": 77.6, "costs": -1.4, "simulationMode": [null, null, null, null, null], "rewards": [-1, 2, -6, 6, 78], "path": ["0", "0", "1", "2", "3", "4", "7"], "rt": [3497, 62, 30, 420, 40], "actions": ["up", "up", "up", "right", "down"], "actionTimes": [5517, 6076, 6626, 7583, 8120], "queries": {"click": {"state": {"target": ["7"], "time": [2937]}, "edge": {"target": [], "time": []}}, "mouseover": {"state": {"target": ["7"], "time": [2802]}, "edge": {"target": [], "time": []}}, "mouseout": {"state": {"target": ["18", "0", "7", "0"], "time": [1263, 2047, 3079, 10895]}, "edge": {"target": [], "time": []}}}, "displayed_time": "16.02", "trialTime": 16264, "trial_type": "mouselab-mdp", "trial_index": 37, "time_elapsed": 886324, "internal_node_id": "0.0-6.0-1.0-28.0"}}, {"uniqueid": "w44124483:a49910168", "current_trial": 38, "dateTime": 1693389592315, "trialdata": {"revealed_states": [], "clicked_states": ["18", "28", "7", "10"], "num_clicks_accrued": [0, 0, 0, 0, 0, 0, 0, 0, 0, 0, 0, 0, 0], "stateRewards": ["", 2, -3, 5, 11, -79, 54, 11, -9, -78, 33, 22, -2, -1, 2, 14, 43, 34, 1, 10, 49, -65, 39, -1, 1, -1, 3, -16, -2, 11, 2, 12, 48, -65], "withholdReward": false, "trial_id": "mdp_trial_30", "block": "test", "trialIndex": 31, "score": 22.4, "costs": -5.6, "simulationMode": [null, null, null, null, null], "rewards": [2, -3, 5, -9, 33], "path": ["0", "0", "1", "2", "3", "8", "10"], "rt": [9178, 103, 101, 68, 163], "actions": ["up", "up", "up", "left", "down"], "actionTimes": [9872, 10494, 11093, 11676, 12339], "queries": {"click": {"state": {"target": ["18", "28", "7", "10"], "time": [1917, 3902, 5816, 7839]}, "edge": {"target": [], "time": []}}, "mouseover": {"state": {"target": ["18", "1", "28", "28", "7", "2", "10"], "time": [1679, 2141, 2324, 2657, 4291, 6060, 6357]}, "edge": {"target": [], "time": []}}, "mouseout": {"state": {"target": ["0", "18", "1", "28", "28", "7", "2"], "time": [1511, 2091, 2157, 2441, 4074, 6057, 6174]}, "edge": {"target": [], "time": []}}}, "displayed_time": "14.70", "trialTime": 15435, "trial_type": "mouselab-mdp", "trial_index": 38, "time_elapsed": 902231, "internal_node_id": "0.0-6.0-1.0-29.0"}}, {"uniqueid": "w44124483:a49910168", "current_trial": 39, "dateTime": 1693389609007, "trialdata": {"revealed_states": [], "clicked_states": ["7"], "num_clicks_accrued": [0, 0, 0, 0, 0, 0, 0, 0, 0, 0, 0, 0, 0], "stateRewards": ["", 2, -1, -1, -9, -81, -30, 55, -6, 78, 25, 62, 2, 4, -1, 9, -85, 1, -19, 1, -60, 12, -34, 1, 4, -1, -13, -24, -16, -83, -8, 16, 43, 9], "withholdReward": false, "trial_id": "mdp_trial_31", "block": "test", "trialIndex": 32, "score": 44.6, "costs": -1.4, "simulationMode": [null, null, null, null, null], "rewards": [2, -1, -1, -9, 55], "path": ["0", "0", "1", "2", "3", "4", "7"], "rt": [3351, 9, 135, 36, 495], "actions": ["up", "up", "up", "right", "down"], "actionTimes": [4965, 5470, 6112, 6665, 7657], "queries": {"click": {"state": {"target": ["7"], "time": [2367]}, "edge": {"target": [], "time": []}}, "mouseover": {"state": {"target": ["7", "27", "27"], "time": [2027, 3026, 3676]}, "edge": {"target": [], "time": []}}, "mouseout": {"state": {"target": ["10", "1", "0", "7", "27", "27"], "time": [880, 976, 1915, 2643, 3043, 9199]}, "edge": {"target": [], "time": []}}}, "displayed_time": "15.62", "trialTime": 16208, "trial_type": "mouselab-mdp", "trial_index": 39, "time_elapsed": 918923, "internal_node_id": "0.0-6.0-1.0-30.0"}}, {"uniqueid": "w44124483:a49910168", "current_trial": 40, "dateTime": 1693389626610, "trialdata": {"revealed_states": [], "clicked_states": ["22", "28"], "num_clicks_accrued": [0, 0, 0, 0, 0, 0, 0, 0, 0, 0, 0, 0, 0], "stateRewards": ["", -2, -4, -2, -13, -15, 87, -19, -6, -80, 30, 12, 1, 1, -8, 2, 55, 56, 15, 11, -68, -7, 55, -2, 3, -3, -3, 48, 62, 4, 1, -3, 69, -33], "withholdReward": false, "trial_id": "mdp_trial_32", "block": "test", "trialIndex": 33, "score": 54.2, "costs": -2.8, "simulationMode": [null, null, null, null, null], "rewards": [-2, 3, -3, -3, 62], "path": ["0", "0", "23", "24", "25", "26", "28"], "rt": [6202, 119, 81, 58, 69], "actions": ["left", "left", "left", "up", "right"], "actionTimes": [8210, 8840, 9435, 10012, 10591], "queries": {"click": {"state": {"target": ["22", "28"], "time": [3257, 5559]}, "edge": {"target": [], "time": []}}, "mouseover": {"state": {"target": ["12", "13", "22", "23", "28", "28"], "time": [2514, 2697, 3109, 3654, 3704, 3953]}, "edge": {"target": [], "time": []}}, "mouseout": {"state": {"target": ["10", "23", "0", "0", "12", "13", "22", "23", "28", "28"], "time": [507, 638, 1355, 2496, 2570, 2853, 3522, 3687, 3787, 14672]}, "edge": {"target": [], "time": []}}}, "displayed_time": "16.02", "trialTime": 17109, "trial_type": "mouselab-mdp", "trial_index": 40, "time_elapsed": 936525, "internal_node_id": "0.0-6.0-1.0-31.0"}}, {"uniqueid": "w44124483:a49910168", "current_trial": 41, "dateTime": 1693389643517, "trialdata": {"revealed_states": [], "clicked_states": ["18", "21", "31"], "num_clicks_accrued": [0, 0, 0, 0, 0, 0, 0, 0, 0, 0, 0, 0, 0], "stateRewards": ["", -1, -4, -3, 1, -45, -67, -24, 14, 32, 22, 22, -1, 1, -5, -7, 72, 84, -79, -5, 19, -40, -2, -1, -2, 8, -3, 84, -25, -28, 11, 64, -66, 77], "withholdReward": false, "trial_id": "mdp_trial_33", "block": "test", "trialIndex": 34, "score": 75.8, "costs": -4.199999999999999, "simulationMode": [null, null, null, null, null], "rewards": [-1, -2, 8, 11, 64], "path": ["0", "0", "23", "24", "25", "30", "31"], "rt": [7801, 98, 105, 58, 85], "actions": ["left", "left", "left", "down", "right"], "actionTimes": [9523, 10142, 10767, 11338, 11948], "queries": {"click": {"state": {"target": ["18", "21", "31"], "time": [2831, 4735, 6661]}, "edge": {"target": [], "time": []}}, "mouseover": {"state": {"target": ["18", "19", "21", "31", "27"], "time": [2484, 3513, 3828, 4939, 7011]}, "edge": {"target": [], "time": []}}, "mouseout": {"state": {"target": ["28", "12", "18", "19", "21", "31", "27", "28", "0"], "time": [788, 1070, 3479, 3545, 4881, 6811, 13372, 13462, 16179]}, "edge": {"target": [], "time": []}}}, "displayed_time": "15.72", "trialTime": 16415, "trial_type": "mouselab-mdp", "trial_index": 41, "time_elapsed": 953434, "internal_node_id": "0.0-6.0-1.0-32.0"}}, {"uniqueid": "w44124483:a49910168", "current_trial": 42, "dateTime": 1693389659696, "trialdata": {"revealed_states": [], "clicked_states": ["28", "21"], "num_clicks_accrued": [0, 0, 0, 0, 0, 0, 0, 0, 0, 0, 0, 0, 0], "stateRewards": ["", -2, -3, -7, 7, -54, -69, -4, -14, -77, 22, 40, -2, -1, 5, 6, -35, 50, -60, 10, -28, 75, 57, 1, -4, -2, 2, 68, 34, -18, 12, 3, -21, -43], "withholdReward": false, "trial_id": "mdp_trial_34", "block": "test", "trialIndex": 35, "score": 84.2, "costs": -2.8, "simulationMode": [null, null, null, null, null], "rewards": [-2, -1, 5, 10, 75], "path": ["0", "0", "12", "13", "14", "19", "21"], "rt": [5915, 144, 120, 171, 139], "actions": ["right", "right", "right", "down", "down"], "actionTimes": [7096, 7757, 8399, 9084, 9719], "queries": {"click": {"state": {"target": ["28", "21"], "time": [2452, 4492]}, "edge": {"target": [], "time": []}}, "mouseover": {"state": {"target": ["23", "28", "0", "22", "21", "22", "10", "11"], "time": [1920, 2180, 2728, 2861, 2994, 4678, 5028, 5445]}, "edge": {"target": [], "time": []}}, "mouseout": {"state": {"target": ["0", "23", "28", "0", "22", "21", "22", "10", "11", "0", "23"], "time": [27, 2029, 2611, 2744, 2962, 4644, 4711, 5094, 14229, 14704, 14799]}, "edge": {"target": [], "time": []}}}, "displayed_time": "15.18", "trialTime": 15691, "trial_type": "mouselab-mdp", "trial_index": 42, "time_elapsed": 969612, "internal_node_id": "0.0-6.0-1.0-33.0"}}, {"uniqueid": "w44124483:a49910168", "current_trial": 43, "dateTime": 1693389679146, "trialdata": {"revealed_states": [], "clicked_states": ["16", "32", "27", "21", "7"], "num_clicks_accrued": [0, 0, 0, 0, 0, 0, 0, 0, 0, 0, 0, 0, 0], "stateRewards": ["", -2, 4, 3, 5, -61, 4, 30, 1, -47, 83, 10, 1, 4, 7, -14, 19, -74, -83, 6, -2, -2, -65, -1, -2, 4, -11, 12, -1, -68, 11, -38, -28, 66], "withholdReward": false, "trial_id": "mdp_trial_35", "block": "test", "trialIndex": 36, "score": 33, "costs": -7, "simulationMode": [null, null, null, null, null], "rewards": [-2, 4, 3, 5, 30], "path": ["0", "0", "1", "2", "3", "4", "7"], "rt": [13690, 89, 117, 3, 25], "actions": ["up", "up", "up", "right", "down"], "actionTimes": [15280, 15883, 16494, 16996, 17551], "queries": {"click": {"state": {"target": ["16", "32", "27", "21", "7"], "time": [2136, 4621, 6613, 9096, 12369]}, "edge": {"target": [], "time": []}}, "mouseover": {"state": {"target": ["16", "15", "14", "13", "31", "32", "30", "29", "27", "27", "0", "21", "20", "15", "18", "7", "16"], "time": [2010, 2361, 2443, 4090, 4163, 4466, 5194, 5360, 5492, 5659, 7909, 8894, 11150, 11764, 11793, 11927, 14680]}, "edge": {"target": [], "time": []}}, "mouseout": {"state": {"target": ["15", "15", "16", "15", "14", "13", "31", "32", "30", "29", "27", "27", "0", "21", "20", "15", "18", "7", "16"], "time": [193, 973, 2327, 2410, 4082, 4107, 4299, 5179, 5210, 5394, 5526, 7826, 7926, 11031, 11224, 11783, 11810, 12422, 14693]}, "edge": {"target": [], "time": []}}}, "displayed_time": "18.06", "trialTime": 18875, "trial_type": "mouselab-mdp", "trial_index": 43, "time_elapsed": 989061, "internal_node_id": "0.0-6.0-1.0-34.0"}}, {"uniqueid": "w44124483:a49910168", "current_trial": 44, "dateTime": 1693389697913, "trialdata": {"revealed_states": [], "clicked_states": ["28", "18"], "num_clicks_accrued": [0, 0, 0, 0, 0, 0, 0, 0, 0, 0, 0, 0, 0], "stateRewards": ["", 1, 3, 3, -10, 52, 68, 59, 12, 7, 49, 21, -2, -3, -4, -2, -2, 63, 63, -4, 44, 43, -76, -2, -3, -6, 13, 48, 36, 12, -5, -36, -33, -11], "withholdReward": false, "trial_id": "mdp_trial_36", "block": "test", "trialIndex": 37, "score": 49.2, "costs": -2.8, "simulationMode": [null, null, null, null, null], "rewards": [-2, -3, -4, -2, 63], "path": ["0", "0", "12", "13", "14", "15", "18"], "rt": [5687, 33, 17, 4, 36], "actions": ["right", "right", "right", "up", "left"], "actionTimes": [9140, 9682, 10215, 10735, 11283], "queries": {"click": {"state": {"target": ["28", "18"], "time": [4435, 6606]}, "edge": {"target": [], "time": []}}, "mouseover": {"state": {"target": ["23", "28", "1", "18", "19", "21"], "time": [4102, 4246, 4613, 4880, 7530, 7696]}, "edge": {"target": [], "time": []}}, "mouseout": {"state": {"target": ["17", "15", "18", "12", "0", "23", "28", "1", "18", "19"], "time": [2501, 2767, 2864, 3015, 4068, 4118, 4564, 4630, 7284, 7580]}, "edge": {"target": [], "time": []}}}, "displayed_time": "17.45", "trialTime": 18281, "trial_type": "mouselab-mdp", "trial_index": 44, "time_elapsed": 1007829, "internal_node_id": "0.0-6.0-1.0-35.0"}}, {"uniqueid": "w44124483:a49910168", "current_trial": 45, "dateTime": 1693389726819, "trialdata": {"revealed_states": [], "clicked_states": ["18", "10", "21", "33", "27", "22", "7", "5"], "num_clicks_accrued": [0, 0, 0, 0, 0, 0, 0, 0, 0, 0, 0, 0, 0], "stateRewards": ["", -2, 2, -5, -6, 10, -66, -58, -10, -11, -63, -70, -1, -4, -5, 7, 66, -64, -43, -3, 45, -37, 4, -2, -2, -6, -4, -30, 33, 43, 15, -32, -65, -59], "withholdReward": false, "trial_id": "mdp_trial_37", "block": "test", "trialIndex": 38, "score": -88.2, "costs": -11.200000000000001, "simulationMode": [null, null, null, null, null], "rewards": [-2, 2, -5, -6, -66], "path": ["0", "0", "1", "2", "3", "4", "6"], "rt": [22163, 79, 40, 673, 57], "actions": ["up", "up", "up", "right", "right"], "actionTimes": [23571, 24145, 24688, 25888, 26456], "queries": {"click": {"state": {"target": ["18", "10", "21", "33", "27", "22", "7", "5"], "time": [2500, 4442, 6411, 9170, 12094, 15358, 18364, 21486]}, "edge": {"target": [], "time": []}}, "mouseover": {"state": {"target": ["18", "2", "10", "8", "4", "6", "15", "14", "19", "21", "32", "32", "33", "30", "31", "27", "28", "24", "22", "1", "2", "7", "6", "5"], "time": [2312, 2718, 2934, 4701, 4800, 4820, 5000, 5100, 5316, 5450, 6883, 7333, 8888, 9949, 9999, 11569, 13281, 14304, 15151, 18015, 18080, 18216, 21149, 21323]}, "edge": {"target": [], "time": []}}, "mouseout": {"state": {"target": ["21", "0", "18", "2", "10", "8", "4", "6", "15", "14", "19", "21", "32", "32", "33", "30", "31", "27", "28", "24", "22", "1", "2", "7", "6"], "time": [778, 2031, 2616, 2750, 4651, 4750, 4818, 4833, 5067, 5299, 5350, 6783, 7099, 8408, 9899, 9982, 11075, 13116, 14056, 14885, 17621, 18064, 18131, 21007, 21183]}, "edge": {"target": [], "time": []}}}, "displayed_time": "26.98", "trialTime": 28411, "trial_type": "mouselab-mdp", "trial_index": 45, "time_elapsed": 1036735, "internal_node_id": "0.0-6.0-1.0-36.0"}}, {"uniqueid": "w44124483:a49910168", "current_trial": 46, "dateTime": 1693389743810, "trialdata": {"revealed_states": [], "clicked_states": ["7"], "num_clicks_accrued": [0, 0, 0, 0, 0, 0, 0, 0, 0, 0, 0, 0, 0], "stateRewards": ["", -2, -3, 8, -4, -30, 31, 69, 9, 66, 87, 64, -2, 2, 8, 5, 47, 16, -39, -8, -54, 51, -19, 1, -2, -2, -11, -25, -26, 43, -9, 19, -84, 86], "withholdReward": false, "trial_id": "mdp_trial_38", "block": "test", "trialIndex": 39, "score": 66.6, "costs": -1.4, "simulationMode": [null, null, null, null, null], "rewards": [-2, -3, 8, -4, 69], "path": ["0", "0", "1", "2", "3", "4", "7"], "rt": [3695, 45, 73, 421, 70], "actions": ["up", "up", "up", "right", "down"], "actionTimes": [5930, 6476, 7069, 8003, 8568], "queries": {"click": {"state": {"target": ["7"], "time": [3529]}, "edge": {"target": [], "time": []}}, "mouseover": {"state": {"target": ["6", "7", "24", "28"], "time": [3216, 3279, 3996, 4146]}, "edge": {"target": [], "time": []}}, "mouseout": {"state": {"target": ["5", "1", "0", "6", "7", "7", "24", "28"], "time": [1477, 1513, 2716, 3236, 3566, 3662, 4113, 10482]}, "edge": {"target": [], "time": []}}}, "displayed_time": "16.24", "trialTime": 16489, "trial_type": "mouselab-mdp", "trial_index": 46, "time_elapsed": 1053727, "internal_node_id": "0.0-6.0-1.0-37.0"}}, {"uniqueid": "w44124483:a49910168", "current_trial": 47, "dateTime": 1693389759668, "trialdata": {"revealed_states": [], "clicked_states": ["20", "33"], "num_clicks_accrued": [0, 0, 0, 0, 0, 0, 0, 0, 0, 0, 0, 0, 0], "stateRewards": ["", -1, 1, -6, -1, 80, 23, 2, -11, 73, -81, 59, 1, 3, 5, -1, -26, 28, -3, 16, -59, -13, -50, -2, -2, 2, 15, -50, 86, 17, -4, 37, 35, 44], "withholdReward": false, "trial_id": "mdp_trial_39", "block": "test", "trialIndex": 40, "score": 35.2, "costs": -2.8, "simulationMode": [null, null, null, null, null], "rewards": [-2, -2, 2, -4, 44], "path": ["0", "0", "23", "24", "25", "30", "33"], "rt": [5709, 107, 483, 97, 82], "actions": ["left", "left", "left", "down", "left"], "actionTimes": [6550, 7151, 8143, 8756, 9361], "queries": {"click": {"state": {"target": ["20", "33"], "time": [1557, 3570]}, "edge": {"target": [], "time": []}}, "mouseover": {"state": {"target": ["19", "20", "30", "33", "30", "23", "15", "15", "18"], "time": [855, 1387, 2274, 2625, 3926, 3958, 4008, 4225, 4475]}, "edge": {"target": [], "time": []}}, "mouseout": {"state": {"target": ["0", "19", "20", "30", "33", "30", "23", "15", "15", "18", "13", "22", "22", "1", "23"], "time": [445, 1360, 1775, 2325, 3908, 3942, 3975, 4025, 4258, 13140, 13162, 13177, 13330, 13414, 13514]}, "edge": {"target": [], "time": []}}}, "displayed_time": "14.84", "trialTime": 15329, "trial_type": "mouselab-mdp", "trial_index": 47, "time_elapsed": 1069586, "internal_node_id": "0.0-6.0-1.0-38.0"}}, {"uniqueid": "w44124483:a49910168", "current_trial": 48, "dateTime": 1693389777009, "trialdata": {"revealed_states": [], "clicked_states": ["11"], "num_clicks_accrued": [0, 0, 0, 0, 0, 0, 0, 0, 0, 0, 0, 0, 0], "stateRewards": ["", -2, 2, -1, -6, 22, 6, 6, -5, 70, -42, 65, 1, 3, 5, -6, -67, -9, 3, 14, 7, -62, -13, -2, 4, 1, 16, 42, -21, -52, -8, 32, 53, 81], "withholdReward": false, "trial_id": "mdp_trial_40", "block": "test", "trialIndex": 41, "score": 57.6, "costs": -1.4, "simulationMode": [null, null, null, null, null], "rewards": [-2, 2, -1, -5, 65], "path": ["0", "0", "1", "2", "3", "8", "11"], "rt": [2692, 106, 100, 19, 60], "actions": ["up", "up", "up", "left", "left"], "actionTimes": [4597, 5215, 5826, 6361, 6934], "queries": {"click": {"state": {"target": ["11"], "time": [2618]}, "edge": {"target": [], "time": []}}, "mouseover": {"state": {"target": ["11", "11", "7"], "time": [2006, 2410, 2874]}, "edge": {"target": [], "time": []}}, "mouseout": {"state": {"target": ["1", "0", "11", "11", "7", "0", "31"], "time": [1108, 1379, 2124, 2807, 2890, 8396, 8491]}, "edge": {"target": [], "time": []}}}, "displayed_time": "15.91", "trialTime": 16798, "trial_type": "mouselab-mdp", "trial_index": 48, "time_elapsed": 1086924, "internal_node_id": "0.0-6.0-1.0-39.0"}}, {"uniqueid": "w44124483:a49910168", "current_trial": 49, "dateTime": 1693389837313, "trialdata": {"rt": 60282, "response": {"Q0": "$-2 to $2", "Q1": "$-16 to $16", "Q2": "$-16 to $16", "Q3": "The cost was always $1.4.", "Q4": "Very motivated"}, "question_order": [0, 1, 2, 3, 4], "trial_id": "final_quiz_control", "trial_type": "survey-multi-choice", "trial_index": 49, "time_elapsed": 1147231, "internal_node_id": "0.0-6.0-2.0"}}, {"uniqueid": "w44124483:a49910168", "current_trial": 50, "dateTime": 1693389934655, "trialdata": {"rt": 97330, "response": {"Q0": "I allowed two note view clicks and selected the highest number. If the first 2 was negative I will inspect until I get a positive and then move to the positive", "Q1": "Once I blindly selected a destination which cost me $88. I would not do that again", "Q2": "It was easy, my strategy gave me above average rewards in my opiniojn"}, "trial_id": "self_report_control", "trial_type": "survey-text", "trial_index": 50, "time_elapsed": 1244572, "internal_node_id": "0.0-6.0-3.0"}}, {"uniqueid": "w44124483:a49910168", "current_trial": 51, "dateTime": 1693389949975, "trialdata": {"rt": 15315, "response": {"gender": "female", "age": "31", "colorblind": "0", "effort": "0"}, "trial_type": "survey-html-form", "trial_index": 51, "time_elapsed": 1259893, "internal_node_id": "0.0-6.0-4.0"}}, {"uniqueid": "w44124483:a49910168", "current_trial": 52, "dateTime": 1693389970466, "trialdata": {"rt": 20484, "response": {"Q0": "Nothing", "Q1": "Nope I have not", "Q2": "None"}, "trial_type": "survey-text", "trial_index": 52, "time_elapsed": 1280384, "internal_node_id": "0.0-6.0-5.0"}}, {"uniqueid": "w44124483:a49910168", "current_trial": 53, "dateTime": 1693390011911, "trialdata": {"rt": 41438, "stimulus": "<h1>Completion Code Instructions (1/2)</h1>\n<br><br><br><br>\nYou have reached the end of the experiment! The completion code consists of two parts: (1) a code with 2 characters (2) a code with 6 characters. On this page, you will receive the second part of the code. The first part of the completion code will be on the next page.\n<br><br>\nThe second part of your completion code is: <b>EWEK22</b>\n<br><br>\nPlease note this down. Then, press 'Finish HIT' in order to find the first part of your completion code. Once the data has been saved, you will receive this code either in this window or in the original browser window where you started the experiment.\n", "response": 0, "trial_type": "html-button-response", "trial_index": 53, "time_elapsed": 1321828, "internal_node_id": "0.0-6.0-6.0"}}, {"uniqueid": "w44124483:a49910168", "current_trial": 54, "dateTime": 1693390012927, "trialdata": {"success": true, "trial_type": "fullscreen", "trial_index": 54, "time_elapsed": 1322845, "internal_node_id": "0.0-7.0"}}], "questiondata": {"params": {"CODE": "C6DMOQA6", "MIN_TIME": 14, "inspectCost": 1, "startTime": "Wed Aug 30 2023 11:44:48 GMT+0200 (South Africa Standard Time)", "bonusRate": 0.002, "variance": "1_2_4_8_44", "branching": "31123"}, "final_score": 1874}, "eventdata": [{"eventtype": "initialized", "value": null, "timestamp": 1693388687572, "interval": 0}, {"eventtype": "window_resize", "value": [1536, 766], "timestamp": 1693388687572, "interval": 0}, {"eventtype": "window_resize", "value": [1536, 766], "timestamp": 1693388688125, "interval": 553}, {"eventtype": "window_resize", "value": [1536, 864], "timestamp": 1693388692558, "interval": 4433}, {"eventtype": "focus", "value": "off", "timestamp": 1693389240883, "interval": 548325}, {"eventtype": "focus", "value": "on", "timestamp": 1693389247389, "interval": 6506}, {"eventtype": "focus", "value": "off", "timestamp": 1693389994841, "interval": 747452}, {"eventtype": "focus", "value": "on", "timestamp": 1693390011887, "interval": 17046}, {"eventtype": "window_resize", "value": [1536, 766], "timestamp": 1693390012191, "interval": 304}], "useragent": "Mozilla/5.0 (Windows NT 10.0; Win64; x64) AppleWebKit/537.36 (KHTML, like Gecko) Chrome/116.0.0.0 Safari/537.36", "mode": "live", "id": "w44124483:a49910168", "status": "user data saved", "Beginhit": "2023-08-30 09:44:43.921051", "Beginexp": "2023-08-30 09:44:52.686092", "Endhit": "2023-08-30 10:06:53.133758", "psiturkStatus": 3, "browser": "<redacted>", "platform": "windows", "language": "en-US"}