{"condition": 0, "counterbalance": 0, "assignmentId": "a54109663", "workerId": "w30749725", "hitId": "h25817965", "currenttrial": 55, "bonus": 0, "data": [{"uniqueid": "w30749725:a54109663", "current_trial": 0, "dateTime": 1693660272875, "trialdata": {"success": true, "trial_type": "fullscreen", "trial_index": 0, "time_elapsed": 2634, "internal_node_id": "0.0-0.0"}}, {"uniqueid": "w30749725:a54109663", "current_trial": 1, "dateTime": 1693660278769, "trialdata": {"view_history": [{"page_index": 0, "viewing_time": 5887}], "rt": 5887, "trial_id": "exp_instructions_control", "trial_type": "instructions", "trial_index": 1, "time_elapsed": 8528, "internal_node_id": "0.0-1.0"}}, {"uniqueid": "w30749725:a54109663", "current_trial": 2, "dateTime": 1693660488016, "trialdata": {"view_history": [{"page_index": 0, "viewing_time": 39341}, {"page_index": 1, "viewing_time": 115512}, {"page_index": 2, "viewing_time": 20320}, {"page_index": 3, "viewing_time": 34072}], "rt": 209245, "trial_id": "mouselab_instructions_1_control", "trial_type": "instructions", "trial_index": 2, "time_elapsed": 217775, "internal_node_id": "0.0-2.0-1.0"}}, {"uniqueid": "w30749725:a54109663", "current_trial": 3, "dateTime": 1693660526552, "trialdata": {"revealed_states": [], "clicked_states": ["23", "24", "25"], "num_clicks_accrued": [0, 0, 0, 0, 0, 0, 0, 0, 0, 0, 0, 0, 0], "stateRewards": ["", 10, -10, -10, 10, -10, 10, -10, 10, 10, -10, -10, 10, -10, -10, -10, -10, -10, -10, -10, 10, -10, -10, 10, 10, -10, -10, -10, 10, 10, -10, -10, 10, 10], "withholdReward": false, "trial_id": "practice_1", "block": "test", "trialIndex": 0, "score": 12, "costs": -1.5, "simulationMode": [null, null, null, null, null], "rewards": [10, -10, -10, 10, 10], "path": ["0", "0", "1", "2", "3", "8", "9"], "rt": [19928, 3178, 3009, 1785, 291], "actions": ["up", "up", "up", "left", "up"], "actionTimes": [22415, 26118, 29633, 31914, 32704], "queries": {"click": {"state": {"target": ["23", "24", "25"], "time": [4920, 8286, 17222]}, "edge": {"target": [], "time": []}}, "mouseover": {"state": {"target": ["23", "24", "31", "24", "25", "31", "31"], "time": [4461, 7599, 14665, 15850, 16184, 17905, 20268]}, "edge": {"target": [], "time": []}}, "mouseout": {"state": {"target": ["0", "0", "23", "24", "31", "24", "25", "31", "31"], "time": [1660, 4245, 7516, 8784, 14685, 15883, 17855, 17992, 36761]}, "edge": {"target": [], "time": []}}}, "displayed_time": "33.21", "trialTime": 37980, "trial_type": "mouselab-mdp", "trial_index": 3, "time_elapsed": 256311, "internal_node_id": "0.0-2.0-2.0-0.0"}}, {"uniqueid": "w30749725:a54109663", "current_trial": 4, "dateTime": 1693660549752, "trialdata": {"revealed_states": [], "clicked_states": ["1"], "num_clicks_accrued": [0, 0, 0, 0, 0, 0, 0, 0, 0, 0, 0, 0, 0], "stateRewards": ["", 10, -10, -10, 10, 10, 10, -10, 10, 10, 10, 10, 10, -10, -10, 10, 10, 10, -10, -10, -10, 10, -10, 10, -10, 10, -10, 10, 10, 10, -10, 10, -10, -10], "withholdReward": false, "trial_id": "practice_2", "block": "test", "trialIndex": 1, "score": 13, "costs": -0.5, "simulationMode": [null, null, null, null, null], "rewards": [10, -10, -10, 10, 10], "path": ["0", "0", "1", "2", "3", "4", "6"], "rt": [2902, 1229, 6072, 498, 849], "actions": ["up", "up", "up", "right", "right"], "actionTimes": [5247, 6976, 13550, 14554, 15901], "queries": {"click": {"state": {"target": ["1"], "time": [3173]}, "edge": {"target": [], "time": []}}, "mouseover": {"state": {"target": ["1", "12"], "time": [2839, 4607]}, "edge": {"target": [], "time": []}}, "mouseout": {"state": {"target": ["22", "22", "0", "1", "12", "7", "7", "2", "10", "2", "7", "2", "3", "7", "22", "19", "21"], "time": [1304, 1437, 2756, 3427, 5173, 9525, 9692, 9709, 9842, 10025, 10476, 13047, 17065, 17148, 17479, 20932, 21748]}, "edge": {"target": [], "time": []}}}, "displayed_time": "16.40", "trialTime": 22858, "trial_type": "mouselab-mdp", "trial_index": 4, "time_elapsed": 279510, "internal_node_id": "0.0-2.0-2.0-1.0"}}, {"uniqueid": "w30749725:a54109663", "current_trial": 5, "dateTime": 1693660574720, "trialdata": {"view_history": [{"page_index": 0, "viewing_time": 19660}, {"page_index": 1, "viewing_time": 5304}], "rt": 24964, "trial_id": "mouselab_instructions_2_control", "trial_type": "instructions", "trial_index": 5, "time_elapsed": 304479, "internal_node_id": "0.0-2.0-3.0"}}, {"uniqueid": "w30749725:a54109663", "current_trial": 6, "dateTime": 1693660624833, "trialdata": {"rt": 50108, "response": {"Q0": "The cost for clicking on nodes may vary between nodes.", "Q1": "The better I perform the higher my bonus will be.", "Q2": "No, the amount of cash at each node of the web may be different each time.", "Q3": "To get the highest total score.", "Q4": "Only before moving the spider.", "Q5": "3 seconds"}, "question_order": [0, 1, 2, 3, 4, 5], "correct": {"Q0": "The cost for clicking on nodes may vary between nodes.", "Q1": "The better I perform the higher my bonus will be.", "Q2": "No, the amount of cash at each node of the web may be different each time.", "Q3": "To get the highest total score.", "Q4": "Only before moving the spider.", "Q5": "3 seconds"}, "trial_id": "mouselab_quiz_control", "trial_type": "survey-multi-choice", "trial_index": 6, "time_elapsed": 354592, "internal_node_id": "0.0-2.0-4.0"}}, {"uniqueid": "w30749725:a54109663", "current_trial": 7, "dateTime": 1693660630392, "trialdata": {"rt": 5550, "response": {"Q0": "No"}, "question_order": [0], "trial_id": "repeat_check", "trial_type": "survey-multi-choice", "trial_index": 7, "time_elapsed": 360151, "internal_node_id": "0.0-4.0-0.0"}}, {"uniqueid": "w30749725:a54109663", "current_trial": 8, "dateTime": 1693660638934, "trialdata": {"rt": 8535, "stimulus": "\n<h1> Get ready to start the game! </h1>\n\nThank you for reading the instructions. Get ready start with the 40 rounds of this game.\n<br><br>\nIf you need to take a break, feel free to take one after the end of a round, before continuing to the next one.\n<br><br>\nRemember, the more money the spider gets, the bigger your bonus will be!\n<br><br>\n<div style='text-align: center;'>Press <code>space</code> to begin.</div>\n\n<br><br>\n(If, at any point, the <code>space</code> key does not take you to the next page, click once on the text and try again.)", "response": " ", "trial_id": "mdp_ready", "trial_type": "html-keyboard-response", "trial_index": 8, "time_elapsed": 368693, "internal_node_id": "0.0-6.0-0.0"}}, {"uniqueid": "w30749725:a54109663", "current_trial": 9, "dateTime": 1693660661267, "trialdata": {"revealed_states": [], "clicked_states": ["12"], "num_clicks_accrued": [0, 0, 0, 0, 0, 0, 0, 0, 0, 0, 0, 0, 0], "stateRewards": ["", 1, 2, 7, 13, 88, -71, 27, 3, 60, 5, -53, -2, 2, -6, -1, -30, 79, 47, -4, -14, 46, 68, 1, 1, 8, 10, -14, 86, 48, -11, -67, -44, 5], "withholdReward": false, "trial_id": "mdp_trial_1", "block": "test", "trialIndex": 2, "score": -41.4, "costs": -1.4, "simulationMode": [null, null, null, null, null], "rewards": [1, 2, 7, 3, -53], "path": ["0", "0", "1", "2", "3", "8", "11"], "rt": [5250, 1130, 2749, 1308, 312], "actions": ["up", "up", "up", "left", "left"], "actionTimes": [7392, 9022, 12271, 14088, 14909], "queries": {"click": {"state": {"target": ["12"], "time": [3579]}, "edge": {"target": [], "time": []}}, "mouseover": {"state": {"target": ["12", "1"], "time": [2913, 6267]}, "edge": {"target": [], "time": []}}, "mouseout": {"state": {"target": ["4", "14", "18", "13", "0", "12", "12", "1", "15", "22"], "time": [530, 695, 947, 1014, 2713, 3767, 4517, 19771, 19905, 20821]}, "edge": {"target": [], "time": []}}}, "displayed_time": "16.14", "trialTime": 21563, "trial_type": "mouselab-mdp", "trial_index": 9, "time_elapsed": 391026, "internal_node_id": "0.0-6.0-1.0-0.0"}}, {"uniqueid": "w30749725:a54109663", "current_trial": 10, "dateTime": 1693660682218, "trialdata": {"revealed_states": [], "clicked_states": ["23"], "num_clicks_accrued": [0, 0, 0, 0, 0, 0, 0, 0, 0, 0, 0, 0, 0], "stateRewards": ["", 1, 1, -7, -9, -44, 24, -83, -15, 44, -24, 72, -2, -3, 4, -5, 57, 55, 29, -11, 22, 12, -25, -1, 2, 7, 12, 33, -8, 47, -4, 8, 50, -4], "withholdReward": false, "trial_id": "mdp_trial_2", "block": "test", "trialIndex": 3, "score": 65.6, "costs": -1.4, "simulationMode": [null, null, null, null, null, null], "rewards": [-1, 2, 7, 12, 47], "path": ["0", "0", "23", "24", "25", "26", "29"], "rt": [3031, 1061, 1106, 2517, 1560, 386], "actions": ["left", "left", "left", "left", "up", "left"], "actionTimes": [4735, 5801, 7411, 10438, 12509, 13401], "queries": {"click": {"state": {"target": ["23"], "time": [3835]}, "edge": {"target": [], "time": []}}, "mouseover": {"state": {"target": ["0", "23"], "time": [2297, 3041]}, "edge": {"target": [], "time": []}}, "mouseout": {"state": {"target": ["23", "0", "23", "28", "25", "26", "26", "28", "0", "12", "13", "14", "21"], "time": [839, 2991, 8854, 10264, 11101, 13496, 18384, 18403, 18432, 18449, 18467, 18515, 19431]}, "edge": {"target": [], "time": []}}}, "displayed_time": "15.71", "trialTime": 20499, "trial_type": "mouselab-mdp", "trial_index": 10, "time_elapsed": 411977, "internal_node_id": "0.0-6.0-1.0-1.0"}}, {"uniqueid": "w30749725:a54109663", "current_trial": 11, "dateTime": 1693660699745, "trialdata": {"revealed_states": [], "clicked_states": ["1"], "num_clicks_accrued": [0, 0, 0, 0, 0, 0, 0, 0, 0, 0, 0, 0, 0], "stateRewards": ["", -1, -4, -6, -15, 21, -67, -63, 9, 51, 69, -14, -1, 3, 8, -8, 39, 72, 63, 15, 19, 47, 15, 1, 4, 5, 16, -18, 34, 35, -14, -80, 40, 1], "withholdReward": false, "trial_id": "mdp_trial_3", "block": "test", "trialIndex": 4, "score": 6.600000000000001, "costs": -1.4, "simulationMode": [null, null, null, null, null], "rewards": [1, 4, 5, 16, -18], "path": ["0", "0", "23", "24", "25", "26", "27"], "rt": [3486, 486, 390, 295, 370], "actions": ["left", "left", "left", "up", "up"], "actionTimes": [5051, 6038, 6926, 7724, 8594], "queries": {"click": {"state": {"target": ["1"], "time": [3117]}, "edge": {"target": [], "time": []}}, "mouseover": {"state": {"target": ["1", "12", "23"], "time": [2600, 3970, 4402]}, "edge": {"target": [], "time": []}}, "mouseout": {"state": {"target": ["0", "1", "12", "23", "19"], "time": [2097, 3402, 4186, 10318, 10384]}, "edge": {"target": [], "time": []}}}, "displayed_time": "15.57", "trialTime": 17157, "trial_type": "mouselab-mdp", "trial_index": 11, "time_elapsed": 429504, "internal_node_id": "0.0-6.0-1.0-2.0"}}, {"uniqueid": "w30749725:a54109663", "current_trial": 12, "dateTime": 1693660717032, "trialdata": {"revealed_states": [], "clicked_states": ["12"], "num_clicks_accrued": [0, 0, 0, 0, 0, 0, 0, 0, 0, 0, 0, 0, 0], "stateRewards": ["", -2, -1, -4, -15, -14, -67, 32, -3, -59, 63, 31, 2, -1, -7, -15, 71, -66, -27, -3, -54, -39, 72, 2, 1, 1, -13, 77, -40, 35, -9, 35, 75, 57], "withholdReward": false, "trial_id": "mdp_trial_4", "block": "test", "trialIndex": 5, "score": -90.4, "costs": -1.4, "simulationMode": [null, null, null, null, null], "rewards": [-2, -1, -4, -15, -67], "path": ["0", "0", "1", "2", "3", "4", "6"], "rt": [4165, 330, 2308, 517, 181], "actions": ["up", "up", "up", "right", "right"], "actionTimes": [5941, 6784, 9592, 10606, 11288], "queries": {"click": {"state": {"target": ["12"], "time": [4356]}, "edge": {"target": [], "time": []}}, "mouseover": {"state": {"target": ["12", "1"], "time": [3496, 5369]}, "edge": {"target": [], "time": []}}, "mouseout": {"state": {"target": ["31", "23", "23", "0", "12", "12", "1", "15", "19"], "time": [944, 1111, 1178, 3296, 4735, 5250, 12584, 12634, 13701]}, "edge": {"target": [], "time": []}}}, "displayed_time": "15.78", "trialTime": 16850, "trial_type": "mouselab-mdp", "trial_index": 12, "time_elapsed": 446790, "internal_node_id": "0.0-6.0-1.0-3.0"}}, {"uniqueid": "w30749725:a54109663", "current_trial": 13, "dateTime": 1693660737562, "trialdata": {"revealed_states": [], "clicked_states": ["1", "23"], "num_clicks_accrued": [0, 0, 0, 0, 0, 0, 0, 0, 0, 0, 0, 0, 0], "stateRewards": ["", -2, -1, -5, 10, -36, -70, 68, -9, 86, 71, -10, 2, -4, 7, -7, 66, 44, -66, -13, -69, 43, 15, -2, 2, 6, -13, 62, 57, 50, -10, -69, 42, -72], "withholdReward": false, "trial_id": "mdp_trial_5", "block": "test", "trialIndex": 6, "score": -79.8, "costs": -2.8, "simulationMode": [null, null, null, null, null], "rewards": [2, -4, 7, -13, -69], "path": ["0", "0", "12", "13", "14", "19", "20"], "rt": [9209, 292, 257, 877, 1770], "actions": ["right", "right", "right", "down", "right"], "actionTimes": [11217, 12018, 12783, 14170, 16441], "queries": {"click": {"state": {"target": ["1", "23"], "time": [4646, 7812]}, "edge": {"target": [], "time": []}}, "mouseover": {"state": {"target": ["0", "1", "23", "0", "12"], "time": [2028, 3897, 7265, 10017, 10100]}, "edge": {"target": [], "time": []}}, "mouseout": {"state": {"target": ["20", "19", "12", "0", "1", "23", "0", "12", "13", "13", "12"], "time": [662, 995, 1262, 3697, 4902, 8170, 10033, 17320, 17370, 17503, 17537]}, "edge": {"target": [], "time": []}}}, "displayed_time": "16.94", "trialTime": 19974, "trial_type": "mouselab-mdp", "trial_index": 13, "time_elapsed": 467320, "internal_node_id": "0.0-6.0-1.0-4.0"}}, {"uniqueid": "w30749725:a54109663", "current_trial": 14, "dateTime": 1693660755517, "trialdata": {"revealed_states": [], "clicked_states": ["1"], "num_clicks_accrued": [0, 0, 0, 0, 0, 0, 0, 0, 0, 0, 0, 0, 0], "stateRewards": ["", 1, -2, 7, -14, 88, -56, -44, -14, 64, -51, -57, -2, 3, -4, -9, -11, 19, -77, -1, 68, 75, -67, -1, 1, -2, 5, -37, 70, -34, -10, -72, 63, -41], "withholdReward": false, "trial_id": "mdp_trial_6", "block": "test", "trialIndex": 7, "score": -66.4, "costs": -1.4, "simulationMode": [null, null, null, null, null], "rewards": [1, -2, 7, -14, -57], "path": ["0", "0", "1", "2", "3", "8", "11"], "rt": [6167, 338, 801, 497, 363], "actions": ["up", "up", "up", "left", "left"], "actionTimes": [8237, 9083, 10382, 11377, 12246], "queries": {"click": {"state": {"target": ["1"], "time": [4770]}, "edge": {"target": [], "time": []}}, "mouseover": {"state": {"target": ["1", "0", "1"], "time": [3652, 3819, 3986]}, "edge": {"target": [], "time": []}}, "mouseout": {"state": {"target": ["0", "1", "0", "1", "7", "4", "10", "28"], "time": [2969, 3735, 3892, 5740, 14478, 14557, 14624, 14659]}, "edge": {"target": [], "time": []}}}, "displayed_time": "16.07", "trialTime": 17525, "trial_type": "mouselab-mdp", "trial_index": 14, "time_elapsed": 485275, "internal_node_id": "0.0-6.0-1.0-5.0"}}, {"uniqueid": "w30749725:a54109663", "current_trial": 15, "dateTime": 1693660773138, "trialdata": {"revealed_states": [], "clicked_states": ["23"], "num_clicks_accrued": [0, 0, 0, 0, 0, 0, 0, 0, 0, 0, 0, 0, 0], "stateRewards": ["", -2, 3, -1, -9, 44, 48, -37, -3, 71, -39, 87, -1, 3, -4, 4, -21, 59, -15, -8, -1, 28, -38, 2, 4, 4, 8, -85, -72, -63, 14, 58, 63, -46], "withholdReward": false, "trial_id": "mdp_trial_7", "block": "test", "trialIndex": 8, "score": -23.4, "costs": -1.4, "simulationMode": [null, null, null, null, null], "rewards": [2, 4, 4, 14, -46], "path": ["0", "0", "23", "24", "25", "30", "33"], "rt": [5092, 243, 1284, 481, 585], "actions": ["left", "left", "left", "down", "left"], "actionTimes": [6717, 7454, 9245, 10226, 11314], "queries": {"click": {"state": {"target": ["23"], "time": [3637]}, "edge": {"target": [], "time": []}}, "mouseover": {"state": {"target": ["0", "0", "23", "24"], "time": [2670, 3153, 3287, 5671]}, "edge": {"target": [], "time": []}}, "mouseout": {"state": {"target": ["0", "0", "0", "23", "24"], "time": [2463, 2736, 3254, 5521, 14759]}, "edge": {"target": [], "time": []}}}, "displayed_time": "15.63", "trialTime": 17189, "trial_type": "mouselab-mdp", "trial_index": 15, "time_elapsed": 502896, "internal_node_id": "0.0-6.0-1.0-6.0"}}, {"uniqueid": "w30749725:a54109663", "current_trial": 16, "dateTime": 1693660792166, "trialdata": {"revealed_states": [], "clicked_states": ["1", "23"], "num_clicks_accrued": [0, 0, 0, 0, 0, 0, 0, 0, 0, 0, 0, 0, 0], "stateRewards": ["", -1, 4, -5, 9, 29, -75, -42, -16, 24, -28, -41, 2, -3, 1, 10, 60, 47, 55, -1, -53, 22, -40, 2, -3, -6, 4, -26, 44, 54, 15, -76, 42, 14], "withholdReward": false, "trial_id": "mdp_trial_8", "block": "test", "trialIndex": 9, "score": -70.8, "costs": -2.8, "simulationMode": [null, null, null, null, null], "rewards": [2, -3, -6, 15, -76], "path": ["0", "0", "23", "24", "25", "30", "31"], "rt": [8005, 680, 476, 747, 656], "actions": ["left", "left", "left", "down", "right"], "actionTimes": [10201, 11381, 12360, 13611, 14770], "queries": {"click": {"state": {"target": ["1", "23"], "time": [4623, 7597]}, "edge": {"target": [], "time": []}}, "mouseover": {"state": {"target": ["1", "23"], "time": [3356, 7241]}, "edge": {"target": [], "time": []}}, "mouseout": {"state": {"target": ["23", "0", "1", "23", "22"], "time": [738, 3273, 7108, 8597, 16863]}, "edge": {"target": [], "time": []}}}, "displayed_time": "16.20", "trialTime": 18578, "trial_type": "mouselab-mdp", "trial_index": 16, "time_elapsed": 521924, "internal_node_id": "0.0-6.0-1.0-7.0"}}, {"uniqueid": "w30749725:a54109663", "current_trial": 17, "dateTime": 1693660812280, "trialdata": {"revealed_states": [], "clicked_states": ["1"], "num_clicks_accrued": [0, 0, 0, 0, 0, 0, 0, 0, 0, 0, 0, 0, 0], "stateRewards": ["", -2, -1, -2, -15, 87, 57, 29, -10, 77, -80, -7, 1, -3, 6, 14, -11, 87, -59, 4, -71, 16, -11, 2, 2, -7, 2, -47, 61, 50, 14, -20, 17, 81], "withholdReward": false, "trial_id": "mdp_trial_9", "block": "test", "trialIndex": 10, "score": 5.600000000000001, "costs": -1.4, "simulationMode": [null, null, null, null, null], "rewards": [1, -3, 6, 14, -11], "path": ["0", "0", "12", "13", "14", "15", "16"], "rt": [6387, 229, 110, 69, 104], "actions": ["right", "right", "right", "up", "up"], "actionTimes": [10406, 11141, 11755, 12319, 12920], "queries": {"click": {"state": {"target": ["1"], "time": [6724]}, "edge": {"target": [], "time": []}}, "mouseover": {"state": {"target": ["12", "0", "1"], "time": [5123, 5409, 5890]}, "edge": {"target": [], "time": []}}, "mouseout": {"state": {"target": ["12", "0", "12", "0", "1", "18", "15"], "time": [3055, 5023, 5260, 5626, 14544, 14694, 14711]}, "edge": {"target": [], "time": []}}}, "displayed_time": "18.02", "trialTime": 19666, "trial_type": "mouselab-mdp", "trial_index": 17, "time_elapsed": 542038, "internal_node_id": "0.0-6.0-1.0-8.0"}}, {"uniqueid": "w30749725:a54109663", "current_trial": 18, "dateTime": 1693660829772, "trialdata": {"revealed_states": [], "clicked_states": ["23"], "num_clicks_accrued": [0, 0, 0, 0, 0, 0, 0, 0, 0, 0, 0, 0, 0], "stateRewards": ["", -1, -3, -5, -14, -13, -47, 79, 8, -60, -64, 41, -1, 2, 3, 13, -46, 61, -79, -11, -64, -65, 23, 1, -2, 6, -14, 46, 32, 21, 7, 75, -66, 15], "withholdReward": false, "trial_id": "mdp_trial_10", "block": "test", "trialIndex": 11, "score": 21.6, "costs": -1.4, "simulationMode": [null, null, null, null, null], "rewards": [1, -2, 6, -14, 32], "path": ["0", "0", "23", "24", "25", "26", "28"], "rt": [3746, 589, 370, 327, 527], "actions": ["left", "left", "left", "up", "right"], "actionTimes": [5395, 6487, 7354, 8179, 9209], "queries": {"click": {"state": {"target": ["23"], "time": [2720]}, "edge": {"target": [], "time": []}}, "mouseover": {"state": {"target": ["23"], "time": [2410]}, "edge": {"target": [], "time": []}}, "mouseout": {"state": {"target": ["0", "23", "23", "23", "24", "17", "16"], "time": [2344, 2744, 3614, 10881, 10898, 11432, 11481]}, "edge": {"target": [], "time": []}}}, "displayed_time": "15.65", "trialTime": 16987, "trial_type": "mouselab-mdp", "trial_index": 18, "time_elapsed": 559530, "internal_node_id": "0.0-6.0-1.0-9.0"}}, {"uniqueid": "w30749725:a54109663", "current_trial": 19, "dateTime": 1693660848650, "trialdata": {"revealed_states": [], "clicked_states": ["12"], "num_clicks_accrued": [0, 0, 0, 0, 0, 0, 0, 0, 0, 0, 0, 0, 0], "stateRewards": ["", 1, -3, -6, -5, 47, 80, -29, 11, -71, 10, -29, -2, 3, -6, 12, 2, -78, -6, 8, 34, -16, -5, -1, 3, 3, -13, 84, -36, -62, -3, -27, 66, 15], "withholdReward": false, "trial_id": "mdp_trial_11", "block": "test", "trialIndex": 12, "score": -69.4, "costs": -1.4, "simulationMode": [null, null, null, null, null], "rewards": [1, -3, -6, 11, -71], "path": ["0", "0", "1", "2", "3", "8", "9"], "rt": [4198, 177, 521, 82, 102], "actions": ["up", "up", "up", "left", "up"], "actionTimes": [7082, 7755, 8781, 9376, 9980], "queries": {"click": {"state": {"target": ["12"], "time": [4236]}, "edge": {"target": [], "time": []}}, "mouseover": {"state": {"target": ["12", "19"], "time": [3686, 4564]}, "edge": {"target": [], "time": []}}, "mouseout": {"state": {"target": ["1", "12", "19", "19", "12"], "time": [1984, 4540, 4596, 11489, 11506]}, "edge": {"target": [], "time": []}}}, "displayed_time": "16.89", "trialTime": 18349, "trial_type": "mouselab-mdp", "trial_index": 19, "time_elapsed": 578408, "internal_node_id": "0.0-6.0-1.0-10.0"}}, {"uniqueid": "w30749725:a54109663", "current_trial": 20, "dateTime": 1693660866688, "trialdata": {"revealed_states": [], "clicked_states": ["1"], "num_clicks_accrued": [0, 0, 0, 0, 0, 0, 0, 0, 0, 0, 0, 0, 0], "stateRewards": ["", 2, 2, 3, -15, 23, -14, 73, -7, -32, -20, -6, 1, 1, -5, -12, 73, 6, -84, 11, -81, -57, 13, -2, -1, -4, -8, -52, -58, 49, 13, 5, -41, -41], "withholdReward": false, "trial_id": "mdp_trial_12", "block": "test", "trialIndex": 13, "score": 13.6, "costs": -1.4, "simulationMode": [null, null, null, null, null], "rewards": [2, 2, 3, -15, 23], "path": ["0", "0", "1", "2", "3", "4", "5"], "rt": [4539, 230, 187, 79, 77], "actions": ["up", "up", "up", "right", "up"], "actionTimes": [7196, 7928, 8621, 9212, 9797], "queries": {"click": {"state": {"target": ["1"], "time": [5512]}, "edge": {"target": [], "time": []}}, "mouseover": {"state": {"target": ["22", "22", "28", "1", "1"], "time": [2706, 4319, 4368, 5084, 5352]}, "edge": {"target": [], "time": []}}, "mouseout": {"state": {"target": ["27", "28", "23", "22", "22", "28", "1", "1", "27"], "time": [1732, 1832, 1932, 2736, 4336, 4386, 5134, 11187, 11238]}, "edge": {"target": [], "time": []}}}, "displayed_time": "16.66", "trialTime": 17527, "trial_type": "mouselab-mdp", "trial_index": 20, "time_elapsed": 596447, "internal_node_id": "0.0-6.0-1.0-11.0"}}, {"uniqueid": "w30749725:a54109663", "current_trial": 21, "dateTime": 1693660885505, "trialdata": {"revealed_states": [], "clicked_states": [], "num_clicks_accrued": [0, 0, 0, 0, 0, 0, 0, 0, 0, 0, 0, 0, 0], "stateRewards": ["", -2, -4, -2, 10, -8, -15, -47, 7, -84, 53, 5, -1, 2, -7, 3, 83, 31, 47, -1, 30, -8, 69, 2, -4, -1, 8, -7, 12, -8, -8, -13, 30, -84], "withholdReward": false, "trial_id": "mdp_trial_13", "block": "test", "trialIndex": 14, "score": -95, "costs": 0, "simulationMode": [null, null, null, null, null], "rewards": [2, -4, -1, -8, -84], "path": ["0", "0", "23", "24", "25", "30", "33"], "rt": [5312, 533, 925, 3738, 426], "actions": ["left", "left", "left", "down", "left"], "actionTimes": [7897, 8927, 10355, 14604, 15537], "queries": {"click": {"state": {"target": [], "time": []}, "edge": {"target": [], "time": []}}, "mouseover": {"state": {"target": ["22", "12", "0", "23", "0"], "time": [5489, 5853, 6004, 6238, 6737]}, "edge": {"target": [], "time": []}}, "mouseout": {"state": {"target": ["21", "0", "22", "12", "0", "23", "0", "14", "13", "12", "0", "31", "25", "26", "24", "30", "30"], "time": [1501, 5370, 5620, 5970, 6104, 6720, 6755, 11423, 11523, 11556, 11574, 11723, 11773, 12907, 12973, 13057, 13774]}, "edge": {"target": [], "time": []}}}, "displayed_time": "16.59", "trialTime": 18238, "trial_type": "mouselab-mdp", "trial_index": 21, "time_elapsed": 615264, "internal_node_id": "0.0-6.0-1.0-12.0"}}, {"uniqueid": "w30749725:a54109663", "current_trial": 22, "dateTime": 1693660903989, "trialdata": {"revealed_states": [], "clicked_states": [], "num_clicks_accrued": [0, 0, 0, 0, 0, 0, 0, 0, 0, 0, 0, 0, 0], "stateRewards": ["", -2, -1, -1, 5, -54, -87, 35, 2, -8, 20, -22, 1, 3, 6, 13, -75, -32, -55, -3, 56, 62, -22, -1, -4, -1, -7, -51, 84, 70, 7, -15, 5, 55], "withholdReward": false, "trial_id": "mdp_trial_14", "block": "test", "trialIndex": 15, "score": -9, "costs": 0, "simulationMode": [null, null, null, null, null], "rewards": [1, 3, 6, 13, -32], "path": ["0", "0", "12", "13", "14", "15", "17"], "rt": [1125, 289, 182, 103, 36], "actions": ["right", "right", "right", "up", "right"], "actionTimes": [3978, 4770, 5447, 6053, 6584], "queries": {"click": {"state": {"target": [], "time": []}, "edge": {"target": [], "time": []}}, "mouseover": {"state": {"target": [], "time": []}, "edge": {"target": [], "time": []}}, "mouseout": {"state": {"target": ["15", "18", "0", "12"], "time": [2056, 2090, 7810, 8360]}, "edge": {"target": [], "time": []}}}, "displayed_time": "16.85", "trialTime": 18002, "trial_type": "mouselab-mdp", "trial_index": 22, "time_elapsed": 633748, "internal_node_id": "0.0-6.0-1.0-13.0"}}, {"uniqueid": "w30749725:a54109663", "current_trial": 23, "dateTime": 1693660921817, "trialdata": {"revealed_states": [], "clicked_states": ["23", "1", "12"], "num_clicks_accrued": [0, 0, 0, 0, 0, 0, 0, 0, 0, 0, 0, 0, 0], "stateRewards": ["", -1, 2, -7, -12, -62, 12, -13, 5, 77, -71, 83, 1, -4, 7, 15, -42, -87, -4, 5, -25, 44, 88, -1, 4, -5, -8, 14, 51, 8, -5, 83, -24, -19], "withholdReward": false, "trial_id": "mdp_trial_15", "block": "test", "trialIndex": 16, "score": 10.8, "costs": -4.199999999999999, "simulationMode": [null, null, null, null, null], "rewards": [1, -4, 7, 15, -4], "path": ["0", "0", "12", "13", "14", "15", "18"], "rt": [7783, 91, 77, 96, 8], "actions": ["right", "right", "right", "up", "left"], "actionTimes": [9736, 10330, 10911, 11525, 12048], "queries": {"click": {"state": {"target": ["23", "1", "12"], "time": [2684, 5437, 7650]}, "edge": {"target": [], "time": []}}, "mouseover": {"state": {"target": ["0", "23", "1", "13", "12", "19"], "time": [2295, 2412, 5263, 5800, 7397, 7918]}, "edge": {"target": [], "time": []}}, "mouseout": {"state": {"target": ["31", "30", "31", "0", "0", "23", "23", "1", "13", "12", "12", "19", "19", "14"], "time": [726, 910, 943, 1967, 2377, 2737, 2981, 5732, 7080, 7709, 7838, 7932, 15183, 15217]}, "edge": {"target": [], "time": []}}}, "displayed_time": "15.96", "trialTime": 17309, "trial_type": "mouselab-mdp", "trial_index": 23, "time_elapsed": 651576, "internal_node_id": "0.0-6.0-1.0-14.0"}}, {"uniqueid": "w30749725:a54109663", "current_trial": 24, "dateTime": 1693660938912, "trialdata": {"revealed_states": [], "clicked_states": ["12"], "num_clicks_accrued": [0, 0, 0, 0, 0, 0, 0, 0, 0, 0, 0, 0, 0], "stateRewards": ["", 2, 4, 7, 7, -79, -2, -21, -5, -53, 47, -21, 1, -3, -1, 7, 83, 7, 84, -7, 80, -37, 69, 2, -4, 5, 2, 4, -20, -30, 7, 71, 44, -81], "withholdReward": false, "trial_id": "mdp_trial_16", "block": "test", "trialIndex": 17, "score": 57.6, "costs": -1.4, "simulationMode": [null, null, null, null, null], "rewards": [1, -3, -1, -7, 69], "path": ["0", "0", "12", "13", "14", "19", "22"], "rt": [5101, 31, 750, 3, 15], "actions": ["right", "right", "right", "down", "left"], "actionTimes": [6750, 7290, 8545, 9047, 9594], "queries": {"click": {"state": {"target": ["12"], "time": [3048]}, "edge": {"target": [], "time": []}}, "mouseover": {"state": {"target": ["12", "1", "13"], "time": [2835, 3871, 5169]}, "edge": {"target": [], "time": []}}, "mouseout": {"state": {"target": ["19", "13", "0", "12", "1", "13", "0", "26", "11", "4"], "time": [699, 882, 2801, 3561, 5135, 5188, 11055, 11088, 11204, 11238]}, "edge": {"target": [], "time": []}}}, "displayed_time": "15.65", "trialTime": 16552, "trial_type": "mouselab-mdp", "trial_index": 24, "time_elapsed": 668671, "internal_node_id": "0.0-6.0-1.0-15.0"}}, {"uniqueid": "w30749725:a54109663", "current_trial": 25, "dateTime": 1693660955697, "trialdata": {"revealed_states": [], "clicked_states": ["12"], "num_clicks_accrued": [0, 0, 0, 0, 0, 0, 0, 0, 0, 0, 0, 0, 0], "stateRewards": ["", -1, 3, 2, 9, 41, 4, -46, -12, -54, -87, -25, 2, 3, -1, 11, -77, 12, -33, -9, -32, 35, 72, 1, 3, -7, 4, 37, 65, -73, 6, 77, -43, 8], "withholdReward": false, "trial_id": "mdp_trial_17", "block": "test", "trialIndex": 18, "score": -38.4, "costs": -1.4, "simulationMode": [null, null, null, null, null], "rewards": [2, 3, -1, -9, -32], "path": ["0", "0", "12", "13", "14", "19", "20"], "rt": [3737, 105, 25, 20, 2], "actions": ["right", "right", "right", "down", "right"], "actionTimes": [5232, 5838, 6358, 6902, 7403], "queries": {"click": {"state": {"target": ["12"], "time": [2277]}, "edge": {"target": [], "time": []}}, "mouseover": {"state": {"target": ["12", "1", "1"], "time": [1992, 2729, 2966]}, "edge": {"target": [], "time": []}}, "mouseout": {"state": {"target": ["0", "12", "1", "1", "11", "3", "6"], "time": [1891, 2695, 2762, 4459, 9378, 9396, 9417]}, "edge": {"target": [], "time": []}}}, "displayed_time": "15.50", "trialTime": 16237, "trial_type": "mouselab-mdp", "trial_index": 25, "time_elapsed": 685455, "internal_node_id": "0.0-6.0-1.0-16.0"}}, {"uniqueid": "w30749725:a54109663", "current_trial": 26, "dateTime": 1693660974271, "trialdata": {"revealed_states": [], "clicked_states": ["23", "1", "12"], "num_clicks_accrued": [0, 0, 0, 0, 0, 0, 0, 0, 0, 0, 0, 0, 0], "stateRewards": ["", -1, 3, -7, 16, -32, -74, -48, 2, 10, 15, -30, 1, 1, -2, 10, 12, -83, 67, 13, -66, 47, 65, -2, 4, 2, -14, -8, -57, 24, 9, 65, 12, 46], "withholdReward": false, "trial_id": "mdp_trial_18", "block": "test", "trialIndex": 19, "score": -77.2, "costs": -4.199999999999999, "simulationMode": [null, null, null, null, null], "rewards": [1, 1, -2, 10, -83], "path": ["0", "0", "12", "13", "14", "15", "17"], "rt": [8966, 333, 476, 149, 102], "actions": ["right", "right", "right", "up", "right"], "actionTimes": [10689, 11527, 12504, 13158, 13763], "queries": {"click": {"state": {"target": ["23", "1", "12"], "time": [3964, 6364, 8660]}, "edge": {"target": [], "time": []}}, "mouseover": {"state": {"target": ["0", "23", "0", "0", "23", "1", "12"], "time": [2484, 2668, 3235, 3671, 3754, 6069, 8471]}, "edge": {"target": [], "time": []}}, "mouseout": {"state": {"target": ["21", "19", "22", "0", "0", "23", "0", "0", "23", "1"], "time": [616, 699, 733, 2184, 2601, 3135, 3301, 3736, 5903, 8304]}, "edge": {"target": [], "time": []}}}, "displayed_time": "15.72", "trialTime": 17963, "trial_type": "mouselab-mdp", "trial_index": 26, "time_elapsed": 704030, "internal_node_id": "0.0-6.0-1.0-17.0"}}, {"uniqueid": "w30749725:a54109663", "current_trial": 27, "dateTime": 1693660997194, "trialdata": {"revealed_states": [], "clicked_states": ["12", "13", "14", "19"], "num_clicks_accrued": [0, 0, 0, 0, 0, 0, 0, 0, 0, 0, 0, 0, 0], "stateRewards": ["", 2, -2, 7, -11, -76, -65, -23, 16, -58, 30, 81, 1, 2, 7, 14, 9, 55, -2, 6, 11, -15, 31, -1, -1, -3, 2, 15, 2, 46, 15, 18, 45, -34], "withholdReward": false, "trial_id": "mdp_trial_19", "block": "test", "trialIndex": 20, "score": 21.4, "costs": -5.6, "simulationMode": [null, null, null, null, null], "rewards": [1, 2, 7, 6, 11], "path": ["0", "0", "12", "13", "14", "19", "20"], "rt": [12680, 154, 369, 3, 91], "actions": ["right", "right", "right", "down", "right"], "actionTimes": [15617, 16277, 17145, 17645, 18253], "queries": {"click": {"state": {"target": ["12", "13", "14", "19"], "time": [4115, 6507, 9099, 12179]}, "edge": {"target": [], "time": []}}, "mouseover": {"state": {"target": ["12", "13", "13", "19", "19", "14", "19"], "time": [3797, 6214, 6364, 6883, 8715, 8849, 11900]}, "edge": {"target": [], "time": []}}, "mouseout": {"state": {"target": ["12", "0", "0", "12", "12", "13", "13", "19", "19", "14", "14", "19"], "time": [2028, 2161, 3763, 4163, 6181, 6248, 6833, 8526, 8749, 9403, 11219, 12401]}, "edge": {"target": [], "time": []}}}, "displayed_time": "18.76", "trialTime": 22389, "trial_type": "mouselab-mdp", "trial_index": 27, "time_elapsed": 726952, "internal_node_id": "0.0-6.0-1.0-18.0"}}, {"uniqueid": "w30749725:a54109663", "current_trial": 28, "dateTime": 1693661024620, "trialdata": {"revealed_states": [], "clicked_states": ["1", "2", "7", "10", "3", "8"], "num_clicks_accrued": [0, 0, 0, 0, 0, 0, 0, 0, 0, 0, 0, 0, 0], "stateRewards": ["", 1, 4, 7, -16, -84, -6, -46, -12, -7, -49, -26, -1, 2, -4, 2, 22, 37, -64, 1, 88, -13, -10, 1, -4, -2, 5, 2, -10, -34, 9, 66, 55, 38], "withholdReward": false, "trial_id": "mdp_trial_20", "block": "test", "trialIndex": 21, "score": -96.4, "costs": -8.4, "simulationMode": [null, null, null, null, null], "rewards": [1, 4, 7, -16, -84], "path": ["0", "0", "1", "2", "3", "4", "5"], "rt": [19287, 27, 3, 4, 219], "actions": ["up", "up", "up", "right", "up"], "actionTimes": [21698, 22221, 22727, 23248, 23981], "queries": {"click": {"state": {"target": ["1", "2", "7", "10", "3", "8"], "time": [4253, 7709, 10285, 13036, 15732, 18043]}, "edge": {"target": [], "time": []}}, "mouseover": {"state": {"target": ["22", "7", "1", "12", "23", "28", "2", "7", "7", "2", "10", "10", "3", "8", "3", "4"], "time": [3496, 3630, 4080, 6998, 7042, 7215, 7448, 9866, 10219, 12535, 12583, 12950, 15484, 17852, 20338, 20670]}, "edge": {"target": [], "time": []}}, "mouseout": {"state": {"target": ["21", "0", "22", "7", "1", "12", "23", "28", "2", "7", "7", "2", "10", "10", "3", "8", "3"], "time": [1278, 2429, 3529, 3763, 4516, 7036, 7068, 7248, 9816, 10150, 12517, 12553, 12650, 15384, 17655, 20320, 20404]}, "edge": {"target": [], "time": []}}}, "displayed_time": "24.48", "trialTime": 26888, "trial_type": "mouselab-mdp", "trial_index": 28, "time_elapsed": 754378, "internal_node_id": "0.0-6.0-1.0-19.0"}}, {"uniqueid": "w30749725:a54109663", "current_trial": 29, "dateTime": 1693661056029, "trialdata": {"revealed_states": [], "clicked_states": ["12", "13", "14", "15", "19", "22", "20"], "num_clicks_accrued": [0, 0, 0, 0, 0, 0, 0, 0, 0, 0, 0, 0, 0], "stateRewards": ["", 2, 4, 4, -8, -36, -33, 38, 16, -51, 57, 57, 1, 3, 4, -6, 45, 68, 87, 1, 63, 24, -55, -2, 2, -6, -13, -63, -50, 8, 2, 80, 6, 60], "withholdReward": false, "trial_id": "mdp_trial_21", "block": "test", "trialIndex": 22, "score": 62.2, "costs": -9.8, "simulationMode": [null, null, null, null, null], "rewards": [1, 3, 4, 1, 63], "path": ["0", "0", "12", "13", "14", "19", "20"], "rt": [20708, 56, 493, 87, 3], "actions": ["right", "right", "right", "down", "right"], "actionTimes": [23260, 23817, 24819, 25427, 25931], "queries": {"click": {"state": {"target": ["12", "13", "14", "15", "19", "22", "20"], "time": [3512, 6123, 9208, 12182, 15095, 17493, 20254]}, "edge": {"target": [], "time": []}}, "mouseover": {"state": {"target": ["12", "13", "14", "15", "14", "20", "19", "15", "14", "14", "19", "22", "20", "20"], "time": [3328, 5862, 8232, 8664, 9013, 9631, 11384, 11998, 14466, 14749, 14817, 17284, 19788, 20085]}, "edge": {"target": [], "time": []}}, "mouseout": {"state": {"target": ["4", "0", "12", "13", "14", "15", "14", "20", "19", "14", "15", "14", "14", "19", "22", "22", "20", "20", "21", "12"], "time": [1525, 3210, 5628, 8179, 8463, 8963, 9571, 9645, 11765, 11848, 14432, 14649, 14799, 17233, 17556, 19588, 19935, 22286, 28572, 28639]}, "edge": {"target": [], "time": []}}}, "displayed_time": "26.45", "trialTime": 30883, "trial_type": "mouselab-mdp", "trial_index": 29, "time_elapsed": 785787, "internal_node_id": "0.0-6.0-1.0-20.0"}}, {"uniqueid": "w30749725:a54109663", "current_trial": 30, "dateTime": 1693661080368, "trialdata": {"revealed_states": [], "clicked_states": ["1", "23", "12"], "num_clicks_accrued": [0, 0, 0, 0, 0, 0, 0, 0, 0, 0, 0, 0, 0], "stateRewards": ["", -2, -3, 1, -14, 48, -49, 67, -1, -35, -48, 3, -2, 1, -4, -5, 86, -84, 39, 1, 48, 41, -42, -1, -4, 2, -7, 18, -86, 17, 7, -9, 57, -69], "withholdReward": false, "trial_id": "mdp_trial_22", "block": "test", "trialIndex": 23, "score": 71.8, "costs": -4.199999999999999, "simulationMode": [null, null, null, null, null], "rewards": [-2, 1, -4, -5, 86], "path": ["0", "0", "12", "13", "14", "15", "16"], "rt": [16456, 443, 256, 166, 110], "actions": ["right", "right", "right", "up", "up"], "actionTimes": [18022, 18965, 19723, 20388, 20998], "queries": {"click": {"state": {"target": ["1", "23", "12"], "time": [2962, 5457, 7793]}, "edge": {"target": [], "time": []}}, "mouseover": {"state": {"target": ["0", "1", "23", "12", "1", "1", "2", "27", "10", "2"], "time": [2023, 2307, 5191, 7493, 11627, 12011, 12511, 15646, 15763, 16096]}, "edge": {"target": [], "time": []}}, "mouseout": {"state": {"target": ["33", "23", "0", "0", "1", "23", "23", "12", "1", "1", "2", "27", "10", "2"], "time": [738, 872, 1923, 2057, 5008, 5516, 5878, 11494, 11677, 12427, 15096, 15664, 15829, 16696]}, "edge": {"target": [], "time": []}}}, "displayed_time": "21.50", "trialTime": 23721, "trial_type": "mouselab-mdp", "trial_index": 30, "time_elapsed": 810126, "internal_node_id": "0.0-6.0-1.0-21.0"}}, {"uniqueid": "w30749725:a54109663", "current_trial": 31, "dateTime": 1693661104487, "trialdata": {"revealed_states": [], "clicked_states": ["23", "24", "25", "26", "29"], "num_clicks_accrued": [0, 0, 0, 0, 0, 0, 0, 0, 0, 0, 0, 0, 0], "stateRewards": ["", 1, -1, 1, 13, 31, -56, 72, 2, 41, 5, 63, -2, -3, -2, 3, -71, -26, 52, 13, -31, 24, -67, 2, -2, 5, 4, 66, 43, 72, 9, 86, -26, 44], "withholdReward": false, "trial_id": "mdp_trial_23", "block": "test", "trialIndex": 24, "score": 74, "costs": -7, "simulationMode": [null, null, null, null, null], "rewards": [2, -2, 5, 4, 72], "path": ["0", "0", "23", "24", "25", "26", "29"], "rt": [14876, 369, 79, 72, 83], "actions": ["left", "left", "left", "up", "left"], "actionTimes": [16927, 17800, 18393, 18966, 19547], "queries": {"click": {"state": {"target": ["23", "24", "25", "26", "29"], "time": [4065, 6584, 9045, 11575, 14183]}, "edge": {"target": [], "time": []}}, "mouseover": {"state": {"target": ["12", "12", "12", "23", "24", "25", "26", "25", "29"], "time": [2434, 2768, 2901, 3901, 6386, 8720, 11221, 13606, 14023]}, "edge": {"target": [], "time": []}}, "mouseout": {"state": {"target": ["12", "13", "14", "20", "21", "22", "0", "12", "12", "12", "23", "23", "24", "25", "26", "25", "26", "29", "16"], "time": [549, 816, 849, 899, 984, 1066, 2220, 2467, 2817, 3601, 5970, 6269, 8637, 9087, 13539, 13706, 13756, 21097, 21576]}, "edge": {"target": [], "time": []}}}, "displayed_time": "20.05", "trialTime": 23590, "trial_type": "mouselab-mdp", "trial_index": 31, "time_elapsed": 834246, "internal_node_id": "0.0-6.0-1.0-22.0"}}, {"uniqueid": "w30749725:a54109663", "current_trial": 32, "dateTime": 1693661128637, "trialdata": {"revealed_states": [], "clicked_states": ["23", "24", "25", "26", "27"], "num_clicks_accrued": [0, 0, 0, 0, 0, 0, 0, 0, 0, 0, 0, 0, 0], "stateRewards": ["", 1, -2, -3, 14, -42, -87, -37, -11, -50, 33, -44, -2, 4, -7, 13, 48, -75, -66, 12, 23, -2, 82, 1, -4, 3, 12, 51, -15, -26, -11, -52, -29, 82], "withholdReward": false, "trial_id": "mdp_trial_24", "block": "test", "trialIndex": 25, "score": 56, "costs": -7, "simulationMode": [null, null, null, null, null], "rewards": [1, -4, 3, 12, 51], "path": ["0", "0", "23", "24", "25", "26", "27"], "rt": [13566, 286, 360, 58, 510], "actions": ["left", "left", "left", "up", "up"], "actionTimes": [15782, 16568, 17424, 17993, 19005], "queries": {"click": {"state": {"target": ["23", "24", "25", "26", "27"], "time": [3088, 5591, 7895, 10367, 13151]}, "edge": {"target": [], "time": []}}, "mouseover": {"state": {"target": ["23", "24", "31", "25", "26", "27"], "time": [2802, 5336, 6290, 7704, 10038, 12956]}, "edge": {"target": [], "time": []}}, "mouseout": {"state": {"target": ["0", "23", "24", "24", "31", "25", "26", "27", "13", "13", "14"], "time": [2768, 5269, 5635, 5975, 7439, 9871, 12589, 21210, 21476, 21743, 21910]}, "edge": {"target": [], "time": []}}}, "displayed_time": "19.51", "trialTime": 23613, "trial_type": "mouselab-mdp", "trial_index": 32, "time_elapsed": 858396, "internal_node_id": "0.0-6.0-1.0-23.0"}}, {"uniqueid": "w30749725:a54109663", "current_trial": 33, "dateTime": 1693661156401, "trialdata": {"revealed_states": [], "clicked_states": ["12", "1", "2", "3", "4", "5"], "num_clicks_accrued": [0, 0, 0, 0, 0, 0, 0, 0, 0, 0, 0, 0, 0], "stateRewards": ["", 1, 4, -4, 14, 35, 51, 19, -13, 54, 78, -74, -2, -1, -3, 13, -11, -42, -73, -15, -24, -3, -69, 2, -1, 5, 16, -27, 73, 58, 9, -60, 5, -60], "withholdReward": false, "trial_id": "mdp_trial_25", "block": "test", "trialIndex": 26, "score": 41.6, "costs": -8.4, "simulationMode": [null, null, null, null, null], "rewards": [1, 4, -4, 14, 35], "path": ["0", "0", "1", "2", "3", "4", "5"], "rt": [18457, 249, 291, 95, 77], "actions": ["up", "up", "up", "right", "up"], "actionTimes": [20052, 20801, 21595, 22195, 22792], "queries": {"click": {"state": {"target": ["12", "1", "2", "3", "4", "5"], "time": [4259, 7041, 9416, 11715, 14992, 17737]}, "edge": {"target": [], "time": []}}, "mouseover": {"state": {"target": ["0", "12", "0", "12", "13", "12", "1", "1", "2", "3", "4", "6", "5"], "time": [1611, 2888, 3407, 3638, 3678, 3955, 6407, 6840, 9241, 11512, 14677, 17213, 17578]}, "edge": {"target": [], "time": []}}, "mouseout": {"state": {"target": ["0", "0", "0", "0", "12", "0", "12", "13", "12", "12", "1", "1", "2", "3", "3", "4", "6", "5", "20", "21", "21"], "time": [853, 936, 1070, 2588, 3388, 3424, 3657, 3775, 4558, 5939, 6425, 9041, 11426, 14160, 14560, 17195, 17345, 19779, 26148, 26232, 26315]}, "edge": {"target": [], "time": []}}}, "displayed_time": "23.29", "trialTime": 27201, "trial_type": "mouselab-mdp", "trial_index": 33, "time_elapsed": 886159, "internal_node_id": "0.0-6.0-1.0-24.0"}}, {"uniqueid": "w30749725:a54109663", "current_trial": 34, "dateTime": 1693661187414, "trialdata": {"revealed_states": [], "clicked_states": ["23", "24", "25", "30", "26", "32", "33"], "num_clicks_accrued": [0, 0, 0, 0, 0, 0, 0, 0, 0, 0, 0, 0, 0], "stateRewards": ["", 1, -1, 8, 4, 76, -33, -17, -3, -1, -54, -74, -2, 2, -5, 13, -51, 63, 83, 1, 84, 29, -36, 2, -1, 7, -12, -10, -44, -43, -14, 8, -69, 19], "withholdReward": false, "trial_id": "mdp_trial_26", "block": "test", "trialIndex": 27, "score": 3.1999999999999993, "costs": -9.8, "simulationMode": [null, null, null, null, null], "rewards": [2, -1, 7, -14, 19], "path": ["0", "0", "23", "24", "25", "30", "33"], "rt": [21914, 315, 390, 182, 71], "actions": ["left", "left", "left", "down", "left"], "actionTimes": [23694, 24513, 25417, 26100, 26673], "queries": {"click": {"state": {"target": ["23", "24", "25", "30", "26", "32", "33"], "time": [4215, 7188, 9786, 12795, 15667, 18283, 20692]}, "edge": {"target": [], "time": []}}, "mouseover": {"state": {"target": ["23", "24", "25", "27", "28", "26", "26", "30", "30", "25", "26", "26", "30", "32", "33", "30", "31", "31"], "time": [2717, 6968, 9609, 11141, 11190, 11721, 12038, 12454, 12542, 15092, 15139, 15523, 17890, 17974, 20376, 22765, 22926, 23143]}, "edge": {"target": [], "time": []}}, "mouseout": {"state": {"target": ["31", "31", "0", "23", "24", "25", "27", "28", "24", "26", "26", "25", "30", "30", "25", "26", "26", "30", "32", "33", "30", "31", "31"], "time": [350, 567, 2517, 6402, 9086, 10158, 11175, 11206, 11591, 11871, 12304, 12355, 12473, 15031, 15111, 15323, 17824, 17910, 20292, 22743, 22809, 23093, 23303]}, "edge": {"target": [], "time": []}}}, "displayed_time": "27.17", "trialTime": 30298, "trial_type": "mouselab-mdp", "trial_index": 34, "time_elapsed": 917172, "internal_node_id": "0.0-6.0-1.0-25.0"}}, {"uniqueid": "w30749725:a54109663", "current_trial": 35, "dateTime": 1693661218758, "trialdata": {"revealed_states": [], "clicked_states": ["12", "14", "15", "16", "17", "18", "20"], "num_clicks_accrued": [0, 0, 0, 0, 0, 0, 0, 0, 0, 0, 0, 0, 0], "stateRewards": ["", -1, -3, 1, 13, -64, -29, 12, -4, -33, 50, 56, 2, -3, 4, 11, -64, -58, -55, 12, 47, 38, -25, -2, 2, 5, -15, 85, 7, 84, 10, 8, 57, 26], "withholdReward": false, "trial_id": "mdp_trial_27", "block": "test", "trialIndex": 28, "score": 52.2, "costs": -9.8, "simulationMode": [null, null, null, null, null], "rewards": [2, -3, 4, 12, 47], "path": ["0", "0", "12", "13", "14", "19", "20"], "rt": [22023, 77, 477, 47, 37], "actions": ["right", "right", "right", "down", "right"], "actionTimes": [23737, 24322, 25305, 25860, 26399], "queries": {"click": {"state": {"target": ["12", "14", "15", "16", "17", "18", "20"], "time": [3356, 7385, 10499, 12923, 15330, 17777, 20524]}, "edge": {"target": [], "time": []}}, "mouseover": {"state": {"target": ["23", "12", "13", "14", "19", "15", "16", "15", "16", "17", "15", "18", "14", "19", "21", "20", "19", "19"], "time": [2581, 2831, 6235, 6325, 9534, 9970, 10101, 10301, 12519, 15053, 17355, 17638, 19956, 19982, 20011, 20256, 22640, 22774]}, "edge": {"target": [], "time": []}}, "mouseout": {"state": {"target": ["31", "23", "0", "23", "12", "13", "14", "19", "14", "15", "16", "15", "16", "17", "15", "18", "14", "19", "21", "20", "19", "19", "15"], "time": [829, 914, 2314, 2714, 6216, 6271, 9368, 9920, 9951, 10003, 10135, 12452, 14937, 15398, 17373, 19906, 19976, 19999, 20024, 22607, 22690, 28679, 28746]}, "edge": {"target": [], "time": []}}}, "displayed_time": "26.92", "trialTime": 30793, "trial_type": "mouselab-mdp", "trial_index": 35, "time_elapsed": 948517, "internal_node_id": "0.0-6.0-1.0-26.0"}}, {"uniqueid": "w30749725:a54109663", "current_trial": 36, "dateTime": 1693661245323, "trialdata": {"revealed_states": [], "clicked_states": ["1", "23", "26", "28", "27", "29"], "num_clicks_accrued": [0, 0, 0, 0, 0, 0, 0, 0, 0, 0, 0, 0, 0], "stateRewards": ["", -2, 2, -4, -4, -59, 88, 62, -3, 69, -15, -34, 1, -2, -5, 7, -54, -20, 78, -16, -74, -53, -21, 2, -4, 2, 13, -8, -44, 26, 9, 72, 4, 17], "withholdReward": false, "trial_id": "mdp_trial_28", "block": "test", "trialIndex": 29, "score": 30.6, "costs": -8.4, "simulationMode": [null, null, null, null, null], "rewards": [2, -4, 2, 13, 26], "path": ["0", "0", "23", "24", "25", "26", "29"], "rt": [18121, 224, 256, 93, 31], "actions": ["left", "left", "left", "up", "left"], "actionTimes": [19978, 20709, 21461, 22081, 22621], "queries": {"click": {"state": {"target": ["1", "23", "26", "28", "27", "29"], "time": [3455, 6070, 10238, 12574, 14967, 17249]}, "edge": {"target": [], "time": []}}, "mouseover": {"state": {"target": ["23", "1", "23", "24", "25", "25", "26", "28", "27", "27", "29", "25"], "time": [2439, 3039, 5823, 8375, 8900, 9241, 9792, 12393, 14611, 14778, 17029, 19348]}, "edge": {"target": [], "time": []}}, "mouseout": {"state": {"target": ["29", "25", "25", "24", "0", "23", "1", "23", "24", "25", "25", "26", "28", "26", "27", "27", "29", "25", "26"], "time": [804, 971, 1054, 1071, 2388, 2873, 5590, 8341, 8875, 9058, 9758, 12327, 14528, 14580, 14629, 16879, 19330, 19366, 24098]}, "edge": {"target": [], "time": []}}}, "displayed_time": "23.12", "trialTime": 26035, "trial_type": "mouselab-mdp", "trial_index": 36, "time_elapsed": 975081, "internal_node_id": "0.0-6.0-1.0-27.0"}}, {"uniqueid": "w30749725:a54109663", "current_trial": 37, "dateTime": 1693661271233, "trialdata": {"revealed_states": [], "clicked_states": ["1", "23", "26", "28", "29", "27"], "num_clicks_accrued": [0, 0, 0, 0, 0, 0, 0, 0, 0, 0, 0, 0, 0], "stateRewards": ["", -1, -2, -1, -10, -57, 73, -72, -16, 75, -14, -46, -2, -3, -7, -1, -61, -60, 76, -4, 50, 4, 14, 2, 2, -7, 12, -65, -32, 15, -8, -76, -25, -61], "withholdReward": false, "trial_id": "mdp_trial_29", "block": "test", "trialIndex": 30, "score": 15.6, "costs": -8.4, "simulationMode": [null, null, null, null, null], "rewards": [2, 2, -7, 12, 15], "path": ["0", "0", "23", "24", "25", "26", "29"], "rt": [17252, 106, 200, 42, 601], "actions": ["left", "left", "left", "up", "left"], "actionTimes": [18664, 19272, 19966, 20508, 21634], "queries": {"click": {"state": {"target": ["1", "23", "26", "28", "29", "27"], "time": [2450, 4921, 8148, 11304, 13736, 16067]}, "edge": {"target": [], "time": []}}, "mouseover": {"state": {"target": ["1", "23", "23", "24", "25", "26", "28", "28", "26", "29", "27"], "time": [2068, 4553, 4669, 7138, 7521, 7855, 10191, 10961, 13293, 13457, 15708]}, "edge": {"target": [], "time": []}}, "mouseout": {"state": {"target": ["0", "0", "1", "23", "23", "24", "25", "26", "28", "28", "26", "29", "27", "10", "16"], "time": [700, 1903, 4520, 4572, 7104, 7288, 7738, 10173, 10272, 13274, 13424, 15591, 18309, 23662, 23695]}, "edge": {"target": [], "time": []}}}, "displayed_time": "22.15", "trialTime": 25362, "trial_type": "mouselab-mdp", "trial_index": 37, "time_elapsed": 1000991, "internal_node_id": "0.0-6.0-1.0-28.0"}}, {"uniqueid": "w30749725:a54109663", "current_trial": 38, "dateTime": 1693661295857, "trialdata": {"revealed_states": [], "clicked_states": ["1", "23", "26", "29", "27", "28"], "num_clicks_accrued": [0, 0, 0, 0, 0, 0, 0, 0, 0, 0, 0, 0, 0], "stateRewards": ["", -2, -3, -5, 8, 27, 11, 43, -6, -24, -87, 69, -2, 1, 1, 9, 19, 48, -37, 9, -14, 45, 62, 1, 2, 1, 16, -81, -41, 22, 4, -6, -63, 47], "withholdReward": false, "trial_id": "mdp_trial_30", "block": "test", "trialIndex": 31, "score": 33.6, "costs": -8.4, "simulationMode": [null, null, null, null, null], "rewards": [1, 2, 1, 16, 22], "path": ["0", "0", "23", "24", "25", "26", "29"], "rt": [16613, 237, 209, 133, 49], "actions": ["left", "left", "left", "up", "left"], "actionTimes": [17996, 18734, 19438, 20079, 20629], "queries": {"click": {"state": {"target": ["1", "23", "26", "29", "27", "28"], "time": [3087, 5681, 8445, 10997, 13494, 16022]}, "edge": {"target": [], "time": []}}, "mouseover": {"state": {"target": ["1", "23", "24", "26", "29", "27", "28"], "time": [2932, 5361, 7901, 8084, 10769, 13321, 15822]}, "edge": {"target": [], "time": []}}, "mouseout": {"state": {"target": ["31", "31", "0", "1", "23", "24", "26", "29", "27", "28"], "time": [397, 531, 2649, 5335, 5729, 7935, 10686, 11057, 15471, 22074]}, "edge": {"target": [], "time": []}}}, "displayed_time": "21.14", "trialTime": 24072, "trial_type": "mouselab-mdp", "trial_index": 38, "time_elapsed": 1025616, "internal_node_id": "0.0-6.0-1.0-29.0"}}, {"uniqueid": "w30749725:a54109663", "current_trial": 39, "dateTime": 1693661324946, "trialdata": {"revealed_states": [], "clicked_states": ["12", "23", "1", "15", "17", "18", "16"], "num_clicks_accrued": [0, 0, 0, 0, 0, 0, 0, 0, 0, 0, 0, 0, 0], "stateRewards": ["", -2, 2, -5, -6, 10, -66, -58, -10, -11, -63, -70, -1, -4, -5, 7, 66, -64, -43, -3, 45, -37, 4, -2, -2, -6, -4, -30, 33, 43, 15, -32, -65, -59], "withholdReward": false, "trial_id": "mdp_trial_31", "block": "test", "trialIndex": 32, "score": 53.2, "costs": -9.8, "simulationMode": [null, null, null, null, null], "rewards": [-1, -4, -5, 7, 66], "path": ["0", "0", "12", "13", "14", "15", "16"], "rt": [20360, 44, 19, 64, 355], "actions": ["right", "right", "right", "up", "up"], "actionTimes": [22370, 22935, 23474, 24051, 24909], "queries": {"click": {"state": {"target": ["12", "23", "1", "15", "17", "18", "16"], "time": [3530, 5994, 8449, 12098, 14778, 17114, 19369]}, "edge": {"target": [], "time": []}}, "mouseover": {"state": {"target": ["12", "0", "23", "1", "13", "14", "15", "17", "17", "15", "18", "16"], "time": [3124, 5608, 5743, 8259, 10894, 11361, 11828, 14214, 14612, 16747, 16963, 19081]}, "edge": {"target": [], "time": []}}, "mouseout": {"state": {"target": ["29", "0", "12", "0", "23", "1", "13", "14", "15", "17", "17", "15", "18", "16", "15", "18", "10", "11", "9"], "time": [906, 3090, 5575, 5725, 8026, 10810, 11294, 11761, 14195, 14245, 16713, 16813, 18998, 21565, 26451, 26486, 26551, 26588, 26685]}, "edge": {"target": [], "time": []}}}, "displayed_time": "25.41", "trialTime": 28541, "trial_type": "mouselab-mdp", "trial_index": 39, "time_elapsed": 1054705, "internal_node_id": "0.0-6.0-1.0-30.0"}}, {"uniqueid": "w30749725:a54109663", "current_trial": 40, "dateTime": 1693661349742, "trialdata": {"revealed_states": [], "clicked_states": ["23", "26", "28", "29", "27"], "num_clicks_accrued": [0, 0, 0, 0, 0, 0, 0, 0, 0, 0, 0, 0, 0], "stateRewards": ["", -2, 4, -7, -3, -76, 39, -28, 10, 14, 12, 60, 2, -3, 6, -10, 88, -34, -41, -3, 72, -13, -56, 1, 3, 2, 8, -51, 23, -57, 1, 14, -46, -16], "withholdReward": false, "trial_id": "mdp_trial_32", "block": "test", "trialIndex": 33, "score": 30, "costs": -7, "simulationMode": [null, null, null, null, null], "rewards": [1, 3, 2, 8, 23], "path": ["0", "0", "23", "24", "25", "26", "28"], "rt": [16003, 174, 181, 96, 113], "actions": ["left", "left", "left", "up", "right"], "actionTimes": [17744, 18423, 19111, 19712, 20329], "queries": {"click": {"state": {"target": ["23", "26", "28", "29", "27"], "time": [2707, 5755, 10075, 12643, 14914]}, "edge": {"target": [], "time": []}}, "mouseover": {"state": {"target": ["23", "24", "25", "26", "28", "29", "27"], "time": [2353, 4886, 5186, 5553, 9771, 12372, 14673]}, "edge": {"target": [], "time": []}}, "mouseout": {"state": {"target": ["29", "27", "28", "24", "23", "0", "0", "23", "24", "25", "26", "28", "29", "27", "9", "2", "4"], "time": [366, 650, 700, 883, 933, 967, 2285, 4852, 5086, 5303, 9724, 12157, 14557, 17008, 22227, 22394, 22561]}, "edge": {"target": [], "time": []}}}, "displayed_time": "20.83", "trialTime": 24202, "trial_type": "mouselab-mdp", "trial_index": 40, "time_elapsed": 1079500, "internal_node_id": "0.0-6.0-1.0-31.0"}}, {"uniqueid": "w30749725:a54109663", "current_trial": 41, "dateTime": 1693661380673, "trialdata": {"revealed_states": [], "clicked_states": ["12", "1", "23", "26", "28", "27", "29", "31"], "num_clicks_accrued": [0, 0, 0, 0, 0, 0, 0, 0, 0, 0, 0, 0, 0], "stateRewards": ["", -1, 3, -5, -2, -13, -9, -34, -7, -81, 32, 35, -2, -2, 1, -14, -32, 81, 7, 4, 82, 56, -8, -1, 3, -8, 6, -24, -24, -53, 2, 38, 61, 54], "withholdReward": false, "trial_id": "mdp_trial_33", "block": "test", "trialIndex": 34, "score": 22.799999999999997, "costs": -11.200000000000001, "simulationMode": [null, null, null, null, null], "rewards": [-1, 3, -8, 2, 38], "path": ["0", "0", "23", "24", "25", "30", "31"], "rt": [22592, 116, 152, 118, 93], "actions": ["left", "left", "left", "down", "right"], "actionTimes": [24325, 24953, 25608, 26224, 26816], "queries": {"click": {"state": {"target": ["12", "1", "23", "26", "28", "27", "29", "31"], "time": [3227, 5798, 8413, 11733, 13984, 16237, 18567, 21240]}, "edge": {"target": [], "time": []}}, "mouseover": {"state": {"target": ["0", "12", "1", "23", "24", "25", "26", "28", "27", "29", "25", "31", "30"], "time": [2372, 2623, 5523, 8241, 10993, 11193, 11493, 13694, 15978, 18329, 20699, 20997, 23382]}, "edge": {"target": [], "time": []}}, "mouseout": {"state": {"target": ["32", "30", "22", "13", "12", "0", "0", "12", "1", "23", "23", "23", "24", "25", "26", "28", "27", "29", "29", "25", "31", "30", "31", "31", "1", "1", "7", "16"], "time": [421, 604, 754, 887, 1104, 1188, 2589, 5340, 7958, 8471, 10392, 10776, 11076, 11459, 13627, 15928, 18163, 18623, 20681, 20731, 23265, 23465, 23499, 28034, 28568, 28671, 28785, 28819]}, "edge": {"target": [], "time": []}}}, "displayed_time": "27.32", "trialTime": 30376, "trial_type": "mouselab-mdp", "trial_index": 41, "time_elapsed": 1110431, "internal_node_id": "0.0-6.0-1.0-32.0"}}, {"uniqueid": "w30749725:a54109663", "current_trial": 42, "dateTime": 1693661399970, "trialdata": {"revealed_states": [], "clicked_states": ["23", "26", "28"], "num_clicks_accrued": [0, 0, 0, 0, 0, 0, 0, 0, 0, 0, 0, 0, 0], "stateRewards": ["", -1, 2, 6, 11, 21, -21, -21, -6, 48, -71, 88, -1, -3, 3, 7, 64, 2, 9, -4, 37, -67, 72, 2, 2, -8, -8, -10, 71, -40, -3, 73, 80, 47], "withholdReward": false, "trial_id": "mdp_trial_34", "block": "test", "trialIndex": 35, "score": 54.8, "costs": -4.199999999999999, "simulationMode": [null, null, null, null, null], "rewards": [2, 2, -8, -8, 71], "path": ["0", "0", "23", "24", "25", "26", "28"], "rt": [10489, 217, 208, 63, 35], "actions": ["left", "left", "left", "up", "right"], "actionTimes": [12002, 12729, 13437, 14006, 14546], "queries": {"click": {"state": {"target": ["23", "26", "28"], "time": [3821, 6909, 9229]}, "edge": {"target": [], "time": []}}, "mouseover": {"state": {"target": ["0", "23", "23", "24", "26", "28", "27", "24"], "time": [3034, 3218, 3752, 5985, 6736, 9004, 11338, 11658]}, "edge": {"target": [], "time": []}}, "mouseout": {"state": {"target": ["31", "12", "0", "0", "23", "23", "24", "26", "28", "27", "24", "24"], "time": [483, 816, 2801, 3080, 3252, 5853, 6186, 8920, 11255, 11508, 11726, 16358]}, "edge": {"target": [], "time": []}}}, "displayed_time": "15.51", "trialTime": 18704, "trial_type": "mouselab-mdp", "trial_index": 42, "time_elapsed": 1129728, "internal_node_id": "0.0-6.0-1.0-33.0"}}, {"uniqueid": "w30749725:a54109663", "current_trial": 43, "dateTime": 1693661451057, "trialdata": {"revealed_states": [], "clicked_states": ["12", "23", "15", "17", "1", "4", "8", "5", "6", "3", "7", "9", "10"], "num_clicks_accrued": [0, 0, 0, 0, 0, 0, 0, 0, 0, 0, 0, 0, 0], "stateRewards": ["", 2, -1, -2, -5, -47, -57, -33, -11, 31, -18, -72, -2, 1, -4, -8, -46, -53, -50, 15, -85, -9, 39, -2, -2, 1, 14, -1, -8, 53, -12, -41, -74, 62], "withholdReward": false, "trial_id": "mdp_trial_35", "block": "test", "trialIndex": 36, "score": 0.8000000000000007, "costs": -18.2, "simulationMode": [null, null, null, null, null], "rewards": [2, -1, -2, -11, 31], "path": ["0", "0", "1", "2", "3", "8", "9"], "rt": [42369, 434, 75, 33, 56], "actions": ["up", "up", "up", "left", "up"], "actionTimes": [44447, 45381, 45953, 46491, 47064], "queries": {"click": {"state": {"target": ["12", "23", "15", "17", "1", "4", "8", "5", "6", "3", "7", "9", "10"], "time": [3907, 8199, 12504, 14983, 18694, 22544, 25416, 28383, 30696, 33368, 35575, 38759, 42047]}, "edge": {"target": [], "time": []}}, "mouseover": {"state": {"target": ["0", "12", "13", "19", "19", "22", "23", "9", "25", "26", "28", "13", "14", "15", "17", "18", "2", "2", "1", "2", "7", "2", "3", "4", "6", "9", "11", "8", "3", "4", "5", "6", "4", "3", "3", "7", "2", "8", "9", "9", "3", "2", "10"], "time": [3468, 3518, 6156, 6187, 6539, 6578, 7837, 10740, 10971, 11189, 11305, 11722, 11772, 12122, 14525, 17177, 17346, 17726, 18371, 20843, 20993, 21427, 21693, 22310, 24578, 24794, 25011, 25178, 27830, 27900, 28096, 30147, 32631, 32815, 33115, 34933, 37736, 37884, 38267, 38567, 41002, 41118, 41418]}, "edge": {"target": [], "time": []}}, "mouseout": {"state": {"target": ["21", "21", "21", "0", "0", "12", "13", "19", "19", "22", "23", "9", "23", "25", "26", "28", "13", "14", "15", "15", "17", "17", "15", "18", "2", "2", "1", "1", "2", "7", "2", "3", "4", "6", "9", "11", "8", "8", "3", "4", "5", "5", "6", "4", "3", "3", "7", "2", "8", "9", "9", "3", "2", "10"], "time": [383, 566, 733, 2100, 3487, 6136, 6174, 6205, 6573, 6672, 8479, 10762, 10806, 11105, 11272, 11339, 11742, 11822, 12516, 14507, 15049, 16958, 17028, 17231, 17410, 18092, 18753, 20643, 20893, 21377, 21476, 21860, 22917, 24597, 24813, 25045, 25428, 27362, 27880, 27929, 28454, 30097, 30708, 32682, 32916, 34897, 37717, 37755, 38034, 38317, 40651, 41021, 41169, 48459]}, "edge": {"target": [], "time": []}}}, "displayed_time": "47.56", "trialTime": 50466, "trial_type": "mouselab-mdp", "trial_index": 43, "time_elapsed": 1180815, "internal_node_id": "0.0-6.0-1.0-34.0"}}, {"uniqueid": "w30749725:a54109663", "current_trial": 44, "dateTime": 1693661471274, "trialdata": {"revealed_states": [], "clicked_states": ["12", "15", "17", "16"], "num_clicks_accrued": [0, 0, 0, 0, 0, 0, 0, 0, 0, 0, 0, 0, 0], "stateRewards": ["", -2, 1, -5, 2, -68, 80, 33, 10, 67, -59, 20, -1, -3, 3, 14, 74, -2, 24, -16, 63, 80, 46, -1, 4, 6, 12, 83, -38, -43, -4, 43, 14, -79], "withholdReward": false, "trial_id": "mdp_trial_36", "block": "test", "trialIndex": 37, "score": 81.4, "costs": -5.6, "simulationMode": [null, null, null, null, null], "rewards": [-1, -3, 3, 14, 74], "path": ["0", "0", "12", "13", "14", "15", "16"], "rt": [12757, 153, 36, 96, 17], "actions": ["right", "right", "right", "up", "up"], "actionTimes": [14200, 14847, 15381, 15975, 16495], "queries": {"click": {"state": {"target": ["12", "15", "17", "16"], "time": [2909, 6367, 8808, 11116]}, "edge": {"target": [], "time": []}}, "mouseover": {"state": {"target": ["13", "20", "12", "13", "14", "15", "17", "17", "16"], "time": [1464, 1649, 2716, 5451, 5667, 6102, 8469, 8669, 10891]}, "edge": {"target": [], "time": []}}, "mouseout": {"state": {"target": ["19", "13", "12", "0", "13", "20", "12", "13", "14", "15", "17", "17", "16", "17"], "time": [365, 464, 714, 1460, 1485, 1749, 5401, 5471, 6051, 8402, 8568, 10720, 13271, 18123]}, "edge": {"target": [], "time": []}}}, "displayed_time": "17.00", "trialTime": 19592, "trial_type": "mouselab-mdp", "trial_index": 44, "time_elapsed": 1201033, "internal_node_id": "0.0-6.0-1.0-35.0"}}, {"uniqueid": "w30749725:a54109663", "current_trial": 45, "dateTime": 1693661498607, "trialdata": {"revealed_states": [], "clicked_states": ["23", "12", "1", "15", "17", "16"], "num_clicks_accrued": [0, 0, 0, 0, 0, 0, 0, 0, 0, 0, 0, 0, 0], "stateRewards": ["", -1, 2, 7, 8, 75, 67, -11, 6, 52, -17, 38, -1, 4, -8, 14, 74, -37, -17, -12, 52, 55, 71, -2, -1, -5, 2, 21, 6, -88, -14, 64, -61, -47], "withholdReward": false, "trial_id": "mdp_trial_37", "block": "test", "trialIndex": 38, "score": 74.6, "costs": -8.4, "simulationMode": [null, null, null, null, null], "rewards": [-1, 4, -8, 14, 74], "path": ["0", "0", "12", "13", "14", "15", "16"], "rt": [18954, 131, 350, 110, 130], "actions": ["right", "right", "right", "up", "up"], "actionTimes": [20487, 21148, 21997, 22623, 23259], "queries": {"click": {"state": {"target": ["23", "12", "1", "15", "17", "16"], "time": [3261, 6932, 9301, 12532, 15108, 17436]}, "edge": {"target": [], "time": []}}, "mouseover": {"state": {"target": ["12", "19", "20", "12", "1", "28", "23", "24", "12", "12", "1", "13", "14", "15", "17", "17", "16"], "time": [1736, 1815, 1852, 2182, 2632, 2686, 2983, 5918, 6321, 6701, 8986, 11477, 11787, 12304, 14555, 14855, 17140]}, "edge": {"target": [], "time": []}}, "mouseout": {"state": {"target": ["0", "12", "19", "20", "12", "1", "28", "23", "24", "23", "12", "12", "1", "13", "14", "15", "17", "17", "16", "16", "17", "17"], "time": [1716, 1766, 1834, 1868, 2201, 2653, 2734, 5884, 6267, 6301, 6351, 8935, 11423, 11585, 12271, 12545, 14574, 17090, 17499, 19424, 19474, 19741]}, "edge": {"target": [], "time": []}}}, "displayed_time": "23.76", "trialTime": 26749, "trial_type": "mouselab-mdp", "trial_index": 45, "time_elapsed": 1228365, "internal_node_id": "0.0-6.0-1.0-36.0"}}, {"uniqueid": "w30749725:a54109663", "current_trial": 46, "dateTime": 1693661523411, "trialdata": {"revealed_states": [], "clicked_states": ["23", "1", "8", "9", "11"], "num_clicks_accrued": [0, 0, 0, 0, 0, 0, 0, 0, 0, 0, 0, 0, 0], "stateRewards": ["", -1, -3, -6, -2, -7, 80, -45, -3, -38, -72, 76, 2, 1, 7, 4, -62, 14, -74, 14, -87, -21, -88, -2, 1, -7, -10, 66, 56, -76, 10, -29, -72, -70], "withholdReward": false, "trial_id": "mdp_trial_38", "block": "test", "trialIndex": 39, "score": 56, "costs": -7, "simulationMode": [null, null, null, null, null], "rewards": [-1, -3, -6, -3, 76], "path": ["0", "0", "1", "2", "3", "8", "11"], "rt": [16986, 297, 47, 39, 121], "actions": ["up", "up", "up", "left", "left"], "actionTimes": [18384, 19187, 19739, 20291, 20914], "queries": {"click": {"state": {"target": ["23", "1", "8", "9", "11"], "time": [2696, 6121, 10441, 12952, 15368]}, "edge": {"target": [], "time": []}}, "mouseover": {"state": {"target": ["23", "1", "2", "3", "2", "3", "8", "9", "11", "11", "10", "10"], "time": [2355, 5840, 8308, 8375, 8975, 9362, 10142, 12531, 15011, 15212, 17563, 17700]}, "edge": {"target": [], "time": []}}, "mouseout": {"state": {"target": ["0", "23", "1", "2", "3", "2", "3", "8", "9", "11", "11", "10", "10"], "time": [670, 5475, 8236, 8341, 8575, 9342, 10092, 12443, 14895, 15032, 17529, 17645, 22364]}, "edge": {"target": [], "time": []}}}, "displayed_time": "21.42", "trialTime": 24213, "trial_type": "mouselab-mdp", "trial_index": 46, "time_elapsed": 1253169, "internal_node_id": "0.0-6.0-1.0-37.0"}}, {"uniqueid": "w30749725:a54109663", "current_trial": 47, "dateTime": 1693661550381, "trialdata": {"revealed_states": [], "clicked_states": ["1", "12", "15", "19", "20", "22"], "num_clicks_accrued": [0, 0, 0, 0, 0, 0, 0, 0, 0, 0, 0, 0, 0], "stateRewards": ["", -2, -3, -6, -7, 9, 16, 65, 5, -41, 20, -25, -1, -4, 1, -11, -49, -4, 71, 1, 39, -62, 52, -2, -3, 7, -9, -28, -70, 84, 8, 24, -58, 82], "withholdReward": false, "trial_id": "mdp_trial_39", "block": "test", "trialIndex": 40, "score": 40.6, "costs": -8.4, "simulationMode": [null, null, null, null, null], "rewards": [-1, -4, 1, 1, 52], "path": ["0", "0", "12", "13", "14", "19", "22"], "rt": [18988, 21, 455, 17, 173], "actions": ["right", "right", "right", "down", "left"], "actionTimes": [20736, 21261, 22225, 22741, 23429], "queries": {"click": {"state": {"target": ["1", "12", "15", "19", "20", "22"], "time": [4311, 7018, 9884, 12593, 14958, 17408]}, "edge": {"target": [], "time": []}}, "mouseover": {"state": {"target": ["23", "23", "1", "1", "12", "12", "22", "13", "18", "15", "20", "19", "20", "22"], "time": [2724, 2908, 3093, 3477, 6510, 6793, 9083, 9369, 9456, 9664, 12151, 12431, 14746, 17148]}, "edge": {"target": [], "time": []}}, "mouseout": {"state": {"target": ["25", "28", "23", "0", "23", "23", "1", "1", "12", "12", "22", "13", "18", "15", "20", "19", "20", "19", "22", "13"], "time": [739, 839, 1039, 2691, 2758, 2960, 3177, 6476, 6530, 9064, 9098, 9405, 9501, 12097, 12166, 14696, 17049, 17121, 24851, 24917]}, "edge": {"target": [], "time": []}}}, "displayed_time": "23.94", "trialTime": 26374, "trial_type": "mouselab-mdp", "trial_index": 47, "time_elapsed": 1280139, "internal_node_id": "0.0-6.0-1.0-38.0"}}, {"uniqueid": "w30749725:a54109663", "current_trial": 48, "dateTime": 1693661577166, "trialdata": {"revealed_states": [], "clicked_states": ["1", "8", "4", "9", "10", "11"], "num_clicks_accrued": [0, 0, 0, 0, 0, 0, 0, 0, 0, 0, 0, 0, 0], "stateRewards": ["", 1, -3, -4, -11, -56, 61, -47, -16, -28, -9, 69, -2, -3, -4, -8, 40, -86, 59, -4, 80, 27, 54, -1, 3, -1, 8, 67, 23, 50, 6, 83, -43, -29], "withholdReward": false, "trial_id": "mdp_trial_40", "block": "test", "trialIndex": 41, "score": 38.6, "costs": -8.4, "simulationMode": [null, null, null, null, null], "rewards": [1, -3, -4, -16, 69], "path": ["0", "0", "1", "2", "3", "8", "11"], "rt": [18176, 246, 484, 60, 155], "actions": ["up", "up", "up", "left", "left"], "actionTimes": [19537, 20329, 21318, 21880, 22544], "queries": {"click": {"state": {"target": ["1", "8", "4", "9", "10", "11"], "time": [3339, 6747, 9371, 11984, 14530, 16867]}, "edge": {"target": [], "time": []}}, "mouseover": {"state": {"target": ["23", "0", "1", "1", "2", "7", "3", "8", "4", "3", "9", "10", "10", "11"], "time": [2589, 2656, 2789, 3156, 5590, 5778, 6057, 6441, 9142, 11643, 11710, 14111, 14346, 16629]}, "edge": {"target": [], "time": []}}, "mouseout": {"state": {"target": ["23", "0", "23", "0", "1", "1", "2", "7", "3", "8", "8", "4", "4", "3", "9", "10", "10", "11", "21"], "time": [554, 2172, 2622, 2689, 3006, 5540, 5757, 5959, 6407, 6793, 8808, 9418, 11610, 11677, 14064, 14326, 16546, 23932, 25369]}, "edge": {"target": [], "time": []}}}, "displayed_time": "23.04", "trialTime": 26179, "trial_type": "mouselab-mdp", "trial_index": 48, "time_elapsed": 1306924, "internal_node_id": "0.0-6.0-1.0-39.0"}}, {"uniqueid": "w30749725:a54109663", "current_trial": 49, "dateTime": 1693661647822, "trialdata": {"rt": 70648, "response": {"Q0": "$-2 to $2", "Q1": "$-32 to $32", "Q2": "$-88 to $88", "Q3": "The cost was always $1.4.", "Q4": "Very motivated"}, "question_order": [0, 1, 2, 3, 4], "trial_id": "final_quiz_control", "trial_type": "survey-multi-choice", "trial_index": 49, "time_elapsed": 1377580, "internal_node_id": "0.0-6.0-2.0"}}, {"uniqueid": "w30749725:a54109663", "current_trial": 50, "dateTime": 1693661838396, "trialdata": {"rt": 190500, "response": {"Q0": "I did not start off well as I didn't want to waste money on clicking nodes but this was wrong, a bad strategy as much more could be gained from using those nodes and finding the best values. I tried to find the biggest values on the edges to land on", "Q1": "Yes as I used nodes much more as the game went on and I took less losses because of it and had much better and consistent gains", "Q2": "I improved through clicking nodes more especially those on the edges. Once I understood this properly I didn't find it so difficult"}, "trial_id": "self_report_control", "trial_type": "survey-text", "trial_index": 50, "time_elapsed": 1568155, "internal_node_id": "0.0-6.0-3.0"}}, {"uniqueid": "w30749725:a54109663", "current_trial": 51, "dateTime": 1693661853796, "trialdata": {"rt": 15394, "response": {"gender": "male", "age": "51", "colorblind": "0", "effort": "0"}, "trial_type": "survey-html-form", "trial_index": 51, "time_elapsed": 1583555, "internal_node_id": "0.0-6.0-4.0"}}, {"uniqueid": "w30749725:a54109663", "current_trial": 52, "dateTime": 1693661906498, "trialdata": {"rt": 52694, "response": {"Q0": "It was all clear but my strategy was not great at the start but improved for sure", "Q1": "No I don't think so not like this", "Q2": ""}, "trial_type": "survey-text", "trial_index": 52, "time_elapsed": 1636257, "internal_node_id": "0.0-6.0-5.0"}}, {"uniqueid": "w30749725:a54109663", "current_trial": 53, "dateTime": 1693661942483, "trialdata": {"rt": 35980, "stimulus": "<h1>Completion Code Instructions (1/2)</h1>\n<br><br><br><br>\nYou have reached the end of the experiment! The completion code consists of two parts: (1) a code with 2 characters (2) a code with 6 characters. On this page, you will receive the second part of the code. The first part of the completion code will be on the next page.\n<br><br>\nThe second part of your completion code is: <b>EWEK22</b>\n<br><br>\nPlease note this down. Then, press 'Next' in order to find the first part of your completion code. Once the data has been saved, you will receive this code either in this window or in the original browser window where you started the experiment.\n <br><br>\n<h2 style='color: red;'>Note: this is <strong>NOT</strong> the full completion code. Copy this down and click 'Next' to get the full completion code on the next page.</h2>", "response": 0, "trial_type": "html-button-response", "trial_index": 53, "time_elapsed": 1672242, "internal_node_id": "0.0-6.0-6.0"}}, {"uniqueid": "w30749725:a54109663", "current_trial": 54, "dateTime": 1693661943533, "trialdata": {"success": true, "trial_type": "fullscreen", "trial_index": 54, "time_elapsed": 1673292, "internal_node_id": "0.0-7.0"}}], "questiondata": {"params": {"CODE": "C6DMOQA6", "MIN_TIME": 14, "inspectCost": 1, "startTime": "Sat Sep 02 2023 14:11:09 GMT+0100 (British Summer Time)", "bonusRate": 0.002, "variance": "1_2_4_8_44", "branching": "31123"}, "final_score": 338.8}, "eventdata": [{"eventtype": "initialized", "value": null, "timestamp": 1693660268928, "interval": 0}, {"eventtype": "window_resize", "value": [1366, 670], "timestamp": 1693660268928, "interval": 0}, {"eventtype": "window_resize", "value": [1366, 670], "timestamp": 1693660269245, "interval": 317}, {"eventtype": "window_resize", "value": [1366, 768], "timestamp": 1693660272148, "interval": 2903}, {"eventtype": "window_resize", "value": [1366, 670], "timestamp": 1693661943025, "interval": 1670877}], "useragent": "Mozilla/5.0 (Windows NT 10.0; Win64; x64) AppleWebKit/537.36 (KHTML, like Gecko) Chrome/116.0.0.0 Safari/537.36", "mode": "live", "id": "w30749725:a54109663", "status": "user data saved", "Beginhit": "2023-09-02 13:11:07.001944", "Beginexp": "2023-09-02 13:11:13.265301", "Endhit": "2023-09-02 13:39:04.430251", "psiturkStatus": 3, "browser": "<redacted>", "platform": "windows", "language": "en-US"}