{"condition": 0, "counterbalance": 0, "assignmentId": "a37615695", "workerId": "w29615251", "hitId": "h72921593", "currenttrial": 55, "bonus": 0, "data": [{"uniqueid": "w29615251:a37615695", "current_trial": 0, "dateTime": 1693580835925, "trialdata": {"success": true, "trial_type": "fullscreen", "trial_index": 0, "time_elapsed": 6236, "internal_node_id": "0.0-0.0"}}, {"uniqueid": "w29615251:a37615695", "current_trial": 1, "dateTime": 1693580861274, "trialdata": {"view_history": [{"page_index": 0, "viewing_time": 25320}], "rt": 25323, "trial_id": "exp_instructions_control", "trial_type": "instructions", "trial_index": 1, "time_elapsed": 31586, "internal_node_id": "0.0-1.0"}}, {"uniqueid": "w29615251:a37615695", "current_trial": 2, "dateTime": 1693581180434, "trialdata": {"view_history": [{"page_index": 0, "viewing_time": 105347}, {"page_index": 1, "viewing_time": 100063}, {"page_index": 2, "viewing_time": 32429}, {"page_index": 3, "viewing_time": 81301}], "rt": 319143, "trial_id": "mouselab_instructions_1_control", "trial_type": "instructions", "trial_index": 2, "time_elapsed": 350746, "internal_node_id": "0.0-2.0-1.0"}}, {"uniqueid": "w29615251:a37615695", "current_trial": 3, "dateTime": 1693581240742, "trialdata": {"revealed_states": [], "clicked_states": ["12", "13", "14", "15", "16", "17", "18", "23", "24", "25"], "num_clicks_accrued": [0, 0, 0, 0, 0, 0, 0, 0, 0, 0, 0, 0, 0], "stateRewards": ["", -10, -10, -10, -10, 10, 10, 10, -10, 10, 10, -10, -10, 10, 10, 10, 10, 10, -10, -10, 10, 10, -10, 10, -10, 10, 10, 10, -10, -10, -10, -10, -10, 10], "withholdReward": false, "trial_id": "practice_1", "block": "test", "trialIndex": 0, "score": 8.5, "costs": -5, "simulationMode": [null, null, null, null, null], "rewards": [-10, 10, 10, -10, 10], "path": ["0", "0", "12", "13", "14", "19", "21"], "rt": [44505, 730, 384, 952, 319], "actions": ["right", "right", "right", "down", "down"], "actionTimes": [48326, 49573, 50493, 51969, 52832], "queries": {"click": {"state": {"target": ["12", "13", "14", "15", "16", "17", "18", "23", "24", "25"], "time": [6962, 9978, 13408, 16163, 18921, 23727, 26491, 30381, 34297, 36822]}, "edge": {"target": [], "time": []}}, "mouseover": {"state": {"target": ["12", "13", "14", "15", "16", "15", "17", "23", "24", "18", "15", "18", "23", "24", "25", "12", "1", "12"], "time": [6385, 8817, 12283, 15251, 18283, 22068, 22224, 24615, 24938, 25609, 25663, 25936, 29450, 32218, 36283, 43232, 43356, 43879]}, "edge": {"target": [], "time": []}}, "mouseout": {"state": {"target": ["19", "12", "0", "12", "13", "14", "15", "16", "15", "17", "23", "24", "18", "15", "18", "23", "24", "25", "12", "1", "12", "0"], "time": [null, 796, 1981, 8666, 10228, 15001, 18033, 21850, 22130, 23925, 24885, 25567, 25645, 25705, 29131, 32100, 35986, 38700, 43269, 43519, 55433, 55482]}, "edge": {"target": [], "time": []}}}, "displayed_time": "53.38", "trialTime": 56816, "trial_type": "mouselab-mdp", "trial_index": 3, "time_elapsed": 411049, "internal_node_id": "0.0-2.0-2.0-0.0"}}, {"uniqueid": "w29615251:a37615695", "current_trial": 4, "dateTime": 1693581261201, "trialdata": {"revealed_states": [], "clicked_states": ["23"], "num_clicks_accrued": [0, 0, 0, 0, 0, 0, 0, 0, 0, 0, 0, 0, 0], "stateRewards": ["", 10, -10, -10, -10, 10, 10, -10, -10, 10, 10, 10, 10, -10, -10, -10, -10, 10, -10, -10, 10, -10, -10, 10, -10, -10, -10, -10, -10, 10, -10, -10, -10, -10], "withholdReward": false, "trial_id": "practice_2", "block": "test", "trialIndex": 1, "score": -27, "costs": -0.5, "simulationMode": [null, null, null, null, null], "rewards": [10, -10, -10, -10, -10], "path": ["0", "0", "23", "24", "25", "26", "27"], "rt": [6039, 544, 300, 289, 112], "actions": ["left", "left", "left", "up", "up"], "actionTimes": [10590, 11703, 12535, 13360, 14003], "queries": {"click": {"state": {"target": ["23"], "time": [6858]}, "edge": {"target": [], "time": []}}, "mouseover": {"state": {"target": ["23"], "time": [6296]}, "edge": {"target": [], "time": []}}, "mouseout": {"state": {"target": ["0", "23", "22"], "time": [1386, 15594, 15666]}, "edge": {"target": [], "time": []}}}, "displayed_time": "14.55", "trialTime": 18461, "trial_type": "mouselab-mdp", "trial_index": 4, "time_elapsed": 431511, "internal_node_id": "0.0-2.0-2.0-1.0"}}, {"uniqueid": "w29615251:a37615695", "current_trial": 5, "dateTime": 1693581318658, "trialdata": {"view_history": [{"page_index": 0, "viewing_time": 42549}, {"page_index": 1, "viewing_time": 14897}], "rt": 57447, "trial_id": "mouselab_instructions_2_control", "trial_type": "instructions", "trial_index": 5, "time_elapsed": 488970, "internal_node_id": "0.0-2.0-3.0"}}, {"uniqueid": "w29615251:a37615695", "current_trial": 6, "dateTime": 1693581364288, "trialdata": {"rt": 45621, "response": {"Q0": "The cost for clicking on nodes may vary between nodes.", "Q1": "The better I perform the higher my bonus will be.", "Q2": "No, the amount of cash at each node of the web may be different each time.", "Q3": "To get the highest total score.", "Q4": "Only before moving the spider.", "Q5": "3 seconds"}, "question_order": [0, 1, 2, 3, 4, 5], "correct": {"Q0": "The cost for clicking on nodes may vary between nodes.", "Q1": "The better I perform the higher my bonus will be.", "Q2": "No, the amount of cash at each node of the web may be different each time.", "Q3": "To get the highest total score.", "Q4": "Only before moving the spider.", "Q5": "3 seconds"}, "trial_id": "mouselab_quiz_control", "trial_type": "survey-multi-choice", "trial_index": 6, "time_elapsed": 534600, "internal_node_id": "0.0-2.0-4.0"}}, {"uniqueid": "w29615251:a37615695", "current_trial": 7, "dateTime": 1693581378725, "trialdata": {"rt": 14403, "response": {"Q0": "No"}, "question_order": [0], "trial_id": "repeat_check", "trial_type": "survey-multi-choice", "trial_index": 7, "time_elapsed": 549034, "internal_node_id": "0.0-4.0-0.0"}}, {"uniqueid": "w29615251:a37615695", "current_trial": 8, "dateTime": 1693581395535, "trialdata": {"rt": 16771, "stimulus": "\n<h1> Get ready to start the game! </h1>\n\nThank you for reading the instructions. Get ready start with the 40 rounds of this game.\n<br><br>\nIf you need to take a break, feel free to take one after the end of a round, before continuing to the next one.\n<br><br>\nRemember, the more money the spider gets, the bigger your bonus will be!\n<br><br>\n<div style='text-align: center;'>Press <code>space</code> to begin.</div>\n\n<br><br>\n(If, at any point, the <code>space</code> key does not take you to the next page, click once on the text and try again.)", "response": " ", "trial_id": "mdp_ready", "trial_type": "html-keyboard-response", "trial_index": 8, "time_elapsed": 565847, "internal_node_id": "0.0-6.0-0.0"}}, {"uniqueid": "w29615251:a37615695", "current_trial": 9, "dateTime": 1693581418509, "trialdata": {"revealed_states": [], "clicked_states": ["23", "12"], "num_clicks_accrued": [0, 0, 0, 0, 0, 0, 0, 0, 0, 0, 0, 0, 0], "stateRewards": ["", 2, 4, -6, -13, -75, -81, 30, 7, 5, 59, -65, -1, -1, 7, 14, -38, 36, -41, 1, -54, -5, 64, 2, -1, 5, 6, -19, 79, 11, 16, -33, -50, 58], "withholdReward": false, "trial_id": "mdp_trial_1", "block": "test", "trialIndex": 2, "score": -1.7999999999999998, "costs": -2.8, "simulationMode": [null, null, null, null, null], "rewards": [-1, -1, 7, 1, -5], "path": ["0", "0", "12", "13", "14", "19", "21"], "rt": [10461, 279, 151, 173, 144], "actions": ["right", "right", "right", "down", "down"], "actionTimes": [15903, 16703, 17394, 18119, 18786], "queries": {"click": {"state": {"target": ["23", "12"], "time": [7225, 10837]}, "edge": {"target": [], "time": []}}, "mouseover": {"state": {"target": ["12", "23", "12"], "time": [6589, 6759, 7981]}, "edge": {"target": [], "time": []}}, "mouseout": {"state": {"target": ["17", "23", "23", "0", "12", "23"], "time": [1686, 3140, 3454, 3525, 6658, 7916]}, "edge": {"target": [], "time": []}}}, "displayed_time": "19.44", "trialTime": 20897, "trial_type": "mouselab-mdp", "trial_index": 9, "time_elapsed": 588815, "internal_node_id": "0.0-6.0-1.0-0.0"}}, {"uniqueid": "w29615251:a37615695", "current_trial": 10, "dateTime": 1693581439670, "trialdata": {"revealed_states": [], "clicked_states": ["23", "12"], "num_clicks_accrued": [0, 0, 0, 0, 0, 0, 0, 0, 0, 0, 0, 0, 0], "stateRewards": ["", -1, 3, -5, -2, -13, -9, -34, -7, -81, 32, 35, -2, -2, 1, -14, -32, 81, 7, 4, 82, 56, -8, -1, 3, -8, 6, -24, -24, -53, 2, 38, 61, 54], "withholdReward": false, "trial_id": "mdp_trial_2", "block": "test", "trialIndex": 3, "score": -26.8, "costs": -2.8, "simulationMode": [null, null, null, null, null], "rewards": [-1, 3, -8, 6, -24], "path": ["0", "0", "23", "24", "25", "26", "28"], "rt": [9155, 155, 86, 405, 339], "actions": ["left", "left", "left", "up", "right"], "actionTimes": [11727, 12425, 13044, 14039, 14929], "queries": {"click": {"state": {"target": ["23", "12"], "time": [3705, 6643]}, "edge": {"target": [], "time": []}}, "mouseover": {"state": {"target": ["23", "12"], "time": [3269, 5413]}, "edge": {"target": [], "time": []}}, "mouseout": {"state": {"target": ["12", "23", "12"], "time": [816, 4524, 17527]}, "edge": {"target": [], "time": []}}}, "displayed_time": "16.58", "trialTime": 19190, "trial_type": "mouselab-mdp", "trial_index": 10, "time_elapsed": 609975, "internal_node_id": "0.0-6.0-1.0-1.0"}}, {"uniqueid": "w29615251:a37615695", "current_trial": 11, "dateTime": 1693581468580, "trialdata": {"revealed_states": [], "clicked_states": ["12", "1"], "num_clicks_accrued": [0, 0, 0, 0, 0, 0, 0, 0, 0, 0, 0, 0, 0], "stateRewards": ["", 1, -4, -6, 11, -20, 8, -30, 1, -38, 88, 42, 2, 3, 5, -12, -8, -74, 30, -8, 67, -19, 42, 2, -1, 4, 13, 50, -68, 2, -8, -15, 87, -46], "withholdReward": false, "trial_id": "mdp_trial_3", "block": "test", "trialIndex": 4, "score": -19.8, "costs": -2.8, "simulationMode": [null, null, null, null, null], "rewards": [2, 3, 5, -8, -19], "path": ["0", "0", "12", "13", "14", "19", "21"], "rt": [13065, 142, 150, 653, 56], "actions": ["right", "right", "right", "down", "down"], "actionTimes": [16900, 17593, 18278, 19462, 20043], "queries": {"click": {"state": {"target": ["12", "1"], "time": [6468, 10292]}, "edge": {"target": [], "time": []}}, "mouseover": {"state": {"target": ["12", "1", "12", "0", "0"], "time": [5728, 9925, 13419, 14006, 15633]}, "edge": {"target": [], "time": []}}, "mouseout": {"state": {"target": ["20", "19", "0", "12", "1", "12", "0", "0", "7"], "time": [1498, 1615, 5470, 9611, 11155, 13535, 14147, 15773, 22287]}, "edge": {"target": [], "time": []}}}, "displayed_time": "20.58", "trialTime": 26969, "trial_type": "mouselab-mdp", "trial_index": 11, "time_elapsed": 638890, "internal_node_id": "0.0-6.0-1.0-2.0"}}, {"uniqueid": "w29615251:a37615695", "current_trial": 12, "dateTime": 1693581492639, "trialdata": {"revealed_states": [], "clicked_states": ["1", "23", "12"], "num_clicks_accrued": [0, 0, 0, 0, 0, 0, 0, 0, 0, 0, 0, 0, 0], "stateRewards": ["", -2, 2, 5, -14, -56, 64, 84, -5, 52, 39, 85, -2, 1, 7, 8, 21, 29, -78, -9, -10, -69, 10, -2, -1, -7, 15, 72, 20, 41, -2, 52, 80, 22], "withholdReward": false, "trial_id": "mdp_trial_4", "block": "test", "trialIndex": 5, "score": 70.8, "costs": -4.199999999999999, "simulationMode": [null, null, null, null, null], "rewards": [-2, 2, 5, -14, 84], "path": ["0", "0", "1", "2", "3", "4", "7"], "rt": [10330, 143, 124, 741, 808], "actions": ["up", "up", "up", "right", "down"], "actionTimes": [13505, 14179, 14843, 16172, 17497], "queries": {"click": {"state": {"target": ["1", "23", "12"], "time": [4696, 6614, 8312]}, "edge": {"target": [], "time": []}}, "mouseover": {"state": {"target": ["1", "23", "0", "12", "1"], "time": [4047, 5413, 7668, 7895, 10142]}, "edge": {"target": [], "time": []}}, "mouseout": {"state": {"target": ["14", "13", "12", "0", "1", "1", "23", "0", "12", "1", "0", "13"], "time": [1076, 1136, 1209, 3955, 4899, 5351, 7614, 7721, 9468, 10214, 19243, 19505]}, "edge": {"target": [], "time": []}}}, "displayed_time": "18.02", "trialTime": 21880, "trial_type": "mouselab-mdp", "trial_index": 12, "time_elapsed": 662946, "internal_node_id": "0.0-6.0-1.0-3.0"}}, {"uniqueid": "w29615251:a37615695", "current_trial": 13, "dateTime": 1693581517735, "trialdata": {"revealed_states": [], "clicked_states": ["1", "23", "12"], "num_clicks_accrued": [0, 0, 0, 0, 0, 0, 0, 0, 0, 0, 0, 0, 0], "stateRewards": ["", 1, -1, -7, -7, -22, 15, -13, 13, 26, -32, 38, -1, 1, -7, -4, 16, -62, 86, 12, -54, 56, 64, -2, -1, 6, 14, -57, 37, 62, -6, -25, 50, -70], "withholdReward": false, "trial_id": "mdp_trial_5", "block": "test", "trialIndex": 6, "score": 27.8, "costs": -4.199999999999999, "simulationMode": [null, null, null, null, null], "rewards": [1, -1, -7, 13, 26], "path": ["0", "0", "1", "2", "3", "8", "9"], "rt": [12444, 102, 102, 575, 772], "actions": ["up", "up", "up", "left", "up"], "actionTimes": [15717, 16351, 16992, 18112, 19428], "queries": {"click": {"state": {"target": ["1", "23", "12"], "time": [4998, 6572, 9929]}, "edge": {"target": [], "time": []}}, "mouseover": {"state": {"target": ["1", "23", "0", "12", "1"], "time": [4259, 5851, 7299, 7460, 11186]}, "edge": {"target": [], "time": []}}, "mouseout": {"state": {"target": ["18", "12", "0", "1", "23", "0", "12", "1"], "time": [1239, 1419, 4121, 5628, 7239, 7356, 11051, 11725]}, "edge": {"target": [], "time": []}}}, "displayed_time": "19.96", "trialTime": 22972, "trial_type": "mouselab-mdp", "trial_index": 13, "time_elapsed": 688042, "internal_node_id": "0.0-6.0-1.0-4.0"}}, {"uniqueid": "w29615251:a37615695", "current_trial": 14, "dateTime": 1693581542001, "trialdata": {"revealed_states": [], "clicked_states": [], "num_clicks_accrued": [0, 0, 0, 0, 0, 0, 0, 0, 0, 0, 0, 0, 0], "stateRewards": ["", -1, 2, 6, 11, 21, -21, -21, -6, 48, -71, 88, -1, -3, 3, 7, 64, 2, 9, -4, 37, -67, 72, 2, 2, -8, -8, -10, 71, -40, -3, 73, 80, 47], "withholdReward": false, "trial_id": "mdp_trial_6", "block": "test", "trialIndex": 7, "score": -22, "costs": 0, "simulationMode": [null, null, null, null, null], "rewards": [2, 2, -8, -8, -10], "path": ["0", "0", "23", "24", "25", "26", "27"], "rt": [11234, 120, 305, 639, 55], "actions": ["left", "left", "left", "up", "up"], "actionTimes": [14665, 15330, 16182, 17382, 17991], "queries": {"click": {"state": {"target": [], "time": []}, "edge": {"target": [], "time": []}}, "mouseover": {"state": {"target": ["0", "0", "23"], "time": [7530, 7870, 8221]}, "edge": {"target": [], "time": []}}, "mouseout": {"state": {"target": ["0", "0", "0", "23", "20", "21"], "time": [1931, 7638, 7923, 11848, 19619, 21373]}, "edge": {"target": [], "time": []}}}, "displayed_time": "18.53", "trialTime": 22095, "trial_type": "mouselab-mdp", "trial_index": 14, "time_elapsed": 712311, "internal_node_id": "0.0-6.0-1.0-5.0"}}, {"uniqueid": "w29615251:a37615695", "current_trial": 15, "dateTime": 1693581572005, "trialdata": {"revealed_states": [], "clicked_states": ["23", "12", "1"], "num_clicks_accrued": [0, 0, 0, 0, 0, 0, 0, 0, 0, 0, 0, 0, 0], "stateRewards": ["", -1, -3, -6, -2, -7, 80, -45, -3, -38, -72, 76, 2, 1, 7, 4, -62, 14, -74, 14, -87, -21, -88, -2, 1, -7, -10, 66, 56, -76, 10, -29, -72, -70], "withholdReward": false, "trial_id": "mdp_trial_7", "block": "test", "trialIndex": 8, "score": -52.2, "costs": -4.199999999999999, "simulationMode": [null, null, null, null, null], "rewards": [2, 1, 7, 4, -62], "path": ["0", "0", "12", "13", "14", "15", "16"], "rt": [12582, 66, 148, 326, 1069], "actions": ["right", "right", "right", "up", "up"], "actionTimes": [15128, 15724, 16405, 17261, 18848], "queries": {"click": {"state": {"target": ["23", "12", "1"], "time": [4973, 7732, 9899]}, "edge": {"target": [], "time": []}}, "mouseover": {"state": {"target": ["23", "12", "1", "1"], "time": [4599, 7315, 8685, 9045]}, "edge": {"target": [], "time": []}}, "mouseout": {"state": {"target": ["0", "23", "23", "12", "1", "1", "1", "12", "22"], "time": [915, 5153, 6071, 8618, 8875, 10093, 11751, 11845, 25392]}, "edge": {"target": [], "time": []}}}, "displayed_time": "19.39", "trialTime": 27969, "trial_type": "mouselab-mdp", "trial_index": 15, "time_elapsed": 742316, "internal_node_id": "0.0-6.0-1.0-6.0"}}, {"uniqueid": "w29615251:a37615695", "current_trial": 16, "dateTime": 1693581594280, "trialdata": {"revealed_states": [], "clicked_states": ["1", "12"], "num_clicks_accrued": [0, 0, 0, 0, 0, 0, 0, 0, 0, 0, 0, 0, 0], "stateRewards": ["", -1, -3, -7, -4, -85, -70, 79, 8, 84, -66, 42, 2, -2, -3, -16, -54, -66, 68, -3, 21, -14, 7, -2, -1, -3, -8, 75, 80, 86, -7, -84, 73, -16], "withholdReward": false, "trial_id": "mdp_trial_8", "block": "test", "trialIndex": 9, "score": -31.8, "costs": -2.8, "simulationMode": [null, null, null, null, null], "rewards": [-2, -1, -3, -7, -16], "path": ["0", "0", "23", "24", "25", "30", "33"], "rt": [11441, 37, 132, 378, 555], "actions": ["left", "left", "left", "down", "left"], "actionTimes": [15009, 15586, 16272, 17189, 18282], "queries": {"click": {"state": {"target": ["1", "12"], "time": [5901, 9410]}, "edge": {"target": [], "time": []}}, "mouseover": {"state": {"target": ["1", "1", "23", "12", "0"], "time": [5198, 5492, 6524, 8807, 10403]}, "edge": {"target": [], "time": []}}, "mouseout": {"state": {"target": ["19", "22", "0", "1", "1", "23", "12", "12", "0"], "time": [1721, 1803, 2153, 5248, 6420, 8633, 9731, 10199, 10622]}, "edge": {"target": [], "time": []}}}, "displayed_time": "18.82", "trialTime": 20125, "trial_type": "mouselab-mdp", "trial_index": 16, "time_elapsed": 764587, "internal_node_id": "0.0-6.0-1.0-7.0"}}, {"uniqueid": "w29615251:a37615695", "current_trial": 17, "dateTime": 1693581616069, "trialdata": {"revealed_states": [], "clicked_states": [], "num_clicks_accrued": [0, 0, 0, 0, 0, 0, 0, 0, 0, 0, 0, 0, 0], "stateRewards": ["", 1, 2, -3, 6, -88, 74, -45, 7, -46, 40, -77, 1, -4, 4, 3, 22, -25, -59, 8, -83, 19, -60, -1, -1, -1, -8, 26, -29, 64, -7, -88, -51, -55], "withholdReward": false, "trial_id": "mdp_trial_9", "block": "test", "trialIndex": 10, "score": -70, "costs": 0, "simulationMode": [null, null, null, null, null], "rewards": [1, 2, -3, 7, -77], "path": ["0", "0", "1", "2", "3", "8", "11"], "rt": [1246, 20, 134, 76, 747], "actions": ["up", "up", "up", "left", "left"], "actionTimes": [4545, 5097, 5756, 6377, 7662], "queries": {"click": {"state": {"target": [], "time": []}, "edge": {"target": [], "time": []}}, "mouseover": {"state": {"target": [], "time": []}, "edge": {"target": [], "time": []}}, "mouseout": {"state": {"target": ["0", "0", "18"], "time": [1317, 10761, 10817]}, "edge": {"target": [], "time": []}}}, "displayed_time": "17.31", "trialTime": 19637, "trial_type": "mouselab-mdp", "trial_index": 17, "time_elapsed": 786380, "internal_node_id": "0.0-6.0-1.0-8.0"}}, {"uniqueid": "w29615251:a37615695", "current_trial": 18, "dateTime": 1693581641757, "trialdata": {"revealed_states": [], "clicked_states": ["23", "12", "1"], "num_clicks_accrued": [0, 0, 0, 0, 0, 0, 0, 0, 0, 0, 0, 0, 0], "stateRewards": ["", -1, 1, 6, -6, 70, 66, 67, -16, -75, -35, 37, -1, 4, 4, -6, 47, -9, 63, 15, 21, -63, 13, 1, 3, -6, 10, 79, -29, 18, -15, 9, -67, -19], "withholdReward": false, "trial_id": "mdp_trial_10", "block": "test", "trialIndex": 11, "score": 21.8, "costs": -4.199999999999999, "simulationMode": [null, null, null, null, null], "rewards": [1, 3, -6, 10, 18], "path": ["0", "0", "23", "24", "25", "26", "29"], "rt": [12206, 224, 222, 483, 181], "actions": ["left", "left", "left", "up", "left"], "actionTimes": [14787, 15563, 16332, 17341, 18055], "queries": {"click": {"state": {"target": ["23", "12", "1"], "time": [4567, 7019, 9761]}, "edge": {"target": [], "time": []}}, "mouseover": {"state": {"target": ["0", "23", "12", "1", "0"], "time": [4079, 4200, 6316, 7762, 10591]}, "edge": {"target": [], "time": []}}, "mouseout": {"state": {"target": ["14", "13", "0", "0", "23", "12", "1", "0", "13", "14"], "time": [622, 657, 3623, 4144, 5364, 7704, 10532, 19817, 21427, 21473]}, "edge": {"target": [], "time": []}}}, "displayed_time": "18.64", "trialTime": 23497, "trial_type": "mouselab-mdp", "trial_index": 18, "time_elapsed": 812068, "internal_node_id": "0.0-6.0-1.0-9.0"}}, {"uniqueid": "w29615251:a37615695", "current_trial": 19, "dateTime": 1693581664178, "trialdata": {"revealed_states": [], "clicked_states": [], "num_clicks_accrued": [0, 0, 0, 0, 0, 0, 0, 0, 0, 0, 0, 0, 0], "stateRewards": ["", 2, -1, 5, 8, 75, -35, -77, 1, -9, -81, -58, 1, 2, -7, 5, 77, -16, 19, 16, -10, -18, 40, -2, 3, 7, -5, 64, 1, -62, 10, 27, 10, 65], "withholdReward": false, "trial_id": "mdp_trial_11", "block": "test", "trialIndex": 12, "score": -63, "costs": 0, "simulationMode": [null, null, null, null, null], "rewards": [2, -1, 5, 8, -77], "path": ["0", "0", "1", "2", "3", "4", "7"], "rt": [3600, 384, 242, 3517, 908], "actions": ["up", "up", "up", "right", "down"], "actionTimes": [7898, 8810, 9595, 13651, 15087], "queries": {"click": {"state": {"target": [], "time": []}, "edge": {"target": [], "time": []}}, "mouseover": {"state": {"target": [], "time": []}, "edge": {"target": [], "time": []}}, "mouseout": {"state": {"target": ["16", "12", "0", "16", "19"], "time": [2411, 2496, 6688, 10307, 19455]}, "edge": {"target": [], "time": []}}}, "displayed_time": "18.30", "trialTime": 20076, "trial_type": "mouselab-mdp", "trial_index": 19, "time_elapsed": 834484, "internal_node_id": "0.0-6.0-1.0-10.0"}}, {"uniqueid": "w29615251:a37615695", "current_trial": 20, "dateTime": 1693581686215, "trialdata": {"revealed_states": [], "clicked_states": ["23"], "num_clicks_accrued": [0, 0, 0, 0, 0, 0, 0, 0, 0, 0, 0, 0, 0], "stateRewards": ["", -2, -3, -6, -7, 9, 16, 65, 5, -41, 20, -25, -1, -4, 1, -11, -49, -4, 71, 1, 39, -62, 52, -2, -3, 7, -9, -28, -70, 84, 8, 24, -58, 82], "withholdReward": false, "trial_id": "mdp_trial_12", "block": "test", "trialIndex": 13, "score": -49.4, "costs": -1.4, "simulationMode": [null, null, null, null, null], "rewards": [-2, -3, 7, 8, -58], "path": ["0", "0", "23", "24", "25", "30", "32"], "rt": [8847, 171, 282, 231, 122], "actions": ["left", "left", "left", "down", "down"], "actionTimes": [12933, 13622, 14472, 15230, 15887], "queries": {"click": {"state": {"target": ["23"], "time": [6516]}, "edge": {"target": [], "time": []}}, "mouseover": {"state": {"target": ["23", "23"], "time": [4813, 5057]}, "edge": {"target": [], "time": []}}, "mouseout": {"state": {"target": ["0", "23", "23"], "time": [4755, 4930, 7440]}, "edge": {"target": [], "time": []}}}, "displayed_time": "18.09", "trialTime": 19609, "trial_type": "mouselab-mdp", "trial_index": 20, "time_elapsed": 856522, "internal_node_id": "0.0-6.0-1.0-11.0"}}, {"uniqueid": "w29615251:a37615695", "current_trial": 21, "dateTime": 1693581706490, "trialdata": {"revealed_states": [], "clicked_states": [], "num_clicks_accrued": [0, 0, 0, 0, 0, 0, 0, 0, 0, 0, 0, 0, 0], "stateRewards": ["", 1, 1, 5, 6, -29, -7, 3, -16, 9, -46, 65, -1, 4, -1, -16, -63, -77, -87, 8, 80, -50, 43, -1, -1, -5, 5, -38, -71, -62, 9, 81, -50, -52], "withholdReward": false, "trial_id": "mdp_trial_13", "block": "test", "trialIndex": 14, "score": -55, "costs": 0, "simulationMode": [null, null, null, null, null], "rewards": [1, 1, 5, -16, -46], "path": ["0", "0", "1", "2", "3", "8", "10"], "rt": [4095, 9, 194, 7, 904], "actions": ["up", "up", "up", "left", "down"], "actionTimes": [6647, 7197, 7961, 8518, 9990], "queries": {"click": {"state": {"target": [], "time": []}, "edge": {"target": [], "time": []}}, "mouseover": {"state": {"target": [], "time": []}, "edge": {"target": [], "time": []}}, "mouseout": {"state": {"target": ["0", "16"], "time": [12882, 12961]}, "edge": {"target": [], "time": []}}}, "displayed_time": "16.56", "trialTime": 18074, "trial_type": "mouselab-mdp", "trial_index": 21, "time_elapsed": 876801, "internal_node_id": "0.0-6.0-1.0-12.0"}}, {"uniqueid": "w29615251:a37615695", "current_trial": 22, "dateTime": 1693581731842, "trialdata": {"revealed_states": [], "clicked_states": [], "num_clicks_accrued": [0, 0, 0, 0, 0, 0, 0, 0, 0, 0, 0, 0, 0], "stateRewards": ["", -1, 2, -6, 6, -82, -19, -39, -16, -83, 11, -33, -2, -2, 4, -6, -82, -1, -19, -6, -10, -67, -41, -2, 1, -7, 16, -23, -78, -52, 14, 31, -71, 74], "withholdReward": false, "trial_id": "mdp_trial_14", "block": "test", "trialIndex": 15, "score": -70, "costs": 0, "simulationMode": [null, null, null, null, null], "rewards": [-2, 1, -7, 16, -78], "path": ["0", "0", "23", "24", "25", "26", "28"], "rt": [6001, 12, 68, 453, 88], "actions": ["left", "left", "left", "up", "right"], "actionTimes": [9898, 10452, 11079, 12078, 12716], "queries": {"click": {"state": {"target": [], "time": []}, "edge": {"target": [], "time": []}}, "mouseover": {"state": {"target": [], "time": []}, "edge": {"target": [], "time": []}}, "mouseout": {"state": {"target": ["17", "18"], "time": [1805, 1925]}, "edge": {"target": [], "time": []}}}, "displayed_time": "17.90", "trialTime": 22910, "trial_type": "mouselab-mdp", "trial_index": 22, "time_elapsed": 902152, "internal_node_id": "0.0-6.0-1.0-13.0"}}, {"uniqueid": "w29615251:a37615695", "current_trial": 23, "dateTime": 1693581753021, "trialdata": {"revealed_states": [], "clicked_states": [], "num_clicks_accrued": [0, 0, 0, 0, 0, 0, 0, 0, 0, 0, 0, 0, 0], "stateRewards": ["", -2, 2, 2, -6, 9, 37, 50, -13, -7, -18, -75, -2, -4, 4, 7, 23, -57, -66, -7, -81, -48, -76, 1, 1, -8, 1, 51, -2, 70, 14, 59, 71, -37], "withholdReward": false, "trial_id": "mdp_trial_15", "block": "test", "trialIndex": 16, "score": -90, "costs": 0, "simulationMode": [null, null, null, null, null], "rewards": [-2, -4, 4, -7, -81], "path": ["0", "0", "12", "13", "14", "19", "20"], "rt": [1811, 82, 125, 925, 994], "actions": ["right", "right", "right", "down", "right"], "actionTimes": [4721, 5360, 6017, 7480, 9016], "queries": {"click": {"state": {"target": [], "time": []}, "edge": {"target": [], "time": []}}, "mouseover": {"state": {"target": [], "time": []}, "edge": {"target": [], "time": []}}, "mouseout": {"state": {"target": ["0", "12", "17"], "time": [11198, 11260, 11409]}, "edge": {"target": [], "time": []}}}, "displayed_time": "16.92", "trialTime": 18674, "trial_type": "mouselab-mdp", "trial_index": 23, "time_elapsed": 923326, "internal_node_id": "0.0-6.0-1.0-14.0"}}, {"uniqueid": "w29615251:a37615695", "current_trial": 24, "dateTime": 1693581776923, "trialdata": {"revealed_states": [], "clicked_states": [], "num_clicks_accrued": [0, 0, 0, 0, 0, 0, 0, 0, 0, 0, 0, 0, 0], "stateRewards": ["", -1, -1, 4, -16, -75, 81, -51, -7, -84, 73, -30, -2, 1, -3, -16, -77, 33, 14, 1, 45, 87, -66, 2, 2, -5, -7, -19, -17, 79, -3, 8, 49, 47], "withholdReward": false, "trial_id": "mdp_trial_16", "block": "test", "trialIndex": 17, "score": 67, "costs": 0, "simulationMode": [null, null, null, null, null], "rewards": [-1, -1, 4, -16, 81], "path": ["0", "0", "1", "2", "3", "4", "6"], "rt": [1839, 13, 94, 285, 76], "actions": ["up", "up", "up", "right", "right"], "actionTimes": [4882, 5448, 6101, 6950, 7553], "queries": {"click": {"state": {"target": [], "time": []}, "edge": {"target": [], "time": []}}, "mouseover": {"state": {"target": [], "time": []}, "edge": {"target": [], "time": []}}, "mouseout": {"state": {"target": ["17", "14", "0"], "time": [905, 1001, 10304]}, "edge": {"target": [], "time": []}}}, "displayed_time": "17.04", "trialTime": 21095, "trial_type": "mouselab-mdp", "trial_index": 24, "time_elapsed": 947229, "internal_node_id": "0.0-6.0-1.0-15.0"}}, {"uniqueid": "w29615251:a37615695", "current_trial": 25, "dateTime": 1693581802514, "trialdata": {"revealed_states": [], "clicked_states": [], "num_clicks_accrued": [0, 0, 0, 0, 0, 0, 0, 0, 0, 0, 0, 0, 0], "stateRewards": ["", -1, 1, -5, -6, -78, 47, -13, 12, 48, -88, 20, 2, -3, -2, 13, -20, 37, -57, 14, -38, 30, 31, -2, -2, 8, 2, -23, 78, 28, 12, -74, -88, 8], "withholdReward": false, "trial_id": "mdp_trial_17", "block": "test", "trialIndex": 18, "score": -89, "costs": 0, "simulationMode": [null, null, null, null, null], "rewards": [-1, 1, -5, -6, -78], "path": ["0", "0", "1", "2", "3", "4", "5"], "rt": [1511, 1116, 192, 407, 565], "actions": ["up", "up", "up", "right", "up"], "actionTimes": [4871, 6558, 7275, 8201, 9318], "queries": {"click": {"state": {"target": [], "time": []}, "edge": {"target": [], "time": []}}, "mouseover": {"state": {"target": [], "time": []}, "edge": {"target": [], "time": []}}, "mouseout": {"state": {"target": ["20", "21", "12", "0", "15", "17", "20", "19"], "time": [1127, 1245, 1459, 10708, 10784, 10838, 22832, 22916]}, "edge": {"target": [], "time": []}}}, "displayed_time": "17.37", "trialTime": 23331, "trial_type": "mouselab-mdp", "trial_index": 25, "time_elapsed": 972825, "internal_node_id": "0.0-6.0-1.0-16.0"}}, {"uniqueid": "w29615251:a37615695", "current_trial": 26, "dateTime": 1693581823440, "trialdata": {"revealed_states": [], "clicked_states": [], "num_clicks_accrued": [0, 0, 0, 0, 0, 0, 0, 0, 0, 0, 0, 0, 0], "stateRewards": ["", -2, -3, -5, 8, 27, 11, 43, -6, -24, -87, 69, -2, 1, 1, 9, 19, 48, -37, 9, -14, 45, 62, 1, 2, 1, 16, -81, -41, 22, 4, -6, -63, 47], "withholdReward": false, "trial_id": "mdp_trial_18", "block": "test", "trialIndex": 19, "score": 9, "costs": 0, "simulationMode": [null, null, null, null, null], "rewards": [-2, -3, -5, 8, 11], "path": ["0", "0", "1", "2", "3", "4", "6"], "rt": [1352, 1465, 128, 464, 220], "actions": ["up", "up", "up", "right", "right"], "actionTimes": [3509, 5633, 6294, 7291, 8053], "queries": {"click": {"state": {"target": [], "time": []}, "edge": {"target": [], "time": []}}, "mouseover": {"state": {"target": [], "time": []}, "edge": {"target": [], "time": []}}, "mouseout": {"state": {"target": ["0", "0", "16"], "time": [847, 8973, 9046]}, "edge": {"target": [], "time": []}}}, "displayed_time": "16.16", "trialTime": 18178, "trial_type": "mouselab-mdp", "trial_index": 26, "time_elapsed": 993749, "internal_node_id": "0.0-6.0-1.0-17.0"}}, {"uniqueid": "w29615251:a37615695", "current_trial": 27, "dateTime": 1693581846428, "trialdata": {"revealed_states": [], "clicked_states": [], "num_clicks_accrued": [0, 0, 0, 0, 0, 0, 0, 0, 0, 0, 0, 0, 0], "stateRewards": ["", -2, 4, -3, -13, 63, -36, 62, 11, 78, 34, -51, 2, -2, 8, -6, -40, -18, 31, 9, 64, 39, 79, 1, 4, -4, 15, -12, 76, 73, -10, -77, 86, -4], "withholdReward": false, "trial_id": "mdp_trial_19", "block": "test", "trialIndex": 20, "score": 4, "costs": 0, "simulationMode": [null, null, null, null, null], "rewards": [1, 4, -4, 15, -12], "path": ["0", "0", "23", "24", "25", "26", "27"], "rt": [1788, 10, 153, 331, 125], "actions": ["left", "left", "left", "up", "up"], "actionTimes": [4779, 5319, 6020, 6874, 7532], "queries": {"click": {"state": {"target": [], "time": []}, "edge": {"target": [], "time": []}}, "mouseover": {"state": {"target": [], "time": []}, "edge": {"target": [], "time": []}}, "mouseout": {"state": {"target": ["13", "0", "0", "16"], "time": [916, 1397, 8743, 8806]}, "edge": {"target": [], "time": []}}}, "displayed_time": "16.99", "trialTime": 20303, "trial_type": "mouselab-mdp", "trial_index": 27, "time_elapsed": 1016734, "internal_node_id": "0.0-6.0-1.0-18.0"}}, {"uniqueid": "w29615251:a37615695", "current_trial": 28, "dateTime": 1693581868293, "trialdata": {"revealed_states": [], "clicked_states": [], "num_clicks_accrued": [0, 0, 0, 0, 0, 0, 0, 0, 0, 0, 0, 0, 0], "stateRewards": ["", -1, -4, -3, 1, -45, -67, -24, 14, 32, 22, 22, -1, 1, -5, -7, 72, 84, -79, -5, 19, -40, -2, -1, -2, 8, -3, 84, -25, -28, 11, 64, -66, 77], "withholdReward": false, "trial_id": "mdp_trial_20", "block": "test", "trialIndex": 21, "score": -74, "costs": 0, "simulationMode": [null, null, null, null, null], "rewards": [-1, -4, -3, 1, -67], "path": ["0", "0", "1", "2", "3", "4", "6"], "rt": [2785, 87, 60, 444, 162], "actions": ["up", "up", "up", "right", "right"], "actionTimes": [5803, 6433, 7028, 8017, 8721], "queries": {"click": {"state": {"target": [], "time": []}, "edge": {"target": [], "time": []}}, "mouseover": {"state": {"target": [], "time": []}, "edge": {"target": [], "time": []}}, "mouseout": {"state": {"target": ["20", "13", "0"], "time": [1155, 1208, 10091]}, "edge": {"target": [], "time": []}}}, "displayed_time": "17.02", "trialTime": 19378, "trial_type": "mouselab-mdp", "trial_index": 28, "time_elapsed": 1038601, "internal_node_id": "0.0-6.0-1.0-19.0"}}, {"uniqueid": "w29615251:a37615695", "current_trial": 29, "dateTime": 1693581890807, "trialdata": {"revealed_states": [], "clicked_states": [], "num_clicks_accrued": [0, 0, 0, 0, 0, 0, 0, 0, 0, 0, 0, 0, 0], "stateRewards": ["", -2, -3, 1, -7, 39, -67, 16, 5, -20, 73, 66, -1, 4, 5, -3, 23, -68, -87, -8, 3, -3, 17, 1, -4, -2, -13, -32, 34, 61, -5, -11, -18, 12], "withholdReward": false, "trial_id": "mdp_trial_21", "block": "test", "trialIndex": 22, "score": 43, "costs": 0, "simulationMode": [null, null, null, null, null], "rewards": [1, -4, -2, -13, 61], "path": ["0", "0", "23", "24", "25", "26", "29"], "rt": [2154, 135, 172, 161, 75], "actions": ["left", "left", "left", "up", "left"], "actionTimes": [4731, 5414, 6129, 6830, 7436], "queries": {"click": {"state": {"target": [], "time": []}, "edge": {"target": [], "time": []}}, "mouseover": {"state": {"target": [], "time": []}, "edge": {"target": [], "time": []}}, "mouseout": {"state": {"target": ["0", "7"], "time": [8377, 8452]}, "edge": {"target": [], "time": []}}}, "displayed_time": "16.59", "trialTime": 18291, "trial_type": "mouselab-mdp", "trial_index": 29, "time_elapsed": 1061117, "internal_node_id": "0.0-6.0-1.0-20.0"}}, {"uniqueid": "w29615251:a37615695", "current_trial": 30, "dateTime": 1693581913115, "trialdata": {"revealed_states": [], "clicked_states": [], "num_clicks_accrued": [0, 0, 0, 0, 0, 0, 0, 0, 0, 0, 0, 0, 0], "stateRewards": ["", -2, -3, -7, 7, -54, -69, -4, -14, -77, 22, 40, -2, -1, 5, 6, -35, 50, -60, 10, -28, 75, 57, 1, -4, -2, 2, 68, 34, -18, 12, 3, -21, -43], "withholdReward": false, "trial_id": "mdp_trial_22", "block": "test", "trialIndex": 23, "score": 31, "costs": 0, "simulationMode": [null, null, null, null, null], "rewards": [1, -4, -2, 2, 34], "path": ["0", "0", "23", "24", "25", "26", "28"], "rt": [1553, 11, 1042, 204, 298], "actions": ["left", "left", "left", "up", "right"], "actionTimes": [4894, 5427, 7026, 7752, 8572], "queries": {"click": {"state": {"target": [], "time": []}, "edge": {"target": [], "time": []}}, "mouseover": {"state": {"target": [], "time": []}, "edge": {"target": [], "time": []}}, "mouseout": {"state": {"target": ["17", "0", "0"], "time": [867, 1134, 9921]}, "edge": {"target": [], "time": []}}}, "displayed_time": "17.35", "trialTime": 19547, "trial_type": "mouselab-mdp", "trial_index": 30, "time_elapsed": 1083425, "internal_node_id": "0.0-6.0-1.0-21.0"}}, {"uniqueid": "w29615251:a37615695", "current_trial": 31, "dateTime": 1693581935416, "trialdata": {"revealed_states": [], "clicked_states": [], "num_clicks_accrued": [0, 0, 0, 0, 0, 0, 0, 0, 0, 0, 0, 0, 0], "stateRewards": ["", 1, 1, 7, -11, 80, -20, -53, -14, 3, 31, 27, 2, -1, -8, -10, 33, 41, 86, 9, 78, -37, -13, -1, -2, -6, -8, -80, 75, 4, -16, -49, -74, 24], "withholdReward": false, "trial_id": "mdp_trial_23", "block": "test", "trialIndex": 24, "score": 24, "costs": 0, "simulationMode": [null, null, null, null, null], "rewards": [2, -1, -8, -10, 41], "path": ["0", "0", "12", "13", "14", "15", "17"], "rt": [1590, 88, 125, 1313, 1318], "actions": ["right", "right", "right", "up", "right"], "actionTimes": [4891, 5514, 6204, 8048, 9900], "queries": {"click": {"state": {"target": [], "time": []}, "edge": {"target": [], "time": []}}, "mouseover": {"state": {"target": [], "time": []}, "edge": {"target": [], "time": []}}, "mouseout": {"state": {"target": ["23"], "time": [1259]}, "edge": {"target": [], "time": []}}}, "displayed_time": "17.31", "trialTime": 19833, "trial_type": "mouselab-mdp", "trial_index": 31, "time_elapsed": 1105722, "internal_node_id": "0.0-6.0-1.0-22.0"}}, {"uniqueid": "w29615251:a37615695", "current_trial": 32, "dateTime": 1693581957405, "trialdata": {"revealed_states": [], "clicked_states": [], "num_clicks_accrued": [0, 0, 0, 0, 0, 0, 0, 0, 0, 0, 0, 0, 0], "stateRewards": ["", -1, -4, 8, 8, -68, 47, 24, -7, -61, 49, -69, -1, -1, 8, -7, 42, 1, -45, -11, 10, -63, -6, 1, 4, 6, -16, 79, -37, -58, -12, 81, 18, -53], "withholdReward": false, "trial_id": "mdp_trial_24", "block": "test", "trialIndex": 25, "score": 58, "costs": 0, "simulationMode": [null, null, null, null, null], "rewards": [-1, -4, 8, 8, 47], "path": ["0", "0", "1", "2", "3", "4", "6"], "rt": [1451, 13, 11, 331, 1440], "actions": ["up", "up", "up", "right", "right"], "actionTimes": [4312, 4868, 5446, 6322, 8292], "queries": {"click": {"state": {"target": [], "time": []}, "edge": {"target": [], "time": []}}, "mouseover": {"state": {"target": [], "time": []}, "edge": {"target": [], "time": []}}, "mouseout": {"state": {"target": ["13", "0", "0"], "time": [629, 767, 9139]}, "edge": {"target": [], "time": []}}}, "displayed_time": "16.87", "trialTime": 19216, "trial_type": "mouselab-mdp", "trial_index": 32, "time_elapsed": 1127716, "internal_node_id": "0.0-6.0-1.0-23.0"}}, {"uniqueid": "w29615251:a37615695", "current_trial": 33, "dateTime": 1693581977992, "trialdata": {"revealed_states": [], "clicked_states": [], "num_clicks_accrued": [0, 0, 0, 0, 0, 0, 0, 0, 0, 0, 0, 0, 0], "stateRewards": ["", -2, 1, -8, 12, -65, -79, 16, 7, -80, -17, -45, -2, 2, -5, -2, -85, 23, -4, -7, 48, 27, -76, 2, 3, 5, 2, 43, 71, -13, 7, -49, 59, -31], "withholdReward": false, "trial_id": "mdp_trial_25", "block": "test", "trialIndex": 26, "score": -14, "costs": 0, "simulationMode": [null, null, null, null, null], "rewards": [2, 3, 5, 7, -31], "path": ["0", "0", "23", "24", "25", "30", "33"], "rt": [2747, 20, 38, 419, 252], "actions": ["left", "left", "left", "down", "left"], "actionTimes": [5601, 6145, 6759, 7728, 8509], "queries": {"click": {"state": {"target": [], "time": []}, "edge": {"target": [], "time": []}}, "mouseover": {"state": {"target": [], "time": []}, "edge": {"target": [], "time": []}}, "mouseout": {"state": {"target": ["14", "12", "0"], "time": [1008, 1162, 1392]}, "edge": {"target": [], "time": []}}}, "displayed_time": "16.87", "trialTime": 18168, "trial_type": "mouselab-mdp", "trial_index": 33, "time_elapsed": 1148301, "internal_node_id": "0.0-6.0-1.0-24.0"}}, {"uniqueid": "w29615251:a37615695", "current_trial": 34, "dateTime": 1693581998982, "trialdata": {"revealed_states": [], "clicked_states": [], "num_clicks_accrued": [0, 0, 0, 0, 0, 0, 0, 0, 0, 0, 0, 0, 0], "stateRewards": ["", 1, -2, -2, 10, -31, -77, 35, 9, -47, 8, 48, -2, 1, -4, -3, -26, -50, 43, -11, 76, -38, 17, 1, -1, 6, 10, 15, -9, 12, -8, 85, 11, -55], "withholdReward": false, "trial_id": "mdp_trial_26", "block": "test", "trialIndex": 27, "score": -70, "costs": 0, "simulationMode": [null, null, null, null, null], "rewards": [1, -2, -2, 10, -77], "path": ["0", "0", "1", "2", "3", "4", "6"], "rt": [1163, 730, 142, 360, 891], "actions": ["up", "up", "up", "right", "right"], "actionTimes": [4386, 5669, 6340, 7251, 8688], "queries": {"click": {"state": {"target": [], "time": []}, "edge": {"target": [], "time": []}}, "mouseover": {"state": {"target": [], "time": []}, "edge": {"target": [], "time": []}}, "mouseout": {"state": {"target": ["4", "2", "0"], "time": [1159, 1227, 9856]}, "edge": {"target": [], "time": []}}}, "displayed_time": "17.23", "trialTime": 18701, "trial_type": "mouselab-mdp", "trial_index": 34, "time_elapsed": 1169288, "internal_node_id": "0.0-6.0-1.0-25.0"}}, {"uniqueid": "w29615251:a37615695", "current_trial": 35, "dateTime": 1693582020160, "trialdata": {"revealed_states": [], "clicked_states": [], "num_clicks_accrued": [0, 0, 0, 0, 0, 0, 0, 0, 0, 0, 0, 0, 0], "stateRewards": ["", 1, 1, 1, 15, -76, 52, -32, 14, -57, 37, 49, 1, -4, -3, 6, 83, -76, 25, 9, 36, -1, -17, -1, 4, 4, -2, -22, -21, 58, -15, -57, 49, -24], "withholdReward": false, "trial_id": "mdp_trial_27", "block": "test", "trialIndex": 28, "score": 2, "costs": 0, "simulationMode": [null, null, null, null, null], "rewards": [1, -4, -3, 9, -1], "path": ["0", "0", "12", "13", "14", "19", "21"], "rt": [1299, 13, 93, 257, 744], "actions": ["right", "right", "right", "down", "down"], "actionTimes": [4650, 5180, 5823, 6626, 7920], "queries": {"click": {"state": {"target": [], "time": []}, "edge": {"target": [], "time": []}}, "mouseover": {"state": {"target": [], "time": []}, "edge": {"target": [], "time": []}}, "mouseout": {"state": {"target": ["0", "0"], "time": [1084, 9560]}, "edge": {"target": [], "time": []}}}, "displayed_time": "17.36", "trialTime": 18661, "trial_type": "mouselab-mdp", "trial_index": 35, "time_elapsed": 1190469, "internal_node_id": "0.0-6.0-1.0-26.0"}}, {"uniqueid": "w29615251:a37615695", "current_trial": 36, "dateTime": 1693582041591, "trialdata": {"revealed_states": [], "clicked_states": [], "num_clicks_accrued": [0, 0, 0, 0, 0, 0, 0, 0, 0, 0, 0, 0, 0], "stateRewards": ["", -2, 2, 3, -7, -31, -33, 29, -8, -57, 50, -83, -1, -1, 5, 13, -23, -62, 25, 5, -66, -85, 14, 1, -2, -1, 16, 71, 33, -19, -14, 5, -43, 79], "withholdReward": false, "trial_id": "mdp_trial_28", "block": "test", "trialIndex": 29, "score": 41, "costs": 0, "simulationMode": [null, null, null, null, null], "rewards": [-1, -1, 5, 13, 25], "path": ["0", "0", "12", "13", "14", "15", "18"], "rt": [3000, 154, 131, 135, 1147], "actions": ["right", "right", "right", "up", "left"], "actionTimes": [6522, 7217, 7886, 8568, 10253], "queries": {"click": {"state": {"target": [], "time": []}, "edge": {"target": [], "time": []}}, "mouseover": {"state": {"target": ["12"], "time": [4314]}, "edge": {"target": [], "time": []}}, "mouseout": {"state": {"target": ["15", "18", "12", "12", "15", "17"], "time": [1292, 1344, 1528, 4427, 12632, 12686]}, "edge": {"target": [], "time": []}}}, "displayed_time": "17.53", "trialTime": 18772, "trial_type": "mouselab-mdp", "trial_index": 36, "time_elapsed": 1211898, "internal_node_id": "0.0-6.0-1.0-27.0"}}, {"uniqueid": "w29615251:a37615695", "current_trial": 37, "dateTime": 1693582062823, "trialdata": {"revealed_states": [], "clicked_states": [], "num_clicks_accrued": [0, 0, 0, 0, 0, 0, 0, 0, 0, 0, 0, 0, 0], "stateRewards": ["", -1, -3, 1, -4, -48, -63, -49, -2, -84, -19, 65, 2, -2, -2, -12, -4, 59, 9, 6, 75, 69, -13, -1, -3, -3, -2, -37, -68, -36, 13, 32, 18, -14], "withholdReward": false, "trial_id": "mdp_trial_29", "block": "test", "trialIndex": 30, "score": 24, "costs": 0, "simulationMode": [null, null, null, null, null], "rewards": [-1, -3, -3, 13, 18], "path": ["0", "0", "23", "24", "25", "30", "32"], "rt": [1639, 64, 109, 100, 115], "actions": ["left", "left", "left", "down", "down"], "actionTimes": [4553, 5167, 5839, 6477, 7125], "queries": {"click": {"state": {"target": [], "time": []}, "edge": {"target": [], "time": []}}, "mouseover": {"state": {"target": [], "time": []}, "edge": {"target": [], "time": []}}, "mouseout": {"state": {"target": ["15", "13", "12", "0"], "time": [794, 864, 961, 8726]}, "edge": {"target": [], "time": []}}}, "displayed_time": "16.93", "trialTime": 18590, "trial_type": "mouselab-mdp", "trial_index": 37, "time_elapsed": 1233134, "internal_node_id": "0.0-6.0-1.0-28.0"}}, {"uniqueid": "w29615251:a37615695", "current_trial": 38, "dateTime": 1693582083615, "trialdata": {"revealed_states": [], "clicked_states": [], "num_clicks_accrued": [0, 0, 0, 0, 0, 0, 0, 0, 0, 0, 0, 0, 0], "stateRewards": ["", 2, -1, -4, -13, 74, 77, 3, 2, -43, -2, -11, 2, 3, 7, 11, -26, -29, -33, -3, -3, -13, -3, 1, 3, -7, 14, -59, 33, 9, -5, 34, 79, 68], "withholdReward": false, "trial_id": "mdp_trial_30", "block": "test", "trialIndex": 31, "score": -3, "costs": 0, "simulationMode": [null, null, null, null, null], "rewards": [2, -1, -4, 2, -2], "path": ["0", "0", "1", "2", "3", "8", "10"], "rt": [2850, 801, 191, 445, 134], "actions": ["up", "up", "up", "left", "down"], "actionTimes": [5935, 7259, 7996, 8984, 9673], "queries": {"click": {"state": {"target": [], "time": []}, "edge": {"target": [], "time": []}}, "mouseover": {"state": {"target": ["14"], "time": [4544]}, "edge": {"target": [], "time": []}}, "mouseout": {"state": {"target": ["0", "14", "22"], "time": [3200, 13042, 13165]}, "edge": {"target": [], "time": []}}}, "displayed_time": "17.09", "trialTime": 18414, "trial_type": "mouselab-mdp", "trial_index": 38, "time_elapsed": 1253921, "internal_node_id": "0.0-6.0-1.0-29.0"}}, {"uniqueid": "w29615251:a37615695", "current_trial": 39, "dateTime": 1693582104728, "trialdata": {"revealed_states": [], "clicked_states": [], "num_clicks_accrued": [0, 0, 0, 0, 0, 0, 0, 0, 0, 0, 0, 0, 0], "stateRewards": ["", -2, 1, 6, -2, -10, -78, -69, 14, -15, 7, -1, 1, -1, -2, 13, 77, 32, 87, 5, -74, 30, -26, 1, 3, 4, 12, 39, 54, -43, 2, 10, 23, 13], "withholdReward": false, "trial_id": "mdp_trial_31", "block": "test", "trialIndex": 32, "score": 18, "costs": 0, "simulationMode": [null, null, null, null, null], "rewards": [-2, 1, 6, 14, -1], "path": ["0", "0", "1", "2", "3", "8", "11"], "rt": [1404, 807, 154, 284, 449], "actions": ["up", "up", "up", "left", "left"], "actionTimes": [4584, 5976, 6667, 7474, 8451], "queries": {"click": {"state": {"target": [], "time": []}, "edge": {"target": [], "time": []}}, "mouseover": {"state": {"target": [], "time": []}, "edge": {"target": [], "time": []}}, "mouseout": {"state": {"target": ["14", "22", "0"], "time": [864, 983, 9773]}, "edge": {"target": [], "time": []}}}, "displayed_time": "17.19", "trialTime": 18684, "trial_type": "mouselab-mdp", "trial_index": 39, "time_elapsed": 1275034, "internal_node_id": "0.0-6.0-1.0-30.0"}}, {"uniqueid": "w29615251:a37615695", "current_trial": 40, "dateTime": 1693582126186, "trialdata": {"revealed_states": [], "clicked_states": [], "num_clicks_accrued": [0, 0, 0, 0, 0, 0, 0, 0, 0, 0, 0, 0, 0], "stateRewards": ["", 1, -2, -8, -13, 4, 34, -84, -4, -49, 88, -70, -1, 3, -4, 10, -77, 13, -34, 15, -21, -16, 27, 1, -2, 8, -8, -6, 38, -26, 6, -15, 66, -3], "withholdReward": false, "trial_id": "mdp_trial_32", "block": "test", "trialIndex": 33, "score": -8, "costs": 0, "simulationMode": [null, null, null, null, null], "rewards": [-1, 3, -4, 15, -21], "path": ["0", "0", "12", "13", "14", "19", "20"], "rt": [1727, 889, 159, 445, 433], "actions": ["right", "right", "right", "down", "right"], "actionTimes": [5247, 6673, 7377, 8349, 9323], "queries": {"click": {"state": {"target": [], "time": []}, "edge": {"target": [], "time": []}}, "mouseover": {"state": {"target": [], "time": []}, "edge": {"target": [], "time": []}}, "mouseout": {"state": {"target": ["16", "12", "0", "0"], "time": [809, 892, 1649, 10480]}, "edge": {"target": [], "time": []}}}, "displayed_time": "17.53", "trialTime": 18618, "trial_type": "mouselab-mdp", "trial_index": 40, "time_elapsed": 1296493, "internal_node_id": "0.0-6.0-1.0-31.0"}}, {"uniqueid": "w29615251:a37615695", "current_trial": 41, "dateTime": 1693582147805, "trialdata": {"revealed_states": [], "clicked_states": [], "num_clicks_accrued": [0, 0, 0, 0, 0, 0, 0, 0, 0, 0, 0, 0, 0], "stateRewards": ["", -1, 1, 8, -3, -24, 11, -65, -6, -77, 48, 44, -2, 1, -2, -7, -55, -35, 33, 8, -28, 19, -53, -1, -1, -5, -5, -70, 10, 44, 8, -58, -70, 51], "withholdReward": false, "trial_id": "mdp_trial_33", "block": "test", "trialIndex": 34, "score": -19, "costs": 0, "simulationMode": [null, null, null, null, null], "rewards": [-1, 1, 8, -3, -24], "path": ["0", "0", "1", "2", "3", "4", "5"], "rt": [1173, 103, 111, 284, 165], "actions": ["up", "up", "up", "right", "up"], "actionTimes": [4359, 5001, 5665, 6492, 7186], "queries": {"click": {"state": {"target": [], "time": []}, "edge": {"target": [], "time": []}}, "mouseover": {"state": {"target": [], "time": []}, "edge": {"target": [], "time": []}}, "mouseout": {"state": {"target": ["14", "13", "12", "23", "23", "0", "7"], "time": [849, 890, 944, 1063, 1147, 8349, 8449]}, "edge": {"target": [], "time": []}}}, "displayed_time": "17.19", "trialTime": 18634, "trial_type": "mouselab-mdp", "trial_index": 41, "time_elapsed": 1318113, "internal_node_id": "0.0-6.0-1.0-32.0"}}, {"uniqueid": "w29615251:a37615695", "current_trial": 42, "dateTime": 1693582169128, "trialdata": {"revealed_states": [], "clicked_states": [], "num_clicks_accrued": [0, 0, 0, 0, 0, 0, 0, 0, 0, 0, 0, 0, 0], "stateRewards": ["", 1, 4, 7, -16, -84, -6, -46, -12, -7, -49, -26, -1, 2, -4, 2, 22, 37, -64, 1, 88, -13, -10, 1, -4, -2, 5, 2, -10, -34, 9, 66, 55, 38], "withholdReward": false, "trial_id": "mdp_trial_34", "block": "test", "trialIndex": 35, "score": -10, "costs": 0, "simulationMode": [null, null, null, null, null], "rewards": [1, -4, -2, 5, -10], "path": ["0", "0", "23", "24", "25", "26", "28"], "rt": [1559, 134, 164, 549, 179], "actions": ["left", "left", "left", "up", "right"], "actionTimes": [4782, 5455, 6152, 7226, 7955], "queries": {"click": {"state": {"target": [], "time": []}, "edge": {"target": [], "time": []}}, "mouseover": {"state": {"target": [], "time": []}, "edge": {"target": [], "time": []}}, "mouseout": {"state": {"target": ["16", "18", "12", "0"], "time": [1049, 1105, 1215, 8995]}, "edge": {"target": [], "time": []}}}, "displayed_time": "17.23", "trialTime": 18557, "trial_type": "mouselab-mdp", "trial_index": 42, "time_elapsed": 1339434, "internal_node_id": "0.0-6.0-1.0-33.0"}}, {"uniqueid": "w29615251:a37615695", "current_trial": 43, "dateTime": 1693582191045, "trialdata": {"revealed_states": [], "clicked_states": [], "num_clicks_accrued": [0, 0, 0, 0, 0, 0, 0, 0, 0, 0, 0, 0, 0], "stateRewards": ["", -1, 2, 7, 8, 75, 67, -11, 6, 52, -17, 38, -1, 4, -8, 14, 74, -37, -17, -12, 52, 55, 71, -2, -1, -5, 2, 21, 6, -88, -14, 64, -61, -47], "withholdReward": false, "trial_id": "mdp_trial_35", "block": "test", "trialIndex": 36, "score": -8, "costs": 0, "simulationMode": [null, null, null, null, null], "rewards": [-1, 4, -8, 14, -17], "path": ["0", "0", "12", "13", "14", "15", "18"], "rt": [636, 31, 110, 303, 160], "actions": ["right", "right", "right", "up", "left"], "actionTimes": [3989, 4546, 5231, 6082, 6776], "queries": {"click": {"state": {"target": [], "time": []}, "edge": {"target": [], "time": []}}, "mouseover": {"state": {"target": [], "time": []}, "edge": {"target": [], "time": []}}, "mouseout": {"state": {"target": ["15", "12", "0"], "time": [1338, 1491, 7710]}, "edge": {"target": [], "time": []}}}, "displayed_time": "17.36", "trialTime": 18677, "trial_type": "mouselab-mdp", "trial_index": 43, "time_elapsed": 1361356, "internal_node_id": "0.0-6.0-1.0-34.0"}}, {"uniqueid": "w29615251:a37615695", "current_trial": 44, "dateTime": 1693582212124, "trialdata": {"revealed_states": [], "clicked_states": [], "num_clicks_accrued": [0, 0, 0, 0, 0, 0, 0, 0, 0, 0, 0, 0, 0], "stateRewards": ["", -2, -4, 4, -11, -63, -60, -7, 2, -14, 81, -43, -1, -1, -5, 7, 10, 69, 40, 8, -83, 52, 60, 1, 2, 5, -5, 16, 64, 14, -3, 29, 7, -51], "withholdReward": false, "trial_id": "mdp_trial_36", "block": "test", "trialIndex": 37, "score": -20, "costs": 0, "simulationMode": [null, null, null, null, null], "rewards": [-2, -4, 4, -11, -7], "path": ["0", "0", "1", "2", "3", "4", "7"], "rt": [1555, 51, 97, 638, 800], "actions": ["up", "up", "up", "right", "down"], "actionTimes": [4664, 5258, 5913, 7073, 8423], "queries": {"click": {"state": {"target": [], "time": []}, "edge": {"target": [], "time": []}}, "mouseover": {"state": {"target": [], "time": []}, "edge": {"target": [], "time": []}}, "mouseout": {"state": {"target": ["7", "1", "0", "16"], "time": [1350, 1479, 9921, 10072]}, "edge": {"target": [], "time": []}}}, "displayed_time": "17.12", "trialTime": 18266, "trial_type": "mouselab-mdp", "trial_index": 44, "time_elapsed": 1382428, "internal_node_id": "0.0-6.0-1.0-35.0"}}, {"uniqueid": "w29615251:a37615695", "current_trial": 45, "dateTime": 1693582233493, "trialdata": {"revealed_states": [], "clicked_states": [], "num_clicks_accrued": [0, 0, 0, 0, 0, 0, 0, 0, 0, 0, 0, 0, 0], "stateRewards": ["", -1, -2, -1, -10, -57, 73, -72, -16, 75, -14, -46, -2, -3, -7, -1, -61, -60, 76, -4, 50, 4, 14, 2, 2, -7, 12, -65, -32, 15, -8, -76, -25, -61], "withholdReward": false, "trial_id": "mdp_trial_37", "block": "test", "trialIndex": 38, "score": -87, "costs": 0, "simulationMode": [null, null, null, null, null], "rewards": [2, 2, -7, -8, -76], "path": ["0", "0", "23", "24", "25", "30", "31"], "rt": [2966, 99, 127, 381, 492], "actions": ["left", "left", "left", "down", "right"], "actionTimes": [5826, 6465, 7116, 8038, 9062], "queries": {"click": {"state": {"target": [], "time": []}, "edge": {"target": [], "time": []}}, "mouseover": {"state": {"target": [], "time": []}, "edge": {"target": [], "time": []}}, "mouseout": {"state": {"target": ["18"], "time": [773]}, "edge": {"target": [], "time": []}}}, "displayed_time": "16.87", "trialTime": 18278, "trial_type": "mouselab-mdp", "trial_index": 45, "time_elapsed": 1403804, "internal_node_id": "0.0-6.0-1.0-36.0"}}, {"uniqueid": "w29615251:a37615695", "current_trial": 46, "dateTime": 1693582254906, "trialdata": {"revealed_states": [], "clicked_states": [], "num_clicks_accrued": [0, 0, 0, 0, 0, 0, 0, 0, 0, 0, 0, 0, 0], "stateRewards": ["", 2, 4, -5, 7, 81, 35, 6, 11, 14, -72, 42, -1, 2, 3, -7, -77, -44, -40, -15, -85, 51, -32, -2, -1, -5, 7, -74, 47, 52, 16, -49, 48, -46], "withholdReward": false, "trial_id": "mdp_trial_38", "block": "test", "trialIndex": 39, "score": -80, "costs": 0, "simulationMode": [null, null, null, null, null], "rewards": [-1, 2, 3, -7, -77], "path": ["0", "0", "12", "13", "14", "15", "16"], "rt": [1286, 1603, 182, 879, 817], "actions": ["right", "right", "right", "up", "up"], "actionTimes": [4635, 6786, 7497, 8933, 10309], "queries": {"click": {"state": {"target": [], "time": []}, "edge": {"target": [], "time": []}}, "mouseover": {"state": {"target": [], "time": []}, "edge": {"target": [], "time": []}}, "mouseout": {"state": {"target": ["5", "0", "0", "18"], "time": [943, 11249, 11346, 11417]}, "edge": {"target": [], "time": []}}}, "displayed_time": "17.36", "trialTime": 18745, "trial_type": "mouselab-mdp", "trial_index": 46, "time_elapsed": 1425213, "internal_node_id": "0.0-6.0-1.0-37.0"}}, {"uniqueid": "w29615251:a37615695", "current_trial": 47, "dateTime": 1693582275697, "trialdata": {"revealed_states": [], "clicked_states": [], "num_clicks_accrued": [0, 0, 0, 0, 0, 0, 0, 0, 0, 0, 0, 0, 0], "stateRewards": ["", 2, 3, 6, -5, -74, -53, 17, -12, 46, 44, 18, -2, 4, 1, -8, 22, -23, -49, 9, -45, 55, 81, 1, -1, -7, -16, -83, -71, -45, 2, 51, 82, 61], "withholdReward": false, "trial_id": "mdp_trial_39", "block": "test", "trialIndex": 40, "score": -106, "costs": 0, "simulationMode": [null, null, null, null, null], "rewards": [1, -1, -7, -16, -83], "path": ["0", "0", "23", "24", "25", "26", "27"], "rt": [1890, 130, 176, 385, 1000], "actions": ["left", "left", "left", "up", "up"], "actionTimes": [4685, 5358, 6067, 6987, 8546], "queries": {"click": {"state": {"target": [], "time": []}, "edge": {"target": [], "time": []}}, "mouseover": {"state": {"target": [], "time": []}, "edge": {"target": [], "time": []}}, "mouseout": {"state": {"target": ["17", "13", "12", "0", "16"], "time": [739, 875, 1006, 10600, 10660]}, "edge": {"target": [], "time": []}}}, "displayed_time": "16.80", "trialTime": 18152, "trial_type": "mouselab-mdp", "trial_index": 47, "time_elapsed": 1446005, "internal_node_id": "0.0-6.0-1.0-38.0"}}, {"uniqueid": "w29615251:a37615695", "current_trial": 48, "dateTime": 1693582297379, "trialdata": {"revealed_states": [], "clicked_states": [], "num_clicks_accrued": [0, 0, 0, 0, 0, 0, 0, 0, 0, 0, 0, 0, 0], "stateRewards": ["", -1, 1, -6, -1, 80, 23, 2, -11, 73, -81, 59, 1, 3, 5, -1, -26, 28, -3, 16, -59, -13, -50, -2, -2, 2, 15, -50, 86, 17, -4, 37, 35, 44], "withholdReward": false, "trial_id": "mdp_trial_40", "block": "test", "trialIndex": 41, "score": 56, "costs": 0, "simulationMode": [null, null, null, null, null], "rewards": [-1, 1, -6, -11, 73], "path": ["0", "0", "1", "2", "3", "8", "9"], "rt": [1540, 205, 147, 86, 395], "actions": ["up", "up", "up", "left", "up"], "actionTimes": [4630, 5364, 6062, 6686, 7633], "queries": {"click": {"state": {"target": [], "time": []}, "edge": {"target": [], "time": []}}, "mouseover": {"state": {"target": [], "time": []}, "edge": {"target": [], "time": []}}, "mouseout": {"state": {"target": ["1", "0", "16"], "time": [1345, 8868, 8946]}, "edge": {"target": [], "time": []}}}, "displayed_time": "17.09", "trialTime": 18663, "trial_type": "mouselab-mdp", "trial_index": 48, "time_elapsed": 1467683, "internal_node_id": "0.0-6.0-1.0-39.0"}}, {"uniqueid": "w29615251:a37615695", "current_trial": 49, "dateTime": 1693582372918, "trialdata": {"rt": 74941, "response": {"Q0": "$-2 to $2", "Q1": "$-4 to $4", "Q2": "$-16 to $16", "Q3": "The cost for clicking on nodes varied between nodes.", "Q4": "Very motivated"}, "question_order": [0, 1, 2, 3, 4], "trial_id": "final_quiz_control", "trial_type": "survey-multi-choice", "trial_index": 49, "time_elapsed": 1543226, "internal_node_id": "0.0-6.0-2.0"}}, {"uniqueid": "w29615251:a37615695", "current_trial": 50, "dateTime": 1693582570705, "trialdata": {"rt": 196621, "response": {"Q0": "The strategy I used was to identify which nodes tend to have a huge amount to give and mostly follow the path leading to those nodes.", "Q1": "No. I stuck to the same strategy all the time.", "Q2": "It was very difficult because I would end up losing instead of winning more bonus."}, "trial_id": "self_report_control", "trial_type": "survey-text", "trial_index": 50, "time_elapsed": 1741017, "internal_node_id": "0.0-6.0-3.0"}}, {"uniqueid": "w29615251:a37615695", "current_trial": 51, "dateTime": 1693582605758, "trialdata": {"rt": 34949, "response": {"gender": "female", "age": "22", "colorblind": "0", "effort": "0"}, "trial_type": "survey-html-form", "trial_index": 51, "time_elapsed": 1776069, "internal_node_id": "0.0-6.0-4.0"}}, {"uniqueid": "w29615251:a37615695", "current_trial": 52, "dateTime": 1693582665617, "trialdata": {"rt": 59751, "response": {"Q0": "no", "Q1": "Yes I realized I had participated in such a game before.", "Q2": "none"}, "trial_type": "survey-text", "trial_index": 52, "time_elapsed": 1835928, "internal_node_id": "0.0-6.0-5.0"}}, {"uniqueid": "w29615251:a37615695", "current_trial": 53, "dateTime": 1693582727360, "trialdata": {"rt": 61543, "stimulus": "<h1>Completion Code Instructions (1/2)</h1>\n<br><br><br><br>\nYou have reached the end of the experiment! The completion code consists of two parts: (1) a code with 2 characters (2) a code with 6 characters. On this page, you will receive the second part of the code. The first part of the completion code will be on the next page.\n<br><br>\nThe second part of your completion code is: <b>EWEK22</b>\n<br><br>\nPlease note this down. Then, press 'Next' in order to find the first part of your completion code. Once the data has been saved, you will receive this code either in this window or in the original browser window where you started the experiment.\n <br><br>\n<h2 style='color: red;'>Note: this is <strong>NOT</strong> the full completion code. Copy this down and click 'Next' to get the full completion code on the next page.</h2>", "response": 0, "trial_type": "html-button-response", "trial_index": 53, "time_elapsed": 1897671, "internal_node_id": "0.0-6.0-6.0"}}, {"uniqueid": "w29615251:a37615695", "current_trial": 54, "dateTime": 1693582728445, "trialdata": {"success": true, "trial_type": "fullscreen", "trial_index": 54, "time_elapsed": 1898757, "internal_node_id": "0.0-7.0"}}], "questiondata": {"params": {"CODE": "C6DMOQA6", "MIN_TIME": 14, "inspectCost": 1, "startTime": "Fri Sep 01 2023 17:06:52 GMT+0200 (South Africa Standard Time)", "bonusRate": 0.002, "variance": "1_2_4_8_44", "branching": "31123"}, "final_score": -642.4}, "eventdata": [{"eventtype": "initialized", "value": null, "timestamp": 1693580807654, "interval": 0}, {"eventtype": "window_resize", "value": [1024, 654], "timestamp": 1693580807654, "interval": 0}, {"eventtype": "window_resize", "value": [1024, 654], "timestamp": 1693580811944, "interval": 4290}, {"eventtype": "window_resize", "value": [1366, 768], "timestamp": 1693580836076, "interval": 24132}], "useragent": "Mozilla/5.0 (Windows NT 10.0; Win64; x64) AppleWebKit/537.36 (KHTML, like Gecko) Chrome/116.0.0.0 Safari/537.36", "mode": "live", "id": "w29615251:a37615695", "status": "user data saved", "Beginhit": "2023-09-01 15:06:00.079715", "Beginexp": "2023-09-01 15:07:18.319209", "Endhit": "2023-09-01 15:38:57.251761", "psiturkStatus": 3, "browser": "<redacted>", "platform": "windows", "language": "en-GB", "excludeReason": "alreadyparticipated"}