{"condition": 1, "counterbalance": 0, "assignmentId": "a71821904", "workerId": "w95991684", "hitId": "h91230412", "currenttrial": 68, "bonus": 0, "data": [{"uniqueid": "w95991684:a71821904", "current_trial": 0, "dateTime": 1691142812564, "trialdata": {"success": true, "trial_type": "fullscreen", "trial_index": 0, "time_elapsed": 4822, "internal_node_id": "0.0-0.0"}}, {"uniqueid": "w95991684:a71821904", "current_trial": 1, "dateTime": 1691142828553, "trialdata": {"view_history": [{"page_index": 0, "viewing_time": 15983}], "rt": 15983, "trial_id": "exp_instructions_misaligned", "trial_type": "instructions", "trial_index": 1, "time_elapsed": 20812, "internal_node_id": "0.0-1.0"}}, {"uniqueid": "w95991684:a71821904", "current_trial": 2, "dateTime": 1691142833920, "trialdata": {"success": true, "trial_type": "fullscreen", "trial_index": 2, "time_elapsed": 26179, "internal_node_id": "0.0-2.0-0.0"}}, {"uniqueid": "w95991684:a71821904", "current_trial": 3, "dateTime": 1691142915160, "trialdata": {"view_history": [{"page_index": 0, "viewing_time": 23694}, {"page_index": 1, "viewing_time": 32152}, {"page_index": 2, "viewing_time": 10784}, {"page_index": 3, "viewing_time": 14608}], "rt": 81238, "trial_id": "mouselab_instructions_1_misaligned", "trial_type": "instructions", "trial_index": 3, "time_elapsed": 107419, "internal_node_id": "0.0-2.0-1.0"}}, {"uniqueid": "w95991684:a71821904", "current_trial": 4, "dateTime": 1691142941156, "trialdata": {"revealed_states": [], "clicked_states": ["26", "15", "19", "3", "1", "14"], "num_clicks_accrued": [0, 0, 0, 0, 0, 0, 0, 0, 0, 0, 0, 0, 0], "stateRewards": ["", 10, -10, -10, -10, 10, 10, -10, -10, 10, 10, 10, -10, 10, -10, -10, 10, -10, 10, 10, 10, 10, -10, 10, 10, -10, -10, 10, -10, 10, -10, 10, -10, -10], "withholdReward": false, "trial_id": "practice_1", "block": "test", "trialIndex": 0, "score": -9.5, "costs": -3, "simulationMode": [null, null, null, null, null], "rewards": [10, -10, -10, -10, 10], "path": ["0", "0", "1", "2", "3", "4", "5"], "rt": [15737, 775, 931, 260, 1614], "actions": ["up", "up", "up", "right", "up"], "actionTimes": [17711, 18996, 20469, 21236, 23357], "queries": {"click": {"state": {"target": ["26", "15", "19", "3", "1", "14"], "time": [5177, 7252, 8436, 9612, 10777, 12371]}, "edge": {"target": [], "time": []}}, "mouseover": {"state": {"target": ["1", "28", "26", "26", "25", "24", "24", "25", "24", "23", "15", "14", "19", "13", "7", "3", "2", "1", "1", "12", "14", "19", "22", "12"], "time": [3654, 4601, 4636, 4703, 5584, 5701, 6034, 6350, 6687, 6710, 6987, 7567, 7901, 8984, 9050, 9417, 9850, 10568, 10652, 11767, 12120, 12951, 13384, 13503]}, "edge": {"target": [], "time": []}}, "mouseout": {"state": {"target": ["12", "1", "28", "26", "26", "25", "24", "24", "25", "24", "23", "15", "14", "19", "13", "7", "3", "2", "1", "1", "12", "14", "19", "22", "12"], "time": [620, 4570, 4621, 4653, 5484, 5600, 5718, 6217, 6670, 6704, 6722, 7518, 7867, 8951, 9001, 9134, 9817, 10518, 10584, 11668, 11800, 12617, 13367, 13400, 13553]}, "edge": {"target": [], "time": []}}}, "displayed_time": "23.86", "trialTime": 25436, "trial_type": "mouselab-mdp", "trial_index": 4, "time_elapsed": 133414, "internal_node_id": "0.0-2.0-2.0-0.0"}}, {"uniqueid": "w95991684:a71821904", "current_trial": 5, "dateTime": 1691142962380, "trialdata": {"revealed_states": [], "clicked_states": ["3", "25", "26", "14", "15", "1", "23"], "num_clicks_accrued": [0, 0, 0, 0, 0, 0, 0, 0, 0, 0, 0, 0, 0], "stateRewards": ["", -10, 10, 10, -10, -10, -10, 10, -10, 10, -10, -10, -10, 10, 10, 10, -10, 10, -10, 10, -10, -10, 10, -10, 10, 10, -10, -10, 10, 10, -10, 10, 10, -10], "withholdReward": false, "trial_id": "practice_2", "block": "test", "trialIndex": 1, "score": 10, "costs": -3.5, "simulationMode": [null, null, null, null, null], "rewards": [-10, 10, 10, 10, -10], "path": ["0", "0", "12", "13", "14", "19", "21"], "rt": [12950, 615, 517, 185, 913], "actions": ["right", "right", "right", "down", "down"], "actionTimes": [14532, 15642, 16682, 17362, 18778], "queries": {"click": {"state": {"target": ["3", "25", "26", "14", "15", "1", "23"], "time": [3570, 4792, 6688, 8144, 9360, 11776, 13273]}, "edge": {"target": [], "time": []}}, "mouseover": {"state": {"target": ["1", "2", "3", "2", "10", "26", "25", "25", "26", "28", "26", "28", "13", "14", "15", "13", "22", "1", "2", "23", "0", "20"], "time": [2209, 2292, 2525, 3989, 4039, 4173, 4256, 4506, 5173, 6042, 6456, 6923, 7006, 7389, 8573, 9923, 10425, 11389, 12089, 13109, 13489, 13540]}, "edge": {"target": [], "time": []}}, "mouseout": {"state": {"target": ["1", "1", "2", "3", "2", "10", "26", "25", "25", "26", "28", "26", "28", "13", "14", "15", "13", "22", "1", "2", "1", "23", "0", "20"], "time": [1040, 2275, 2309, 3940, 4023, 4056, 4223, 4356, 5123, 6009, 6422, 6780, 6940, 7273, 8510, 9772, 9989, 11009, 12022, 12772, 12841, 13472, 13506, 13557]}, "edge": {"target": [], "time": []}}}, "displayed_time": "19.28", "trialTime": 20866, "trial_type": "mouselab-mdp", "trial_index": 5, "time_elapsed": 154638, "internal_node_id": "0.0-2.0-2.0-1.0"}}, {"uniqueid": "w95991684:a71821904", "current_trial": 6, "dateTime": 1691142970616, "trialdata": {"view_history": [{"page_index": 0, "viewing_time": 3480}, {"page_index": 1, "viewing_time": 4752}], "rt": 8232, "trial_id": "mouselab_instructions_2_misaligned", "trial_type": "instructions", "trial_index": 6, "time_elapsed": 162875, "internal_node_id": "0.0-2.0-3.0"}}, {"uniqueid": "w95991684:a71821904", "current_trial": 7, "dateTime": 1691142999952, "trialdata": {"rt": 29333, "response": {"Q0": "The cost for clicking on nodes may vary between nodes.", "Q1": "The better I perform the higher my bonus will be.", "Q2": "No, the amount of cash at each node of the web may be different each time.", "Q3": "To get the highest total score.", "Q4": "Any time during the round.", "Q5": "10 seconds"}, "question_order": [0, 1, 2, 3, 4, 5], "correct": {"Q0": "The cost for clicking on nodes may vary between nodes.", "Q1": "The better I perform the higher my bonus will be.", "Q2": "No, the amount of cash at each node of the web may be different each time.", "Q3": "To get the highest total score.", "Q4": "Only before moving the spider.", "Q5": "3 seconds"}, "trial_id": "mouselab_quiz_misaligned", "trial_type": "survey-multi-choice", "trial_index": 7, "time_elapsed": 192211, "internal_node_id": "0.0-2.0-4.0"}}, {"uniqueid": "w95991684:a71821904", "current_trial": 8, "dateTime": 1691143004776, "trialdata": {"success": true, "trial_type": "fullscreen", "trial_index": 8, "time_elapsed": 197035, "internal_node_id": "0.0-2.1-0.1"}}, {"uniqueid": "w95991684:a71821904", "current_trial": 9, "dateTime": 1691143014486, "trialdata": {"view_history": [{"page_index": 0, "viewing_time": 4083}, {"page_index": 1, "viewing_time": 3560}, {"page_index": 2, "viewing_time": 1120}, {"page_index": 3, "viewing_time": 944}], "rt": 9707, "trial_id": "mouselab_instructions_1_misaligned", "trial_type": "instructions", "trial_index": 9, "time_elapsed": 206745, "internal_node_id": "0.0-2.1-1.1"}}, {"uniqueid": "w95991684:a71821904", "current_trial": 10, "dateTime": 1691143031984, "trialdata": {"revealed_states": [], "clicked_states": ["5", "9", "21", "16", "27", "32"], "num_clicks_accrued": [0, 0, 0, 0, 0, 0, 0, 0, 0, 0, 0, 0, 0], "stateRewards": ["", 10, -10, -10, -10, 10, 10, -10, -10, 10, 10, 10, -10, 10, -10, -10, 10, -10, 10, 10, 10, 10, -10, 10, 10, -10, -10, 10, -10, 10, -10, 10, -10, -10], "withholdReward": false, "trial_id": "practice_1", "block": "test", "trialIndex": 2, "score": -9.5, "costs": -3, "simulationMode": [null, null, null, null, null], "rewards": [10, 10, -10, -10, -10], "path": ["0", "0", "23", "24", "25", "26", "28"], "rt": [10529, 539, 449, 319, 149], "actions": ["left", "left", "left", "up", "right"], "actionTimes": [11624, 12655, 13599, 14423, 15071], "queries": {"click": {"state": {"target": ["5", "9", "21", "16", "27", "32"], "time": [3190, 4445, 6014, 7226, 9077, 10285]}, "edge": {"target": [], "time": []}}, "mouseover": {"state": {"target": ["1", "2", "3", "5", "9", "8", "1", "22", "21", "19", "14", "15", "16", "27", "27", "26", "25", "30", "32"], "time": [2232, 2332, 2499, 2999, 3713, 4863, 4929, 5013, 5213, 6354, 6379, 6413, 6546, 7729, 8648, 9429, 9529, 9696, 9829]}, "edge": {"target": [], "time": []}}, "mouseout": {"state": {"target": ["0", "1", "2", "3", "5", "5", "9", "8", "1", "22", "21", "19", "14", "15", "16", "27", "27", "26", "25", "30", "32"], "time": [2165, 2282, 2398, 2682, 3305, 3579, 4829, 4879, 4946, 5129, 6349, 6364, 6396, 6463, 7646, 7746, 9396, 9479, 9663, 9765, 10713]}, "edge": {"target": [], "time": []}}}, "displayed_time": "15.57", "trialTime": 17030, "trial_type": "mouselab-mdp", "trial_index": 10, "time_elapsed": 224243, "internal_node_id": "0.0-2.1-2.1-0.1"}}, {"uniqueid": "w95991684:a71821904", "current_trial": 11, "dateTime": 1691143041426, "trialdata": {"revealed_states": [], "clicked_states": [], "num_clicks_accrued": [0, 0, 0, 0, 0, 0, 0, 0, 0, 0, 0, 0, 0], "stateRewards": ["", -10, 10, 10, -10, -10, -10, 10, -10, 10, -10, -10, -10, 10, 10, 10, -10, 10, -10, 10, -10, -10, 10, -10, 10, 10, -10, -10, 10, 10, -10, 10, 10, -10], "withholdReward": false, "trial_id": "practice_2", "block": "test", "trialIndex": 3, "score": 13.5, "costs": 0, "simulationMode": [null, null, null, null, null], "rewards": [-10, 10, 10, 10, -10], "path": ["0", "0", "12", "13", "14", "19", "21"], "rt": [739, 204, 369, 219, 245], "actions": ["right", "right", "right", "down", "down"], "actionTimes": [3638, 4343, 5215, 5927, 6671], "queries": {"click": {"state": {"target": [], "time": []}, "edge": {"target": [], "time": []}}, "mouseover": {"state": {"target": [], "time": []}, "edge": {"target": [], "time": []}}, "mouseout": {"state": {"target": ["0"], "time": [2915]}, "edge": {"target": [], "time": []}}}, "displayed_time": "7.18", "trialTime": 9095, "trial_type": "mouselab-mdp", "trial_index": 11, "time_elapsed": 233684, "internal_node_id": "0.0-2.1-2.1-1.1"}}, {"uniqueid": "w95991684:a71821904", "current_trial": 12, "dateTime": 1691143056246, "trialdata": {"view_history": [{"page_index": 0, "viewing_time": 11504}, {"page_index": 1, "viewing_time": 3312}], "rt": 14815, "trial_id": "mouselab_instructions_2_misaligned", "trial_type": "instructions", "trial_index": 12, "time_elapsed": 248505, "internal_node_id": "0.0-2.1-3.1"}}, {"uniqueid": "w95991684:a71821904", "current_trial": 13, "dateTime": 1691143082854, "trialdata": {"rt": 26606, "response": {"Q0": "The cost for clicking on nodes may vary between nodes.", "Q1": "The better I perform the higher my bonus will be.", "Q2": "No, the amount of cash at each node of the web may be different each time.", "Q3": "To get the highest total score.", "Q4": "Any time during the round.", "Q5": "3 seconds"}, "question_order": [0, 1, 2, 3, 4, 5], "correct": {"Q0": "The cost for clicking on nodes may vary between nodes.", "Q1": "The better I perform the higher my bonus will be.", "Q2": "No, the amount of cash at each node of the web may be different each time.", "Q3": "To get the highest total score.", "Q4": "Only before moving the spider.", "Q5": "3 seconds"}, "trial_id": "mouselab_quiz_misaligned", "trial_type": "survey-multi-choice", "trial_index": 13, "time_elapsed": 275113, "internal_node_id": "0.0-2.1-4.1"}}, {"uniqueid": "w95991684:a71821904", "current_trial": 14, "dateTime": 1691143090118, "trialdata": {"success": true, "trial_type": "fullscreen", "trial_index": 14, "time_elapsed": 282377, "internal_node_id": "0.0-2.2-0.2"}}, {"uniqueid": "w95991684:a71821904", "current_trial": 15, "dateTime": 1691143153173, "trialdata": {"view_history": [{"page_index": 0, "viewing_time": 19708}, {"page_index": 1, "viewing_time": 39968}, {"page_index": 2, "viewing_time": 1776}, {"page_index": 3, "viewing_time": 1600}], "rt": 63052, "trial_id": "mouselab_instructions_1_misaligned", "trial_type": "instructions", "trial_index": 15, "time_elapsed": 345432, "internal_node_id": "0.0-2.2-1.2"}}, {"uniqueid": "w95991684:a71821904", "current_trial": 16, "dateTime": 1691143162649, "trialdata": {"revealed_states": [], "clicked_states": [], "num_clicks_accrued": [0, 0, 0, 0, 0, 0, 0, 0, 0, 0, 0, 0, 0], "stateRewards": ["", 10, -10, -10, -10, 10, 10, -10, -10, 10, 10, 10, -10, 10, -10, -10, 10, -10, 10, 10, 10, 10, -10, 10, 10, -10, -10, 10, -10, 10, -10, 10, -10, -10], "withholdReward": false, "trial_id": "practice_1", "block": "test", "trialIndex": 4, "score": -26.5, "costs": 0, "simulationMode": [null, null, null, null, null], "rewards": [-10, 10, -10, -10, -10], "path": ["0", "0", "12", "13", "14", "15", "17"], "rt": [719, 304, 168, 127, 795], "actions": ["right", "right", "right", "up", "right"], "actionTimes": [3715, 4522, 5186, 5818, 7114], "queries": {"click": {"state": {"target": [], "time": []}, "edge": {"target": [], "time": []}}, "mouseover": {"state": {"target": [], "time": []}, "edge": {"target": [], "time": []}}, "mouseout": {"state": {"target": ["12", "19", "20", "22", "0"], "time": [349, 399, 416, 2399, 3011]}, "edge": {"target": [], "time": []}}}, "displayed_time": "7.62", "trialTime": 9114, "trial_type": "mouselab-mdp", "trial_index": 16, "time_elapsed": 354907, "internal_node_id": "0.0-2.2-2.2-0.2"}}, {"uniqueid": "w95991684:a71821904", "current_trial": 17, "dateTime": 1691143171025, "trialdata": {"revealed_states": [], "clicked_states": [], "num_clicks_accrued": [0, 0, 0, 0, 0, 0, 0, 0, 0, 0, 0, 0, 0], "stateRewards": ["", -10, 10, 10, -10, -10, -10, 10, -10, 10, -10, -10, -10, 10, 10, 10, -10, 10, -10, 10, -10, -10, 10, -10, 10, 10, -10, -10, 10, 10, -10, 10, 10, -10], "withholdReward": false, "trial_id": "practice_2", "block": "test", "trialIndex": 5, "score": 13.5, "costs": 0, "simulationMode": [null, null, null, null, null], "rewards": [-10, 10, 10, -10, 10], "path": ["0", "0", "23", "24", "25", "30", "31"], "rt": [1234, 344, 203, 258, 63], "actions": ["left", "left", "left", "down", "right"], "actionTimes": [3728, 4576, 5280, 6040, 6623], "queries": {"click": {"state": {"target": [], "time": []}, "edge": {"target": [], "time": []}}, "mouseover": {"state": {"target": [], "time": []}, "edge": {"target": [], "time": []}}, "mouseout": {"state": {"target": ["14", "13", "12"], "time": [1792, 1842, 1992]}, "edge": {"target": [], "time": []}}}, "displayed_time": "7.13", "trialTime": 8016, "trial_type": "mouselab-mdp", "trial_index": 17, "time_elapsed": 363283, "internal_node_id": "0.0-2.2-2.2-1.2"}}, {"uniqueid": "w95991684:a71821904", "current_trial": 18, "dateTime": 1691143176421, "trialdata": {"view_history": [{"page_index": 0, "viewing_time": 3079}, {"page_index": 1, "viewing_time": 2312}], "rt": 5391, "trial_id": "mouselab_instructions_2_misaligned", "trial_type": "instructions", "trial_index": 18, "time_elapsed": 368680, "internal_node_id": "0.0-2.2-3.2"}}, {"uniqueid": "w95991684:a71821904", "current_trial": 19, "dateTime": 1691143192901, "trialdata": {"rt": 16478, "response": {"Q0": "The cost for clicking on nodes may vary between nodes.", "Q1": "The better I perform the higher my bonus will be.", "Q2": "No, the amount of cash at each node of the web may be different each time.", "Q3": "To get the highest total score.", "Q4": "Only before moving the spider.", "Q5": "3 seconds"}, "question_order": [0, 1, 2, 3, 4, 5], "correct": {"Q0": "The cost for clicking on nodes may vary between nodes.", "Q1": "The better I perform the higher my bonus will be.", "Q2": "No, the amount of cash at each node of the web may be different each time.", "Q3": "To get the highest total score.", "Q4": "Only before moving the spider.", "Q5": "3 seconds"}, "trial_id": "mouselab_quiz_misaligned", "trial_type": "survey-multi-choice", "trial_index": 19, "time_elapsed": 385160, "internal_node_id": "0.0-2.2-4.2"}}, {"uniqueid": "w95991684:a71821904", "current_trial": 20, "dateTime": 1691143196213, "trialdata": {"rt": 3306, "stimulus": "\n<h1> Get ready to start the game! </h1>\n\nThank you for reading the instructions. Get ready start with the 40 rounds of this game.\n<br><br>\nIf you need to take a break, feel free to take one after the end of a round, before continuing to the next one.\n<br><br>\nRemember, the more money the spider gets, the bigger your bonus will be!\n<br><br>\n<div style='text-align: center;'>Press <code>space</code> to begin.</div>\n\n<br><br>\n(If, at any point, the <code>space</code> key does not take you to the next page, click once on the text and try again.)", "response": " ", "trial_id": "mdp_ready", "trial_type": "html-keyboard-response", "trial_index": 20, "time_elapsed": 388472, "internal_node_id": "0.0-4.0-0.0"}}, {"uniqueid": "w95991684:a71821904", "current_trial": 21, "dateTime": 1691143214936, "trialdata": {"revealed_states": [], "clicked_states": [], "num_clicks_accrued": [0, 0, 0, 0, 0, 0, 0, 0, 0, 0, 0, 0, 0], "stateRewards": ["", 1, 1, -3, 2, 22, -25, -11, -5, 50, 49, 3, 1, -1, 8, 14, -85, -30, 57, -6, -39, -16, 59, -2, -1, 5, 5, 59, -16, 8, 4, 67, 56, -9], "withholdReward": false, "trial_id": "mdp_trial_1", "block": "test", "trialIndex": 6, "score": -14, "costs": 0, "simulationMode": [null, null, null, null, null], "rewards": [1, -1, 8, -6, -16], "path": ["0", "0", "12", "13", "14", "19", "21"], "rt": [5086, 217, 120, 3, 6], "actions": ["right", "right", "right", "down", "down"], "actionTimes": [7957, 8691, 9316, 9826, 10363], "queries": {"click": {"state": {"target": [], "time": []}, "edge": {"target": [], "time": []}}, "mouseover": {"state": {"target": ["0", "23", "31", "21", "21", "19", "14", "13", "14", "19", "21"], "time": [3290, 3337, 3454, 3604, 3839, 5256, 5306, 5439, 5723, 5923, 6156]}, "edge": {"target": [], "time": []}}, "mouseout": {"state": {"target": ["1", "0", "23", "31", "21", "21", "19", "14", "13", "14", "19", "21"], "time": [1038, 3307, 3421, 3520, 3620, 5222, 5289, 5390, 5506, 5839, 6056, 7106]}, "edge": {"target": [], "time": []}}}, "displayed_time": "16.87", "trialTime": 18324, "trial_type": "mouselab-mdp", "trial_index": 21, "time_elapsed": 407195, "internal_node_id": "0.0-4.0-1.0-0.0"}}, {"uniqueid": "w95991684:a71821904", "current_trial": 22, "dateTime": 1691143233177, "trialdata": {"revealed_states": [], "clicked_states": ["21"], "num_clicks_accrued": [0, 0, 0, 0, 0, 0, 0, 0, 0, 0, 0, 0, 0], "stateRewards": ["", -1, -4, -1, -11, 43, 69, 39, 4, 17, -20, -82, -2, -1, 4, 8, -79, 24, -79, 11, 36, 64, 41, 2, 4, -1, 11, -79, -47, 75, -3, 63, -36, -19], "withholdReward": false, "trial_id": "mdp_trial_2", "block": "test", "trialIndex": 7, "score": -65.15, "costs": -2.15, "simulationMode": [null, null, null, null, null, null], "rewards": [2, 4, -1, 11, -79], "path": ["0", "0", "23", "24", "25", "26", "27"], "rt": [2293, 1165, 258, 223, 160, 131], "actions": ["right", "left", "left", "left", "up", "up"], "actionTimes": [4806, 5975, 6741, 7486, 8158, 8814], "queries": {"click": {"state": {"target": ["21"], "time": [3949]}, "edge": {"target": [], "time": []}}, "mouseover": {"state": {"target": ["20", "21"], "time": [2577, 3130]}, "edge": {"target": [], "time": []}}, "mouseout": {"state": {"target": ["2", "1", "0", "20", "21", "21"], "time": [1545, 1778, 2078, 2593, 4478, 5677]}, "edge": {"target": [], "time": []}}}, "displayed_time": "16.52", "trialTime": 17838, "trial_type": "mouselab-mdp", "trial_index": 22, "time_elapsed": 425435, "internal_node_id": "0.0-4.0-1.0-1.0"}}, {"uniqueid": "w95991684:a71821904", "current_trial": 23, "dateTime": 1691143251408, "trialdata": {"revealed_states": [], "clicked_states": ["4"], "num_clicks_accrued": [0, 0, 0, 0, 0, 0, 0, 0, 0, 0, 0, 0, 0], "stateRewards": ["", 2, 3, 8, 11, 25, -80, 6, -4, -56, 84, -23, -2, -4, -3, 4, -51, -9, -61, -15, -64, 67, -35, 1, -1, -7, -6, 83, 59, -15, 12, -79, 56, 41], "withholdReward": false, "trial_id": "mdp_trial_3", "block": "test", "trialIndex": 8, "score": -48.55, "costs": -1.55, "simulationMode": [null, null, null, null, null], "rewards": [2, 3, 8, -4, -56], "path": ["0", "0", "1", "2", "3", "8", "9"], "rt": [2429, 215, 170, 94, 137], "actions": ["up", "up", "up", "left", "up"], "actionTimes": [5088, 5816, 6504, 7112, 7776], "queries": {"click": {"state": {"target": ["4"], "time": [3848]}, "edge": {"target": [], "time": []}}, "mouseover": {"state": {"target": ["1", "3", "4"], "time": [2917, 3501, 3602]}, "edge": {"target": [], "time": []}}, "mouseout": {"state": {"target": ["0", "1", "3", "4"], "time": [2047, 2951, 3584, 3930]}, "edge": {"target": [], "time": []}}}, "displayed_time": "16.66", "trialTime": 17824, "trial_type": "mouselab-mdp", "trial_index": 23, "time_elapsed": 443667, "internal_node_id": "0.0-4.0-1.0-2.0"}}, {"uniqueid": "w95991684:a71821904", "current_trial": 24, "dateTime": 1691143269250, "trialdata": {"revealed_states": [], "clicked_states": [], "num_clicks_accrued": [0, 0, 0, 0, 0, 0, 0, 0, 0, 0, 0, 0, 0], "stateRewards": ["", 1, -1, 1, 13, 31, -56, 72, 2, 41, 5, 63, -2, -3, -2, 3, -71, -26, 52, 13, -31, 24, -67, 2, -2, 5, 4, 66, 43, 72, 9, 86, -26, 44], "withholdReward": false, "trial_id": "mdp_trial_4", "block": "test", "trialIndex": 9, "score": 30, "costs": 0, "simulationMode": [null, null, null, null, null], "rewards": [-2, -3, -2, 13, 24], "path": ["0", "0", "12", "13", "14", "19", "21"], "rt": [1024, 40, 59, 595, 119], "actions": ["right", "right", "right", "down", "down"], "actionTimes": [3233, 3784, 4337, 5456, 6096], "queries": {"click": {"state": {"target": [], "time": []}, "edge": {"target": [], "time": []}}, "mouseover": {"state": {"target": [], "time": []}, "edge": {"target": [], "time": []}}, "mouseout": {"state": {"target": ["15", "0", "0"], "time": [1509, 1559, 2224]}, "edge": {"target": [], "time": []}}}, "displayed_time": "16.21", "trialTime": 17443, "trial_type": "mouselab-mdp", "trial_index": 24, "time_elapsed": 461509, "internal_node_id": "0.0-4.0-1.0-3.0"}}, {"uniqueid": "w95991684:a71821904", "current_trial": 25, "dateTime": 1691143286942, "trialdata": {"revealed_states": [], "clicked_states": [], "num_clicks_accrued": [0, 0, 0, 0, 0, 0, 0, 0, 0, 0, 0, 0, 0], "stateRewards": ["", 1, 2, 7, 13, 88, -71, 27, 3, 60, 5, -53, -2, 2, -6, -1, -30, 79, 47, -4, -14, 46, 68, 1, 1, 8, 10, -14, 86, 48, -11, -67, -44, 5], "withholdReward": false, "trial_id": "mdp_trial_5", "block": "test", "trialIndex": 10, "score": -24, "costs": 0, "simulationMode": [null, null, null, null, null], "rewards": [-2, 2, -6, -4, -14], "path": ["0", "0", "12", "13", "14", "19", "20"], "rt": [741, 49, 64, 138, 155], "actions": ["right", "right", "right", "down", "right"], "actionTimes": [2971, 3522, 4122, 4762, 5418], "queries": {"click": {"state": {"target": [], "time": []}, "edge": {"target": [], "time": []}}, "mouseover": {"state": {"target": [], "time": []}, "edge": {"target": [], "time": []}}, "mouseout": {"state": {"target": ["6", "7", "1"], "time": [1489, 1572, 1722]}, "edge": {"target": [], "time": []}}}, "displayed_time": "16.23", "trialTime": 17266, "trial_type": "mouselab-mdp", "trial_index": 25, "time_elapsed": 479200, "internal_node_id": "0.0-4.0-1.0-4.0"}}, {"uniqueid": "w95991684:a71821904", "current_trial": 26, "dateTime": 1691143304959, "trialdata": {"revealed_states": [], "clicked_states": [], "num_clicks_accrued": [0, 0, 0, 0, 0, 0, 0, 0, 0, 0, 0, 0, 0], "stateRewards": ["", -1, 3, -4, -14, 78, 67, 2, 13, -32, 28, 39, -2, 1, -4, -4, -4, -42, -86, 11, 64, -29, -32, -1, -4, 2, -7, 5, 68, -61, 2, -21, 85, 50], "withholdReward": false, "trial_id": "mdp_trial_6", "block": "test", "trialIndex": 11, "score": -26, "costs": 0, "simulationMode": [null, null, null, null, null], "rewards": [-2, 1, -4, 11, -32], "path": ["0", "0", "12", "13", "14", "19", "22"], "rt": [676, 51, 28, 49, 120], "actions": ["right", "right", "right", "down", "left"], "actionTimes": [2647, 3190, 3734, 4326, 4959], "queries": {"click": {"state": {"target": [], "time": []}, "edge": {"target": [], "time": []}}, "mouseover": {"state": {"target": [], "time": []}, "edge": {"target": [], "time": []}}, "mouseout": {"state": {"target": ["5", "4", "0", "16", "15", "13"], "time": [1287, 1321, 1986, 16723, 16772, 16806]}, "edge": {"target": [], "time": []}}}, "displayed_time": "15.97", "trialTime": 17631, "trial_type": "mouselab-mdp", "trial_index": 26, "time_elapsed": 497218, "internal_node_id": "0.0-4.0-1.0-5.0"}}, {"uniqueid": "w95991684:a71821904", "current_trial": 27, "dateTime": 1691143325344, "trialdata": {"revealed_states": [], "clicked_states": ["16"], "num_clicks_accrued": [0, 0, 0, 0, 0, 0, 0, 0, 0, 0, 0, 0, 0], "stateRewards": ["", 1, 4, 7, -16, -84, -6, -46, -12, -7, -49, -26, -1, 2, -4, 2, 22, 37, -64, 1, 88, -13, -10, 1, -4, -2, 5, 2, -10, -34, 9, 66, 55, 38], "withholdReward": false, "trial_id": "mdp_trial_7", "block": "test", "trialIndex": 12, "score": 83.85, "costs": -2.15, "simulationMode": [null, null, null, null, null, null], "rewards": [-1, 2, -4, 1, 88], "path": ["0", "0", "12", "13", "14", "19", "20"], "rt": [1481, 1115, 170, 153, 215, 266], "actions": ["right", "right", "right", "right", "down", "right"], "actionTimes": [2780, 3898, 4604, 5267, 5979, 6747], "queries": {"click": {"state": {"target": ["16"], "time": [1986]}, "edge": {"target": [], "time": []}}, "mouseover": {"state": {"target": ["16", "15", "0", "23"], "time": [1793, 3594, 3644, 3666]}, "edge": {"target": [], "time": []}}, "mouseout": {"state": {"target": ["15", "18", "16", "15", "0", "23", "12", "12", "13"], "time": [544, 611, 2277, 3610, 3662, 3794, 4077, 4544, 4927]}, "edge": {"target": [], "time": []}}}, "displayed_time": "15.30", "trialTime": 19956, "trial_type": "mouselab-mdp", "trial_index": 27, "time_elapsed": 517602, "internal_node_id": "0.0-4.0-1.0-6.0"}}, {"uniqueid": "w95991684:a71821904", "current_trial": 28, "dateTime": 1691143342694, "trialdata": {"revealed_states": [], "clicked_states": ["20"], "num_clicks_accrued": [0, 0, 0, 0, 0, 0, 0, 0, 0, 0, 0, 0, 0], "stateRewards": ["", -2, 2, 2, -6, 9, 37, 50, -13, -7, -18, -75, -2, -4, 4, 7, 23, -57, -66, -7, -81, -48, -76, 1, 1, -8, 1, 51, -2, 70, 14, 59, 71, -37], "withholdReward": false, "trial_id": "mdp_trial_8", "block": "test", "trialIndex": 13, "score": -63.15, "costs": -2.15, "simulationMode": [null, null, null, null, null, null], "rewards": [-2, -4, 4, 7, -66], "path": ["0", "0", "12", "13", "14", "15", "18"], "rt": [1622, 1167, 83, 248, 112, 472], "actions": ["right", "right", "right", "right", "up", "left"], "actionTimes": [2936, 4107, 4705, 5466, 6082, 7075], "queries": {"click": {"state": {"target": ["20"], "time": [1945]}, "edge": {"target": [], "time": []}}, "mouseover": {"state": {"target": ["20", "20"], "time": [1341, 1702]}, "edge": {"target": [], "time": []}}, "mouseout": {"state": {"target": ["13", "12", "0", "20"], "time": [632, 648, 665, 1366]}, "edge": {"target": [], "time": []}}}, "displayed_time": "15.33", "trialTime": 16929, "trial_type": "mouselab-mdp", "trial_index": 28, "time_elapsed": 534952, "internal_node_id": "0.0-4.0-1.0-7.0"}}, {"uniqueid": "w95991684:a71821904", "current_trial": 29, "dateTime": 1691143359679, "trialdata": {"revealed_states": [], "clicked_states": ["28"], "num_clicks_accrued": [0, 0, 0, 0, 0, 0, 0, 0, 0, 0, 0, 0, 0], "stateRewards": ["", 2, -3, -4, -1, 25, -16, 16, 10, -71, -20, -55, 1, 3, -4, -9, 1, 32, 11, -6, 32, -50, -41, -1, 4, 4, -8, 7, -81, 70, 2, -52, 45, -10], "withholdReward": false, "trial_id": "mdp_trial_9", "block": "test", "trialIndex": 14, "score": -49.15, "costs": -2.15, "simulationMode": [null, null, null, null, null, null], "rewards": [1, 3, -4, -6, -41], "path": ["0", "0", "12", "13", "14", "19", "22"], "rt": [2557, 489, 254, 187, 54, 225], "actions": ["right", "right", "right", "right", "down", "left"], "actionTimes": [4008, 4504, 5273, 5953, 6520, 7257], "queries": {"click": {"state": {"target": ["28"], "time": [2288]}, "edge": {"target": [], "time": []}}, "mouseover": {"state": {"target": ["23", "26", "28", "23", "31", "31", "22"], "time": [1615, 1798, 2049, 2813, 3130, 3296, 3896]}, "edge": {"target": [], "time": []}}, "mouseout": {"state": {"target": ["20", "14", "23", "0", "23", "26", "28", "23", "31", "31", "22"], "time": [28, 95, 980, 1582, 1649, 1998, 2696, 2879, 3146, 3746, 3947]}, "edge": {"target": [], "time": []}}}, "displayed_time": "15.45", "trialTime": 16561, "trial_type": "mouselab-mdp", "trial_index": 29, "time_elapsed": 551937, "internal_node_id": "0.0-4.0-1.0-8.0"}}, {"uniqueid": "w95991684:a71821904", "current_trial": 30, "dateTime": 1691143377614, "trialdata": {"revealed_states": [], "clicked_states": [], "num_clicks_accrued": [0, 0, 0, 0, 0, 0, 0, 0, 0, 0, 0, 0, 0], "stateRewards": ["", 2, 3, 3, 10, 19, -21, 6, 9, 54, 68, 16, 2, 2, -6, -8, 40, -2, -75, -2, -42, 55, 59, -1, 2, 4, -14, 11, -34, -30, -6, 61, -53, 13], "withholdReward": false, "trial_id": "mdp_trial_10", "block": "test", "trialIndex": 15, "score": 37, "costs": 0, "simulationMode": [null, null, null, null, null], "rewards": [2, 3, 3, 10, 19], "path": ["0", "0", "1", "2", "3", "4", "5"], "rt": [521, 81, 53, 27, 213], "actions": ["up", "up", "up", "right", "up"], "actionTimes": [2740, 3315, 3875, 4411, 5163], "queries": {"click": {"state": {"target": [], "time": []}, "edge": {"target": [], "time": []}}, "mouseover": {"state": {"target": [], "time": []}, "edge": {"target": [], "time": []}}, "mouseout": {"state": {"target": [], "time": []}, "edge": {"target": [], "time": []}}}, "displayed_time": "16.22", "trialTime": 17532, "trial_type": "mouselab-mdp", "trial_index": 30, "time_elapsed": 569872, "internal_node_id": "0.0-4.0-1.0-9.0"}}, {"uniqueid": "w95991684:a71821904", "current_trial": 31, "dateTime": 1691143396471, "trialdata": {"revealed_states": [], "clicked_states": [], "num_clicks_accrued": [0, 0, 0, 0, 0, 0, 0, 0, 0, 0, 0, 0, 0], "stateRewards": ["", 1, 1, 1, -3, -7, -1, -41, -10, 20, -72, -63, 1, -4, -2, 2, -66, 30, -84, -2, 49, 23, 71, -1, -4, 4, -12, 67, 5, 18, -16, 88, 56, -5], "withholdReward": false, "trial_id": "mdp_trial_11", "block": "test", "trialIndex": 16, "score": -22, "costs": 0, "simulationMode": [null, null, null, null, null], "rewards": [-1, -4, 4, -16, -5], "path": ["0", "0", "23", "24", "25", "30", "33"], "rt": [749, 140, 179, 4, 97], "actions": ["left", "left", "left", "down", "left"], "actionTimes": [2889, 3536, 4224, 4733, 5359], "queries": {"click": {"state": {"target": [], "time": []}, "edge": {"target": [], "time": []}}, "mouseover": {"state": {"target": [], "time": []}, "edge": {"target": [], "time": []}}, "mouseout": {"state": {"target": ["0"], "time": [2157]}, "edge": {"target": [], "time": []}}}, "displayed_time": "16.14", "trialTime": 18433, "trial_type": "mouselab-mdp", "trial_index": 31, "time_elapsed": 588729, "internal_node_id": "0.0-4.0-1.0-10.0"}}, {"uniqueid": "w95991684:a71821904", "current_trial": 32, "dateTime": 1691143414239, "trialdata": {"revealed_states": [], "clicked_states": ["17"], "num_clicks_accrued": [0, 0, 0, 0, 0, 0, 0, 0, 0, 0, 0, 0, 0], "stateRewards": ["", 2, 3, -1, 16, -78, -11, 46, 2, -20, 79, -67, 2, 3, 2, 11, -83, -42, -58, -11, -67, -22, 55, 2, -1, -1, -16, -83, -82, 23, -11, -29, 13, 13], "withholdReward": false, "trial_id": "mdp_trial_12", "block": "test", "trialIndex": 17, "score": -73.15, "costs": -2.15, "simulationMode": [null, null, null, null, null, null], "rewards": [2, 3, 2, -11, -67], "path": ["0", "0", "12", "13", "14", "19", "20"], "rt": [2802, 1110, 402, 302, 318, 588], "actions": ["right", "right", "right", "right", "down", "right"], "actionTimes": [4323, 5436, 6353, 7153, 7985, 9089], "queries": {"click": {"state": {"target": ["17"], "time": [2751]}, "edge": {"target": [], "time": []}}, "mouseover": {"state": {"target": ["12", "13", "14", "17", "15", "18", "15"], "time": [1767, 1867, 1964, 2334, 3298, 3698, 4314]}, "edge": {"target": [], "time": []}}, "mouseout": {"state": {"target": ["0", "12", "12", "13", "14", "17", "17", "15", "18", "15"], "time": [248, 865, 1850, 1897, 2030, 2843, 3098, 3548, 4197, 5131]}, "edge": {"target": [], "time": []}}}, "displayed_time": "15.52", "trialTime": 17289, "trial_type": "mouselab-mdp", "trial_index": 32, "time_elapsed": 606497, "internal_node_id": "0.0-4.0-1.0-11.0"}}, {"uniqueid": "w95991684:a71821904", "current_trial": 33, "dateTime": 1691143434975, "trialdata": {"revealed_states": [], "clicked_states": ["10"], "num_clicks_accrued": [0, 0, 0, 0, 0, 0, 0, 0, 0, 0, 0, 0, 0], "stateRewards": ["", -1, 3, -7, 16, -32, -74, -48, 2, 10, 15, -30, 1, 1, -2, 10, 12, -83, 67, 13, -66, 47, 65, -2, 4, 2, -14, -8, -57, 24, 9, 65, 12, 46], "withholdReward": false, "trial_id": "mdp_trial_13", "block": "test", "trialIndex": 18, "score": 9.85, "costs": -2.15, "simulationMode": [null, null, null, null, null, null], "rewards": [-1, 3, -7, 2, 15], "path": ["0", "0", "1", "2", "3", "8", "10"], "rt": [1961, 780, 106, 349, 10, 12], "actions": ["up", "up", "up", "up", "left", "down"], "actionTimes": [5047, 5831, 6447, 7304, 7831, 8383], "queries": {"click": {"state": {"target": ["10"], "time": [3793]}, "edge": {"target": [], "time": []}}, "mouseover": {"state": {"target": ["10", "8", "10", "8", "9"], "time": [3185, 3251, 3621, 4202, 4352]}, "edge": {"target": [], "time": []}}, "mouseout": {"state": {"target": ["18", "0", "0", "10", "8", "10", "8", "9"], "time": [2369, 2453, 3103, 3201, 3285, 4169, 4285, 9725]}, "edge": {"target": [], "time": []}}}, "displayed_time": "17.09", "trialTime": 20296, "trial_type": "mouselab-mdp", "trial_index": 33, "time_elapsed": 627233, "internal_node_id": "0.0-4.0-1.0-12.0"}}, {"uniqueid": "w95991684:a71821904", "current_trial": 34, "dateTime": 1691143452486, "trialdata": {"revealed_states": [], "clicked_states": ["7"], "num_clicks_accrued": [0, 0, 0, 0, 0, 0, 0, 0, 0, 0, 0, 0, 0], "stateRewards": ["", 2, -3, 5, -14, -63, -9, -24, -11, -54, -43, 68, 2, -2, -4, 7, -64, 30, 47, 12, -74, 11, 86, 1, -3, 3, 10, -71, -42, -52, -1, -29, -16, 69], "withholdReward": false, "trial_id": "mdp_trial_14", "block": "test", "trialIndex": 19, "score": -52.15, "costs": -2.15, "simulationMode": [null, null, null, null, null], "rewards": [2, -3, 5, -11, -43], "path": ["0", "0", "1", "2", "3", "8", "10"], "rt": [5216, 207, 140, 4, 61], "actions": ["up", "up", "up", "left", "down"], "actionTimes": [6852, 7571, 8203, 8718, 9291], "queries": {"click": {"state": {"target": ["7"], "time": [3178]}, "edge": {"target": [], "time": []}}, "mouseover": {"state": {"target": ["13", "14", "20", "15", "7", "18", "14", "14"], "time": [1656, 1672, 1896, 2597, 2930, 3611, 3694, 3910]}, "edge": {"target": [], "time": []}}, "mouseout": {"state": {"target": ["3", "0", "13", "14", "20", "15", "7", "18", "14", "14"], "time": [810, 1653, 1667, 1699, 2563, 2614, 3494, 3647, 3711, 3944]}, "edge": {"target": [], "time": []}}}, "displayed_time": "15.64", "trialTime": 17084, "trial_type": "mouselab-mdp", "trial_index": 34, "time_elapsed": 644745, "internal_node_id": "0.0-4.0-1.0-13.0"}}, {"uniqueid": "w95991684:a71821904", "current_trial": 35, "dateTime": 1691143469279, "trialdata": {"revealed_states": [], "clicked_states": ["20"], "num_clicks_accrued": [0, 0, 0, 0, 0, 0, 0, 0, 0, 0, 0, 0, 0], "stateRewards": ["", 1, -3, -1, 9, -34, -40, 22, -7, 45, 53, -11, 2, 4, 5, 15, 21, 37, -49, -3, 80, -28, -34, 1, -3, 1, 1, -40, -6, -5, -16, -85, -86, 59], "withholdReward": false, "trial_id": "mdp_trial_15", "block": "test", "trialIndex": 20, "score": 85.85, "costs": -2.15, "simulationMode": [null, null, null, null, null, null], "rewards": [2, 4, 5, -3, 80], "path": ["0", "0", "12", "13", "14", "19", "20"], "rt": [1415, 2476, 168, 109, 59, 107], "actions": ["right", "right", "right", "right", "down", "right"], "actionTimes": [2463, 4942, 5606, 6231, 6782, 7415], "queries": {"click": {"state": {"target": ["20"], "time": [1582]}, "edge": {"target": [], "time": []}}, "mouseover": {"state": {"target": ["20"], "time": [1389]}, "edge": {"target": [], "time": []}}, "mouseout": {"state": {"target": ["13", "12", "0", "0", "20", "20"], "time": [171, 254, 588, 1064, 1970, 16339]}, "edge": {"target": [], "time": []}}}, "displayed_time": "15.05", "trialTime": 16352, "trial_type": "mouselab-mdp", "trial_index": 35, "time_elapsed": 661537, "internal_node_id": "0.0-4.0-1.0-14.0"}}, {"uniqueid": "w95991684:a71821904", "current_trial": 36, "dateTime": 1691143486444, "trialdata": {"revealed_states": [], "clicked_states": ["17"], "num_clicks_accrued": [0, 0, 0, 0, 0, 0, 0, 0, 0, 0, 0, 0, 0], "stateRewards": ["", 2, -1, -1, -9, -81, -30, 55, -6, 78, 25, 62, 2, 4, -1, 9, -85, 1, -19, 1, -60, 12, -34, 1, 4, -1, -13, -24, -16, -83, -8, 16, 43, 9], "withholdReward": false, "trial_id": "mdp_trial_16", "block": "test", "trialIndex": 21, "score": 12.85, "costs": -2.15, "simulationMode": [null, null, null, null, null], "rewards": [2, 4, -1, 9, 1], "path": ["0", "0", "12", "13", "14", "15", "17"], "rt": [6648, 108, 96, 59, 605], "actions": ["right", "right", "right", "up", "right"], "actionTimes": [8028, 8634, 9242, 9803, 10914], "queries": {"click": {"state": {"target": ["17"], "time": [1954]}, "edge": {"target": [], "time": []}}, "mouseover": {"state": {"target": ["17"], "time": [1810]}, "edge": {"target": [], "time": []}}, "mouseout": {"state": {"target": ["14", "13", "13", "13", "12", "0", "17", "17"], "time": [12, 39, 325, 558, 824, 1397, 2048, 2290]}, "edge": {"target": [], "time": []}}}, "displayed_time": "15.38", "trialTime": 16706, "trial_type": "mouselab-mdp", "trial_index": 36, "time_elapsed": 678703, "internal_node_id": "0.0-4.0-1.0-15.0"}}, {"uniqueid": "w95991684:a71821904", "current_trial": 37, "dateTime": 1691143503757, "trialdata": {"revealed_states": [], "clicked_states": ["16"], "num_clicks_accrued": [0, 0, 0, 0, 0, 0, 0, 0, 0, 0, 0, 0, 0], "stateRewards": ["", -1, 3, 1, -11, -22, -36, 19, -5, -70, -52, 50, -2, -4, 4, -2, -41, -83, 29, -2, 22, 10, -6, -2, 3, -2, 14, 54, 44, 77, -9, -65, -37, -40], "withholdReward": false, "trial_id": "mdp_trial_17", "block": "test", "trialIndex": 22, "score": 15.85, "costs": -2.15, "simulationMode": [null, null, null, null, null], "rewards": [-2, -4, 4, -2, 22], "path": ["0", "0", "12", "13", "14", "19", "20"], "rt": [5166, 180, 135, 224, 131], "actions": ["right", "right", "right", "down", "right"], "actionTimes": [6217, 6920, 7560, 8280, 8904], "queries": {"click": {"state": {"target": ["16"], "time": [2992]}, "edge": {"target": [], "time": []}}, "mouseover": {"state": {"target": ["12", "17", "16", "15"], "time": [1240, 1370, 2189, 3270]}, "edge": {"target": [], "time": []}}, "mouseout": {"state": {"target": ["20", "19", "12", "0", "12", "17", "16", "15"], "time": [454, 472, 555, 1206, 1257, 2090, 3253, 3321]}, "edge": {"target": [], "time": []}}}, "displayed_time": "15.06", "trialTime": 16848, "trial_type": "mouselab-mdp", "trial_index": 37, "time_elapsed": 696015, "internal_node_id": "0.0-4.0-1.0-16.0"}}, {"uniqueid": "w95991684:a71821904", "current_trial": 38, "dateTime": 1691143524021, "trialdata": {"revealed_states": [], "clicked_states": ["18"], "num_clicks_accrued": [0, 0, 0, 0, 0, 0, 0, 0, 0, 0, 0, 0, 0], "stateRewards": ["", 2, 4, -3, 16, -58, 30, -35, 11, -60, 47, 27, -2, -1, -7, -16, 23, -70, 68, -10, -65, -43, -34, -2, 1, 7, 9, -63, 34, -31, -8, -12, -86, 59], "withholdReward": false, "trial_id": "mdp_trial_18", "block": "test", "trialIndex": 23, "score": 39.85, "costs": -2.15, "simulationMode": [null, null, null, null, null], "rewards": [-2, -1, -7, -16, 68], "path": ["0", "0", "12", "13", "14", "15", "18"], "rt": [6902, 50, 52, 134, 76], "actions": ["right", "right", "right", "up", "left"], "actionTimes": [7978, 8519, 9087, 9736, 10312], "queries": {"click": {"state": {"target": ["18"], "time": [1775]}, "edge": {"target": [], "time": []}}, "mouseover": {"state": {"target": ["14", "14", "18", "15", "17"], "time": [1119, 1250, 1515, 2066, 2132]}, "edge": {"target": [], "time": []}}, "mouseout": {"state": {"target": ["19", "22", "0", "14", "14", "18", "15"], "time": [98, 114, 1115, 1166, 1299, 2033, 2083]}, "edge": {"target": [], "time": []}}}, "displayed_time": "15.08", "trialTime": 19809, "trial_type": "mouselab-mdp", "trial_index": 38, "time_elapsed": 716279, "internal_node_id": "0.0-4.0-1.0-17.0"}}, {"uniqueid": "w95991684:a71821904", "current_trial": 39, "dateTime": 1691143541397, "trialdata": {"revealed_states": [], "clicked_states": ["28"], "num_clicks_accrued": [0, 0, 0, 0, 0, 0, 0, 0, 0, 0, 0, 0, 0], "stateRewards": ["", -2, -1, -5, 10, -36, -70, 68, -9, 86, 71, -10, 2, -4, 7, -7, 66, 44, -66, -13, -69, 43, 15, -2, 2, 6, -13, 62, 57, 50, -10, -69, 42, -72], "withholdReward": false, "trial_id": "mdp_trial_19", "block": "test", "trialIndex": 24, "score": 47.85, "costs": -2.15, "simulationMode": [null, null, null, null, null], "rewards": [-2, 2, 6, -13, 57], "path": ["0", "0", "23", "24", "25", "26", "28"], "rt": [5750, 146, 128, 103, 38], "actions": ["left", "left", "left", "up", "right"], "actionTimes": [7341, 7980, 8612, 9221, 9756], "queries": {"click": {"state": {"target": ["28"], "time": [2259]}, "edge": {"target": [], "time": []}}, "mouseover": {"state": {"target": ["28", "28", "23", "0"], "time": [1917, 2101, 2698, 2732]}, "edge": {"target": [], "time": []}}, "mouseout": {"state": {"target": ["17", "25", "24", "23", "0", "28", "28", "28", "23", "0"], "time": [568, 849, 932, 1049, 1629, 1967, 2326, 2648, 2715, 2815]}, "edge": {"target": [], "time": []}}}, "displayed_time": "15.60", "trialTime": 16916, "trial_type": "mouselab-mdp", "trial_index": 39, "time_elapsed": 733655, "internal_node_id": "0.0-4.0-1.0-18.0"}}, {"uniqueid": "w95991684:a71821904", "current_trial": 40, "dateTime": 1691143558837, "trialdata": {"revealed_states": [], "clicked_states": ["27"], "num_clicks_accrued": [0, 0, 0, 0, 0, 0, 0, 0, 0, 0, 0, 0, 0], "stateRewards": ["", 1, -4, -6, -1, -21, 17, -72, 10, 77, 67, -46, -1, 4, -2, 14, -66, -49, -45, -15, -52, 23, -67, 2, -2, -2, 15, -3, 45, -64, 5, -44, 83, 61], "withholdReward": false, "trial_id": "mdp_trial_20", "block": "test", "trialIndex": 25, "score": 83.85, "costs": -2.15, "simulationMode": [null, null, null, null, null], "rewards": [2, -2, -2, 5, 83], "path": ["0", "0", "23", "24", "25", "30", "32"], "rt": [5420, 176, 172, 26, 317], "actions": ["left", "left", "left", "down", "down"], "actionTimes": [6573, 7243, 7938, 8458, 9283], "queries": {"click": {"state": {"target": ["27"], "time": [2009]}, "edge": {"target": [], "time": []}}, "mouseover": {"state": {"target": ["28", "27", "28", "23", "21"], "time": [1566, 1815, 2446, 2563, 3763]}, "edge": {"target": [], "time": []}}, "mouseout": {"state": {"target": ["22", "0", "28", "27", "28", "23", "21"], "time": [197, 663, 1649, 2380, 2496, 2613, 3780]}, "edge": {"target": [], "time": []}}}, "displayed_time": "15.15", "trialTime": 16971, "trial_type": "mouselab-mdp", "trial_index": 40, "time_elapsed": 751095, "internal_node_id": "0.0-4.0-1.0-19.0"}}, {"uniqueid": "w95991684:a71821904", "current_trial": 41, "dateTime": 1691143576212, "trialdata": {"revealed_states": [], "clicked_states": ["29"], "num_clicks_accrued": [0, 0, 0, 0, 0, 0, 0, 0, 0, 0, 0, 0, 0], "stateRewards": ["", -2, 2, -5, 1, 42, -63, -58, -6, 2, 16, 81, -2, 4, 7, -10, 33, 3, -33, -2, -52, -84, -27, 2, -3, -3, 15, -74, -14, -5, -5, -84, 79, -31], "withholdReward": false, "trial_id": "mdp_trial_21", "block": "test", "trialIndex": 26, "score": -42.15, "costs": -2.15, "simulationMode": [null, null, null, null, null], "rewards": [2, -3, -3, -5, -31], "path": ["0", "0", "23", "24", "25", "30", "33"], "rt": [4642, 279, 226, 148, 208], "actions": ["left", "left", "left", "down", "left"], "actionTimes": [6338, 7128, 7856, 8513, 9241], "queries": {"click": {"state": {"target": ["29"], "time": [2792]}, "edge": {"target": [], "time": []}}, "mouseover": {"state": {"target": ["23", "24", "29", "24"], "time": [2031, 2054, 2162, 3312]}, "edge": {"target": [], "time": []}}, "mouseout": {"state": {"target": ["6", "5", "2", "1", "23", "24", "29", "24"], "time": [896, 963, 1079, 1146, 2049, 2071, 3245, 3328]}, "edge": {"target": [], "time": []}}}, "displayed_time": "15.70", "trialTime": 16912, "trial_type": "mouselab-mdp", "trial_index": 41, "time_elapsed": 768470, "internal_node_id": "0.0-4.0-1.0-20.0"}}, {"uniqueid": "w95991684:a71821904", "current_trial": 42, "dateTime": 1691143593076, "trialdata": {"revealed_states": [], "clicked_states": ["33"], "num_clicks_accrued": [0, 0, 0, 0, 0, 0, 0, 0, 0, 0, 0, 0, 0], "stateRewards": ["", -1, -1, 7, -15, -43, -21, -84, -9, -45, -66, 2, 1, -2, 2, 8, -27, 44, -52, -5, -84, 11, 53, 1, 4, -4, 16, 83, -82, -15, -16, 68, -43, 81], "withholdReward": false, "trial_id": "mdp_trial_22", "block": "test", "trialIndex": 27, "score": 63.85, "costs": -2.15, "simulationMode": [null, null, null, null, null], "rewards": [1, 4, -4, -16, 81], "path": ["0", "0", "23", "24", "25", "30", "33"], "rt": [4329, 186, 85, 175, 133], "actions": ["left", "left", "left", "down", "left"], "actionTimes": [5495, 6206, 6805, 7478, 8102], "queries": {"click": {"state": {"target": ["33"], "time": [1757]}, "edge": {"target": [], "time": []}}, "mouseover": {"state": {"target": ["33", "30", "31"], "time": [1569, 2100, 2233]}, "edge": {"target": [], "time": []}}, "mouseout": {"state": {"target": ["0", "33", "30", "31", "21"], "time": [1185, 2067, 2133, 3067, 14236]}, "edge": {"target": [], "time": []}}}, "displayed_time": "15.17", "trialTime": 16398, "trial_type": "mouselab-mdp", "trial_index": 42, "time_elapsed": 785334, "internal_node_id": "0.0-4.0-1.0-21.0"}}, {"uniqueid": "w95991684:a71821904", "current_trial": 43, "dateTime": 1691143610812, "trialdata": {"revealed_states": [], "clicked_states": ["32"], "num_clicks_accrued": [0, 0, 0, 0, 0, 0, 0, 0, 0, 0, 0, 0, 0], "stateRewards": ["", -1, -3, -7, -4, -85, -70, 79, 8, 84, -66, 42, 2, -2, -3, -16, -54, -66, 68, -3, 21, -14, 7, -2, -1, -3, -8, 75, 80, 86, -7, -84, 73, -16], "withholdReward": false, "trial_id": "mdp_trial_23", "block": "test", "trialIndex": 28, "score": 57.85, "costs": -2.15, "simulationMode": [null, null, null, null, null], "rewards": [-2, -1, -3, -7, 73], "path": ["0", "0", "23", "24", "25", "30", "32"], "rt": [3736, 106, 57, 9, 109], "actions": ["left", "left", "left", "down", "down"], "actionTimes": [5266, 5872, 6432, 6967, 7584], "queries": {"click": {"state": {"target": ["32"], "time": [2095]}, "edge": {"target": [], "time": []}}, "mouseover": {"state": {"target": ["32"], "time": [1905]}, "edge": {"target": [], "time": []}}, "mouseout": {"state": {"target": ["12", "32"], "time": [973, 2523]}, "edge": {"target": [], "time": []}}}, "displayed_time": "15.53", "trialTime": 17240, "trial_type": "mouselab-mdp", "trial_index": 43, "time_elapsed": 803070, "internal_node_id": "0.0-4.0-1.0-22.0"}}, {"uniqueid": "w95991684:a71821904", "current_trial": 44, "dateTime": 1691143627764, "trialdata": {"revealed_states": [], "clicked_states": ["31"], "num_clicks_accrued": [0, 0, 0, 0, 0, 0, 0, 0, 0, 0, 0, 0, 0], "stateRewards": ["", -1, 4, -3, 3, 57, -61, 5, -11, 23, -1, 34, -2, -4, -1, -13, 27, 38, -36, 4, -45, 21, 88, 1, -2, -1, 1, -69, -5, -78, -12, -9, 38, -54], "withholdReward": false, "trial_id": "mdp_trial_24", "block": "test", "trialIndex": 29, "score": -8.15, "costs": -2.15, "simulationMode": [null, null, null, null, null], "rewards": [1, -2, -1, 1, -5], "path": ["0", "0", "23", "24", "25", "26", "28"], "rt": [5124, 108, 77, 86, 149], "actions": ["left", "left", "left", "up", "right"], "actionTimes": [6422, 7029, 7613, 8205, 8868], "queries": {"click": {"state": {"target": ["31"], "time": [2484]}, "edge": {"target": [], "time": []}}, "mouseover": {"state": {"target": ["31", "31"], "time": [1885, 2268]}, "edge": {"target": [], "time": []}}, "mouseout": {"state": {"target": ["31", "0", "31", "31"], "time": [616, 1327, 1918, 2733]}, "edge": {"target": [], "time": []}}}, "displayed_time": "15.30", "trialTime": 16469, "trial_type": "mouselab-mdp", "trial_index": 44, "time_elapsed": 820022, "internal_node_id": "0.0-4.0-1.0-23.0"}}, {"uniqueid": "w95991684:a71821904", "current_trial": 45, "dateTime": 1691143645708, "trialdata": {"revealed_states": [], "clicked_states": ["7"], "num_clicks_accrued": [0, 0, 0, 0, 0, 0, 0, 0, 0, 0, 0, 0, 0], "stateRewards": ["", -2, 2, -1, -6, 22, 6, 6, -5, 70, -42, 65, 1, 3, 5, -6, -67, -9, 3, 14, 7, -62, -13, -2, 4, 1, 16, 42, -21, -52, -8, 32, 53, 81], "withholdReward": false, "trial_id": "mdp_trial_25", "block": "test", "trialIndex": 30, "score": -3.1500000000000004, "costs": -2.15, "simulationMode": [null, null, null, null, null], "rewards": [-2, 2, -1, -6, 6], "path": ["0", "0", "1", "2", "3", "4", "7"], "rt": [5949, 94, 69, 14, 5], "actions": ["up", "up", "up", "right", "down"], "actionTimes": [7248, 7846, 8439, 8950, 9492], "queries": {"click": {"state": {"target": ["7"], "time": [3960]}, "edge": {"target": [], "time": []}}, "mouseover": {"state": {"target": ["0", "31", "24", "23", "1", "2", "4", "7"], "time": [1416, 1685, 1918, 2270, 2382, 2599, 3002, 3582]}, "edge": {"target": [], "time": []}}, "mouseout": {"state": {"target": ["0", "0", "31", "24", "23", "1", "2", "4", "7"], "time": [835, 1432, 1772, 2252, 2300, 2399, 2682, 3552, 4433]}, "edge": {"target": [], "time": []}}}, "displayed_time": "15.30", "trialTime": 17463, "trial_type": "mouselab-mdp", "trial_index": 45, "time_elapsed": 837966, "internal_node_id": "0.0-4.0-1.0-24.0"}}, {"uniqueid": "w95991684:a71821904", "current_trial": 46, "dateTime": 1691143662603, "trialdata": {"revealed_states": [], "clicked_states": ["6"], "num_clicks_accrued": [0, 0, 0, 0, 0, 0, 0, 0, 0, 0, 0, 0, 0], "stateRewards": ["", 2, -4, 7, 3, 23, -42, 4, 7, -81, -33, 7, -2, -4, 5, -1, 50, -57, -14, -13, -14, 44, 55, -2, -2, 5, -2, 33, 1, 57, -13, -7, 58, 87], "withholdReward": false, "trial_id": "mdp_trial_26", "block": "test", "trialIndex": 31, "score": 9.85, "costs": -2.15, "simulationMode": [null, null, null, null, null], "rewards": [2, -4, 7, 3, 4], "path": ["0", "0", "1", "2", "3", "4", "7"], "rt": [7119, 221, 230, 602, 78], "actions": ["up", "up", "up", "right", "down"], "actionTimes": [8344, 9079, 9807, 10910, 11487], "queries": {"click": {"state": {"target": ["6"], "time": [2125]}, "edge": {"target": [], "time": []}}, "mouseover": {"state": {"target": ["6", "6"], "time": [1249, 1974]}, "edge": {"target": [], "time": []}}, "mouseout": {"state": {"target": ["0", "0", "6", "6", "6", "7"], "time": [623, 1246, 1288, 2216, 2589, 15774]}, "edge": {"target": [], "time": []}}}, "displayed_time": "15.23", "trialTime": 16414, "trial_type": "mouselab-mdp", "trial_index": 46, "time_elapsed": 854861, "internal_node_id": "0.0-4.0-1.0-25.0"}}, {"uniqueid": "w95991684:a71821904", "current_trial": 47, "dateTime": 1691143681091, "trialdata": {"revealed_states": [], "clicked_states": ["7", "6", "5", "9"], "num_clicks_accrued": [0, 0, 0, 0, 0, 0, 0, 0, 0, 0, 0, 0, 0], "stateRewards": ["", 1, 1, 7, -11, 80, -20, -53, -14, 3, 31, 27, 2, -1, -8, -10, 33, 41, 86, 9, 78, -37, -13, -1, -2, -6, -8, -80, 75, 4, -16, -49, -74, 24], "withholdReward": false, "trial_id": "mdp_trial_27", "block": "test", "trialIndex": 32, "score": 69.4, "costs": -8.6, "simulationMode": [null, null, null, null, null, null], "rewards": [1, 1, 7, -11, 80], "path": ["0", "0", "1", "2", "3", "4", "5"], "rt": [11309, 762, 165, 65, 6, 78], "actions": ["up", "up", "up", "up", "right", "up"], "actionTimes": [12645, 13411, 14110, 14707, 15214, 15803], "queries": {"click": {"state": {"target": ["7", "6", "5", "9"], "time": [2243, 6000, 8921, 11753]}, "edge": {"target": [], "time": []}}, "mouseover": {"state": {"target": ["6", "7", "6", "5", "5", "3", "9"], "time": [1757, 2022, 2589, 7022, 7405, 9655, 10089]}, "edge": {"target": [], "time": []}}, "mouseout": {"state": {"target": ["12", "0", "0", "6", "7", "6", "5", "5", "3", "9"], "time": [123, 173, 1658, 1976, 2489, 6955, 7127, 9522, 9973, 12389]}, "edge": {"target": [], "time": []}}}, "displayed_time": "16.31", "trialTime": 18019, "trial_type": "mouselab-mdp", "trial_index": 47, "time_elapsed": 873349, "internal_node_id": "0.0-4.0-1.0-26.0"}}, {"uniqueid": "w95991684:a71821904", "current_trial": 48, "dateTime": 1691143734322, "trialdata": {"revealed_states": [], "clicked_states": ["7", "6", "5", "9", "11", "10", "18", "16", "17", "20", "21", "22", "31", "32", "33", "29"], "num_clicks_accrued": [0, 0, 0, 0, 0, 0, 0, 0, 0, 0, 0, 0, 0], "stateRewards": ["", -1, 2, -6, 6, -82, -19, -39, -16, -83, 11, -33, -2, -2, 4, -6, -82, -1, -19, -6, -10, -67, -41, -2, 1, -7, 16, -23, -78, -52, 14, 31, -71, 74], "withholdReward": false, "trial_id": "mdp_trial_28", "block": "test", "trialIndex": 33, "score": 45.60000000000001, "costs": -34.39999999999999, "simulationMode": [null, null, null, null, null, null], "rewards": [-2, 1, -7, 14, 74], "path": ["0", "0", "23", "24", "25", "30", "33"], "rt": [45810, 905, 21, 15, 18, 28], "actions": ["left", "left", "left", "left", "down", "left"], "actionTimes": [47009, 47919, 48471, 48999, 49551, 50095], "queries": {"click": {"state": {"target": ["7", "6", "5", "9", "11", "10", "18", "16", "17", "20", "21", "22", "31", "32", "33", "29"], "time": [1639, 4584, 7358, 10136, 12972, 15966, 18973, 21830, 24756, 27804, 30861, 33797, 36702, 39676, 42829, 45606]}, "edge": {"target": [], "time": []}}, "mouseover": {"state": {"target": ["1", "7", "4", "6", "5", "9", "8", "11", "10", "23", "0", "12", "13", "15", "16", "18", "13", "16", "17", "19", "20", "20", "21", "22", "31", "32", "30", "30", "33", "29", "27", "26", "24"], "time": [1265, 1331, 1948, 2083, 5265, 8348, 10765, 10931, 13681, 16564, 16797, 16831, 16881, 17181, 17531, 17914, 19581, 20414, 22531, 25481, 25631, 27265, 28464, 31682, 34697, 37498, 40214, 40397, 40764, 43364, 46130, 46864, 46930]}, "edge": {"target": [], "time": []}}, "mouseout": {"state": {"target": ["0", "1", "7", "4", "6", "5", "9", "8", "11", "10", "23", "0", "12", "13", "15", "16", "18", "13", "18", "16", "17", "19", "20", "20", "21", "22", "31", "32", "30", "30", "33", "29", "27", "26", "24"], "time": [1217, 1281, 1915, 1965, 5198, 7915, 10731, 10882, 13448, 16315, 16780, 16814, 16847, 17064, 17448, 17881, 19530, 19831, 20248, 22314, 25231, 25581, 26881, 28364, 31348, 34298, 37169, 40180, 40249, 40430, 43247, 46014, 46830, 46897, 46963]}, "edge": {"target": [], "time": []}}}, "displayed_time": "50.62", "trialTime": 52743, "trial_type": "mouselab-mdp", "trial_index": 48, "time_elapsed": 926580, "internal_node_id": "0.0-4.0-1.0-27.0"}}, {"uniqueid": "w95991684:a71821904", "current_trial": 49, "dateTime": 1691143751906, "trialdata": {"revealed_states": [], "clicked_states": ["22", "21", "20"], "num_clicks_accrued": [0, 0, 0, 0, 0, 0, 0, 0, 0, 0, 0, 0, 0], "stateRewards": ["", 1, 3, -2, 15, 51, 15, -19, 11, 67, -45, -73, 2, 4, -2, -13, 36, 9, -28, 10, -30, 31, 16, 1, 2, -1, -16, 14, -22, 36, -1, 88, -5, 45], "withholdReward": false, "trial_id": "mdp_trial_29", "block": "test", "trialIndex": 34, "score": 38.55, "costs": -6.449999999999999, "simulationMode": [null, null, null, null, null], "rewards": [2, 4, -2, 10, 31], "path": ["0", "0", "12", "13", "14", "19", "21"], "rt": [10080, 38, 33, 500, 92], "actions": ["right", "right", "right", "down", "down"], "actionTimes": [11673, 12232, 12760, 13776, 14368], "queries": {"click": {"state": {"target": ["22", "21", "20"], "time": [2279, 5101, 8370]}, "edge": {"target": [], "time": []}}, "mouseover": {"state": {"target": ["22", "21", "20", "20", "17", "17"], "time": [2193, 2926, 5690, 5923, 9023, 9824]}, "edge": {"target": [], "time": []}}, "mouseout": {"state": {"target": ["4", "10", "1", "0", "22", "21", "20", "20", "17", "17", "14", "22"], "time": [808, 841, 1089, 1809, 2706, 5640, 5825, 8923, 9090, 16176, 16326, 16443]}, "edge": {"target": [], "time": []}}}, "displayed_time": "15.60", "trialTime": 17120, "trial_type": "mouselab-mdp", "trial_index": 49, "time_elapsed": 944164, "internal_node_id": "0.0-4.0-1.0-28.0"}}, {"uniqueid": "w95991684:a71821904", "current_trial": 50, "dateTime": 1691143769146, "trialdata": {"revealed_states": [], "clicked_states": ["18", "16"], "num_clicks_accrued": [0, 0, 0, 0, 0, 0, 0, 0, 0, 0, 0, 0, 0], "stateRewards": ["", -2, 2, 3, -7, 76, 63, 21, 15, 35, -8, -44, 1, 1, -2, -12, 23, 24, 76, -9, 46, 66, -49, -2, -1, 7, 12, 40, -71, -45, -6, 38, -49, 46], "withholdReward": false, "trial_id": "mdp_trial_30", "block": "test", "trialIndex": 35, "score": 59.7, "costs": -4.3, "simulationMode": [null, null, null, null, null, null], "rewards": [1, 1, -2, -12, 76], "path": ["0", "0", "12", "13", "14", "15", "18"], "rt": [4373, 579, 133, 6, 93, 6], "actions": ["right", "right", "right", "right", "up", "left"], "actionTimes": [5705, 6288, 6938, 7497, 8096, 8608], "queries": {"click": {"state": {"target": ["18", "16"], "time": [1680, 4758]}, "edge": {"target": [], "time": []}}, "mouseover": {"state": {"target": ["18", "16", "16", "17"], "time": [1399, 2189, 2433, 6150]}, "edge": {"target": [], "time": []}}, "mouseout": {"state": {"target": ["0", "18", "16", "16", "17", "15", "13"], "time": [1357, 2116, 2207, 5216, 9653, 15785, 15915]}, "edge": {"target": [], "time": []}}}, "displayed_time": "15.34", "trialTime": 16753, "trial_type": "mouselab-mdp", "trial_index": 50, "time_elapsed": 961404, "internal_node_id": "0.0-4.0-1.0-29.0"}}, {"uniqueid": "w95991684:a71821904", "current_trial": 51, "dateTime": 1691143806001, "trialdata": {"revealed_states": [], "clicked_states": ["18", "22", "21", "20", "17", "16", "7", "6", "5", "9"], "num_clicks_accrued": [0, 0, 0, 0, 0, 0, 0, 0, 0, 0, 0, 0, 0], "stateRewards": ["", 2, 3, -3, 4, 72, -28, 34, -12, 57, -64, -15, 2, 1, -4, -15, 2, 49, 31, -1, -42, -58, 31, -2, 1, -2, -13, -75, -19, -22, -6, 61, 10, -56], "withholdReward": false, "trial_id": "mdp_trial_31", "block": "test", "trialIndex": 36, "score": 56.5, "costs": -21.499999999999996, "simulationMode": [null, null, null, null, null, null], "rewards": [2, 3, -3, 4, 72], "path": ["0", "0", "1", "2", "3", "4", "5"], "rt": [28483, 1365, 186, 79, 650, 52], "actions": ["up", "up", "up", "up", "right", "up"], "actionTimes": [29527, 30896, 31592, 32184, 33337, 33888], "queries": {"click": {"state": {"target": ["18", "22", "21", "20", "17", "16", "7", "6", "5", "9"], "time": [1631, 4622, 7711, 10646, 13589, 16654, 19623, 22807, 25926, 28887]}, "edge": {"target": [], "time": []}}, "mouseover": {"state": {"target": ["12", "17", "15", "18", "13", "22", "19", "21", "20", "17", "16", "1", "0", "23", "7", "7", "6", "6", "5", "9", "9"], "time": [1082, 1270, 1351, 1453, 2051, 2117, 5234, 5500, 8200, 11717, 14417, 17250, 17367, 17517, 17750, 18067, 20251, 20517, 23516, 26300, 26500]}, "edge": {"target": [], "time": []}}, "mouseout": {"state": {"target": ["0", "12", "17", "15", "18", "13", "22", "19", "21", "20", "17", "16", "1", "0", "23", "7", "7", "6", "6", "5", "9", "9", "3", "17"], "time": [1073, 1100, 1317, 1401, 2017, 2084, 5200, 5434, 8133, 11333, 13683, 17133, 17267, 17467, 17583, 17767, 20184, 20267, 23267, 26234, 26317, 29317, 35603, 35670]}, "edge": {"target": [], "time": []}}}, "displayed_time": "34.40", "trialTime": 36376, "trial_type": "mouselab-mdp", "trial_index": 51, "time_elapsed": 998259, "internal_node_id": "0.0-4.0-1.0-30.0"}}, {"uniqueid": "w95991684:a71821904", "current_trial": 52, "dateTime": 1691143822913, "trialdata": {"revealed_states": [], "clicked_states": ["22", "21"], "num_clicks_accrued": [0, 0, 0, 0, 0, 0, 0, 0, 0, 0, 0, 0, 0], "stateRewards": ["", -2, -4, -2, 10, -8, -15, -47, 7, -84, 53, 5, -1, 2, -7, 3, 83, 31, 47, -1, 30, -8, 69, 2, -4, -1, 8, -7, 12, -8, -8, -13, 30, -84], "withholdReward": false, "trial_id": "mdp_trial_32", "block": "test", "trialIndex": 37, "score": 57.7, "costs": -4.3, "simulationMode": [null, null, null, null, null, null], "rewards": [-1, 2, -7, -1, 69], "path": ["0", "0", "12", "13", "14", "19", "22"], "rt": [4500, 694, 289, 141, 558, 25], "actions": ["right", "right", "right", "right", "down", "left"], "actionTimes": [5849, 6547, 7352, 8005, 9101, 9637], "queries": {"click": {"state": {"target": ["22", "21"], "time": [1988, 5170]}, "edge": {"target": [], "time": []}}, "mouseover": {"state": {"target": ["12", "22", "22", "21"], "time": [1377, 1457, 1793, 2308]}, "edge": {"target": [], "time": []}}, "mouseout": {"state": {"target": ["14", "13", "12", "12", "22", "22", "21"], "time": [576, 658, 809, 1407, 1490, 2224, 5608]}, "edge": {"target": [], "time": []}}}, "displayed_time": "15.35", "trialTime": 16429, "trial_type": "mouselab-mdp", "trial_index": 52, "time_elapsed": 1015171, "internal_node_id": "0.0-4.0-1.0-31.0"}}, {"uniqueid": "w95991684:a71821904", "current_trial": 53, "dateTime": 1691143840041, "trialdata": {"revealed_states": [], "clicked_states": ["31", "32"], "num_clicks_accrued": [0, 0, 0, 0, 0, 0, 0, 0, 0, 0, 0, 0, 0], "stateRewards": ["", 2, -1, 3, -12, -83, 6, -33, 9, 28, 24, -50, -2, -1, -2, -5, -87, 37, 82, 12, 80, -5, 10, -2, -3, -6, 9, 22, -1, 16, 9, 77, -62, 58], "withholdReward": false, "trial_id": "mdp_trial_33", "block": "test", "trialIndex": 38, "score": 70.7, "costs": -4.3, "simulationMode": [null, null, null, null, null, null], "rewards": [-2, -3, -6, 9, 77], "path": ["0", "0", "23", "24", "25", "30", "31"], "rt": [4200, 1191, 222, 157, 57, 26], "actions": ["left", "left", "left", "left", "down", "right"], "actionTimes": [5381, 6576, 7312, 7977, 8544, 9080], "queries": {"click": {"state": {"target": ["31", "32"], "time": [1699, 4864]}, "edge": {"target": [], "time": []}}, "mouseover": {"state": {"target": ["31", "32", "32"], "time": [1537, 2251, 2384]}, "edge": {"target": [], "time": []}}, "mouseout": {"state": {"target": ["21", "22", "0", "31", "32", "32"], "time": [435, 501, 751, 2084, 2267, 5219]}, "edge": {"target": [], "time": []}}}, "displayed_time": "15.18", "trialTime": 16617, "trial_type": "mouselab-mdp", "trial_index": 53, "time_elapsed": 1032299, "internal_node_id": "0.0-4.0-1.0-32.0"}}, {"uniqueid": "w95991684:a71821904", "current_trial": 54, "dateTime": 1691143857073, "trialdata": {"revealed_states": [], "clicked_states": ["31"], "num_clicks_accrued": [0, 0, 0, 0, 0, 0, 0, 0, 0, 0, 0, 0, 0], "stateRewards": ["", 1, -3, 4, 13, -72, 52, 5, 5, -58, 5, 14, 2, 1, 3, -14, -86, -4, 73, 6, -58, -50, 49, 2, -3, -4, 2, 33, -41, 42, -11, 81, 45, 53], "withholdReward": false, "trial_id": "mdp_trial_34", "block": "test", "trialIndex": 39, "score": 62.85, "costs": -2.15, "simulationMode": [null, null, null, null, null], "rewards": [2, -3, -4, -11, 81], "path": ["0", "0", "23", "24", "25", "30", "31"], "rt": [4362, 136, 70, 55, 24], "actions": ["left", "left", "left", "down", "right"], "actionTimes": [5525, 6160, 6744, 7312, 7847], "queries": {"click": {"state": {"target": ["31"], "time": [2070]}, "edge": {"target": [], "time": []}}, "mouseover": {"state": {"target": ["12", "22", "31", "24", "28", "24"], "time": [1420, 1590, 1890, 2821, 2905, 5429]}, "edge": {"target": [], "time": []}}, "mouseout": {"state": {"target": ["0", "12", "22", "31", "24", "28", "24", "31"], "time": [1354, 1437, 1690, 2371, 2854, 5423, 5449, 5490]}, "edge": {"target": [], "time": []}}}, "displayed_time": "15.16", "trialTime": 16536, "trial_type": "mouselab-mdp", "trial_index": 54, "time_elapsed": 1049331, "internal_node_id": "0.0-4.0-1.0-33.0"}}, {"uniqueid": "w95991684:a71821904", "current_trial": 55, "dateTime": 1691143893097, "trialdata": {"revealed_states": [], "clicked_states": ["28", "27", "29", "33", "32", "31", "22", "21", "20"], "num_clicks_accrued": [0, 0, 0, 0, 0, 0, 0, 0, 0, 0, 0, 0, 0], "stateRewards": ["", -1, -2, -1, -10, -57, 73, -72, -16, 75, -14, -46, -2, -3, -7, -1, -61, -60, 76, -4, 50, 4, 14, 2, 2, -7, 12, -65, -32, 15, -8, -76, -25, -61], "withholdReward": false, "trial_id": "mdp_trial_35", "block": "test", "trialIndex": 40, "score": 14.650000000000006, "costs": -19.349999999999998, "simulationMode": [null, null, null, null, null], "rewards": [-2, -3, -7, -4, 50], "path": ["0", "0", "12", "13", "14", "19", "20"], "rt": [29493, 12, 559, 11, 63], "actions": ["right", "right", "right", "down", "right"], "actionTimes": [30750, 31277, 32372, 32891, 33475], "queries": {"click": {"state": {"target": ["28", "27", "29", "33", "32", "31", "22", "21", "20"], "time": [2202, 5386, 8466, 11690, 14804, 17817, 20867, 24027, 27307]}, "edge": {"target": [], "time": []}}, "mouseover": {"state": {"target": ["28", "27", "27", "29", "25", "31", "30", "33", "32", "31", "22", "22", "21", "20", "14", "17"], "time": [2046, 2709, 3160, 6026, 8826, 8942, 9343, 9478, 12859, 15226, 18893, 19609, 21576, 24477, 27759, 27976]}, "edge": {"target": [], "time": []}}, "mouseout": {"state": {"target": ["0", "28", "27", "27", "29", "25", "31", "30", "33", "32", "31", "22", "22", "21", "20", "14", "17"], "time": [858, 2660, 2726, 5776, 8776, 8876, 9310, 9443, 11909, 15126, 18359, 19126, 21243, 24331, 27710, 27860, 31143]}, "edge": {"target": [], "time": []}}}, "displayed_time": "34.00", "trialTime": 35532, "trial_type": "mouselab-mdp", "trial_index": 55, "time_elapsed": 1085355, "internal_node_id": "0.0-4.0-1.0-34.0"}}, {"uniqueid": "w95991684:a71821904", "current_trial": 56, "dateTime": 1691143910553, "trialdata": {"revealed_states": [], "clicked_states": ["18", "16"], "num_clicks_accrued": [0, 0, 0, 0, 0, 0, 0, 0, 0, 0, 0, 0, 0], "stateRewards": ["", -2, 4, -7, -3, -76, 39, -28, 10, 14, 12, 60, 2, -3, 6, -10, 88, -34, -41, -3, 72, -13, -56, 1, 3, 2, 8, -51, 23, -57, 1, 14, -46, -16], "withholdReward": false, "trial_id": "mdp_trial_36", "block": "test", "trialIndex": 41, "score": 78.7, "costs": -4.3, "simulationMode": [null, null, null, null, null], "rewards": [2, -3, 6, -10, 88], "path": ["0", "0", "12", "13", "14", "15", "16"], "rt": [6925, 160, 67, 21, 56], "actions": ["right", "right", "right", "up", "up"], "actionTimes": [8656, 9323, 9914, 10434, 11002], "queries": {"click": {"state": {"target": ["18", "16"], "time": [2225, 5319]}, "edge": {"target": [], "time": []}}, "mouseover": {"state": {"target": ["18", "18", "16", "17"], "time": [1860, 2090, 2627, 5893]}, "edge": {"target": [], "time": []}}, "mouseout": {"state": {"target": ["13", "12", "23", "0", "0", "18", "18", "16", "17", "22"], "time": [711, 728, 977, 1027, 1194, 1996, 2494, 5453, 8793, 12479]}, "edge": {"target": [], "time": []}}}, "displayed_time": "15.73", "trialTime": 16955, "trial_type": "mouselab-mdp", "trial_index": 56, "time_elapsed": 1102811, "internal_node_id": "0.0-4.0-1.0-35.0"}}, {"uniqueid": "w95991684:a71821904", "current_trial": 57, "dateTime": 1691143927224, "trialdata": {"revealed_states": [], "clicked_states": ["22", "21"], "num_clicks_accrued": [0, 0, 0, 0, 0, 0, 0, 0, 0, 0, 0, 0, 0], "stateRewards": ["", -2, 4, -3, -13, 63, -36, 62, 11, 78, 34, -51, 2, -2, 8, -6, -40, -18, 31, 9, 64, 39, 79, 1, 4, -4, 15, -12, 76, 73, -10, -77, 86, -4], "withholdReward": false, "trial_id": "mdp_trial_37", "block": "test", "trialIndex": 42, "score": 91.7, "costs": -4.3, "simulationMode": [null, null, null, null, null, null], "rewards": [2, -2, 8, 9, 79], "path": ["0", "0", "12", "13", "14", "19", "22"], "rt": [4809, 712, 201, 167, 76, 45], "actions": ["right", "right", "right", "right", "down", "left"], "actionTimes": [5957, 6673, 7407, 8104, 8679, 9231], "queries": {"click": {"state": {"target": ["22", "21"], "time": [1902, 5071]}, "edge": {"target": [], "time": []}}, "mouseover": {"state": {"target": ["22", "21"], "time": [1569, 2316]}, "edge": {"target": [], "time": []}}, "mouseout": {"state": {"target": ["0", "22", "21", "21"], "time": [1286, 2208, 5500, 15483]}, "edge": {"target": [], "time": []}}}, "displayed_time": "15.15", "trialTime": 16183, "trial_type": "mouselab-mdp", "trial_index": 57, "time_elapsed": 1119482, "internal_node_id": "0.0-4.0-1.0-36.0"}}, {"uniqueid": "w95991684:a71821904", "current_trial": 58, "dateTime": 1691143959695, "trialdata": {"revealed_states": [], "clicked_states": ["20", "17", "16", "18", "22", "21", "32", "31", "33"], "num_clicks_accrued": [0, 0, 0, 0, 0, 0, 0, 0, 0, 0, 0, 0, 0], "stateRewards": ["", -1, -4, 8, 8, -68, 47, 24, -7, -61, 49, -69, -1, -1, 8, -7, 42, 1, -45, -11, 10, -63, -6, 1, 4, 6, -16, 79, -37, -58, -12, 81, 18, -53], "withholdReward": false, "trial_id": "mdp_trial_38", "block": "test", "trialIndex": 43, "score": 60.650000000000006, "costs": -19.349999999999998, "simulationMode": [null, null, null, null, null, null], "rewards": [1, 4, 6, -12, 81], "path": ["0", "0", "23", "24", "25", "30", "31"], "rt": [26228, 561, 70, 133, 89, 57], "actions": ["left", "left", "left", "left", "down", "right"], "actionTimes": [27331, 27896, 28483, 29130, 29732, 30284], "queries": {"click": {"state": {"target": ["20", "17", "16", "18", "22", "21", "32", "31", "33"], "time": [2091, 5258, 8233, 11346, 14396, 17514, 20569, 23561, 26617]}, "edge": {"target": [], "time": []}}, "mouseover": {"state": {"target": ["12", "15", "19", "19", "20", "17", "17", "16", "16", "18", "13", "22", "22", "21", "32", "31", "30", "33", "30"], "time": [1124, 1190, 1427, 1643, 1890, 2574, 2844, 5558, 5891, 8708, 11641, 11741, 12040, 15007, 18674, 21124, 23941, 24174, 27107]}, "edge": {"target": [], "time": []}}, "mouseout": {"state": {"target": ["21", "19", "13", "0", "12", "15", "19", "19", "20", "17", "17", "16", "16", "16", "18", "13", "22", "22", "21", "32", "31", "31", "30", "33", "30"], "time": [140, 273, 458, 658, 1157, 1393, 1447, 1810, 2474, 2741, 5491, 5658, 8334, 8574, 11624, 11707, 11791, 14782, 17975, 21024, 23686, 23908, 24124, 27090, 27158]}, "edge": {"target": [], "time": []}}}, "displayed_time": "30.79", "trialTime": 31996, "trial_type": "mouselab-mdp", "trial_index": 58, "time_elapsed": 1151954, "internal_node_id": "0.0-4.0-1.0-37.0"}}, {"uniqueid": "w95991684:a71821904", "current_trial": 59, "dateTime": 1691143988951, "trialdata": {"revealed_states": [], "clicked_states": ["10", "11", "9", "5", "6", "7", "18"], "num_clicks_accrued": [0, 0, 0, 0, 0, 0, 0, 0, 0, 0, 0, 0, 0], "stateRewards": ["", 1, -1, -7, -7, -22, 15, -13, 13, 26, -32, 38, -1, 1, -7, -4, 16, -62, 86, 12, -54, 56, 64, -2, -1, 6, 14, -57, 37, 62, -6, -25, 50, -70], "withholdReward": false, "trial_id": "mdp_trial_39", "block": "test", "trialIndex": 44, "score": 59.95, "costs": -15.05, "simulationMode": [null, null, null, null, null], "rewards": [-1, 1, -7, -4, 86], "path": ["0", "0", "12", "13", "14", "15", "18"], "rt": [22599, 47, 17, 51, 540], "actions": ["right", "right", "right", "up", "left"], "actionTimes": [24225, 24795, 25331, 25915, 26971], "queries": {"click": {"state": {"target": ["10", "11", "9", "5", "6", "7", "18"], "time": [2538, 5578, 8770, 11915, 14979, 17748, 20825]}, "edge": {"target": [], "time": []}}, "mouseover": {"state": {"target": ["23", "10", "8", "8", "10", "11", "9", "5", "6", "7", "18", "18", "16", "15"], "time": [1894, 1995, 2045, 2245, 2328, 2978, 6095, 9578, 12245, 15528, 18395, 18745, 21161, 24181]}, "edge": {"target": [], "time": []}}, "mouseout": {"state": {"target": ["23", "10", "8", "8", "10", "11", "9", "5", "6", "7", "18", "18", "16", "15"], "time": [1911, 2011, 2062, 2295, 2928, 5671, 9179, 12211, 15195, 18328, 18429, 21111, 24131, 27980]}, "edge": {"target": [], "time": []}}}, "displayed_time": "27.46", "trialTime": 28740, "trial_type": "mouselab-mdp", "trial_index": 59, "time_elapsed": 1181209, "internal_node_id": "0.0-4.0-1.0-38.0"}}, {"uniqueid": "w95991684:a71821904", "current_trial": 60, "dateTime": 1691144006047, "trialdata": {"revealed_states": [], "clicked_states": ["18", "22"], "num_clicks_accrued": [0, 0, 0, 0, 0, 0, 0, 0, 0, 0, 0, 0, 0], "stateRewards": ["", 2, 3, 8, 14, 69, -27, 17, 2, -71, -65, -10, 2, -3, 7, 8, 65, -10, 65, -12, 73, -12, 13, -2, -2, 6, 10, -79, -69, -18, 10, -85, 67, 74], "withholdReward": false, "trial_id": "mdp_trial_40", "block": "test", "trialIndex": 45, "score": 74.7, "costs": -4.3, "simulationMode": [null, null, null, null, null], "rewards": [2, -3, 7, 8, 65], "path": ["0", "0", "12", "13", "14", "15", "18"], "rt": [7030, 14, 7, 19, 7], "actions": ["right", "right", "right", "up", "left"], "actionTimes": [8363, 8890, 9434, 9978, 10501], "queries": {"click": {"state": {"target": ["18", "22"], "time": [1841, 5177]}, "edge": {"target": [], "time": []}}, "mouseover": {"state": {"target": ["18", "13", "22", "21", "19", "21"], "time": [1575, 2357, 2393, 5606, 6090, 6589]}, "edge": {"target": [], "time": []}}, "mouseout": {"state": {"target": ["13", "12", "0", "18", "13", "22", "21", "19", "21", "19"], "time": [641, 740, 1354, 2340, 2389, 5573, 5639, 6373, 11275, 11356]}, "edge": {"target": [], "time": []}}}, "displayed_time": "15.33", "trialTime": 16530, "trial_type": "mouselab-mdp", "trial_index": 60, "time_elapsed": 1198305, "internal_node_id": "0.0-4.0-1.0-39.0"}}, {"uniqueid": "w95991684:a71821904", "current_trial": 61, "dateTime": 1691144068611, "trialdata": {"rt": 62556, "response": {"Q0": "$-88 to $88", "Q1": "$-32 to $32", "Q2": "$-88 to $88", "Q3": "The cost was always $1.4.", "Q4": "Very motivated"}, "question_order": [0, 1, 2, 3, 4], "trial_id": "final_quiz_control", "trial_type": "survey-multi-choice", "trial_index": 61, "time_elapsed": 1260869, "internal_node_id": "0.0-4.0-2.0"}}, {"uniqueid": "w95991684:a71821904", "current_trial": 62, "dateTime": 1691144118954, "trialdata": {"rt": 50335, "response": {"Q0": "just tried to find the highest value in the later rounds", "Q1": "yes at the beginning i was just clicking one and moving to a different one, later on i clicked multiple", "Q2": "i did not find it difficult"}, "trial_id": "self_report_control", "trial_type": "survey-text", "trial_index": 62, "time_elapsed": 1311213, "internal_node_id": "0.0-4.0-3.0"}}, {"uniqueid": "w95991684:a71821904", "current_trial": 63, "dateTime": 1691144160346, "trialdata": {"rt": 41387, "response": {"Q0": "Agree", "Q1": "Strongly disagree", "Q2": "Strongly agree", "Q3": "Strongly agree", "Q4": "Disagree", "Q5": "Agree", "Q6": "Disagree"}, "question_order": [0, 1, 2, 3, 4, 5, 6], "trial_id": "self_report_2", "trial_type": "survey-multi-choice", "trial_index": 63, "time_elapsed": 1352605, "internal_node_id": "0.0-4.0-4.0"}}, {"uniqueid": "w95991684:a71821904", "current_trial": 64, "dateTime": 1691144177466, "trialdata": {"rt": 17114, "response": {"gender": "female", "age": "52", "colorblind": "0", "effort": "0"}, "trial_type": "survey-html-form", "trial_index": 64, "time_elapsed": 1369725, "internal_node_id": "0.0-4.0-5.0"}}, {"uniqueid": "w95991684:a71821904", "current_trial": 65, "dateTime": 1691144213537, "trialdata": {"rt": 36065, "response": {"Q0": "at the beginning i didnt understand the number that appeared when clicking the nodes only later on I did", "Q1": "no", "Q2": ""}, "trial_type": "survey-text", "trial_index": 65, "time_elapsed": 1405796, "internal_node_id": "0.0-4.0-6.0"}}, {"uniqueid": "w95991684:a71821904", "current_trial": 66, "dateTime": 1691144215610, "trialdata": {"rt": 2068, "stimulus": "Press 'Finish HIT' in order to reach the completion code. Once the data has been saved, you will receive the code either in this window or in the original browser window where you started the experiment.\n", "response": 0, "trial_type": "html-button-response", "trial_index": 66, "time_elapsed": 1407868, "internal_node_id": "0.0-5.0"}}, {"uniqueid": "w95991684:a71821904", "current_trial": 67, "dateTime": 1691144216613, "trialdata": {"success": true, "trial_type": "fullscreen", "trial_index": 67, "time_elapsed": 1408872, "internal_node_id": "0.0-6.0"}}], "questiondata": {"params": {"CODE": "C6DMOQA6", "MIN_TIME": 14, "inspectCost": 1, "startTime": "Fri Aug 04 2023 10:53:26 GMT+0100 (British Summer Time)", "bonusRate": 0.002, "variance": "1_2_4_8_44", "branching": "31123"}, "final_score": 928.95}, "eventdata": [{"eventtype": "initialized", "value": null, "timestamp": 1691142805748, "interval": 0}, {"eventtype": "window_resize", "value": [1024, 767], "timestamp": 1691142805748, "interval": 0}, {"eventtype": "window_resize", "value": [1920, 982], "timestamp": 1691142806098, "interval": 350}, {"eventtype": "window_resize", "value": [1920, 1080], "timestamp": 1691142811782, "interval": 5684}, {"eventtype": "focus", "value": "off", "timestamp": 1691143001889, "interval": 190107}, {"eventtype": "focus", "value": "on", "timestamp": 1691143001890, "interval": 1}, {"eventtype": "window_resize", "value": [1920, 982], "timestamp": 1691143002096, "interval": 206}, {"eventtype": "window_resize", "value": [1920, 1080], "timestamp": 1691143003988, "interval": 1892}, {"eventtype": "focus", "value": "off", "timestamp": 1691143088129, "interval": 84141}, {"eventtype": "focus", "value": "on", "timestamp": 1691143088129, "interval": 0}, {"eventtype": "window_resize", "value": [1920, 982], "timestamp": 1691143088334, "interval": 205}, {"eventtype": "window_resize", "value": [1920, 1080], "timestamp": 1691143089333, "interval": 999}, {"eventtype": "window_resize", "value": [1920, 982], "timestamp": 1691144215854, "interval": 1126521}], "useragent": "Mozilla/5.0 (Windows NT 10.0; Win64; x64) AppleWebKit/537.36 (KHTML, like Gecko) Chrome/115.0.0.0 Safari/537.36", "mode": "live", "id": "w95991684:a71821904", "status": "user data saved", "Beginhit": "2023-08-04 09:53:22.084607", "Beginexp": "2023-08-04 09:53:30.481112", "Endhit": "2023-08-04 10:16:55.046963", "psiturkStatus": 3, "browser": "<redacted>", "platform": "windows", "language": "en-GB"}