{"condition": 0, "counterbalance": 0, "assignmentId": "a85300846", "workerId": "w10087435", "hitId": "h23831522", "currenttrial": 73, "bonus": 0, "data": [{"uniqueid": "w10087435:a85300846", "current_trial": 0, "dateTime": 1691071095232, "trialdata": {"success": true, "trial_type": "fullscreen", "trial_index": 0, "time_elapsed": 11523, "internal_node_id": "0.0-0.0"}}, {"uniqueid": "w10087435:a85300846", "current_trial": 1, "dateTime": 1691071141704, "trialdata": {"view_history": [{"page_index": 0, "viewing_time": 46462}], "rt": 46464, "trial_id": "exp_instructions_control", "trial_type": "instructions", "trial_index": 1, "time_elapsed": 57996, "internal_node_id": "0.0-1.0"}}, {"uniqueid": "w10087435:a85300846", "current_trial": 2, "dateTime": 1691071148195, "trialdata": {"success": true, "trial_type": "fullscreen", "trial_index": 2, "time_elapsed": 64488, "internal_node_id": "0.0-2.0-0.0"}}, {"uniqueid": "w10087435:a85300846", "current_trial": 3, "dateTime": 1691071614958, "trialdata": {"view_history": [{"page_index": 0, "viewing_time": 145484}, {"page_index": 1, "viewing_time": 214915}, {"page_index": 2, "viewing_time": 42216}, {"page_index": 3, "viewing_time": 64147}], "rt": 466762, "trial_id": "mouselab_instructions_1_control", "trial_type": "instructions", "trial_index": 3, "time_elapsed": 531250, "internal_node_id": "0.0-2.0-1.0"}}, {"uniqueid": "w10087435:a85300846", "current_trial": 4, "dateTime": 1691071685379, "trialdata": {"revealed_states": [], "clicked_states": ["12", "23", "1", "2", "3", "8", "9", "13", "14", "19", "21", "24"], "num_clicks_accrued": [0, 0, 0, 0, 0, 0, 0, 0, 0, 0, 0, 0, 0], "stateRewards": ["", 10, 10, -10, 10, -10, -10, 10, 10, -10, -10, -10, -10, 10, 10, 10, 10, 10, 10, 10, -10, 10, 10, -10, 10, 10, 10, -10, -10, -10, 10, 10, 10, 10], "withholdReward": false, "trial_id": "practice_1", "block": "test", "trialIndex": 0, "score": 27.5, "costs": -6, "simulationMode": [null, null, null, null, null], "rewards": [-10, 10, 10, 10, 10], "path": ["0", "0", "23", "24", "25", "30", "32"], "rt": [46525, 316, 307, 825, 245], "actions": ["left", "left", "left", "down", "down"], "actionTimes": [51986, 52828, 53652, 55021, 55789], "queries": {"click": {"state": {"target": ["12", "23", "1", "2", "3", "8", "9", "13", "14", "19", "21", "24"], "time": [10505, 13410, 16151, 19417, 23232, 26128, 27627, 34068, 35560, 37575, 39393, 42212]}, "edge": {"target": [], "time": []}}, "mouseover": {"state": {"target": ["12", "13", "12", "23", "24", "1", "2", "3", "8", "9", "3", "7", "13", "22", "13", "12", "0", "13", "14", "19", "21", "22", "0", "23", "24", "25", "24", "25", "31", "23"], "time": [8111, 9772, 10025, 12869, 15009, 15642, 18997, 22391, 25524, 27201, 29474, 29508, 29559, 29580, 30625, 31761, 32058, 33327, 35200, 37010, 38927, 40857, 40991, 41024, 41062, 41107, 41791, 44209, 48173, 48374]}, "edge": {"target": [], "time": []}}, "mouseout": {"state": {"target": ["0", "12", "13", "12", "23", "24", "1", "2", "3", "8", "9", "9", "3", "7", "13", "22", "13", "12", "0", "13", "13", "14", "19", "21", "22", "0", "23", "24", "25", "24", "25", "31", "23", "0"], "time": [1177, 9259, 9975, 10678, 14798, 15525, 18042, 21675, 25456, 27111, 27815, 29375, 29491, 29524, 29574, 30573, 31754, 31797, 32208, 34942, 35075, 36723, 38824, 39593, 40890, 41007, 41058, 41091, 41644, 42422, 45338, 48256, 48557, 60717]}, "edge": {"target": [], "time": []}}}, "displayed_time": "56.31", "trialTime": 68296, "trial_type": "mouselab-mdp", "trial_index": 4, "time_elapsed": 601671, "internal_node_id": "0.0-2.0-2.0-0.0"}}, {"uniqueid": "w10087435:a85300846", "current_trial": 5, "dateTime": 1691071705281, "trialdata": {"revealed_states": [], "clicked_states": [], "num_clicks_accrued": [0, 0, 0, 0, 0, 0, 0, 0, 0, 0, 0, 0, 0], "stateRewards": ["", -10, 10, -10, -10, 10, 10, -10, 10, -10, -10, -10, -10, 10, -10, 10, -10, 10, 10, 10, 10, -10, -10, -10, 10, -10, 10, -10, -10, -10, 10, 10, 10, 10], "withholdReward": false, "trial_id": "practice_2", "block": "test", "trialIndex": 1, "score": -6.5, "costs": 0, "simulationMode": [null, null, null, null, null], "rewards": [-10, 10, -10, 10, -10], "path": ["0", "0", "12", "13", "14", "19", "21"], "rt": [1512, 2627, 330, 668, 86], "actions": ["right", "right", "right", "down", "down"], "actionTimes": [5327, 8468, 9319, 10507, 11118], "queries": {"click": {"state": {"target": [], "time": []}, "edge": {"target": [], "time": []}}, "mouseover": {"state": {"target": [], "time": []}, "edge": {"target": [], "time": []}}, "mouseout": {"state": {"target": ["22", "0", "23", "0", "23", "0", "18"], "time": [2392, 2491, 2784, 14568, 14702, 17544, 18667]}, "edge": {"target": [], "time": []}}}, "displayed_time": "11.64", "trialTime": 19114, "trial_type": "mouselab-mdp", "trial_index": 5, "time_elapsed": 621573, "internal_node_id": "0.0-2.0-2.0-1.0"}}, {"uniqueid": "w10087435:a85300846", "current_trial": 6, "dateTime": 1691071788768, "trialdata": {"view_history": [{"page_index": 0, "viewing_time": 60353}, {"page_index": 1, "viewing_time": 23128}], "rt": 83482, "trial_id": "mouselab_instructions_2_control", "trial_type": "instructions", "trial_index": 6, "time_elapsed": 705061, "internal_node_id": "0.0-2.0-3.0"}}, {"uniqueid": "w10087435:a85300846", "current_trial": 7, "dateTime": 1691071874928, "trialdata": {"rt": 86149, "response": {"Q0": "The cost for clicking on nodes may vary between nodes.", "Q1": "The better I perform the higher my bonus will be.", "Q2": "No, the amount of cash at each node of the web may be different each time.", "Q3": "To get the highest total score.", "Q4": "Only before moving the spider.", "Q5": "1 second"}, "question_order": [0, 1, 2, 3, 4, 5], "correct": {"Q0": "The cost for clicking on nodes may vary between nodes.", "Q1": "The better I perform the higher my bonus will be.", "Q2": "No, the amount of cash at each node of the web may be different each time.", "Q3": "To get the highest total score.", "Q4": "Only before moving the spider.", "Q5": "3 seconds"}, "trial_id": "mouselab_quiz_control", "trial_type": "survey-multi-choice", "trial_index": 7, "time_elapsed": 791221, "internal_node_id": "0.0-2.0-4.0"}}, {"uniqueid": "w10087435:a85300846", "current_trial": 8, "dateTime": 1691071921574, "trialdata": {"success": true, "trial_type": "fullscreen", "trial_index": 8, "time_elapsed": 837867, "internal_node_id": "0.0-2.1-0.1"}}, {"uniqueid": "w10087435:a85300846", "current_trial": 9, "dateTime": 1691072065343, "trialdata": {"view_history": [{"page_index": 0, "viewing_time": 79311}, {"page_index": 1, "viewing_time": 35418}, {"page_index": 2, "viewing_time": 13596}, {"page_index": 3, "viewing_time": 15433}], "rt": 143759, "trial_id": "mouselab_instructions_1_control", "trial_type": "instructions", "trial_index": 9, "time_elapsed": 981636, "internal_node_id": "0.0-2.1-1.1"}}, {"uniqueid": "w10087435:a85300846", "current_trial": 10, "dateTime": 1691072084823, "trialdata": {"revealed_states": [], "clicked_states": ["1", "23", "12"], "num_clicks_accrued": [0, 0, 0, 0, 0, 0, 0, 0, 0, 0, 0, 0, 0], "stateRewards": ["", 10, 10, -10, 10, -10, -10, 10, 10, -10, -10, -10, -10, 10, 10, 10, 10, 10, 10, 10, -10, 10, 10, -10, 10, 10, 10, -10, -10, -10, 10, 10, 10, 10], "withholdReward": false, "trial_id": "practice_1", "block": "test", "trialIndex": 2, "score": 32, "costs": -1.5, "simulationMode": [null, null, null, null, null], "rewards": [-10, 10, 10, 10, 10], "path": ["0", "0", "12", "13", "14", "19", "21"], "rt": [6385, 425, 49, 416, 906], "actions": ["right", "right", "right", "down", "down"], "actionTimes": [11630, 12568, 13165, 14132, 15555], "queries": {"click": {"state": {"target": ["1", "23", "12"], "time": [6817, 8170, 10525]}, "edge": {"target": [], "time": []}}, "mouseover": {"state": {"target": ["12", "1", "23", "12"], "time": [6129, 6348, 7782, 9513]}, "edge": {"target": [], "time": []}}, "mouseout": {"state": {"target": ["14", "14", "13", "0", "12", "1", "23", "12"], "time": [1413, 2922, 2955, 6019, 6312, 7549, 8372, 17411]}, "edge": {"target": [], "time": []}}}, "displayed_time": "16.07", "trialTime": 18665, "trial_type": "mouselab-mdp", "trial_index": 10, "time_elapsed": 1001116, "internal_node_id": "0.0-2.1-2.1-0.1"}}, {"uniqueid": "w10087435:a85300846", "current_trial": 11, "dateTime": 1691072101701, "trialdata": {"revealed_states": [], "clicked_states": ["12", "1", "23"], "num_clicks_accrued": [0, 0, 0, 0, 0, 0, 0, 0, 0, 0, 0, 0, 0], "stateRewards": ["", -10, 10, -10, -10, 10, 10, -10, 10, -10, -10, -10, -10, 10, -10, 10, -10, 10, 10, 10, 10, -10, -10, -10, 10, -10, 10, -10, -10, -10, 10, 10, 10, 10], "withholdReward": false, "trial_id": "practice_2", "block": "test", "trialIndex": 3, "score": 12, "costs": -1.5, "simulationMode": [null, null, null, null, null], "rewards": [-10, 10, -10, 10, 10], "path": ["0", "0", "23", "24", "25", "30", "32"], "rt": [6460, 2, 274, 508, 737], "actions": ["left", "left", "left", "down", "down"], "actionTimes": [9046, 9577, 10385, 11403, 12664], "queries": {"click": {"state": {"target": ["12", "1", "23"], "time": [4626, 5976, 7496]}, "edge": {"target": [], "time": []}}, "mouseover": {"state": {"target": ["12", "1", "23"], "time": [4022, 5524, 7001]}, "edge": {"target": [], "time": []}}, "mouseout": {"state": {"target": ["12", "1", "1", "23"], "time": [5474, 6197, 6866, 7742]}, "edge": {"target": [], "time": []}}}, "displayed_time": "13.16", "trialTime": 16119, "trial_type": "mouselab-mdp", "trial_index": 11, "time_elapsed": 1017993, "internal_node_id": "0.0-2.1-2.1-1.1"}}, {"uniqueid": "w10087435:a85300846", "current_trial": 12, "dateTime": 1691072123324, "trialdata": {"view_history": [{"page_index": 0, "viewing_time": 19532}, {"page_index": 1, "viewing_time": 2082}], "rt": 21615, "trial_id": "mouselab_instructions_2_control", "trial_type": "instructions", "trial_index": 12, "time_elapsed": 1039617, "internal_node_id": "0.0-2.1-3.1"}}, {"uniqueid": "w10087435:a85300846", "current_trial": 13, "dateTime": 1691072200595, "trialdata": {"rt": 77262, "response": {"Q0": "The cost for clicking on nodes may vary between nodes.", "Q1": "The better I perform the higher my bonus will be.", "Q2": "No, the structure of the web will be different each time.", "Q3": "To get the highest total score.", "Q4": "Only before moving the spider.", "Q5": "3 seconds"}, "question_order": [0, 1, 2, 3, 4, 5], "correct": {"Q0": "The cost for clicking on nodes may vary between nodes.", "Q1": "The better I perform the higher my bonus will be.", "Q2": "No, the amount of cash at each node of the web may be different each time.", "Q3": "To get the highest total score.", "Q4": "Only before moving the spider.", "Q5": "3 seconds"}, "trial_id": "mouselab_quiz_control", "trial_type": "survey-multi-choice", "trial_index": 13, "time_elapsed": 1116888, "internal_node_id": "0.0-2.1-4.1"}}, {"uniqueid": "w10087435:a85300846", "current_trial": 14, "dateTime": 1691072238261, "trialdata": {"success": true, "trial_type": "fullscreen", "trial_index": 14, "time_elapsed": 1154553, "internal_node_id": "0.0-2.2-0.2"}}, {"uniqueid": "w10087435:a85300846", "current_trial": 15, "dateTime": 1691072528790, "trialdata": {"view_history": [{"page_index": 0, "viewing_time": 62433}, {"page_index": 1, "viewing_time": 191607}, {"page_index": 2, "viewing_time": 18382}, {"page_index": 3, "viewing_time": 18099}], "rt": 290522, "trial_id": "mouselab_instructions_1_control", "trial_type": "instructions", "trial_index": 15, "time_elapsed": 1445083, "internal_node_id": "0.0-2.2-1.2"}}, {"uniqueid": "w10087435:a85300846", "current_trial": 16, "dateTime": 1691072551483, "trialdata": {"revealed_states": [], "clicked_states": [], "num_clicks_accrued": [0, 0, 0, 0, 0, 0, 0, 0, 0, 0, 0, 0, 0], "stateRewards": ["", 10, 10, -10, 10, -10, -10, 10, 10, -10, -10, -10, -10, 10, 10, 10, 10, 10, 10, 10, -10, 10, 10, -10, 10, 10, 10, -10, -10, -10, 10, 10, 10, 10], "withholdReward": false, "trial_id": "practice_1", "block": "test", "trialIndex": 4, "score": 33.5, "costs": 0, "simulationMode": [null, null, null, null, null], "rewards": [-10, 10, 10, 10, 10], "path": ["0", "0", "12", "13", "14", "19", "21"], "rt": [1998, 3984, 454, 478, 897], "actions": ["right", "right", "right", "down", "down"], "actionTimes": [6481, 10990, 11967, 12964, 14361], "queries": {"click": {"state": {"target": [], "time": []}, "edge": {"target": [], "time": []}}, "mouseover": {"state": {"target": ["0"], "time": [6060]}, "edge": {"target": [], "time": []}}, "mouseout": {"state": {"target": ["0", "18", "17", "15", "18", "0", "0", "23", "22", "19"], "time": [1541, 2092, 3092, 3108, 3125, 5161, 17041, 19718, 19882, 19952]}, "edge": {"target": [], "time": []}}}, "displayed_time": "14.88", "trialTime": 21815, "trial_type": "mouselab-mdp", "trial_index": 16, "time_elapsed": 1467776, "internal_node_id": "0.0-2.2-2.2-0.2"}}, {"uniqueid": "w10087435:a85300846", "current_trial": 17, "dateTime": 1691072574487, "trialdata": {"revealed_states": [], "clicked_states": ["23", "1", "12", "13"], "num_clicks_accrued": [0, 0, 0, 0, 0, 0, 0, 0, 0, 0, 0, 0, 0], "stateRewards": ["", -10, 10, -10, -10, 10, 10, -10, 10, -10, -10, -10, -10, 10, -10, 10, -10, 10, 10, 10, 10, -10, -10, -10, 10, -10, 10, -10, -10, -10, 10, 10, 10, 10], "withholdReward": false, "trial_id": "practice_2", "block": "test", "trialIndex": 5, "score": -8.5, "costs": -2, "simulationMode": [null, null, null, null, null], "rewards": [-10, 10, -10, 10, -10], "path": ["0", "0", "12", "13", "14", "19", "21"], "rt": [8001, 662, 553, 531, 559], "actions": ["right", "right", "right", "down", "down"], "actionTimes": [11746, 12920, 14066, 15122, 16199], "queries": {"click": {"state": {"target": ["23", "1", "12", "13"], "time": [4450, 5618, 7087, 8974]}, "edge": {"target": [], "time": []}}, "mouseover": {"state": {"target": ["23", "1", "12", "13", "14", "0"], "time": [4072, 5206, 6390, 8253, 10191, 10770]}, "edge": {"target": [], "time": []}}, "mouseout": {"state": {"target": ["21", "12", "0", "23", "0", "23", "1", "12", "13", "13", "14", "13", "12", "0", "12", "18", "14", "19"], "time": [959, 2084, 2102, 2352, 3923, 4653, 6239, 7277, 9161, 10137, 10603, 10652, 10751, 10936, 11337, 19186, 20817, 20902]}, "edge": {"target": [], "time": []}}}, "displayed_time": "16.71", "trialTime": 22125, "trial_type": "mouselab-mdp", "trial_index": 17, "time_elapsed": 1490778, "internal_node_id": "0.0-2.2-2.2-1.2"}}, {"uniqueid": "w10087435:a85300846", "current_trial": 18, "dateTime": 1691072625008, "trialdata": {"view_history": [{"page_index": 0, "viewing_time": 42748}, {"page_index": 1, "viewing_time": 7758}], "rt": 50507, "trial_id": "mouselab_instructions_2_control", "trial_type": "instructions", "trial_index": 18, "time_elapsed": 1541300, "internal_node_id": "0.0-2.2-3.2"}}, {"uniqueid": "w10087435:a85300846", "current_trial": 19, "dateTime": 1691072936969, "trialdata": {"rt": 311940, "response": {"Q0": "The cost for clicking on nodes may vary between nodes.", "Q1": "The better I perform the higher my bonus will be.", "Q2": "No, the amount of cash at each node of the web may be different each time.", "Q3": "To get the highest total score.", "Q4": "Any time during the round.", "Q5": "3 seconds"}, "question_order": [0, 1, 2, 3, 4, 5], "correct": {"Q0": "The cost for clicking on nodes may vary between nodes.", "Q1": "The better I perform the higher my bonus will be.", "Q2": "No, the amount of cash at each node of the web may be different each time.", "Q3": "To get the highest total score.", "Q4": "Only before moving the spider.", "Q5": "3 seconds"}, "trial_id": "mouselab_quiz_control", "trial_type": "survey-multi-choice", "trial_index": 19, "time_elapsed": 1853262, "internal_node_id": "0.0-2.2-4.2"}}, {"uniqueid": "w10087435:a85300846", "current_trial": 20, "dateTime": 1691072958959, "trialdata": {"success": true, "trial_type": "fullscreen", "trial_index": 20, "time_elapsed": 1875252, "internal_node_id": "0.0-2.3-0.3"}}, {"uniqueid": "w10087435:a85300846", "current_trial": 21, "dateTime": 1691073098517, "trialdata": {"view_history": [{"page_index": 0, "viewing_time": 36366}, {"page_index": 1, "viewing_time": 43357}, {"page_index": 2, "viewing_time": 12549}, {"page_index": 3, "viewing_time": 47282}], "rt": 139555, "trial_id": "mouselab_instructions_1_control", "trial_type": "instructions", "trial_index": 21, "time_elapsed": 2014810, "internal_node_id": "0.0-2.3-1.3"}}, {"uniqueid": "w10087435:a85300846", "current_trial": 22, "dateTime": 1691073121474, "trialdata": {"revealed_states": [], "clicked_states": ["12", "1", "23", "24", "25", "2"], "num_clicks_accrued": [0, 0, 0, 0, 0, 0, 0, 0, 0, 0, 0, 0, 0], "stateRewards": ["", 10, 10, -10, 10, -10, -10, 10, 10, -10, -10, -10, -10, 10, 10, 10, 10, 10, 10, 10, -10, 10, 10, -10, 10, 10, 10, -10, -10, -10, 10, 10, 10, 10], "withholdReward": false, "trial_id": "practice_1", "block": "test", "trialIndex": 6, "score": 30.5, "costs": -3, "simulationMode": [null, null, null, null, null], "rewards": [-10, 10, 10, 10, 10], "path": ["0", "0", "23", "24", "25", "30", "32"], "rt": [12863, 721, 518, 412, 675], "actions": ["left", "left", "left", "down", "down"], "actionTimes": [15306, 16535, 17590, 18507, 19706], "queries": {"click": {"state": {"target": ["12", "1", "23", "24", "25", "2"], "time": [4699, 5988, 7274, 8538, 9586, 11546]}, "edge": {"target": [], "time": []}}, "mouseover": {"state": {"target": ["12", "17", "18", "12", "1", "23", "24", "25", "7", "2", "1", "23", "23"], "time": [2791, 3874, 3896, 4157, 5480, 6923, 8169, 9325, 10502, 10990, 12773, 13307, 13628]}, "edge": {"target": [], "time": []}}, "mouseout": {"state": {"target": ["0", "12", "17", "18", "12", "1", "23", "24", "25", "7", "2", "1", "23", "23", "23", "21"], "time": [1377, 2808, 3891, 3923, 5377, 6840, 8030, 9236, 10163, 10757, 12673, 12890, 13524, 13773, 21617, 21740]}, "edge": {"target": [], "time": []}}}, "displayed_time": "20.21", "trialTime": 22074, "trial_type": "mouselab-mdp", "trial_index": 22, "time_elapsed": 2037765, "internal_node_id": "0.0-2.3-2.3-0.3"}}, {"uniqueid": "w10087435:a85300846", "current_trial": 23, "dateTime": 1691073152075, "trialdata": {"revealed_states": [], "clicked_states": ["12", "1", "2", "23", "24", "25"], "num_clicks_accrued": [0, 0, 0, 0, 0, 0, 0, 0, 0, 0, 0, 0, 0], "stateRewards": ["", -10, 10, -10, -10, 10, 10, -10, 10, -10, -10, -10, -10, 10, -10, 10, -10, 10, 10, 10, 10, -10, -10, -10, 10, -10, 10, -10, -10, -10, 10, 10, 10, 10], "withholdReward": false, "trial_id": "practice_2", "block": "test", "trialIndex": 7, "score": -9.5, "costs": -3, "simulationMode": [null, null, null, null, null], "rewards": [-10, 10, -10, 10, -10], "path": ["0", "0", "1", "2", "3", "8", "9"], "rt": [15430, 563, 585, 459, 723], "actions": ["up", "up", "up", "left", "up"], "actionTimes": [21331, 22420, 23521, 24488, 25708], "queries": {"click": {"state": {"target": ["12", "1", "2", "23", "24", "25"], "time": [8174, 9313, 11851, 14149, 16080, 18073]}, "edge": {"target": [], "time": []}}, "mouseover": {"state": {"target": ["13", "12", "1", "2", "2", "23", "24", "25", "23"], "time": [7100, 7848, 8952, 9888, 11466, 12478, 14849, 16698, 19090]}, "edge": {"target": [], "time": []}}, "mouseout": {"state": {"target": ["20", "12", "13", "12", "1", "2", "2", "2", "23", "24", "25", "23", "0"], "time": [214, 4963, 7781, 8362, 9784, 11081, 12033, 12379, 14717, 16288, 18281, 27337, 27369]}, "edge": {"target": [], "time": []}}}, "displayed_time": "26.22", "trialTime": 29783, "trial_type": "mouselab-mdp", "trial_index": 23, "time_elapsed": 2068366, "internal_node_id": "0.0-2.3-2.3-1.3"}}, {"uniqueid": "w10087435:a85300846", "current_trial": 24, "dateTime": 1691073166464, "trialdata": {"view_history": [{"page_index": 0, "viewing_time": 12152}, {"page_index": 1, "viewing_time": 2222}], "rt": 14375, "trial_id": "mouselab_instructions_2_control", "trial_type": "instructions", "trial_index": 24, "time_elapsed": 2082757, "internal_node_id": "0.0-2.3-3.3"}}, {"uniqueid": "w10087435:a85300846", "current_trial": 25, "dateTime": 1691073349986, "trialdata": {"rt": 183506, "response": {"Q0": "The cost for clicking on nodes may vary between nodes.", "Q1": "The better I perform the higher my bonus will be.", "Q2": "No, the structure of the web will be different each time.", "Q3": "To get the highest total score.", "Q4": "Only before moving the spider.", "Q5": "3 seconds"}, "question_order": [0, 1, 2, 3, 4, 5], "correct": {"Q0": "The cost for clicking on nodes may vary between nodes.", "Q1": "The better I perform the higher my bonus will be.", "Q2": "No, the amount of cash at each node of the web may be different each time.", "Q3": "To get the highest total score.", "Q4": "Only before moving the spider.", "Q5": "3 seconds"}, "trial_id": "mouselab_quiz_control", "trial_type": "survey-multi-choice", "trial_index": 25, "time_elapsed": 2266279, "internal_node_id": "0.0-2.3-4.3"}}, {"uniqueid": "w10087435:a85300846", "current_trial": 26, "dateTime": 1691073379819, "trialdata": {"rt": 29794, "stimulus": "\n<h1> Get ready to start the game! </h1>\n\nThank you for reading the instructions. Get ready start with the 40 rounds of this game.\n<br><br>\nIf you need to take a break, feel free to take one after the end of a round, before continuing to the next one.\n<br><br>\nRemember, the more money the spider gets, the bigger your bonus will be!\n<br><br>\n<div style='text-align: center;'>Press <code>space</code> to begin.</div>\n\n<br><br>\n(If, at any point, the <code>space</code> key does not take you to the next page, click once on the text and try again.)", "response": " ", "trial_id": "mdp_ready", "trial_type": "html-keyboard-response", "trial_index": 26, "time_elapsed": 2296112, "internal_node_id": "0.0-4.0-0.0"}}, {"uniqueid": "w10087435:a85300846", "current_trial": 27, "dateTime": 1691073408485, "trialdata": {"revealed_states": [], "clicked_states": ["12", "1", "23", "2", "13", "24"], "num_clicks_accrued": [0, 0, 0, 0, 0, 0, 0, 0, 0, 0, 0, 0, 0], "stateRewards": ["", -1, -2, -1, -10, -57, 73, -72, -16, 75, -14, -46, -2, -3, -7, -1, -61, -60, 76, -4, 50, 4, 14, 2, 2, -7, 12, -65, -32, 15, -8, -76, -25, -61], "withholdReward": false, "trial_id": "mdp_trial_1", "block": "test", "trialIndex": 8, "score": -44.4, "costs": -8.4, "simulationMode": [null, null, null, null, null], "rewards": [2, 2, -7, -8, -25], "path": ["0", "0", "23", "24", "25", "30", "32"], "rt": [16696, 557, 35, 472, 571], "actions": ["left", "left", "left", "down", "down"], "actionTimes": [19191, 20245, 20787, 21776, 22858], "queries": {"click": {"state": {"target": ["12", "1", "23", "2", "13", "24"], "time": [3934, 6524, 8621, 10708, 13997, 16854]}, "edge": {"target": [], "time": []}}, "mouseover": {"state": {"target": ["12", "1", "23", "24", "2", "2", "12", "12", "13", "12", "0", "23", "24", "24", "23"], "time": [3667, 4688, 7422, 9343, 9790, 9989, 12167, 12436, 13644, 15096, 15326, 15949, 16283, 16542, 17576]}, "edge": {"target": [], "time": []}}, "mouseout": {"state": {"target": ["3", "2", "1", "12", "1", "23", "23", "24", "2", "2", "2", "12", "12", "13", "12", "0", "23", "24", "24", "23", "12"], "time": [1132, 1184, 1448, 4535, 7203, 8820, 9287, 9705, 9873, 10940, 11474, 12225, 13619, 15019, 15222, 15348, 16197, 16399, 17054, 17679, 25599]}, "edge": {"target": [], "time": []}}}, "displayed_time": "23.37", "trialTime": 27832, "trial_type": "mouselab-mdp", "trial_index": 27, "time_elapsed": 2324777, "internal_node_id": "0.0-4.0-1.0-0.0"}}, {"uniqueid": "w10087435:a85300846", "current_trial": 28, "dateTime": 1691073451003, "trialdata": {"revealed_states": [], "clicked_states": ["23", "1", "2", "12", "13", "14", "19", "24", "25", "30", "3"], "num_clicks_accrued": [0, 0, 0, 0, 0, 0, 0, 0, 0, 0, 0, 0, 0], "stateRewards": ["", -1, -3, 3, 5, 56, 39, 50, -1, -80, 33, -46, 1, -2, -6, -8, 87, 48, 54, -11, -20, -64, -54, -2, 3, -7, -3, 12, 88, 35, -16, -46, -70, -3], "withholdReward": false, "trial_id": "mdp_trial_2", "block": "test", "trialIndex": 9, "score": 44.599999999999994, "costs": -15.400000000000002, "simulationMode": [null, null, null, null, null], "rewards": [-1, -3, 3, 5, 56], "path": ["0", "0", "1", "2", "3", "4", "5"], "rt": [26984, 463, 327, 1837, 817], "actions": ["up", "up", "up", "right", "up"], "actionTimes": [31783, 32751, 33603, 35971, 37283], "queries": {"click": {"state": {"target": ["23", "1", "2", "12", "13", "14", "19", "24", "25", "30", "3"], "time": [5712, 7452, 9668, 11701, 13910, 15751, 18022, 20592, 22569, 24664, 29172]}, "edge": {"target": [], "time": []}}, "mouseover": {"state": {"target": ["23", "1", "1", "2", "12", "12", "13", "14", "19", "22", "0", "23", "24", "25", "25", "30", "31", "23", "1", "2", "3"], "time": [5367, 6811, 7046, 8111, 10432, 10860, 12348, 14326, 16880, 18509, 18586, 19101, 19565, 21151, 21543, 23712, 25425, 25535, 26656, 27130, 28846]}, "edge": {"target": [], "time": []}}, "mouseout": {"state": {"target": ["14", "13", "22", "0", "23", "1", "1", "2", "12", "12", "13", "14", "19", "22", "0", "23", "24", "25", "25", "30", "31", "23", "1", "2", "3", "10"], "time": [2146, 2196, 3629, 5348, 6613, 6870, 7645, 10241, 10529, 12259, 14302, 16580, 18502, 18558, 18627, 19242, 21145, 21179, 23570, 25401, 25447, 25577, 26730, 28230, 29836, 39585]}, "edge": {"target": [], "time": []}}}, "displayed_time": "37.78", "trialTime": 41641, "trial_type": "mouselab-mdp", "trial_index": 28, "time_elapsed": 2367294, "internal_node_id": "0.0-4.0-1.0-1.0"}}, {"uniqueid": "w10087435:a85300846", "current_trial": 29, "dateTime": 1691073471108, "trialdata": {"revealed_states": [], "clicked_states": ["1", "2", "3"], "num_clicks_accrued": [0, 0, 0, 0, 0, 0, 0, 0, 0, 0, 0, 0, 0], "stateRewards": ["", 2, -1, 5, 8, 75, -35, -77, 1, -9, -81, -58, 1, 2, -7, 5, 77, -16, 19, 16, -10, -18, 40, -2, 3, 7, -5, 64, 1, -62, 10, 27, 10, 65], "withholdReward": false, "trial_id": "mdp_trial_3", "block": "test", "trialIndex": 10, "score": -25.2, "costs": -4.199999999999999, "simulationMode": [null, null, null, null, null], "rewards": [2, -1, 5, 8, -35], "path": ["0", "0", "1", "2", "3", "4", "6"], "rt": [8649, 121, 97, 397, 242], "actions": ["up", "up", "up", "right", "right"], "actionTimes": [11123, 11763, 12368, 13295, 14063], "queries": {"click": {"state": {"target": ["1", "2", "3"], "time": [3664, 5568, 7773]}, "edge": {"target": [], "time": []}}, "mouseover": {"state": {"target": ["12", "1", "2", "3", "3", "13", "22", "12"], "time": [3143, 3375, 4292, 6260, 6636, 8323, 8368, 9097]}, "edge": {"target": [], "time": []}}, "mouseout": {"state": {"target": ["0", "12", "1", "2", "3", "3", "3", "13", "22", "12", "14", "14"], "time": [1591, 3259, 4245, 5772, 6299, 7978, 8257, 8359, 8400, 10312, 16876, 18659]}, "edge": {"target": [], "time": []}}}, "displayed_time": "16.48", "trialTime": 19180, "trial_type": "mouselab-mdp", "trial_index": 29, "time_elapsed": 2387400, "internal_node_id": "0.0-4.0-1.0-2.0"}}, {"uniqueid": "w10087435:a85300846", "current_trial": 30, "dateTime": 1691073492966, "trialdata": {"revealed_states": [], "clicked_states": ["12", "13", "14"], "num_clicks_accrued": [0, 0, 0, 0, 0, 0, 0, 0, 0, 0, 0, 0, 0], "stateRewards": ["", 2, 3, -1, 16, -78, -11, 46, 2, -20, 79, -67, 2, 3, 2, 11, -83, -42, -58, -11, -67, -22, 55, 2, -1, -1, -16, -83, -82, 23, -11, -29, 13, 13], "withholdReward": false, "trial_id": "mdp_trial_4", "block": "test", "trialIndex": 11, "score": -30.2, "costs": -4.199999999999999, "simulationMode": [null, null, null, null, null], "rewards": [2, 3, 2, -11, -22], "path": ["0", "0", "12", "13", "14", "19", "21"], "rt": [7936, 34, 101, 232, 57], "actions": ["right", "right", "right", "down", "down"], "actionTimes": [12613, 13172, 13812, 14564, 15151], "queries": {"click": {"state": {"target": ["12", "13", "14"], "time": [5625, 7639, 9786]}, "edge": {"target": [], "time": []}}, "mouseover": {"state": {"target": ["0", "12", "13", "14", "0", "23"], "time": [5248, 5374, 6235, 8216, 10803, 11491]}, "edge": {"target": [], "time": []}}, "mouseout": {"state": {"target": ["0", "0", "12", "13", "14", "0", "23", "0", "12", "13", "14"], "time": [3989, 5276, 6228, 8211, 9979, 10828, 11838, 18308, 19524, 19591, 19625]}, "edge": {"target": [], "time": []}}}, "displayed_time": "18.68", "trialTime": 21004, "trial_type": "mouselab-mdp", "trial_index": 30, "time_elapsed": 2409259, "internal_node_id": "0.0-4.0-1.0-3.0"}}, {"uniqueid": "w10087435:a85300846", "current_trial": 31, "dateTime": 1691073533205, "trialdata": {"revealed_states": [], "clicked_states": ["12", "23", "24", "1", "2", "13", "14", "3", "19", "20", "21"], "num_clicks_accrued": [0, 0, 0, 0, 0, 0, 0, 0, 0, 0, 0, 0, 0], "stateRewards": ["", -1, 2, -2, 5, 80, -61, -27, 12, 44, -26, -75, -2, -4, 1, -16, 42, -49, -50, 4, -44, 2, 80, -2, -2, 5, -2, 59, 10, 24, 7, -48, -86, -44], "withholdReward": false, "trial_id": "mdp_trial_5", "block": "test", "trialIndex": 12, "score": -14.400000000000002, "costs": -15.400000000000002, "simulationMode": [null, null, null, null, null], "rewards": [-2, -4, 1, 4, 2], "path": ["0", "0", "12", "13", "14", "19", "21"], "rt": [27122, 6, 80, 292, 84], "actions": ["right", "right", "right", "down", "down"], "actionTimes": [33507, 34058, 34693, 35502, 36072], "queries": {"click": {"state": {"target": ["12", "23", "24", "1", "2", "13", "14", "3", "19", "20", "21"], "time": [7600, 10083, 12583, 15256, 17383, 19446, 21442, 23417, 26351, 28334, 30947]}, "edge": {"target": [], "time": []}}, "mouseover": {"state": {"target": ["12", "13", "26", "28", "23", "1", "24", "1", "1", "2", "12", "13", "14", "12", "3", "3", "4", "6", "4", "7", "19", "20", "22", "12", "22", "21", "22"], "time": [7096, 8094, 8741, 8807, 9829, 10736, 12100, 13177, 13331, 15703, 18615, 18858, 20010, 21935, 22326, 22646, 23978, 24076, 24882, 25497, 25946, 26922, 28714, 28952, 29684, 30628, 32147]}, "edge": {"target": [], "time": []}}, "mouseout": {"state": {"target": ["17", "15", "18", "23", "0", "0", "12", "13", "26", "28", "23", "1", "24", "1", "1", "2", "12", "13", "14", "12", "3", "3", "4", "6", "4", "7", "14", "19", "20", "22", "12", "22", "21", "22"], "time": [2063, 2098, 2557, 3024, 3478, 5561, 8052, 8404, 8767, 8851, 10298, 11997, 13077, 13213, 15448, 17937, 18677, 19976, 21832, 21977, 22403, 23930, 24004, 24328, 25462, 25513, 25895, 26882, 28687, 28740, 29562, 29761, 31452, 38066]}, "edge": {"target": [], "time": []}}}, "displayed_time": "36.58", "trialTime": 39245, "trial_type": "mouselab-mdp", "trial_index": 31, "time_elapsed": 2449496, "internal_node_id": "0.0-4.0-1.0-4.0"}}, {"uniqueid": "w10087435:a85300846", "current_trial": 32, "dateTime": 1691073559238, "trialdata": {"revealed_states": [], "clicked_states": ["23", "24", "25", "30", "33", "32"], "num_clicks_accrued": [0, 0, 0, 0, 0, 0, 0, 0, 0, 0, 0, 0, 0], "stateRewards": ["", 2, 3, -3, 12, -43, 81, -82, -15, 58, -7, -75, -1, -1, 3, -5, 50, -25, -8, 4, 66, 65, -66, 2, -4, 2, -1, -10, 10, 37, 11, 88, -37, 8], "withholdReward": false, "trial_id": "mdp_trial_6", "block": "test", "trialIndex": 13, "score": 10.6, "costs": -8.4, "simulationMode": [null, null, null, null, null], "rewards": [2, -4, 2, 11, 8], "path": ["0", "0", "23", "24", "25", "30", "33"], "rt": [14061, 88, 52, 384, 476], "actions": ["left", "left", "left", "down", "left"], "actionTimes": [18966, 19556, 20167, 21066, 22043], "queries": {"click": {"state": {"target": ["23", "24", "25", "30", "33", "32"], "time": [6791, 8381, 10681, 13082, 15050, 17254]}, "edge": {"target": [], "time": []}}, "mouseover": {"state": {"target": ["23", "24", "25", "30", "33", "32", "31", "24"], "time": [5545, 7582, 9212, 11606, 14086, 16249, 17824, 18126]}, "edge": {"target": [], "time": []}}, "mouseout": {"state": {"target": ["14", "23", "24", "25", "25", "30", "30", "33", "30", "32", "31", "24"], "time": [879, 7432, 8576, 10877, 11453, 13280, 13710, 15597, 16118, 17765, 17847, 18203]}, "edge": {"target": [], "time": []}}}, "displayed_time": "22.55", "trialTime": 25199, "trial_type": "mouselab-mdp", "trial_index": 32, "time_elapsed": 2475529, "internal_node_id": "0.0-4.0-1.0-5.0"}}, {"uniqueid": "w10087435:a85300846", "current_trial": 33, "dateTime": 1691073613366, "trialdata": {"revealed_states": [], "clicked_states": ["1", "2", "3", "4", "5", "12", "13", "14", "19", "20", "23", "24", "25", "26", "29", "30", "33", "31"], "num_clicks_accrued": [0, 0, 0, 0, 0, 0, 0, 0, 0, 0, 0, 0, 0], "stateRewards": ["", 1, 1, -6, -2, 7, 77, 3, 16, -16, 66, 31, -1, 3, -8, -6, 33, -50, -48, 7, -60, -66, 36, 2, -3, 3, -7, -12, -61, -79, -4, 8, 74, -70], "withholdReward": false, "trial_id": "mdp_trial_7", "block": "test", "trialIndex": 14, "score": -19.199999999999992, "costs": -25.199999999999992, "simulationMode": [null, null, null, null, null], "rewards": [2, -3, 3, -4, 8], "path": ["0", "0", "23", "24", "25", "30", "31"], "rt": [39894, 64, 88, 395, 796], "actions": ["left", "left", "left", "down", "right"], "actionTimes": [44234, 44804, 45402, 46359, 47691], "queries": {"click": {"state": {"target": ["1", "2", "3", "4", "5", "12", "13", "14", "19", "20", "23", "24", "25", "26", "29", "30", "33", "31"], "time": [5581, 7503, 9535, 11494, 13437, 15174, 17259, 19220, 21308, 23475, 26076, 27845, 29912, 31860, 33977, 36475, 39144, 41675]}, "edge": {"target": [], "time": []}}, "mouseover": {"state": {"target": ["1", "2", "3", "4", "5", "6", "1", "12", "13", "14", "19", "20", "22", "23", "23", "24", "25", "26", "29", "30", "32", "30", "31", "33", "31", "31"], "time": [4916, 6147, 8098, 10030, 12202, 13861, 14176, 14553, 15806, 17659, 19891, 21698, 24058, 25459, 25751, 26711, 29634, 30928, 32305, 34549, 34613, 35054, 37143, 38872, 39821, 41140]}, "edge": {"target": [], "time": []}}, "mouseout": {"state": {"target": ["20", "13", "1", "0", "1", "2", "3", "4", "5", "6", "1", "12", "13", "14", "19", "20", "22", "23", "23", "24", "24", "25", "25", "25", "26", "29", "29", "30", "32", "30", "31", "30", "33", "31", "31", "32", "32", "19", "22"], "time": [1160, 1211, 3328, 4843, 6097, 7695, 9960, 11981, 13832, 13921, 14219, 15685, 17619, 19810, 21463, 23975, 24084, 25637, 26577, 28062, 29520, 30111, 30433, 30859, 32101, 34159, 34478, 34590, 34979, 37101, 37968, 38493, 39361, 39907, 42218, 50259, 51624, 52758, 52777]}, "edge": {"target": [], "time": []}}}, "displayed_time": "48.20", "trialTime": 53214, "trial_type": "mouselab-mdp", "trial_index": 33, "time_elapsed": 2529658, "internal_node_id": "0.0-4.0-1.0-6.0"}}, {"uniqueid": "w10087435:a85300846", "current_trial": 34, "dateTime": 1691073638207, "trialdata": {"revealed_states": [], "clicked_states": ["1", "2", "3", "8", "11"], "num_clicks_accrued": [0, 0, 0, 0, 0, 0, 0, 0, 0, 0, 0, 0, 0], "stateRewards": ["", 1, 2, 2, -15, -84, 28, -26, 13, 31, 86, 30, -2, 1, -1, -8, 66, -40, -1, -10, -32, 57, -17, 1, 2, -2, 9, -23, 77, 85, 12, -32, -62, -35], "withholdReward": false, "trial_id": "mdp_trial_8", "block": "test", "trialIndex": 15, "score": 41, "costs": -7, "simulationMode": [null, null, null, null, null], "rewards": [1, 2, 2, 13, 30], "path": ["0", "0", "1", "2", "3", "8", "11"], "rt": [13642, 107, 3, 350, 10], "actions": ["up", "up", "up", "left", "left"], "actionTimes": [17584, 18200, 18711, 19610, 20174], "queries": {"click": {"state": {"target": ["1", "2", "3", "8", "11"], "time": [5261, 8122, 10136, 12179, 14799]}, "edge": {"target": [], "time": []}}, "mouseover": {"state": {"target": ["1", "23", "2", "3", "8", "10", "11", "10"], "time": [4772, 5770, 7675, 8745, 10508, 12733, 14388, 15335]}, "edge": {"target": [], "time": []}}, "mouseout": {"state": {"target": ["13", "14", "17", "16", "2", "1", "1", "23", "2", "3", "8", "10", "8", "11", "11", "10", "2"], "time": [670, 687, 704, 2437, 2947, 3039, 5695, 7571, 8313, 10454, 12589, 13459, 14320, 14996, 15275, 15390, 22520]}, "edge": {"target": [], "time": []}}}, "displayed_time": "20.71", "trialTime": 23898, "trial_type": "mouselab-mdp", "trial_index": 34, "time_elapsed": 2554498, "internal_node_id": "0.0-4.0-1.0-7.0"}}, {"uniqueid": "w10087435:a85300846", "current_trial": 35, "dateTime": 1691073669188, "trialdata": {"revealed_states": [], "clicked_states": ["12", "1", "13", "14", "19", "22", "20", "21"], "num_clicks_accrued": [0, 0, 0, 0, 0, 0, 0, 0, 0, 0, 0, 0, 0], "stateRewards": ["", -2, -3, 1, -7, 39, -67, 16, 5, -20, 73, 66, -1, 4, 5, -3, 23, -68, -87, -8, 3, -3, 17, 1, -4, -2, -13, -32, 34, 61, -5, -11, -18, 12], "withholdReward": false, "trial_id": "mdp_trial_9", "block": "test", "trialIndex": 16, "score": 5.799999999999999, "costs": -11.200000000000001, "simulationMode": [null, null, null, null, null], "rewards": [-1, 4, 5, -8, 17], "path": ["0", "0", "12", "13", "14", "19", "22"], "rt": [21207, 14, 13, 297, 464], "actions": ["right", "right", "right", "down", "left"], "actionTimes": [23940, 24461, 25007, 25882, 26844], "queries": {"click": {"state": {"target": ["12", "1", "13", "14", "19", "22", "20", "21"], "time": [4874, 7562, 9533, 11673, 14850, 17314, 19590, 21911]}, "edge": {"target": [], "time": []}}, "mouseover": {"state": {"target": ["1", "23", "23", "12", "12", "13", "13", "1", "2", "13", "13", "14", "22", "19", "22", "20", "19", "21", "13"], "time": [3240, 3606, 4089, 4240, 4572, 5676, 6033, 7228, 8118, 8404, 8589, 9894, 13293, 14557, 16345, 18399, 20124, 21579, 22842]}, "edge": {"target": [], "time": []}}, "mouseout": {"state": {"target": ["12", "1", "23", "23", "12", "12", "13", "13", "1", "2", "13", "13", "14", "14", "22", "19", "22", "19", "20", "19", "21", "13", "14"], "time": [1471, 3555, 3672, 4168, 4305, 5310, 5748, 6923, 7793, 8305, 8446, 9732, 11891, 12109, 13594, 15618, 17899, 18024, 20089, 21163, 22119, 28514, 28549]}, "edge": {"target": [], "time": []}}}, "displayed_time": "27.35", "trialTime": 30097, "trial_type": "mouselab-mdp", "trial_index": 35, "time_elapsed": 2585479, "internal_node_id": "0.0-4.0-1.0-8.0"}}, {"uniqueid": "w10087435:a85300846", "current_trial": 36, "dateTime": 1691073712043, "trialdata": {"revealed_states": [], "clicked_states": ["23", "24", "25", "30", "31", "33", "1", "2", "3", "4", "6", "5", "7"], "num_clicks_accrued": [0, 0, 0, 0, 0, 0, 0, 0, 0, 0, 0, 0, 0], "stateRewards": ["", 2, -4, 4, 9, 69, 9, -75, 12, -86, 66, 25, -1, 3, 2, -13, -88, -3, 1, 4, -69, 49, -84, 2, -1, 4, 2, -18, -81, -52, -15, -69, -54, 25], "withholdReward": false, "trial_id": "mdp_trial_10", "block": "test", "trialIndex": 17, "score": 61.8, "costs": -18.2, "simulationMode": [null, null, null, null, null, null], "rewards": [2, -4, 4, 9, 69], "path": ["0", "0", "1", "2", "3", "4", "5"], "rt": [29702, 106, 115, 53, 326, 451], "actions": ["up", "up", "up", "up", "right", "up"], "actionTimes": [32223, 32336, 32964, 33533, 34375, 35332], "queries": {"click": {"state": {"target": ["23", "24", "25", "30", "31", "33", "1", "2", "3", "4", "6", "5", "7"], "time": [3573, 5773, 7870, 10497, 12652, 14640, 16771, 19059, 21167, 23403, 26378, 28919, 31209]}, "edge": {"target": [], "time": []}}, "mouseover": {"state": {"target": ["23", "1", "1", "24", "24", "25", "25", "1", "1", "30", "31", "33", "23", "1", "2", "3", "4", "6", "8", "8", "6", "5", "4", "7"], "time": [3245, 4215, 4606, 4957, 5293, 6125, 6568, 8357, 8636, 10145, 11069, 13387, 15252, 15602, 18029, 19906, 22979, 24180, 25362, 25679, 26106, 28645, 29586, 29987]}, "edge": {"target": [], "time": []}}, "mouseout": {"state": {"target": ["0", "23", "1", "1", "24", "24", "25", "25", "1", "1", "24", "30", "31", "30", "33", "23", "1", "2", "3", "4", "6", "8", "8", "4", "6", "6", "4", "4", "5", "4", "7"], "time": [1702, 4171, 4238, 4820, 5029, 6115, 6179, 8317, 8388, 9559, 9824, 11062, 13015, 13057, 15087, 15277, 17331, 19648, 21693, 23889, 25175, 25512, 25712, 25811, 26581, 26897, 26963, 28503, 29481, 29709, 37428]}, "edge": {"target": [], "time": []}}}, "displayed_time": "35.85", "trialTime": 42009, "trial_type": "mouselab-mdp", "trial_index": 36, "time_elapsed": 2628335, "internal_node_id": "0.0-4.0-1.0-9.0"}}, {"uniqueid": "w10087435:a85300846", "current_trial": 37, "dateTime": 1691073753122, "trialdata": {"revealed_states": [], "clicked_states": ["23", "12", "1", "2", "3", "8", "9", "4", "5", "6", "7", "24", "25", "30"], "num_clicks_accrued": [0, 0, 0, 0, 0, 0, 0, 0, 0, 0, 0, 0, 0], "stateRewards": ["", 1, 1, 5, 6, -29, -7, 3, -16, 9, -46, 65, -1, 4, -1, -16, -63, -77, -87, 8, 80, -50, 43, -1, -1, -5, 5, -38, -71, -62, 9, 81, -50, -52], "withholdReward": false, "trial_id": "mdp_trial_11", "block": "test", "trialIndex": 18, "score": -67.6, "costs": -19.599999999999998, "simulationMode": [null, null, null, null, null], "rewards": [-1, -1, -5, 9, -50], "path": ["0", "0", "23", "24", "25", "30", "32"], "rt": [31996, 91, 117, 423, 13], "actions": ["left", "left", "left", "down", "down"], "actionTimes": [34225, 34874, 35507, 36430, 36956], "queries": {"click": {"state": {"target": ["23", "12", "1", "2", "3", "8", "9", "4", "5", "6", "7", "24", "25", "30"], "time": [3626, 5591, 7621, 9575, 11536, 13512, 15818, 18028, 20039, 22324, 24301, 27649, 29687, 32635]}, "edge": {"target": [], "time": []}}, "mouseover": {"state": {"target": ["23", "23", "23", "13", "12", "1", "1", "2", "3", "8", "9", "4", "6", "4", "5", "6", "7", "24", "25", "30", "31"], "time": [2753, 2987, 3286, 4238, 4477, 5973, 6254, 8162, 9954, 11949, 13969, 16260, 16477, 16609, 18494, 22033, 23165, 26989, 28137, 32341, 33644]}, "edge": {"target": [], "time": []}}, "mouseout": {"state": {"target": ["30", "31", "12", "23", "23", "23", "13", "12", "1", "1", "2", "3", "8", "9", "4", "6", "4", "5", "6", "7", "7", "24", "25", "30", "31"], "time": [986, 1019, 1352, 2854, 3054, 3851, 4396, 5859, 6051, 7840, 9896, 11731, 13740, 16211, 16329, 16542, 18223, 20629, 22755, 24482, 24715, 27886, 30789, 32850, 39056]}, "edge": {"target": [], "time": []}}}, "displayed_time": "37.47", "trialTime": 39994, "trial_type": "mouselab-mdp", "trial_index": 37, "time_elapsed": 2669413, "internal_node_id": "0.0-4.0-1.0-10.0"}}, {"uniqueid": "w10087435:a85300846", "current_trial": 38, "dateTime": 1691073775294, "trialdata": {"revealed_states": [], "clicked_states": ["23", "30", "25", "24", "32"], "num_clicks_accrued": [0, 0, 0, 0, 0, 0, 0, 0, 0, 0, 0, 0, 0], "stateRewards": ["", -1, -3, -7, -4, -85, -70, 79, 8, 84, -66, 42, 2, -2, -3, -16, -54, -66, 68, -3, 21, -14, 7, -2, -1, -3, -8, 75, 80, 86, -7, -84, 73, -16], "withholdReward": false, "trial_id": "mdp_trial_12", "block": "test", "trialIndex": 19, "score": 53, "costs": -7, "simulationMode": [null, null, null, null, null], "rewards": [-2, -1, -3, -7, 73], "path": ["0", "0", "23", "24", "25", "30", "32"], "rt": [12289, 16, 83, 350, 15], "actions": ["left", "left", "left", "down", "down"], "actionTimes": [16327, 16840, 17467, 18325, 18839], "queries": {"click": {"state": {"target": ["23", "30", "25", "24", "32"], "time": [5079, 7116, 9667, 11582, 13558]}, "edge": {"target": [], "time": []}}, "mouseover": {"state": {"target": ["23", "24", "25", "30", "33", "25", "25", "24", "32", "32", "31"], "time": [4773, 5606, 5723, 5997, 7542, 8906, 9268, 10334, 12100, 12699, 14048]}, "edge": {"target": [], "time": []}}, "mouseout": {"state": {"target": ["17", "15", "23", "24", "25", "30", "33", "25", "25", "24", "32", "32", "31"], "time": [2655, 2673, 5579, 5679, 5747, 7479, 8840, 8939, 10051, 11936, 12362, 13754, 15813]}, "edge": {"target": [], "time": []}}}, "displayed_time": "19.36", "trialTime": 21188, "trial_type": "mouselab-mdp", "trial_index": 38, "time_elapsed": 2691585, "internal_node_id": "0.0-4.0-1.0-11.0"}}, {"uniqueid": "w10087435:a85300846", "current_trial": 39, "dateTime": 1691073800470, "trialdata": {"revealed_states": [], "clicked_states": ["12", "14", "19", "21", "20"], "num_clicks_accrued": [0, 0, 0, 0, 0, 0, 0, 0, 0, 0, 0, 0, 0], "stateRewards": ["", 1, -1, 8, 4, 76, -33, -17, -3, -1, -54, -74, -2, 2, -5, 13, -51, 63, 83, 1, 84, 29, -36, 2, -1, 7, -12, -10, -44, -43, -14, 8, -69, 19], "withholdReward": false, "trial_id": "mdp_trial_13", "block": "test", "trialIndex": 20, "score": 73, "costs": -7, "simulationMode": [null, null, null, null, null], "rewards": [-2, 2, -5, 1, 84], "path": ["0", "0", "12", "13", "14", "19", "20"], "rt": [13154, 18, 58, 557, 385], "actions": ["right", "right", "right", "down", "right"], "actionTimes": [17034, 17547, 18159, 19236, 20130], "queries": {"click": {"state": {"target": ["12", "14", "19", "21", "20"], "time": [5114, 7295, 9319, 11225, 14075]}, "edge": {"target": [], "time": []}}, "mouseover": {"state": {"target": ["12", "13", "14", "19", "14", "13", "19", "21", "20", "22", "0"], "time": [4643, 5678, 6334, 6460, 6898, 7862, 8257, 9736, 11884, 14558, 16241]}, "edge": {"target": [], "time": []}}, "mouseout": {"state": {"target": ["0", "12", "13", "14", "19", "14", "13", "19", "21", "20", "22", "0", "13"], "time": [3008, 5631, 6280, 6412, 6858, 7499, 8039, 9680, 11712, 14530, 14584, 21707, 21743]}, "edge": {"target": [], "time": []}}}, "displayed_time": "20.63", "trialTime": 24107, "trial_type": "mouselab-mdp", "trial_index": 39, "time_elapsed": 2716763, "internal_node_id": "0.0-4.0-1.0-12.0"}}, {"uniqueid": "w10087435:a85300846", "current_trial": 40, "dateTime": 1691073828167, "trialdata": {"revealed_states": [], "clicked_states": ["23", "25", "30", "33", "31", "32"], "num_clicks_accrued": [0, 0, 0, 0, 0, 0, 0, 0, 0, 0, 0, 0, 0], "stateRewards": ["", 1, 1, 4, 11, 83, -66, 18, -16, -23, 5, 25, 1, -3, 1, -12, 18, 24, -86, -11, -64, 36, 40, 2, 1, -6, 13, 55, 29, 72, -2, 81, -72, -41], "withholdReward": false, "trial_id": "mdp_trial_14", "block": "test", "trialIndex": 21, "score": -85.4, "costs": -8.4, "simulationMode": [null, null, null, null, null], "rewards": [2, 1, -6, -2, -72], "path": ["0", "0", "23", "24", "25", "30", "32"], "rt": [14594, 60, 5, 390, 53], "actions": ["left", "left", "left", "down", "down"], "actionTimes": [17290, 17929, 18474, 19416, 20028], "queries": {"click": {"state": {"target": ["23", "25", "30", "33", "31", "32"], "time": [3861, 5971, 8003, 9892, 12623, 14845]}, "edge": {"target": [], "time": []}}, "mouseover": {"state": {"target": ["23", "24", "25", "30", "32", "30", "33", "24", "31", "32", "24"], "time": [3588, 4330, 4703, 6414, 6531, 6784, 8468, 10657, 12215, 13499, 15393]}, "edge": {"target": [], "time": []}}, "mouseout": {"state": {"target": ["21", "1", "1", "0", "23", "24", "25", "30", "32", "30", "33", "30", "24", "31", "32", "24", "17", "20"], "time": [1143, 1215, 1626, 3338, 4070, 4405, 6409, 6469, 6668, 8461, 10453, 10514, 12130, 13101, 15260, 15540, 24344, 26016]}, "edge": {"target": [], "time": []}}}, "displayed_time": "20.55", "trialTime": 26453, "trial_type": "mouselab-mdp", "trial_index": 40, "time_elapsed": 2744458, "internal_node_id": "0.0-4.0-1.0-13.0"}}, {"uniqueid": "w10087435:a85300846", "current_trial": 41, "dateTime": 1691073858093, "trialdata": {"revealed_states": [], "clicked_states": ["25", "30", "33", "23", "26", "29", "28", "27"], "num_clicks_accrued": [0, 0, 0, 0, 0, 0, 0, 0, 0, 0, 0, 0, 0], "stateRewards": ["", -1, 2, -2, 13, -56, -28, 10, 14, 53, -80, -29, 1, -3, -3, -14, 14, 9, -40, -9, 18, 18, 48, 1, 1, 1, -9, 64, -39, -9, 7, -52, -78, 7], "withholdReward": false, "trial_id": "mdp_trial_15", "block": "test", "trialIndex": 22, "score": 46.8, "costs": -11.200000000000001, "simulationMode": [null, null, null, null, null], "rewards": [1, 1, 1, -9, 64], "path": ["0", "0", "23", "24", "25", "26", "27"], "rt": [18930, 223, 237, 452, 97], "actions": ["left", "left", "left", "up", "up"], "actionTimes": [22752, 23495, 24241, 25201, 25796], "queries": {"click": {"state": {"target": ["25", "30", "33", "23", "26", "29", "28", "27"], "time": [5313, 7499, 9433, 11604, 13929, 15912, 18171, 20372]}, "edge": {"target": [], "time": []}}, "mouseover": {"state": {"target": ["0", "23", "24", "25", "30", "33", "33", "24", "23", "24", "24", "26", "29", "28", "26", "27", "24"], "time": [4601, 4712, 4816, 4978, 5901, 7852, 8294, 10407, 11014, 12049, 12467, 13479, 14362, 16973, 18684, 19711, 20921]}, "edge": {"target": [], "time": []}}, "mouseout": {"state": {"target": ["0", "0", "23", "24", "25", "30", "33", "33", "24", "23", "24", "24", "26", "29", "28", "26", "27", "24"], "time": [2855, 4679, 4788, 4882, 5835, 7824, 7900, 9946, 10851, 11826, 12100, 13376, 14335, 16380, 18374, 19230, 20818, 21067]}, "edge": {"target": [], "time": []}}}, "displayed_time": "26.36", "trialTime": 28879, "trial_type": "mouselab-mdp", "trial_index": 41, "time_elapsed": 2774384, "internal_node_id": "0.0-4.0-1.0-14.0"}}, {"uniqueid": "w10087435:a85300846", "current_trial": 42, "dateTime": 1691073878436, "trialdata": {"revealed_states": [], "clicked_states": ["13", "14", "19", "21"], "num_clicks_accrued": [0, 0, 0, 0, 0, 0, 0, 0, 0, 0, 0, 0, 0], "stateRewards": ["", 2, -4, -4, 13, -80, 62, 13, -11, 57, -13, -44, 1, 4, 3, -4, -29, -88, 15, 16, -58, 68, -45, -1, -3, -1, -9, -44, -86, -19, -7, -36, 59, 66], "withholdReward": false, "trial_id": "mdp_trial_16", "block": "test", "trialIndex": 23, "score": 86.4, "costs": -5.6, "simulationMode": [null, null, null, null, null], "rewards": [1, 4, 3, 16, 68], "path": ["0", "0", "12", "13", "14", "19", "21"], "rt": [9721, 57, 390, 392, 21], "actions": ["right", "right", "right", "down", "down"], "actionTimes": [13267, 13892, 14812, 15729, 16267], "queries": {"click": {"state": {"target": ["13", "14", "19", "21"], "time": [5123, 6720, 8709, 10554]}, "edge": {"target": [], "time": []}}, "mouseover": {"state": {"target": ["12", "13", "14", "14", "19", "21", "20"], "time": [4358, 4650, 5671, 6220, 7615, 9102, 12191]}, "edge": {"target": [], "time": []}}, "mouseout": {"state": {"target": ["21", "0", "12", "13", "14", "14", "19", "21", "19", "20", "19"], "time": [1487, 2065, 4617, 5644, 5750, 7162, 9054, 11229, 11818, 12753, 12800]}, "edge": {"target": [], "time": []}}}, "displayed_time": "17.55", "trialTime": 19432, "trial_type": "mouselab-mdp", "trial_index": 42, "time_elapsed": 2794728, "internal_node_id": "0.0-4.0-1.0-15.0"}}, {"uniqueid": "w10087435:a85300846", "current_trial": 43, "dateTime": 1691073911732, "trialdata": {"revealed_states": [], "clicked_states": ["1", "2", "3", "8", "11", "9", "10", "6", "4"], "num_clicks_accrued": [0, 0, 0, 0, 0, 0, 0, 0, 0, 0, 0, 0, 0], "stateRewards": ["", 2, -1, 3, -12, -83, 6, -33, 9, 28, 24, -50, -2, -1, -2, -5, -87, 37, 82, 12, 80, -5, 10, -2, -3, -6, 9, 22, -1, 16, 9, 77, -62, 58], "withholdReward": false, "trial_id": "mdp_trial_17", "block": "test", "trialIndex": 24, "score": 24.4, "costs": -12.600000000000001, "simulationMode": [null, null, null, null, null], "rewards": [2, -1, 3, 9, 24], "path": ["0", "0", "1", "2", "3", "8", "10"], "rt": [21660, 478, 76, 1250, 419], "actions": ["up", "up", "up", "left", "down"], "actionTimes": [25787, 26803, 27416, 29211, 30129], "queries": {"click": {"state": {"target": ["1", "2", "3", "8", "11", "9", "10", "6", "4"], "time": [5825, 7843, 9855, 11840, 13728, 15751, 17936, 20247, 22442]}, "edge": {"target": [], "time": []}}, "mouseover": {"state": {"target": ["0", "1", "2", "2", "3", "8", "11", "9", "10", "4", "4", "6", "4", "7", "4", "7", "8"], "time": [4949, 5229, 6310, 6626, 8141, 10272, 12252, 14373, 16585, 18544, 18999, 19775, 20723, 21465, 21878, 23307, 24810]}, "edge": {"target": [], "time": []}}, "mouseout": {"state": {"target": ["0", "0", "1", "2", "2", "3", "8", "11", "9", "8", "10", "4", "4", "6", "6", "4", "7", "4", "7", "8", "2"], "time": [3409, 4969, 6050, 6391, 8097, 10245, 12054, 14227, 16112, 16184, 18120, 18759, 19379, 20444, 20679, 20760, 21820, 22946, 24489, 24922, 31871]}, "edge": {"target": [], "time": []}}}, "displayed_time": "30.71", "trialTime": 32341, "trial_type": "mouselab-mdp", "trial_index": 43, "time_elapsed": 2828025, "internal_node_id": "0.0-4.0-1.0-16.0"}}, {"uniqueid": "w10087435:a85300846", "current_trial": 44, "dateTime": 1691073938919, "trialdata": {"revealed_states": [], "clicked_states": ["25", "33", "23", "31", "32", "14", "20"], "num_clicks_accrued": [0, 0, 0, 0, 0, 0, 0, 0, 0, 0, 0, 0, 0], "stateRewards": ["", 1, 3, 1, -13, 52, -28, 67, -14, 3, 63, -70, -1, -4, 7, -11, -10, 47, -18, 6, 69, -9, -61, 2, 3, -6, 10, 63, -34, 40, -6, -79, -35, -32], "withholdReward": false, "trial_id": "mdp_trial_18", "block": "test", "trialIndex": 25, "score": 67.2, "costs": -9.8, "simulationMode": [null, null, null, null, null], "rewards": [-1, -4, 7, 6, 69], "path": ["0", "0", "12", "13", "14", "19", "20"], "rt": [16547, 48, 252, 337, 1328], "actions": ["right", "right", "right", "down", "right"], "actionTimes": [19233, 19797, 20565, 21403, 23242], "queries": {"click": {"state": {"target": ["25", "33", "23", "31", "32", "14", "20"], "time": [4061, 6183, 8244, 10238, 12385, 14784, 16522]}, "edge": {"target": [], "time": []}}, "mouseover": {"state": {"target": ["23", "24", "25", "24", "30", "30", "33", "30", "31", "23", "23", "31", "32", "19", "14", "19", "20", "19"], "time": [3294, 3629, 3742, 4592, 5265, 5743, 5897, 6592, 6738, 6977, 7085, 8704, 11458, 13265, 13915, 15330, 15951, 18675]}, "edge": {"target": [], "time": []}}, "mouseout": {"state": {"target": ["0", "23", "24", "25", "24", "30", "30", "33", "30", "31", "23", "23", "31", "32", "19", "14", "19", "20", "19"], "time": [1825, 3610, 3695, 4540, 5199, 5397, 5859, 6394, 6644, 6884, 7017, 8617, 10701, 12581, 13314, 15304, 15357, 16949, 18759]}, "edge": {"target": [], "time": []}}}, "displayed_time": "23.88", "trialTime": 25911, "trial_type": "mouselab-mdp", "trial_index": 44, "time_elapsed": 2855209, "internal_node_id": "0.0-4.0-1.0-17.0"}}, {"uniqueid": "w10087435:a85300846", "current_trial": 45, "dateTime": 1691073964417, "trialdata": {"revealed_states": [], "clicked_states": ["9", "11", "6", "2", "3", "8"], "num_clicks_accrued": [0, 0, 0, 0, 0, 0, 0, 0, 0, 0, 0, 0, 0], "stateRewards": ["", 1, -3, -2, 14, 49, -40, -39, 2, 26, -61, 73, 1, -4, -8, 12, 79, 29, -65, -13, 55, -26, 27, -1, 3, 3, 9, -17, -60, -18, -8, 35, -88, 69], "withholdReward": false, "trial_id": "mdp_trial_19", "block": "test", "trialIndex": 26, "score": 62.6, "costs": -8.4, "simulationMode": [null, null, null, null, null], "rewards": [1, -3, -2, 2, 73], "path": ["0", "0", "1", "2", "3", "8", "11"], "rt": [15588, 14, 364, 408, 88], "actions": ["up", "up", "up", "left", "left"], "actionTimes": [18639, 19199, 20090, 21004, 21597], "queries": {"click": {"state": {"target": ["9", "11", "6", "2", "3", "8"], "time": [5559, 8443, 11169, 12825, 14822, 16769]}, "edge": {"target": [], "time": []}}, "mouseover": {"state": {"target": ["12", "18", "7", "3", "8", "9", "8", "5", "5", "8", "11", "8", "5", "6", "7", "2", "3", "8", "10"], "time": [3789, 3918, 4052, 4167, 4533, 5288, 6075, 6856, 7571, 7834, 8139, 8847, 9291, 10844, 11608, 11979, 13554, 15267, 17174]}, "edge": {"target": [], "time": []}}, "mouseout": {"state": {"target": ["15", "12", "18", "7", "3", "8", "9", "8", "5", "5", "8", "11", "8", "5", "6", "7", "2", "3", "8", "10"], "time": [1756, 3821, 4011, 4131, 4484, 4584, 6068, 6221, 7372, 7743, 7973, 8781, 8878, 10572, 11603, 11661, 13242, 15194, 17145, 17216]}, "edge": {"target": [], "time": []}}}, "displayed_time": "22.13", "trialTime": 24569, "trial_type": "mouselab-mdp", "trial_index": 45, "time_elapsed": 2880708, "internal_node_id": "0.0-4.0-1.0-18.0"}}, {"uniqueid": "w10087435:a85300846", "current_trial": 46, "dateTime": 1691073992534, "trialdata": {"revealed_states": [], "clicked_states": ["20", "21", "16", "17", "18"], "num_clicks_accrued": [0, 0, 0, 0, 0, 0, 0, 0, 0, 0, 0, 0, 0], "stateRewards": ["", -2, -3, -3, 9, 79, 67, 22, -15, -56, 27, -85, -2, 4, -4, -15, -20, -32, 60, 15, 71, 57, 17, 1, 2, -8, 15, -37, -81, 82, 15, 21, -3, 2], "withholdReward": false, "trial_id": "mdp_trial_20", "block": "test", "trialIndex": 27, "score": 77, "costs": -7, "simulationMode": [null, null, null, null, null], "rewards": [-2, 4, -4, 15, 71], "path": ["0", "0", "12", "13", "14", "19", "20"], "rt": [14887, 116, 7, 655, 695], "actions": ["right", "right", "right", "down", "right"], "actionTimes": [21172, 21815, 22337, 23521, 24722], "queries": {"click": {"state": {"target": ["20", "21", "16", "17", "18"], "time": [7384, 9914, 13073, 16378, 19221]}, "edge": {"target": [], "time": []}}, "mouseover": {"state": {"target": ["19", "20", "21", "19", "16", "16", "17", "14", "14", "18"], "time": [6762, 6946, 7956, 10299, 11124, 12502, 16115, 16952, 18512, 18919]}, "edge": {"target": [], "time": []}}, "mouseout": {"state": {"target": ["21", "22", "0", "0", "19", "20", "21", "19", "16", "16", "16", "17", "17", "14", "14", "18", "19"], "time": [4344, 4633, 5120, 6663, 6814, 7883, 10133, 10350, 11578, 13276, 14929, 16609, 16866, 17045, 18578, 19636, 26428]}, "edge": {"target": [], "time": []}}}, "displayed_time": "25.23", "trialTime": 27161, "trial_type": "mouselab-mdp", "trial_index": 46, "time_elapsed": 2908825, "internal_node_id": "0.0-4.0-1.0-19.0"}}, {"uniqueid": "w10087435:a85300846", "current_trial": 47, "dateTime": 1691074017529, "trialdata": {"revealed_states": [], "clicked_states": ["33", "31", "32", "20", "22", "21"], "num_clicks_accrued": [0, 0, 0, 0, 0, 0, 0, 0, 0, 0, 0, 0, 0], "stateRewards": ["", 1, -2, -8, -3, 31, -84, -55, -14, 15, -58, 17, -2, -3, 7, 7, -12, 48, 67, 4, -44, -68, 46, 2, 3, -5, -7, 76, 27, 5, 11, 57, 52, 59], "withholdReward": false, "trial_id": "mdp_trial_21", "block": "test", "trialIndex": 28, "score": 61.6, "costs": -8.4, "simulationMode": [null, null, null, null, null], "rewards": [2, 3, -5, 11, 59], "path": ["0", "0", "23", "24", "25", "30", "33"], "rt": [14880, 84, 30, 466, 740], "actions": ["left", "left", "left", "down", "left"], "actionTimes": [17342, 17996, 18539, 19535, 20758], "queries": {"click": {"state": {"target": ["33", "31", "32", "20", "22", "21"], "time": [3591, 5668, 7809, 10110, 12839, 14990]}, "edge": {"target": [], "time": []}}, "mouseover": {"state": {"target": ["33", "30", "31", "32", "20", "19", "22", "21"], "time": [3345, 4322, 4603, 6128, 9008, 12103, 12457, 13428]}, "edge": {"target": [], "time": []}}, "mouseout": {"state": {"target": ["0", "33", "30", "31", "32", "20", "19", "22", "21"], "time": [1375, 4293, 4376, 6077, 8278, 11563, 12391, 13370, 15827]}, "edge": {"target": [], "time": []}}}, "displayed_time": "21.26", "trialTime": 23949, "trial_type": "mouselab-mdp", "trial_index": 47, "time_elapsed": 2933820, "internal_node_id": "0.0-4.0-1.0-20.0"}}, {"uniqueid": "w10087435:a85300846", "current_trial": 48, "dateTime": 1691074041837, "trialdata": {"revealed_states": [], "clicked_states": ["27", "29", "17", "16", "18", "20"], "num_clicks_accrued": [0, 0, 0, 0, 0, 0, 0, 0, 0, 0, 0, 0, 0], "stateRewards": ["", 2, 4, -3, 16, -58, 30, -35, 11, -60, 47, 27, -2, -1, -7, -16, 23, -70, 68, -10, -65, -43, -34, -2, 1, 7, 9, -63, 34, -31, -8, -12, -86, 59], "withholdReward": false, "trial_id": "mdp_trial_22", "block": "test", "trialIndex": 29, "score": 33.6, "costs": -8.4, "simulationMode": [null, null, null, null, null], "rewards": [-2, -1, -7, -16, 68], "path": ["0", "0", "12", "13", "14", "15", "18"], "rt": [14546, 117, 344, 444, 317], "actions": ["right", "right", "right", "up", "left"], "actionTimes": [16395, 17008, 17868, 18816, 19656], "queries": {"click": {"state": {"target": ["27", "29", "17", "16", "18", "20"], "time": [3314, 5365, 8093, 10115, 12128, 13939]}, "edge": {"target": [], "time": []}}, "mouseover": {"state": {"target": ["28", "25", "26", "27", "29", "26", "28", "1", "18", "15", "17", "17", "16", "18", "14", "19", "20", "14", "13"], "time": [2419, 2669, 2786, 2969, 4046, 5718, 5812, 6202, 6257, 6298, 6777, 7819, 8655, 10558, 12778, 12877, 13180, 15047, 16001]}, "edge": {"target": [], "time": []}}, "mouseout": {"state": {"target": ["0", "28", "25", "26", "27", "29", "26", "28", "1", "18", "15", "17", "17", "16", "18", "14", "19", "20", "14", "13", "14"], "time": [868, 2562, 2719, 2854, 3914, 5650, 5747, 6116, 6230, 6291, 6372, 6827, 8559, 10483, 12707, 12849, 12906, 14872, 15995, 16036, 21202]}, "edge": {"target": [], "time": []}}}, "displayed_time": "20.16", "trialTime": 23207, "trial_type": "mouselab-mdp", "trial_index": 48, "time_elapsed": 2958128, "internal_node_id": "0.0-4.0-1.0-21.0"}}, {"uniqueid": "w10087435:a85300846", "current_trial": 49, "dateTime": 1691074065109, "trialdata": {"revealed_states": [], "clicked_states": ["5", "6", "9", "11", "17", "16"], "num_clicks_accrued": [0, 0, 0, 0, 0, 0, 0, 0, 0, 0, 0, 0, 0], "stateRewards": ["", -2, 1, -7, 9, 8, 25, 61, -7, -17, 69, -81, 1, 4, -4, -11, 16, 67, 44, 3, 6, -45, -54, -2, 3, 6, -11, -15, 32, -47, 3, -39, -6, -88], "withholdReward": false, "trial_id": "mdp_trial_23", "block": "test", "trialIndex": 30, "score": 48.6, "costs": -8.4, "simulationMode": [null, null, null, null, null], "rewards": [1, 4, -4, -11, 67], "path": ["0", "0", "12", "13", "14", "15", "17"], "rt": [13327, 6, 7, 420, 237], "actions": ["right", "right", "right", "up", "right"], "actionTimes": [15832, 16349, 16871, 17831, 18569], "queries": {"click": {"state": {"target": ["5", "6", "9", "11", "17", "16"], "time": [3675, 5731, 7907, 9881, 12135, 14116]}, "edge": {"target": [], "time": []}}, "mouseover": {"state": {"target": ["7", "5", "7", "6", "1", "2", "3", "9", "9", "11", "20", "17", "16"], "time": [3047, 3292, 4291, 4779, 6448, 6552, 6586, 6618, 6970, 8960, 10453, 11548, 13029]}, "edge": {"target": [], "time": []}}, "mouseout": {"state": {"target": ["25", "23", "0", "7", "5", "7", "6", "1", "2", "3", "9", "9", "11", "11", "20", "17", "16", "18"], "time": [973, 1044, 3006, 3100, 4221, 4732, 6149, 6523, 6580, 6613, 6648, 8909, 10097, 10299, 11236, 12955, 14655, 20058]}, "edge": {"target": [], "time": []}}}, "displayed_time": "19.08", "trialTime": 22239, "trial_type": "mouselab-mdp", "trial_index": 49, "time_elapsed": 2981401, "internal_node_id": "0.0-4.0-1.0-22.0"}}, {"uniqueid": "w10087435:a85300846", "current_trial": 50, "dateTime": 1691074089427, "trialdata": {"revealed_states": [], "clicked_states": ["33", "27", "25", "26", "23", "24"], "num_clicks_accrued": [0, 0, 0, 0, 0, 0, 0, 0, 0, 0, 0, 0, 0], "stateRewards": ["", -1, 1, 3, -8, -23, -15, -14, -11, -23, 58, 68, 1, 3, 5, 12, -17, -41, -7, -10, -4, 82, 10, 1, 4, -4, 11, 73, 55, -55, -1, -86, -86, 54], "withholdReward": false, "trial_id": "mdp_trial_24", "block": "test", "trialIndex": 31, "score": 76.6, "costs": -8.4, "simulationMode": [null, null, null, null, null, null], "rewards": [1, 4, -4, 11, 73], "path": ["0", "0", "23", "24", "25", "26", "27"], "rt": [14281, 357, 50, 732, 548, 82], "actions": ["left", "left", "left", "left", "up", "up"], "actionTimes": [16604, 16969, 17519, 18791, 19863, 20451], "queries": {"click": {"state": {"target": ["33", "27", "25", "26", "23", "24"], "time": [3559, 5726, 9438, 11463, 13537, 15523]}, "edge": {"target": [], "time": []}}, "mouseover": {"state": {"target": ["23", "24", "25", "33", "25", "26", "27", "17", "23", "30", "24", "25", "26", "28", "23", "23", "23", "24", "24", "0"], "time": [2797, 2864, 2947, 3131, 4218, 4705, 5105, 6683, 8187, 8218, 8797, 9138, 10069, 11830, 11920, 12115, 12480, 14013, 14423, 15946]}, "edge": {"target": [], "time": []}}, "mouseout": {"state": {"target": ["0", "23", "24", "25", "33", "25", "26", "27", "17", "23", "30", "24", "25", "26", "28", "23", "23", "23", "24", "24", "0", "21"], "time": [2763, 2831, 2897, 3047, 4190, 4266, 4928, 5952, 8112, 8214, 8772, 8914, 9955, 11803, 11857, 12060, 12166, 14005, 14114, 15912, 16016, 21930]}, "edge": {"target": [], "time": []}}}, "displayed_time": "20.98", "trialTime": 23347, "trial_type": "mouselab-mdp", "trial_index": 50, "time_elapsed": 3005719, "internal_node_id": "0.0-4.0-1.0-23.0"}}, {"uniqueid": "w10087435:a85300846", "current_trial": 51, "dateTime": 1691074109041, "trialdata": {"revealed_states": [], "clicked_states": ["29", "5", "6"], "num_clicks_accrued": [0, 0, 0, 0, 0, 0, 0, 0, 0, 0, 0, 0, 0], "stateRewards": ["", -1, 2, 7, 8, 75, 67, -11, 6, 52, -17, 38, -1, 4, -8, 14, 74, -37, -17, -12, 52, 55, 71, -2, -1, -5, 2, 21, 6, -88, -14, 64, -61, -47], "withholdReward": false, "trial_id": "mdp_trial_25", "block": "test", "trialIndex": 32, "score": 86.8, "costs": -4.199999999999999, "simulationMode": [null, null, null, null, null], "rewards": [-1, 2, 7, 8, 75], "path": ["0", "0", "1", "2", "3", "4", "5"], "rt": [8059, 24, 160, 763, 436], "actions": ["up", "up", "up", "right", "up"], "actionTimes": [10289, 10865, 11540, 12810, 13757], "queries": {"click": {"state": {"target": ["29", "5", "6"], "time": [3657, 5611, 7896]}, "edge": {"target": [], "time": []}}, "mouseover": {"state": {"target": ["24", "25", "29", "8", "5", "6", "4", "2", "3"], "time": [2880, 3029, 3291, 4097, 4502, 6297, 8308, 8750, 9247]}, "edge": {"target": [], "time": []}}, "mouseout": {"state": {"target": ["0", "24", "25", "29", "8", "5", "6", "4", "2", "3", "22"], "time": [2802, 2943, 3144, 4047, 4159, 5965, 8300, 8336, 8907, 15842, 17609]}, "edge": {"target": [], "time": []}}}, "displayed_time": "16.23", "trialTime": 18469, "trial_type": "mouselab-mdp", "trial_index": 51, "time_elapsed": 3025332, "internal_node_id": "0.0-4.0-1.0-24.0"}}, {"uniqueid": "w10087435:a85300846", "current_trial": 52, "dateTime": 1691074136224, "trialdata": {"revealed_states": [], "clicked_states": ["6", "11", "9", "16", "17", "20", "21"], "num_clicks_accrued": [0, 0, 0, 0, 0, 0, 0, 0, 0, 0, 0, 0, 0], "stateRewards": ["", 2, -3, -5, 5, 11, -9, -33, 6, 67, 6, -30, -1, -2, -6, 13, 55, 13, 72, -14, 75, 21, -66, -2, -4, 6, 15, -1, -35, 60, 2, 51, -73, 12], "withholdReward": false, "trial_id": "mdp_trial_26", "block": "test", "trialIndex": 33, "score": 42.2, "costs": -9.8, "simulationMode": [null, null, null, null, null], "rewards": [-1, -2, -6, -14, 75], "path": ["0", "0", "12", "13", "14", "19", "20"], "rt": [16014, 71, 7, 532, 464], "actions": ["right", "right", "right", "down", "right"], "actionTimes": [19465, 20061, 20570, 21628, 22594], "queries": {"click": {"state": {"target": ["6", "11", "9", "16", "17", "20", "21"], "time": [4630, 7088, 9120, 11242, 12948, 15528, 17547]}, "edge": {"target": [], "time": []}}, "mouseover": {"state": {"target": ["1", "4", "6", "5", "9", "11", "9", "6", "18", "22", "20", "17", "16", "17", "20", "21"], "time": [3894, 4076, 4278, 5636, 6377, 6794, 7677, 9555, 9643, 9695, 10093, 10215, 10702, 11672, 15241, 16810]}, "edge": {"target": [], "time": []}}, "mouseout": {"state": {"target": ["0", "0", "1", "4", "6", "5", "9", "11", "9", "6", "18", "22", "20", "17", "16", "17", "20", "20", "21", "20"], "time": [1515, 3828, 3927, 4244, 5318, 5929, 6458, 7506, 9446, 9586, 9688, 9724, 10120, 10270, 11638, 14643, 15722, 16074, 17741, 18217]}, "edge": {"target": [], "time": []}}}, "displayed_time": "23.10", "trialTime": 26071, "trial_type": "mouselab-mdp", "trial_index": 52, "time_elapsed": 3052515, "internal_node_id": "0.0-4.0-1.0-25.0"}}, {"uniqueid": "w10087435:a85300846", "current_trial": 53, "dateTime": 1691074158777, "trialdata": {"revealed_states": [], "clicked_states": ["33", "27", "9", "5", "17", "6"], "num_clicks_accrued": [0, 0, 0, 0, 0, 0, 0, 0, 0, 0, 0, 0, 0], "stateRewards": ["", 2, -3, 5, -14, -63, -9, -24, -11, -54, -43, 68, 2, -2, -4, 7, -64, 30, 47, 12, -74, 11, 86, 1, -3, 3, 10, -71, -42, -52, -1, -29, -16, 69], "withholdReward": false, "trial_id": "mdp_trial_27", "block": "test", "trialIndex": 34, "score": 60.6, "costs": -8.4, "simulationMode": [null, null, null, null, null], "rewards": [1, -3, 3, -1, 69], "path": ["0", "0", "23", "24", "25", "30", "33"], "rt": [13694, 25, 226, 483, 626], "actions": ["left", "left", "left", "down", "left"], "actionTimes": [15659, 16184, 16952, 17944, 19082], "queries": {"click": {"state": {"target": ["33", "27", "9", "5", "17", "6"], "time": [2978, 4931, 7247, 9257, 11230, 14031]}, "edge": {"target": [], "time": []}}, "mouseover": {"state": {"target": ["23", "25", "33", "27", "27", "10", "2", "10", "9", "5", "15", "17", "15", "7", "6", "6"], "time": [2415, 2485, 2605, 3500, 3869, 5504, 5605, 6226, 6739, 8243, 10052, 10574, 11663, 12049, 12251, 13757]}, "edge": {"target": [], "time": []}}, "mouseout": {"state": {"target": ["31", "0", "23", "25", "33", "27", "27", "10", "2", "10", "9", "5", "5", "15", "17", "15", "7", "6", "6"], "time": [608, 1103, 2469, 2541, 3460, 3530, 5447, 5554, 5655, 6272, 7946, 9454, 9659, 10502, 11454, 11695, 12121, 12413, 14463]}, "edge": {"target": [], "time": []}}}, "displayed_time": "19.66", "trialTime": 21460, "trial_type": "mouselab-mdp", "trial_index": 53, "time_elapsed": 3075069, "internal_node_id": "0.0-4.0-1.0-26.0"}}, {"uniqueid": "w10087435:a85300846", "current_trial": 54, "dateTime": 1691074187567, "trialdata": {"revealed_states": [], "clicked_states": ["5", "17", "20", "21", "16", "18", "14", "15"], "num_clicks_accrued": [0, 0, 0, 0, 0, 0, 0, 0, 0, 0, 0, 0, 0], "stateRewards": ["", -2, -4, -2, -13, -15, 87, -19, -6, -80, 30, 12, 1, 1, -8, 2, 55, 56, 15, 11, -68, -7, 55, -2, 3, -3, -3, 48, 62, 4, 1, -3, 69, -33], "withholdReward": false, "trial_id": "mdp_trial_28", "block": "test", "trialIndex": 35, "score": 40.8, "costs": -11.200000000000001, "simulationMode": [null, null, null, null, null], "rewards": [1, 1, -8, 2, 56], "path": ["0", "0", "12", "13", "14", "15", "17"], "rt": [17688, 7, 638, 353, 183], "actions": ["right", "right", "right", "up", "right"], "actionTimes": [21666, 22184, 23366, 24229, 24909], "queries": {"click": {"state": {"target": ["5", "17", "20", "21", "16", "18", "14", "15"], "time": [5018, 6980, 8980, 10952, 12848, 15005, 17233, 19230]}, "edge": {"target": [], "time": []}}, "mouseover": {"state": {"target": ["1", "3", "5", "16", "17", "20", "21", "13", "15", "16", "18", "15", "17", "14", "14", "15", "17"], "time": [4451, 4539, 4655, 5530, 5830, 7393, 9418, 11394, 12077, 12471, 13824, 15411, 15467, 15753, 16689, 17780, 19694]}, "edge": {"target": [], "time": []}}, "mouseout": {"state": {"target": ["13", "17", "18", "1", "1", "3", "5", "5", "16", "17", "20", "21", "13", "15", "16", "16", "18", "15", "17", "14", "14", "15", "17"], "time": [647, 685, 2721, 2929, 4534, 4563, 5225, 5363, 5577, 7299, 9341, 11326, 11432, 12107, 13040, 13420, 15241, 15439, 15496, 15782, 17728, 19688, 19843]}, "edge": {"target": [], "time": []}}}, "displayed_time": "25.43", "trialTime": 27818, "trial_type": "mouselab-mdp", "trial_index": 54, "time_elapsed": 3103859, "internal_node_id": "0.0-4.0-1.0-27.0"}}, {"uniqueid": "w10087435:a85300846", "current_trial": 55, "dateTime": 1691074218106, "trialdata": {"revealed_states": [], "clicked_states": ["5", "6", "11", "9", "33", "31", "32"], "num_clicks_accrued": [0, 0, 0, 0, 0, 0, 0, 0, 0, 0, 0, 0, 0], "stateRewards": ["", 1, 2, -3, -5, 66, -50, -47, -5, 1, 28, -27, 1, 1, -1, -6, 37, -25, 56, 1, -82, -66, -40, -1, -4, -7, 15, -61, -23, 26, 10, 14, -56, 29], "withholdReward": false, "trial_id": "mdp_trial_29", "block": "test", "trialIndex": 36, "score": 17.2, "costs": -9.8, "simulationMode": [null, null, null, null, null], "rewards": [-1, -4, -7, 10, 29], "path": ["0", "0", "23", "24", "25", "30", "33"], "rt": [18481, 51, 353, 448, 303], "actions": ["left", "left", "left", "down", "left"], "actionTimes": [21936, 22496, 23396, 24367, 25249], "queries": {"click": {"state": {"target": ["5", "6", "11", "9", "33", "31", "32"], "time": [4692, 6908, 8840, 10772, 14218, 16354, 19662]}, "edge": {"target": [], "time": []}}, "mouseover": {"state": {"target": ["1", "5", "5", "6", "4", "3", "8", "9", "11", "9", "26", "25", "30", "33", "33", "25", "31", "0", "23", "24", "24", "25", "30", "32"], "time": [3914, 4035, 4274, 5190, 7288, 7322, 7380, 7438, 7900, 9439, 11239, 11582, 11796, 11941, 13948, 14928, 15910, 17272, 17841, 17976, 18107, 18685, 19040, 19259]}, "edge": {"target": [], "time": []}}, "mouseout": {"state": {"target": ["0", "23", "0", "1", "5", "5", "5", "6", "4", "3", "8", "9", "11", "9", "11", "26", "25", "30", "33", "33", "25", "31", "0", "23", "24", "24", "25", "30", "32", "21", "20"], "time": [1306, 2459, 3871, 3942, 4109, 4879, 5137, 7282, 7317, 7351, 7409, 7762, 9104, 11099, 11154, 11519, 11787, 11837, 13008, 14414, 15422, 16927, 17669, 17923, 18007, 18175, 18957, 19210, 20160, 27973, 28508]}, "edge": {"target": [], "time": []}}}, "displayed_time": "25.75", "trialTime": 29311, "trial_type": "mouselab-mdp", "trial_index": 55, "time_elapsed": 3134398, "internal_node_id": "0.0-4.0-1.0-28.0"}}, {"uniqueid": "w10087435:a85300846", "current_trial": 56, "dateTime": 1691074248988, "trialdata": {"revealed_states": [], "clicked_states": ["27", "29", "5", "17", "20", "21", "33"], "num_clicks_accrued": [0, 0, 0, 0, 0, 0, 0, 0, 0, 0, 0, 0, 0], "stateRewards": ["", -2, 1, -8, 12, -65, -79, 16, 7, -80, -17, -45, -2, 2, -5, -2, -85, 23, -4, -7, 48, 27, -76, 2, 3, 5, 2, 43, 71, -13, 7, -49, 59, -31], "withholdReward": false, "trial_id": "mdp_trial_30", "block": "test", "trialIndex": 37, "score": 45.2, "costs": -9.8, "simulationMode": [null, null, null, null, null], "rewards": [2, 3, 5, 2, 43], "path": ["0", "0", "23", "24", "25", "26", "27"], "rt": [18955, 8, 425, 388, 68], "actions": ["left", "left", "left", "up", "up"], "actionTimes": [23964, 24476, 25424, 26366, 26937], "queries": {"click": {"state": {"target": ["27", "29", "5", "17", "20", "21", "33"], "time": [6441, 9585, 11577, 14554, 16806, 18863, 21684]}, "edge": {"target": [], "time": []}}, "mouseover": {"state": {"target": ["23", "28", "27", "29", "25", "28", "26", "29", "8", "3", "5", "6", "17", "14", "19", "20", "21", "23", "31", "30", "33", "30", "25"], "time": [5760, 5845, 5965, 7349, 7601, 7827, 9012, 9245, 10048, 10082, 10394, 12252, 13642, 15553, 15967, 16214, 17237, 19661, 20982, 21044, 21140, 22174, 22391]}, "edge": {"target": [], "time": []}}, "mouseout": {"state": {"target": ["17", "23", "28", "27", "29", "25", "28", "26", "29", "8", "3", "5", "5", "6", "17", "14", "19", "20", "21", "23", "31", "30", "33", "30", "25"], "time": [3722, 5801, 5879, 6958, 7378, 7821, 8429, 9083, 9966, 10077, 10111, 11778, 12192, 12326, 15454, 15734, 16080, 17100, 19516, 20365, 21011, 21079, 22104, 22202, 28431]}, "edge": {"target": [], "time": []}}}, "displayed_time": "27.45", "trialTime": 29912, "trial_type": "mouselab-mdp", "trial_index": 56, "time_elapsed": 3165279, "internal_node_id": "0.0-4.0-1.0-29.0"}}, {"uniqueid": "w10087435:a85300846", "current_trial": 57, "dateTime": 1691074274504, "trialdata": {"revealed_states": [], "clicked_states": ["9", "17", "21", "16", "18", "33"], "num_clicks_accrued": [0, 0, 0, 0, 0, 0, 0, 0, 0, 0, 0, 0, 0], "stateRewards": ["", -2, -3, 4, 1, 33, -53, 15, 9, -12, 61, -6, -2, 4, 6, -11, 47, -43, -7, -11, 46, 23, -28, -1, -1, 3, -10, 11, 76, -76, 10, 18, -38, 87], "withholdReward": false, "trial_id": "mdp_trial_31", "block": "test", "trialIndex": 38, "score": 89.6, "costs": -8.4, "simulationMode": [null, null, null, null, null], "rewards": [-1, -1, 3, 10, 87], "path": ["0", "0", "23", "24", "25", "30", "33"], "rt": [14696, 8, 8, 602, 328], "actions": ["left", "left", "left", "down", "left"], "actionTimes": [18275, 18824, 19347, 20501, 21335], "queries": {"click": {"state": {"target": ["9", "17", "21", "16", "18", "33"], "time": [4668, 6748, 8767, 11356, 13401, 15534]}, "edge": {"target": [], "time": []}}, "mouseover": {"state": {"target": ["8", "9", "17", "20", "21", "20", "15", "16", "18", "23", "33", "0", "0", "31"], "time": [4102, 4139, 5538, 7188, 7733, 9208, 10418, 10918, 11933, 13853, 14178, 16371, 17013, 17468]}, "edge": {"target": [], "time": []}}, "mouseout": {"state": {"target": ["31", "27", "23", "0", "8", "9", "17", "20", "21", "20", "15", "16", "18", "23", "33", "0", "0", "31", "12"], "time": [752, 1650, 1834, 2717, 4133, 4855, 6938, 7546, 8959, 10368, 10469, 11814, 13822, 13928, 15925, 16467, 17061, 22893, 22920]}, "edge": {"target": [], "time": []}}}, "displayed_time": "21.84", "trialTime": 24270, "trial_type": "mouselab-mdp", "trial_index": 57, "time_elapsed": 3190796, "internal_node_id": "0.0-4.0-1.0-30.0"}}, {"uniqueid": "w10087435:a85300846", "current_trial": 58, "dateTime": 1691074297203, "trialdata": {"revealed_states": [], "clicked_states": ["27", "9", "16", "5", "17"], "num_clicks_accrued": [0, 0, 0, 0, 0, 0, 0, 0, 0, 0, 0, 0, 0], "stateRewards": ["", -2, -1, 3, -3, 71, -58, -21, 7, -10, -75, -37, 2, 4, -1, -12, -79, -29, -48, 3, -41, -10, -30, -1, -2, 1, -15, 13, 66, 22, -1, -42, -86, -55], "withholdReward": false, "trial_id": "mdp_trial_32", "block": "test", "trialIndex": 39, "score": 61, "costs": -7, "simulationMode": [null, null, null, null, null], "rewards": [-2, -1, 3, -3, 71], "path": ["0", "0", "1", "2", "3", "4", "5"], "rt": [11768, 26, 468, 416, 480], "actions": ["up", "up", "up", "right", "up"], "actionTimes": [15033, 15561, 16565, 17507, 18528], "queries": {"click": {"state": {"target": ["27", "9", "16", "5", "17"], "time": [4603, 7109, 9147, 11169, 13120]}, "edge": {"target": [], "time": []}}, "mouseover": {"state": {"target": ["29", "27", "29", "9", "16", "16", "5", "6", "17", "15"], "time": [3895, 4212, 6124, 6695, 7669, 8020, 9646, 11509, 11942, 13857]}, "edge": {"target": [], "time": []}}, "mouseout": {"state": {"target": ["28", "27", "29", "27", "29", "27", "9", "16", "16", "5", "6", "17", "15"], "time": [1324, 1977, 4045, 5285, 6481, 6531, 7504, 7726, 9382, 11504, 11551, 13312, 13885]}, "edge": {"target": [], "time": []}}}, "displayed_time": "19.03", "trialTime": 21559, "trial_type": "mouselab-mdp", "trial_index": 58, "time_elapsed": 3213494, "internal_node_id": "0.0-4.0-1.0-31.0"}}, {"uniqueid": "w10087435:a85300846", "current_trial": 59, "dateTime": 1691074318271, "trialdata": {"revealed_states": [], "clicked_states": ["33", "31", "32"], "num_clicks_accrued": [0, 0, 0, 0, 0, 0, 0, 0, 0, 0, 0, 0, 0], "stateRewards": ["", -2, -1, -2, -15, 87, 57, 29, -10, 77, -80, -7, 1, -3, 6, 14, -11, 87, -59, 4, -71, 16, -11, 2, 2, -7, 2, -47, 61, 50, 14, -20, 17, 81], "withholdReward": false, "trial_id": "mdp_trial_33", "block": "test", "trialIndex": 40, "score": 87.8, "costs": -4.199999999999999, "simulationMode": [null, null, null, null, null, null], "rewards": [2, 2, -7, 14, 81], "path": ["0", "0", "23", "24", "25", "30", "33"], "rt": [6823, 230, 128, 533, 414, 98], "actions": ["left", "left", "left", "left", "down", "left"], "actionTimes": [10418, 10657, 11324, 12365, 13289, 13905], "queries": {"click": {"state": {"target": ["33", "31", "32"], "time": [5258, 7327, 9459]}, "edge": {"target": [], "time": []}}, "mouseover": {"state": {"target": ["23", "24", "25", "30", "33", "30", "31", "30", "32"], "time": [4299, 4375, 4466, 4546, 4728, 5879, 6525, 7945, 8862]}, "edge": {"target": [], "time": []}}, "mouseout": {"state": {"target": ["22", "0", "23", "24", "25", "30", "33", "30", "31", "30", "32", "33", "30", "31", "12", "21"], "time": [1014, 4269, 4368, 4425, 4497, 4662, 5821, 5932, 7862, 8726, 9659, 16031, 17216, 17293, 17344, 19110]}, "edge": {"target": [], "time": []}}}, "displayed_time": "17.60", "trialTime": 19879, "trial_type": "mouselab-mdp", "trial_index": 59, "time_elapsed": 3234562, "internal_node_id": "0.0-4.0-1.0-32.0"}}, {"uniqueid": "w10087435:a85300846", "current_trial": 60, "dateTime": 1691074347420, "trialdata": {"revealed_states": [], "clicked_states": ["5", "17", "20", "21", "16", "32", "31", "33"], "num_clicks_accrued": [0, 0, 0, 0, 0, 0, 0, 0, 0, 0, 0, 0, 0], "stateRewards": ["", 2, 1, -3, 7, 46, 11, -36, 16, 71, 5, 1, 2, -2, -8, -3, -4, 6, 55, 7, 68, -54, 2, 1, 1, 6, -6, 42, -4, -84, -11, -65, 63, 25], "withholdReward": false, "trial_id": "mdp_trial_34", "block": "test", "trialIndex": 41, "score": 55.8, "costs": -11.200000000000001, "simulationMode": [null, null, null, null, null], "rewards": [2, -2, -8, 7, 68], "path": ["0", "0", "12", "13", "14", "19", "20"], "rt": [19257, 87, 315, 390, 266], "actions": ["right", "right", "right", "down", "right"], "actionTimes": [21432, 22040, 22890, 23788, 24578], "queries": {"click": {"state": {"target": ["5", "17", "20", "21", "16", "32", "31", "33"], "time": [3381, 5450, 7439, 9410, 11893, 14602, 17019, 19022]}, "edge": {"target": [], "time": []}}, "mouseover": {"state": {"target": ["7", "4", "5", "17", "20", "21", "14", "15", "16", "15", "12", "32", "32", "31", "30", "33", "19", "14"], "time": [2749, 2850, 3032, 4428, 6175, 7877, 9949, 10050, 10439, 12520, 13866, 13981, 14282, 16434, 17946, 18247, 19905, 20081]}, "edge": {"target": [], "time": []}}, "mouseout": {"state": {"target": ["0", "7", "4", "5", "17", "20", "21", "14", "15", "16", "15", "12", "32", "32", "31", "30", "33", "19", "14", "19", "21"], "time": [1400, 2815, 2949, 3791, 5830, 7777, 9862, 9979, 10309, 12466, 12579, 13899, 14116, 16073, 17938, 18072, 19452, 19960, 20949, 26316, 27348]}, "edge": {"target": [], "time": []}}}, "displayed_time": "25.09", "trialTime": 27988, "trial_type": "mouselab-mdp", "trial_index": 60, "time_elapsed": 3263712, "internal_node_id": "0.0-4.0-1.0-33.0"}}, {"uniqueid": "w10087435:a85300846", "current_trial": 61, "dateTime": 1691074366947, "trialdata": {"revealed_states": [], "clicked_states": ["9", "10", "11", "6"], "num_clicks_accrued": [0, 0, 0, 0, 0, 0, 0, 0, 0, 0, 0, 0, 0], "stateRewards": ["", -1, 3, 1, -7, 56, 76, 57, 3, 11, -9, 14, 1, -2, 2, 8, -77, -3, 79, -5, 88, 24, -66, -2, -1, 7, -7, -30, 14, -76, 11, -36, 28, -6], "withholdReward": false, "trial_id": "mdp_trial_35", "block": "test", "trialIndex": 42, "score": 66.4, "costs": -5.6, "simulationMode": [null, null, null, null, null], "rewards": [-1, 3, 1, -7, 76], "path": ["0", "0", "1", "2", "3", "4", "6"], "rt": [10918, 62, 68, 635, 64], "actions": ["up", "up", "up", "right", "right"], "actionTimes": [12949, 13516, 14164, 15314, 15899], "queries": {"click": {"state": {"target": ["9", "10", "11", "6"], "time": [3252, 5283, 7388, 9533]}, "edge": {"target": [], "time": []}}, "mouseover": {"state": {"target": ["1", "2", "8", "9", "8", "10", "11", "4", "6", "5", "7"], "time": [2485, 2533, 2723, 2874, 3850, 4002, 6077, 7841, 8263, 9964, 12235]}, "edge": {"target": [], "time": []}}, "mouseout": {"state": {"target": ["23", "1", "2", "8", "9", "8", "10", "11", "4", "6", "5", "7", "0"], "time": [700, 2529, 2560, 2824, 3835, 3924, 5533, 7793, 7878, 9760, 11964, 17312, 17439]}, "edge": {"target": [], "time": []}}}, "displayed_time": "16.39", "trialTime": 18089, "trial_type": "mouselab-mdp", "trial_index": 61, "time_elapsed": 3283239, "internal_node_id": "0.0-4.0-1.0-34.0"}}, {"uniqueid": "w10087435:a85300846", "current_trial": 62, "dateTime": 1691074406753, "trialdata": {"revealed_states": [], "clicked_states": ["33", "17", "20", "5", "6", "9", "27", "29", "28", "11", "10", "7"], "num_clicks_accrued": [0, 0, 0, 0, 0, 0, 0, 0, 0, 0, 0, 0, 0], "stateRewards": ["", -2, -1, -3, -1, -78, -6, 2, -1, 22, -88, 32, 2, 2, -7, -8, -51, -17, 54, 2, -44, 54, 75, 2, -2, -8, -15, -29, 12, -67, 15, -1, -47, -47], "withholdReward": false, "trial_id": "mdp_trial_36", "block": "test", "trialIndex": 43, "score": 8.2, "costs": -16.8, "simulationMode": [null, null, null, null, null, null], "rewards": [-2, -1, -3, -1, 32], "path": ["0", "0", "1", "2", "3", "8", "11"], "rt": [28966, 249, 122, 8, 567, 36], "actions": ["up", "up", "up", "up", "left", "left"], "actionTimes": [32711, 32965, 33609, 34146, 35256, 35819], "queries": {"click": {"state": {"target": ["33", "17", "20", "5", "6", "9", "27", "29", "28", "11", "10", "7"], "time": [6643, 8645, 11273, 13791, 16092, 18532, 20651, 22660, 24789, 26938, 29237, 32022]}, "edge": {"target": [], "time": []}}, "mouseover": {"state": {"target": ["23", "24", "33", "24", "17", "13", "14", "20", "19", "14", "15", "5", "6", "4", "3", "9", "27", "27", "26", "29", "26", "28", "11", "2", "2", "10", "1", "7", "7"], "time": [5892, 5958, 6359, 7062, 7475, 9179, 10593, 10975, 12384, 12470, 12513, 13459, 15779, 16565, 16811, 18125, 19176, 19629, 21778, 21905, 23043, 24207, 25743, 27436, 28310, 28433, 29929, 31408, 31692]}, "edge": {"target": [], "time": []}}, "mouseout": {"state": {"target": ["25", "24", "23", "0", "23", "24", "33", "24", "17", "13", "14", "20", "19", "14", "15", "5", "6", "6", "4", "3", "9", "27", "27", "27", "26", "29", "26", "28", "11", "2", "2", "10", "1", "7", "7"], "time": [2244, 2381, 2446, 3027, 5927, 6108, 7029, 7092, 9070, 10559, 10643, 11494, 12437, 12506, 12548, 15443, 16311, 16560, 16622, 18058, 18743, 19236, 21095, 21318, 21822, 23034, 23087, 24977, 27340, 27573, 28394, 29805, 31376, 31440, 32241]}, "edge": {"target": [], "time": []}}}, "displayed_time": "36.35", "trialTime": 38546, "trial_type": "mouselab-mdp", "trial_index": 62, "time_elapsed": 3323044, "internal_node_id": "0.0-4.0-1.0-35.0"}}, {"uniqueid": "w10087435:a85300846", "current_trial": 63, "dateTime": 1691074440737, "trialdata": {"revealed_states": [], "clicked_states": ["32", "31", "21", "20", "17", "16", "6"], "num_clicks_accrued": [0, 0, 0, 0, 0, 0, 0, 0, 0, 0, 0, 0, 0], "stateRewards": ["", 1, 2, -3, 6, -88, 74, -45, 7, -46, 40, -77, 1, -4, 4, 3, 22, -25, -59, 8, -83, 19, -60, -1, -1, -1, -8, 26, -29, 64, -7, -88, -51, -55], "withholdReward": false, "trial_id": "mdp_trial_37", "block": "test", "trialIndex": 44, "score": 70.2, "costs": -9.8, "simulationMode": [null, null, null, null, null], "rewards": [1, 2, -3, 6, 74], "path": ["0", "0", "1", "2", "3", "4", "6"], "rt": [18366, 47, 481, 266, 9], "actions": ["up", "up", "up", "right", "right"], "actionTimes": [24826, 25397, 26486, 27278, 27841], "queries": {"click": {"state": {"target": ["32", "31", "21", "20", "17", "16", "6"], "time": [8141, 10277, 12285, 14406, 16405, 19436, 22167]}, "edge": {"target": [], "time": []}}, "mouseover": {"state": {"target": ["31", "32", "32", "31", "21", "20", "17", "16", "16", "16", "7", "6", "4"], "time": [7203, 7269, 7824, 9346, 11374, 12885, 14922, 16782, 17084, 19200, 21538, 21889, 24347]}, "edge": {"target": [], "time": []}}, "mouseout": {"state": {"target": ["17", "15", "18", "31", "32", "32", "31", "21", "20", "17", "16", "16", "16", "7", "6", "4", "18", "17", "22"], "time": [4735, 5068, 5109, 7236, 7403, 9015, 10686, 12595, 14782, 16722, 16812, 18919, 21381, 21572, 23718, 29403, 29682, 29710, 30319]}, "edge": {"target": [], "time": []}}}, "displayed_time": "28.39", "trialTime": 32807, "trial_type": "mouselab-mdp", "trial_index": 63, "time_elapsed": 3357027, "internal_node_id": "0.0-4.0-1.0-36.0"}}, {"uniqueid": "w10087435:a85300846", "current_trial": 64, "dateTime": 1691074470204, "trialdata": {"revealed_states": [], "clicked_states": ["9", "29", "10", "6", "17", "20", "21"], "num_clicks_accrued": [0, 0, 0, 0, 0, 0, 0, 0, 0, 0, 0, 0, 0], "stateRewards": ["", -1, -4, 8, 8, -68, 47, 24, -7, -61, 49, -69, -1, -1, 8, -7, 42, 1, -45, -11, 10, -63, -6, 1, 4, 6, -16, 79, -37, -58, -12, 81, 18, -53], "withholdReward": false, "trial_id": "mdp_trial_38", "block": "test", "trialIndex": 45, "score": 35.2, "costs": -9.8, "simulationMode": [null, null, null, null, null], "rewards": [-1, -4, 8, -7, 49], "path": ["0", "0", "1", "2", "3", "8", "10"], "rt": [17731, 62, 411, 549, 485], "actions": ["up", "up", "up", "left", "down"], "actionTimes": [20076, 20650, 21613, 22712, 23687], "queries": {"click": {"state": {"target": ["9", "29", "10", "6", "17", "20", "21"], "time": [3647, 6168, 8213, 10595, 12730, 15207, 17946]}, "edge": {"target": [], "time": []}}, "mouseover": {"state": {"target": ["9", "9", "5", "4", "2", "28", "29", "26", "28", "10", "10", "6", "17", "14", "20", "20", "19", "22", "12", "13", "22", "21"], "time": [2979, 3380, 4338, 4696, 4808, 5279, 5829, 6687, 6749, 6966, 7227, 8975, 11567, 13786, 14054, 14696, 15666, 15730, 15845, 16790, 17272, 17546]}, "edge": {"target": [], "time": []}}, "mouseout": {"state": {"target": ["19", "22", "12", "0", "9", "9", "5", "4", "2", "28", "29", "26", "28", "10", "10", "6", "17", "14", "20", "20", "19", "22", "12", "13", "22", "21", "17"], "time": [655, 809, 1329, 2888, 3030, 3860, 4604, 4752, 4839, 5313, 6682, 6739, 6844, 6995, 8556, 11087, 13503, 13876, 14196, 15431, 15698, 15760, 16686, 16829, 17367, 18265, 27896]}, "edge": {"target": [], "time": []}}}, "displayed_time": "24.18", "trialTime": 28208, "trial_type": "mouselab-mdp", "trial_index": 64, "time_elapsed": 3386497, "internal_node_id": "0.0-4.0-1.0-37.0"}}, {"uniqueid": "w10087435:a85300846", "current_trial": 65, "dateTime": 1691074500364, "trialdata": {"revealed_states": [], "clicked_states": ["32", "21", "20", "16", "18", "29", "27", "28"], "num_clicks_accrued": [0, 0, 0, 0, 0, 0, 0, 0, 0, 0, 0, 0, 0], "stateRewards": ["", -1, 2, -7, -12, -62, 12, -13, 5, 77, -71, 83, 1, -4, 7, 15, -42, -87, -4, 5, -25, 44, 88, -1, 4, -5, -8, 14, 51, 8, -5, 83, -24, -19], "withholdReward": false, "trial_id": "mdp_trial_39", "block": "test", "trialIndex": 46, "score": 29.799999999999997, "costs": -11.200000000000001, "simulationMode": [null, null, null, null, null], "rewards": [-1, 4, -5, -8, 51], "path": ["0", "0", "23", "24", "25", "26", "28"], "rt": [20610, 25, 359, 323, 234], "actions": ["left", "left", "left", "up", "right"], "actionTimes": [22199, 22739, 23610, 24466, 25257], "queries": {"click": {"state": {"target": ["32", "21", "20", "16", "18", "29", "27", "28"], "time": [2978, 5909, 7870, 10531, 12508, 14637, 17021, 19060]}, "edge": {"target": [], "time": []}}, "mouseover": {"state": {"target": ["0", "32", "21", "20", "17", "16", "18", "1", "26", "29", "27", "28"], "time": [2182, 2714, 5598, 6362, 8359, 10216, 11262, 12940, 13012, 13198, 16621, 17679]}, "edge": {"target": [], "time": []}}, "mouseout": {"state": {"target": ["0", "0", "32", "21", "20", "17", "16", "18", "1", "26", "29", "27", "28", "3"], "time": [727, 2233, 3292, 6065, 8095, 9529, 11062, 12696, 13003, 13058, 16295, 17563, 19256, 27354]}, "edge": {"target": [], "time": []}}}, "displayed_time": "25.77", "trialTime": 28495, "trial_type": "mouselab-mdp", "trial_index": 65, "time_elapsed": 3416655, "internal_node_id": "0.0-4.0-1.0-38.0"}}, {"uniqueid": "w10087435:a85300846", "current_trial": 66, "dateTime": 1691074526162, "trialdata": {"revealed_states": [], "clicked_states": ["9", "17", "20", "33", "31", "5", "6"], "num_clicks_accrued": [0, 0, 0, 0, 0, 0, 0, 0, 0, 0, 0, 0, 0], "stateRewards": ["", -1, 4, -5, 9, 29, -75, -42, -16, 24, -28, -41, 2, -3, 1, 10, 60, 47, 55, -1, -53, 22, -40, 2, -3, -6, 4, -26, 44, 54, 15, -76, 42, 14], "withholdReward": false, "trial_id": "mdp_trial_40", "block": "test", "trialIndex": 47, "score": 47.2, "costs": -9.8, "simulationMode": [null, null, null, null, null], "rewards": [2, -3, 1, 10, 47], "path": ["0", "0", "12", "13", "14", "15", "17"], "rt": [16744, 38, 284, 262, 48], "actions": ["right", "right", "right", "up", "right"], "actionTimes": [19026, 19583, 20372, 21180, 21747], "queries": {"click": {"state": {"target": ["9", "17", "20", "33", "31", "5", "6"], "time": [3489, 5566, 7779, 9789, 12516, 15054, 17149]}, "edge": {"target": [], "time": []}}, "mouseover": {"state": {"target": ["1", "8", "9", "17", "22", "19", "20", "31", "30", "33", "30", "31", "12", "12", "31", "5", "6", "16"], "time": [2954, 3007, 3057, 4475, 6269, 6741, 7281, 8511, 8635, 9102, 10250, 10289, 10456, 10714, 11009, 14427, 15892, 17492]}, "edge": {"target": [], "time": []}}, "mouseout": {"state": {"target": ["1", "1", "8", "9", "17", "17", "22", "19", "20", "31", "30", "33", "30", "31", "12", "12", "31", "5", "6", "16"], "time": [1095, 3002, 3051, 3900, 5766, 6184, 6658, 6849, 8211, 8572, 9087, 10218, 10284, 10347, 10487, 10745, 12992, 15574, 17460, 17523]}, "edge": {"target": [], "time": []}}}, "displayed_time": "22.27", "trialTime": 24604, "trial_type": "mouselab-mdp", "trial_index": 66, "time_elapsed": 3442453, "internal_node_id": "0.0-4.0-1.0-39.0"}}, {"uniqueid": "w10087435:a85300846", "current_trial": 67, "dateTime": 1691074624370, "trialdata": {"rt": 98135, "response": {"Q0": "$-2 to $2", "Q1": "$-16 to $16", "Q2": "$-88 to $88", "Q3": "The cost for clicking on nodes varied between nodes.", "Q4": "Very motivated"}, "question_order": [0, 1, 2, 3, 4], "trial_id": "final_quiz_control", "trial_type": "survey-multi-choice", "trial_index": 67, "time_elapsed": 3540663, "internal_node_id": "0.0-4.0-2.0"}}, {"uniqueid": "w10087435:a85300846", "current_trial": 68, "dateTime": 1691074950601, "trialdata": {"rt": 326193, "response": {"Q0": "I only used the node inspector at the last nodes because I want to land on the highest amount. ", "Q1": "Yes at the beginning, I uses the nodes inspector even o the first two nodes and I later realized that  they don't cost much like the last nodes. I then used the node inspector wisely. Mostly on the last nodes", "Q2": "It was difficult because each round was limited to a few seconds. So I did not have all the time to open each node"}, "trial_id": "self_report_control", "trial_type": "survey-text", "trial_index": 68, "time_elapsed": 3866894, "internal_node_id": "0.0-4.0-3.0"}}, {"uniqueid": "w10087435:a85300846", "current_trial": 69, "dateTime": 1691074998598, "trialdata": {"rt": 47979, "response": {"gender": "female", "age": "26", "colorblind": "0", "effort": "0"}, "trial_type": "survey-html-form", "trial_index": 69, "time_elapsed": 3914890, "internal_node_id": "0.0-4.0-4.0"}}, {"uniqueid": "w10087435:a85300846", "current_trial": 70, "dateTime": 1691075089295, "trialdata": {"rt": 90666, "response": {"Q0": "No, the instructions were clear", "Q1": "No, I have not participated in the web of cash before", "Q2": "The study was fun"}, "trial_type": "survey-text", "trial_index": 70, "time_elapsed": 4005588, "internal_node_id": "0.0-4.0-5.0"}}, {"uniqueid": "w10087435:a85300846", "current_trial": 71, "dateTime": 1691075092251, "trialdata": {"rt": 2899, "stimulus": "Press 'Finish HIT' in order to reach the completion code. Once the data has been saved, you will receive the code either in this window or in the original browser window where you started the experiment.\n", "response": 0, "trial_type": "html-button-response", "trial_index": 71, "time_elapsed": 4008543, "internal_node_id": "0.0-5.0"}}, {"uniqueid": "w10087435:a85300846", "current_trial": 72, "dateTime": 1691075093264, "trialdata": {"success": true, "trial_type": "fullscreen", "trial_index": 72, "time_elapsed": 4009557, "internal_node_id": "0.0-6.0"}}], "questiondata": {"params": {"CODE": "C6DMOQA6", "MIN_TIME": 14, "inspectCost": 1, "startTime": "Thu Aug 03 2023 15:58:01 GMT+0200 (South Africa Standard Time)", "bonusRate": 0.002, "variance": "1_2_4_8_44", "branching": "31123"}, "final_score": 1432.2}, "eventdata": [{"eventtype": "initialized", "value": null, "timestamp": 1691071080269, "interval": 0}, {"eventtype": "window_resize", "value": [1024, 646], "timestamp": 1691071080269, "interval": 0}, {"eventtype": "window_resize", "value": [1024, 646], "timestamp": 1691071080820, "interval": 551}, {"eventtype": "window_resize", "value": [1366, 768], "timestamp": 1691071094589, "interval": 13769}, {"eventtype": "focus", "value": "off", "timestamp": 1691071916762, "interval": 822173}, {"eventtype": "focus", "value": "on", "timestamp": 1691071916762, "interval": 0}, {"eventtype": "window_resize", "value": [1024, 646], "timestamp": 1691071917823, "interval": 1061}, {"eventtype": "window_resize", "value": [1366, 768], "timestamp": 1691071920972, "interval": 3149}, {"eventtype": "focus", "value": "off", "timestamp": 1691072214373, "interval": 293401}, {"eventtype": "focus", "value": "on", "timestamp": 1691072214374, "interval": 1}, {"eventtype": "window_resize", "value": [1024, 646], "timestamp": 1691072214902, "interval": 528}, {"eventtype": "window_resize", "value": [1366, 768], "timestamp": 1691072237564, "interval": 22662}, {"eventtype": "focus", "value": "off", "timestamp": 1691072954621, "interval": 717057}, {"eventtype": "focus", "value": "on", "timestamp": 1691072954621, "interval": 0}, {"eventtype": "window_resize", "value": [1024, 646], "timestamp": 1691072955213, "interval": 592}, {"eventtype": "window_resize", "value": [1366, 768], "timestamp": 1691072958255, "interval": 3042}, {"eventtype": "window_resize", "value": [1024, 646], "timestamp": 1691075092695, "interval": 2134440}], "useragent": "Mozilla/5.0 (Windows NT 10.0; Win64; x64) AppleWebKit/537.36 (KHTML, like Gecko) Chrome/115.0.0.0 Safari/537.36", "mode": "live", "id": "w10087435:a85300846", "status": "user data saved", "Beginhit": "2023-08-03 13:57:56.213167", "Beginexp": "2023-08-03 13:58:16.073253", "Endhit": "2023-08-03 15:04:57.054041", "psiturkStatus": 3, "browser": "<redacted>", "platform": "windows", "language": "en-ZA"}