{"condition": 0, "counterbalance": 0, "assignmentId": "a14083805", "workerId": "w83239758", "hitId": "h32948309", "currenttrial": 68, "bonus": 0, "data": [{"uniqueid": "w83239758:a14083805", "current_trial": 0, "dateTime": 1693834610698, "trialdata": {"success": true, "trial_type": "fullscreen", "trial_index": 0, "time_elapsed": 13462, "internal_node_id": "0.0-0.0"}}, {"uniqueid": "w83239758:a14083805", "current_trial": 1, "dateTime": 1693834637256, "trialdata": {"view_history": [{"page_index": 0, "viewing_time": 26548}], "rt": 26550, "trial_id": "exp_instructions_misaligned", "trial_type": "instructions", "trial_index": 1, "time_elapsed": 40021, "internal_node_id": "0.0-1.0"}}, {"uniqueid": "w83239758:a14083805", "current_trial": 2, "dateTime": 1693834727670, "trialdata": {"view_history": [{"page_index": 0, "viewing_time": 28686}, {"page_index": 1, "viewing_time": 27749}, {"page_index": 2, "viewing_time": 10473}, {"page_index": 3, "viewing_time": 23502}], "rt": 90411, "trial_id": "mouselab_instructions_1_misaligned", "trial_type": "instructions", "trial_index": 2, "time_elapsed": 130434, "internal_node_id": "0.0-2.0-1.0"}}, {"uniqueid": "w83239758:a14083805", "current_trial": 3, "dateTime": 1693834797663, "trialdata": {"revealed_states": [], "clicked_states": ["23", "24", "25", "1", "2", "4", "6", "12", "13", "14", "15", "18", "19", "21", "10", "8", "11", "9", "17", "20", "16"], "num_clicks_accrued": [0, 0, 0, 0, 0, 0, 0, 0, 0, 0, 0, 0, 0], "stateRewards": ["", -10, -10, 10, -10, 10, -10, -10, -10, 10, 10, 10, 10, -10, 10, 10, 10, -10, -10, -10, 10, -10, 10, 10, 10, 10, 10, -10, -10, 10, 10, -10, 10, 10], "withholdReward": false, "trial_id": "practice_1", "block": "test", "trialIndex": 0, "score": 43, "costs": -10.5, "simulationMode": [null, null, null, null, null], "rewards": [10, 10, 10, 10, 10], "path": ["0", "0", "23", "24", "25", "30", "32"], "rt": [46349, 1416, 1939, 190, 341], "actions": ["left", "left", "left", "down", "down"], "actionTimes": [59075, 61007, 63458, 64158, 65009], "queries": {"click": {"state": {"target": ["23", "24", "25", "1", "2", "4", "6", "12", "13", "14", "15", "18", "19", "21", "10", "8", "11", "9", "17", "20", "16"], "time": [15304, 17042, 18278, 21453, 22641, 24651, 26043, 28216, 29791, 31973, 33446, 34678, 36558, 39171, 41220, 43219, 44372, 46593, 49437, 50825, 52192]}, "edge": {"target": [], "time": []}}, "mouseover": {"state": {"target": ["0", "23", "24", "25", "26", "28", "1", "1", "1", "1", "2", "3", "4", "6", "6", "18", "12", "13", "14", "14", "15", "18", "13", "22", "22", "19", "21", "28", "10", "10", "8", "11", "9", "9", "5", "6", "17", "20", "16", "6", "17", "15"], "time": [13691, 15001, 16163, 17844, 18793, 19693, 19776, 20048, 20300, 21060, 22024, 22990, 24137, 25237, 25620, 27288, 27633, 29433, 30432, 31630, 32664, 34127, 35177, 35493, 35942, 36076, 37142, 40490, 40555, 40827, 41754, 43952, 44851, 46270, 47067, 48196, 48981, 50228, 51812, 53242, 54490, 54511]}, "edge": {"target": [], "time": []}}, "mouseout": {"state": {"target": ["23", "1", "23", "0", "0", "23", "24", "25", "26", "28", "1", "1", "1", "1", "2", "3", "4", "6", "6", "18", "12", "13", "14", "14", "15", "18", "13", "22", "22", "19", "21", "28", "10", "10", "8", "11", "9", "9", "5", "6", "17", "20", "16", "6", "17", "15"], "time": [114, 6225, 6506, 7839, 14702, 15814, 17259, 18694, 19648, 19726, 19810, 20108, 20812, 21824, 22956, 24095, 25204, 25320, 26752, 27573, 28650, 30332, 30864, 32563, 34094, 35143, 35377, 35510, 35976, 37076, 39740, 40507, 40571, 41670, 43769, 44580, 45953, 47015, 48131, 48247, 50112, 51412, 52943, 53275, 54502, 54542]}, "edge": {"target": [], "time": []}}}, "displayed_time": "65.52", "trialTime": 69183, "trial_type": "mouselab-mdp", "trial_index": 3, "time_elapsed": 200428, "internal_node_id": "0.0-2.0-2.0-0.0"}}, {"uniqueid": "w83239758:a14083805", "current_trial": 4, "dateTime": 1693834816479, "trialdata": {"revealed_states": [], "clicked_states": ["1", "3", "14"], "num_clicks_accrued": [0, 0, 0, 0, 0, 0, 0, 0, 0, 0, 0, 0, 0], "stateRewards": ["", -10, 10, 10, 10, -10, -10, 10, 10, 10, -10, -10, -10, -10, 10, -10, -10, -10, 10, -10, -10, 10, 10, 10, -10, -10, -10, 10, 10, -10, 10, -10, 10, 10], "withholdReward": false, "trial_id": "practice_2", "block": "test", "trialIndex": 1, "score": 12, "costs": -1.5, "simulationMode": [null, null, null, null, null], "rewards": [-10, 10, 10, 10, -10], "path": ["0", "0", "1", "2", "3", "4", "6"], "rt": [9574, 382, 201, 1450, 41], "actions": ["up", "up", "up", "right", "right"], "actionTimes": [12112, 13017, 13735, 15700, 16254], "queries": {"click": {"state": {"target": ["1", "3", "14"], "time": [3733, 5466, 9529]}, "edge": {"target": [], "time": []}}, "mouseover": {"state": {"target": ["1", "2", "3", "8", "9", "14", "14", "15", "13"], "time": [3275, 4191, 5056, 5955, 6820, 8244, 9077, 10035, 10783]}, "edge": {"target": [], "time": []}}, "mouseout": {"state": {"target": ["0", "1", "2", "3", "8", "9", "14", "14", "15", "13", "22"], "time": [2784, 4159, 4991, 5667, 6762, 6990, 8271, 9743, 10729, 10799, 17638]}, "edge": {"target": [], "time": []}}}, "displayed_time": "16.78", "trialTime": 18549, "trial_type": "mouselab-mdp", "trial_index": 4, "time_elapsed": 219244, "internal_node_id": "0.0-2.0-2.0-1.0"}}, {"uniqueid": "w83239758:a14083805", "current_trial": 5, "dateTime": 1693834828992, "trialdata": {"view_history": [{"page_index": 0, "viewing_time": 6107}, {"page_index": 1, "viewing_time": 6402}], "rt": 12510, "trial_id": "mouselab_instructions_2_misaligned", "trial_type": "instructions", "trial_index": 5, "time_elapsed": 231757, "internal_node_id": "0.0-2.0-3.0"}}, {"uniqueid": "w83239758:a14083805", "current_trial": 6, "dateTime": 1693834872042, "trialdata": {"rt": 43045, "response": {"Q0": "The cost for clicking on nodes may vary between nodes.", "Q1": "I will receive a $1 bonus if I perform well, otherwise I will receive no bonus.", "Q2": "No, the amount of cash at each node of the web may be different each time.", "Q3": "To finish the game in the shortest amount of time.", "Q4": "Only before moving the spider.", "Q5": "3 seconds"}, "question_order": [0, 1, 2, 3, 4, 5], "correct": {"Q0": "The cost for clicking on nodes may vary between nodes.", "Q1": "The better I perform the higher my bonus will be.", "Q2": "No, the amount of cash at each node of the web may be different each time.", "Q3": "To get the highest total score.", "Q4": "Only before moving the spider.", "Q5": "3 seconds"}, "trial_id": "mouselab_quiz_misaligned", "trial_type": "survey-multi-choice", "trial_index": 6, "time_elapsed": 274807, "internal_node_id": "0.0-2.0-4.0"}}, {"uniqueid": "w83239758:a14083805", "current_trial": 7, "dateTime": 1693834878323, "trialdata": {"success": true, "trial_type": "fullscreen", "trial_index": 7, "time_elapsed": 281088, "internal_node_id": "0.0-2.1-0.1-0.1"}}, {"uniqueid": "w83239758:a14083805", "current_trial": 8, "dateTime": 1693834899715, "trialdata": {"view_history": [{"page_index": 0, "viewing_time": 5866}, {"page_index": 1, "viewing_time": 3858}, {"page_index": 2, "viewing_time": 6047}, {"page_index": 3, "viewing_time": 5618}], "rt": 21390, "trial_id": "mouselab_instructions_1_misaligned", "trial_type": "instructions", "trial_index": 8, "time_elapsed": 302480, "internal_node_id": "0.0-2.1-1.1"}}, {"uniqueid": "w83239758:a14083805", "current_trial": 9, "dateTime": 1693834911366, "trialdata": {"revealed_states": [], "clicked_states": ["1"], "num_clicks_accrued": [0, 0, 0, 0, 0, 0, 0, 0, 0, 0, 0, 0, 0], "stateRewards": ["", -10, -10, 10, -10, 10, -10, -10, -10, 10, 10, 10, 10, -10, 10, 10, 10, -10, -10, -10, 10, -10, 10, 10, 10, 10, 10, -10, -10, 10, 10, -10, 10, 10], "withholdReward": false, "trial_id": "practice_1", "block": "test", "trialIndex": 2, "score": 33, "costs": -0.5, "simulationMode": [null, null, null, null, null], "rewards": [10, 10, 10, 10, -10], "path": ["0", "0", "23", "24", "25", "26", "27"], "rt": [3106, 248, 13, 1, 499], "actions": ["left", "left", "left", "up", "up"], "actionTimes": [5791, 6549, 7079, 7601, 8634], "queries": {"click": {"state": {"target": ["1"], "time": [4122]}, "edge": {"target": [], "time": []}}, "mouseover": {"state": {"target": ["1", "2", "3"], "time": [3454, 4451, 5151]}, "edge": {"target": [], "time": []}}, "mouseout": {"state": {"target": ["1", "2", "3", "19", "22"], "time": [4418, 5118, 9215, 10412, 10429]}, "edge": {"target": [], "time": []}}}, "displayed_time": "9.15", "trialTime": 11344, "trial_type": "mouselab-mdp", "trial_index": 9, "time_elapsed": 314129, "internal_node_id": "0.0-2.1-2.1-0.1"}}, {"uniqueid": "w83239758:a14083805", "current_trial": 10, "dateTime": 1693834925133, "trialdata": {"revealed_states": [], "clicked_states": ["13"], "num_clicks_accrued": [0, 0, 0, 0, 0, 0, 0, 0, 0, 0, 0, 0, 0], "stateRewards": ["", -10, 10, 10, 10, -10, -10, 10, 10, 10, -10, -10, -10, -10, 10, -10, -10, -10, 10, -10, -10, 10, 10, 10, -10, -10, -10, 10, 10, -10, 10, -10, 10, 10], "withholdReward": false, "trial_id": "practice_2", "block": "test", "trialIndex": 3, "score": -7, "costs": -0.5, "simulationMode": [null, null, null, null, null], "rewards": [-10, -10, 10, -10, 10], "path": ["0", "0", "12", "13", "14", "19", "21"], "rt": [4511, 267, 44, 570, 425], "actions": ["right", "right", "right", "down", "down"], "actionTimes": [5995, 6778, 7337, 8429, 9368], "queries": {"click": {"state": {"target": ["13"], "time": [3483]}, "edge": {"target": [], "time": []}}, "mouseover": {"state": {"target": ["1", "13", "14", "14"], "time": [2247, 2965, 3796, 4600]}, "edge": {"target": [], "time": []}}, "mouseout": {"state": {"target": ["23", "0", "0", "1", "13", "14", "14", "17", "17"], "time": [558, 648, 889, 2264, 3779, 3846, 4619, 10874, 11373]}, "edge": {"target": [], "time": []}}}, "displayed_time": "9.88", "trialTime": 13483, "trial_type": "mouselab-mdp", "trial_index": 10, "time_elapsed": 327897, "internal_node_id": "0.0-2.1-2.1-1.1"}}, {"uniqueid": "w83239758:a14083805", "current_trial": 11, "dateTime": 1693834938794, "trialdata": {"view_history": [{"page_index": 0, "viewing_time": 12078}, {"page_index": 1, "viewing_time": 1580}], "rt": 13659, "trial_id": "mouselab_instructions_2_misaligned", "trial_type": "instructions", "trial_index": 11, "time_elapsed": 341559, "internal_node_id": "0.0-2.1-3.1"}}, {"uniqueid": "w83239758:a14083805", "current_trial": 12, "dateTime": 1693834983774, "trialdata": {"rt": 44971, "response": {"Q0": "The cost for clicking on nodes may vary between nodes.", "Q1": "I will receive a $1 bonus if I perform well, otherwise I will receive no bonus.", "Q2": "No, the amount of cash at each node of the web may be different each time.", "Q3": "To finish the game in the shortest amount of time.", "Q4": "Only before moving the spider.", "Q5": "3 seconds"}, "question_order": [0, 1, 2, 3, 4, 5], "correct": {"Q0": "The cost for clicking on nodes may vary between nodes.", "Q1": "The better I perform the higher my bonus will be.", "Q2": "No, the amount of cash at each node of the web may be different each time.", "Q3": "To get the highest total score.", "Q4": "Only before moving the spider.", "Q5": "3 seconds"}, "trial_id": "mouselab_quiz_misaligned", "trial_type": "survey-multi-choice", "trial_index": 12, "time_elapsed": 386539, "internal_node_id": "0.0-2.1-4.1"}}, {"uniqueid": "w83239758:a14083805", "current_trial": 13, "dateTime": 1693834989524, "trialdata": {"success": true, "trial_type": "fullscreen", "trial_index": 13, "time_elapsed": 392289, "internal_node_id": "0.0-2.2-0.2-0.2"}}, {"uniqueid": "w83239758:a14083805", "current_trial": 14, "dateTime": 1693835007034, "trialdata": {"view_history": [{"page_index": 0, "viewing_time": 4462}, {"page_index": 1, "viewing_time": 3032}, {"page_index": 2, "viewing_time": 3291}, {"page_index": 3, "viewing_time": 6719}], "rt": 17505, "trial_id": "mouselab_instructions_1_misaligned", "trial_type": "instructions", "trial_index": 14, "time_elapsed": 409799, "internal_node_id": "0.0-2.2-1.2"}}, {"uniqueid": "w83239758:a14083805", "current_trial": 15, "dateTime": 1693835016985, "trialdata": {"revealed_states": [], "clicked_states": [], "num_clicks_accrued": [0, 0, 0, 0, 0, 0, 0, 0, 0, 0, 0, 0, 0], "stateRewards": ["", -10, -10, 10, -10, 10, -10, -10, -10, 10, 10, 10, 10, -10, 10, 10, 10, -10, -10, -10, 10, -10, 10, 10, 10, 10, 10, -10, -10, 10, 10, -10, 10, 10], "withholdReward": false, "trial_id": "practice_1", "block": "test", "trialIndex": 4, "score": 33.5, "costs": 0, "simulationMode": [null, null, null, null, null], "rewards": [10, -10, 10, 10, 10], "path": ["0", "0", "12", "13", "14", "15", "16"], "rt": [2579, 302, 747, 432, 67], "actions": ["right", "right", "right", "up", "up"], "actionTimes": [4070, 4879, 6142, 7090, 7674], "queries": {"click": {"state": {"target": [], "time": []}, "edge": {"target": [], "time": []}}, "mouseover": {"state": {"target": [], "time": []}, "edge": {"target": [], "time": []}}, "mouseout": {"state": {"target": ["14"], "time": [9421]}, "edge": {"target": [], "time": []}}}, "displayed_time": "8.19", "trialTime": 9626, "trial_type": "mouselab-mdp", "trial_index": 15, "time_elapsed": 419750, "internal_node_id": "0.0-2.2-2.2-0.2"}}, {"uniqueid": "w83239758:a14083805", "current_trial": 16, "dateTime": 1693835030139, "trialdata": {"revealed_states": [], "clicked_states": [], "num_clicks_accrued": [0, 0, 0, 0, 0, 0, 0, 0, 0, 0, 0, 0, 0], "stateRewards": ["", -10, 10, 10, 10, -10, -10, 10, 10, 10, -10, -10, -10, -10, 10, -10, -10, -10, 10, -10, -10, 10, 10, 10, -10, -10, -10, 10, 10, -10, 10, -10, 10, 10], "withholdReward": false, "trial_id": "practice_2", "block": "test", "trialIndex": 5, "score": 13.5, "costs": 0, "simulationMode": [null, null, null, null, null], "rewards": [-10, 10, 10, 10, -10], "path": ["0", "0", "1", "2", "3", "8", "11"], "rt": [1552, 597, 2637, 1016, 95], "actions": ["up", "up", "up", "left", "left"], "actionTimes": [3177, 4289, 7445, 8971, 9581], "queries": {"click": {"state": {"target": [], "time": []}, "edge": {"target": [], "time": []}}, "mouseover": {"state": {"target": [], "time": []}, "edge": {"target": [], "time": []}}, "mouseout": {"state": {"target": ["18", "12", "0", "7", "4", "4", "4", "6", "6", "4", "2", "6", "13"], "time": [352, 666, 4874, 4957, 5090, 6471, 10235, 10250, 11184, 11200, 11334, 11351, 12285]}, "edge": {"target": [], "time": []}}}, "displayed_time": "10.10", "trialTime": 12854, "trial_type": "mouselab-mdp", "trial_index": 16, "time_elapsed": 432904, "internal_node_id": "0.0-2.2-2.2-1.2"}}, {"uniqueid": "w83239758:a14083805", "current_trial": 17, "dateTime": 1693835044600, "trialdata": {"view_history": [{"page_index": 0, "viewing_time": 13153}, {"page_index": 1, "viewing_time": 1305}], "rt": 14458, "trial_id": "mouselab_instructions_2_misaligned", "trial_type": "instructions", "trial_index": 17, "time_elapsed": 447365, "internal_node_id": "0.0-2.2-3.2"}}, {"uniqueid": "w83239758:a14083805", "current_trial": 18, "dateTime": 1693835066016, "trialdata": {"rt": 21413, "response": {"Q0": "The cost for clicking on nodes may vary between nodes.", "Q1": "The better I perform the higher my bonus will be.", "Q2": "No, the amount of cash at each node of the web may be different each time.", "Q3": "To get the highest total score.", "Q4": "Only before moving the spider.", "Q5": "3 seconds"}, "question_order": [0, 1, 2, 3, 4, 5], "correct": {"Q0": "The cost for clicking on nodes may vary between nodes.", "Q1": "The better I perform the higher my bonus will be.", "Q2": "No, the amount of cash at each node of the web may be different each time.", "Q3": "To get the highest total score.", "Q4": "Only before moving the spider.", "Q5": "3 seconds"}, "trial_id": "mouselab_quiz_misaligned", "trial_type": "survey-multi-choice", "trial_index": 18, "time_elapsed": 468781, "internal_node_id": "0.0-2.2-4.2"}}, {"uniqueid": "w83239758:a14083805", "current_trial": 19, "dateTime": 1693835073078, "trialdata": {"rt": 7053, "response": {"Q0": "No"}, "question_order": [0], "trial_id": "repeat_check", "trial_type": "survey-multi-choice", "trial_index": 19, "time_elapsed": 475842, "internal_node_id": "0.0-4.0-0.0"}}, {"uniqueid": "w83239758:a14083805", "current_trial": 20, "dateTime": 1693835074861, "trialdata": {"rt": 1776, "stimulus": "\n<h1> Get ready to start the game! </h1>\n\nThank you for reading the instructions. Get ready start with the 40 rounds of this game.\n<br><br>\nIf you need to take a break, feel free to take one after the end of a round, before continuing to the next one.\n<br><br>\nRemember, the more money the spider gets, the bigger your bonus will be!\n<br><br>\n<div style='text-align: center;'>Press <code>space</code> to begin.</div>\n\n<br><br>\n(If, at any point, the <code>space</code> key does not take you to the next page, click once on the text and try again.)", "response": " ", "trial_id": "mdp_ready", "trial_type": "html-keyboard-response", "trial_index": 20, "time_elapsed": 477626, "internal_node_id": "0.0-6.0-0.0"}}, {"uniqueid": "w83239758:a14083805", "current_trial": 21, "dateTime": 1693835093438, "trialdata": {"revealed_states": [], "clicked_states": ["1", "8", "3", "4", "6"], "num_clicks_accrued": [0, 0, 0, 0, 0, 0, 0, 0, 0, 0, 0, 0, 0], "stateRewards": ["", 2, -3, 5, -14, -63, -9, -24, -11, -54, -43, 68, 2, -2, -4, 7, -64, 30, 47, 12, -74, 11, 86, 1, -3, 3, 10, -71, -42, -52, -1, -29, -16, 69], "withholdReward": false, "trial_id": "mdp_trial_1", "block": "test", "trialIndex": 6, "score": -21.95, "costs": -5.949999999999999, "simulationMode": [null, null, null, null, null], "rewards": [1, -3, 3, -1, -16], "path": ["0", "0", "23", "24", "25", "30", "32"], "rt": [10420, 64, 155, 62, 67], "actions": ["left", "left", "left", "down", "down"], "actionTimes": [12052, 12624, 13296, 13869, 14442], "queries": {"click": {"state": {"target": ["1", "8", "3", "4", "6"], "time": [4487, 6093, 6804, 7811, 8618]}, "edge": {"target": [], "time": []}}, "mouseover": {"state": {"target": ["1", "8", "8", "3", "4", "6", "7", "24", "23"], "time": [1917, 4882, 5801, 6530, 7379, 8328, 9210, 10143, 11191]}, "edge": {"target": [], "time": []}}, "mouseout": {"state": {"target": ["9", "8", "1", "0", "1", "8", "8", "3", "4", "6", "7", "24", "23", "0"], "time": [592, 704, 771, 1893, 4665, 5015, 6447, 7246, 8278, 9044, 10043, 10392, 16778, 16803]}, "edge": {"target": [], "time": []}}}, "displayed_time": "15.63", "trialTime": 18252, "trial_type": "mouselab-mdp", "trial_index": 21, "time_elapsed": 496202, "internal_node_id": "0.0-6.0-1.0-0.0"}}, {"uniqueid": "w83239758:a14083805", "current_trial": 22, "dateTime": 1693835127795, "trialdata": {"revealed_states": [], "clicked_states": ["1", "2", "12", "13", "14", "15", "19", "21", "26", "27", "24", "3", "8", "11"], "num_clicks_accrued": [0, 0, 0, 0, 0, 0, 0, 0, 0, 0, 0, 0, 0], "stateRewards": ["", 2, 3, 6, -5, -74, -53, 17, -12, 46, 44, 18, -2, 4, 1, -8, 22, -23, -49, 9, -45, 55, 81, 1, -1, -7, -16, -83, -71, -45, 2, 51, 82, 61], "withholdReward": false, "trial_id": "mdp_trial_2", "block": "test", "trialIndex": 7, "score": -62.1, "costs": -15.1, "simulationMode": [null, null, null, null, null, null], "rewards": [2, 3, 6, -5, -53], "path": ["0", "0", "1", "2", "3", "4", "6"], "rt": [22046, 758, 281, 158, 363, 87], "actions": ["up", "up", "up", "up", "right", "right"], "actionTimes": [27414, 28175, 28970, 29645, 30517, 31122], "queries": {"click": {"state": {"target": ["1", "2", "12", "13", "14", "15", "19", "21", "26", "27", "24", "3", "8", "11"], "time": [6441, 7620, 8667, 9965, 10721, 11497, 12478, 13192, 15987, 16914, 20945, 23146, 23949, 24898]}, "edge": {"target": [], "time": []}}, "mouseover": {"state": {"target": ["1", "2", "1", "2", "12", "13", "14", "15", "19", "21", "22", "28", "26", "29", "26", "25", "26", "27", "25", "30", "24", "23", "1", "2", "3", "8", "11", "9", "10", "2", "4", "1", "0"], "time": [5649, 5708, 6158, 7274, 8406, 9704, 10306, 11186, 12036, 12885, 13601, 13668, 13687, 13767, 14017, 14751, 15649, 16664, 17530, 17597, 20578, 21477, 21662, 21710, 22445, 23608, 24540, 25274, 25524, 25643, 25922, 26839, 26888]}, "edge": {"target": [], "time": []}}, "mouseout": {"state": {"target": ["0", "12", "12", "1", "2", "1", "1", "2", "2", "12", "13", "14", "15", "14", "19", "21", "22", "28", "26", "29", "26", "25", "26", "27", "25", "30", "24", "23", "1", "2", "3", "8", "11", "9", "8", "10", "2", "4", "1", "0"], "time": [549, 697, 1045, 5675, 6075, 6653, 7175, 7822, 8090, 8882, 10291, 11088, 11903, 12002, 12868, 13584, 13617, 13685, 13718, 13818, 14686, 15600, 16565, 17497, 17580, 20281, 21444, 21543, 21677, 21726, 23442, 24441, 25240, 25456, 25506, 25606, 25673, 26805, 26855, 26905]}, "edge": {"target": [], "time": []}}}, "displayed_time": "31.64", "trialTime": 34037, "trial_type": "mouselab-mdp", "trial_index": 22, "time_elapsed": 530558, "internal_node_id": "0.0-6.0-1.0-1.0"}}, {"uniqueid": "w83239758:a14083805", "current_trial": 23, "dateTime": 1693835145278, "trialdata": {"revealed_states": [], "clicked_states": [], "num_clicks_accrued": [0, 0, 0, 0, 0, 0, 0, 0, 0, 0, 0, 0, 0], "stateRewards": ["", -1, 1, -2, 5, 73, 15, 61, 8, 7, 38, 76, 2, 2, -4, -6, -6, -26, 43, -5, -45, -85, -35, -2, 1, -4, 15, -10, 69, 72, -11, 84, -49, -38], "withholdReward": false, "trial_id": "mdp_trial_3", "block": "test", "trialIndex": 8, "score": 82, "costs": 0, "simulationMode": [null, null, null, null, null], "rewards": [-1, 1, -2, 8, 76], "path": ["0", "0", "1", "2", "3", "8", "11"], "rt": [1894, 164, 139, 584, 66], "actions": ["up", "up", "up", "left", "left"], "actionTimes": [3338, 4016, 4674, 5768, 6348], "queries": {"click": {"state": {"target": [], "time": []}, "edge": {"target": [], "time": []}}, "mouseover": {"state": {"target": ["12"], "time": [2252]}, "edge": {"target": [], "time": []}}, "mouseout": {"state": {"target": ["0", "12", "0", "23", "0", "12", "13", "18", "2", "3", "2", "2", "18", "13", "22"], "time": [2034, 7664, 7712, 7894, 7928, 7944, 7961, 8911, 9261, 10730, 10842, 16207, 16270, 16304, 16354]}, "edge": {"target": [], "time": []}}}, "displayed_time": "15.45", "trialTime": 17160, "trial_type": "mouselab-mdp", "trial_index": 23, "time_elapsed": 548042, "internal_node_id": "0.0-6.0-1.0-2.0"}}, {"uniqueid": "w83239758:a14083805", "current_trial": 24, "dateTime": 1693835162276, "trialdata": {"revealed_states": [], "clicked_states": ["24", "4"], "num_clicks_accrued": [0, 0, 0, 0, 0, 0, 0, 0, 0, 0, 0, 0, 0], "stateRewards": ["", 2, 4, -5, 7, 81, 35, 6, 11, 14, -72, 42, -1, 2, 3, -7, -77, -44, -40, -15, -85, 51, -32, -2, -1, -5, 7, -74, 47, 52, 16, -49, 48, -46], "withholdReward": false, "trial_id": "mdp_trial_4", "block": "test", "trialIndex": 9, "score": 41.1, "costs": -1.9, "simulationMode": [null, null, null, null, null], "rewards": [2, 4, -5, 7, 35], "path": ["0", "0", "1", "2", "3", "4", "6"], "rt": [4605, 846, 373, 723, 56], "actions": ["up", "up", "up", "right", "right"], "actionTimes": [5934, 7291, 8182, 9416, 9980], "queries": {"click": {"state": {"target": ["24", "4"], "time": [2615, 3540]}, "edge": {"target": [], "time": []}}, "mouseover": {"state": {"target": ["23", "24", "2", "7", "4", "18", "13", "12"], "time": [1830, 2302, 2962, 3146, 3178, 3977, 4095, 4295]}, "edge": {"target": [], "time": []}}, "mouseout": {"state": {"target": ["12", "23", "24", "2", "7", "4", "18", "13", "12", "19", "20"], "time": [680, 1879, 2896, 2997, 3162, 3911, 4028, 4211, 4361, 14951, 16122]}, "edge": {"target": [], "time": []}}}, "displayed_time": "15.33", "trialTime": 16657, "trial_type": "mouselab-mdp", "trial_index": 24, "time_elapsed": 565040, "internal_node_id": "0.0-6.0-1.0-3.0"}}, {"uniqueid": "w83239758:a14083805", "current_trial": 25, "dateTime": 1693835181084, "trialdata": {"revealed_states": [], "clicked_states": [], "num_clicks_accrued": [0, 0, 0, 0, 0, 0, 0, 0, 0, 0, 0, 0, 0], "stateRewards": ["", -1, 3, 8, 9, -53, 20, -84, 2, -28, -62, -31, -1, -2, -7, 2, 51, 58, 45, -4, -17, -41, 36, 2, -2, -7, -15, 29, -54, -37, -16, -43, 65, -17], "withholdReward": false, "trial_id": "mdp_trial_5", "block": "test", "trialIndex": 10, "score": 42, "costs": 0, "simulationMode": [null, null, null, null, null], "rewards": [2, -2, -7, -16, 65], "path": ["0", "0", "23", "24", "25", "30", "32"], "rt": [3678, 82, 108, 143, 65], "actions": ["left", "left", "left", "down", "down"], "actionTimes": [6820, 7409, 8035, 8685, 9257], "queries": {"click": {"state": {"target": [], "time": []}, "edge": {"target": [], "time": []}}, "mouseover": {"state": {"target": [], "time": []}, "edge": {"target": [], "time": []}}, "mouseout": {"state": {"target": ["13", "2", "0", "18", "15", "17", "21", "19"], "time": [1412, 1914, 3435, 10671, 10704, 10738, 16600, 16819]}, "edge": {"target": [], "time": []}}}, "displayed_time": "17.14", "trialTime": 18465, "trial_type": "mouselab-mdp", "trial_index": 25, "time_elapsed": 583848, "internal_node_id": "0.0-6.0-1.0-4.0"}}, {"uniqueid": "w83239758:a14083805", "current_trial": 26, "dateTime": 1693835197179, "trialdata": {"revealed_states": [], "clicked_states": [], "num_clicks_accrued": [0, 0, 0, 0, 0, 0, 0, 0, 0, 0, 0, 0, 0], "stateRewards": ["", -2, -1, -4, -15, -14, -67, 32, -3, -59, 63, 31, 2, -1, -7, -15, 71, -66, -27, -3, -54, -39, 72, 2, 1, 1, -13, 77, -40, 35, -9, 35, 75, 57], "withholdReward": false, "trial_id": "mdp_trial_6", "block": "test", "trialIndex": 11, "score": 10, "costs": 0, "simulationMode": [null, null, null, null, null], "rewards": [-2, -1, -4, -15, 32], "path": ["0", "0", "1", "2", "3", "4", "7"], "rt": [1546, 87, 663, 556, 397], "actions": ["up", "up", "up", "right", "down"], "actionTimes": [2866, 3473, 4650, 5728, 6632], "queries": {"click": {"state": {"target": [], "time": []}, "edge": {"target": [], "time": []}}, "mouseover": {"state": {"target": ["1"], "time": [1596]}, "edge": {"target": [], "time": []}}, "mouseout": {"state": {"target": ["23", "0", "1", "15", "17"], "time": [639, 841, 8013, 8096, 8112]}, "edge": {"target": [], "time": []}}}, "displayed_time": "15.32", "trialTime": 15767, "trial_type": "mouselab-mdp", "trial_index": 26, "time_elapsed": 599944, "internal_node_id": "0.0-6.0-1.0-5.0"}}, {"uniqueid": "w83239758:a14083805", "current_trial": 27, "dateTime": 1693835213360, "trialdata": {"revealed_states": [], "clicked_states": [], "num_clicks_accrued": [0, 0, 0, 0, 0, 0, 0, 0, 0, 0, 0, 0, 0], "stateRewards": ["", -1, -3, 3, 5, 56, 39, 50, -1, -80, 33, -46, 1, -2, -6, -8, 87, 48, 54, -11, -20, -64, -54, -2, 3, -7, -3, 12, 88, 35, -16, -46, -70, -3], "withholdReward": false, "trial_id": "mdp_trial_7", "block": "test", "trialIndex": 12, "score": -82, "costs": 0, "simulationMode": [null, null, null, null, null], "rewards": [1, -2, -6, -11, -64], "path": ["0", "0", "12", "13", "14", "19", "21"], "rt": [2917, 72, 126, 478, 118], "actions": ["right", "right", "right", "down", "down"], "actionTimes": [4315, 4898, 5535, 6552, 7191], "queries": {"click": {"state": {"target": [], "time": []}, "edge": {"target": [], "time": []}}, "mouseover": {"state": {"target": [], "time": []}, "edge": {"target": [], "time": []}}, "mouseout": {"state": {"target": ["0", "0", "15", "17"], "time": [763, 8403, 8452, 8469]}, "edge": {"target": [], "time": []}}}, "displayed_time": "15.40", "trialTime": 15836, "trial_type": "mouselab-mdp", "trial_index": 27, "time_elapsed": 616125, "internal_node_id": "0.0-6.0-1.0-6.0"}}, {"uniqueid": "w83239758:a14083805", "current_trial": 28, "dateTime": 1693835230147, "trialdata": {"revealed_states": [], "clicked_states": [], "num_clicks_accrued": [0, 0, 0, 0, 0, 0, 0, 0, 0, 0, 0, 0, 0], "stateRewards": ["", -1, -4, -6, -15, 21, -67, -63, 9, 51, 69, -14, -1, 3, 8, -8, 39, 72, 63, 15, 19, 47, 15, 1, 4, 5, 16, -18, 34, 35, -14, -80, 40, 1], "withholdReward": false, "trial_id": "mdp_trial_8", "block": "test", "trialIndex": 13, "score": 61, "costs": 0, "simulationMode": [null, null, null, null, null], "rewards": [1, 4, 5, 16, 35], "path": ["0", "0", "23", "24", "25", "26", "29"], "rt": [902, 497, 185, 537, 1443], "actions": ["left", "left", "left", "up", "left"], "actionTimes": [2557, 3567, 4267, 5318, 7274], "queries": {"click": {"state": {"target": [], "time": []}, "edge": {"target": [], "time": []}}, "mouseover": {"state": {"target": [], "time": []}, "edge": {"target": [], "time": []}}, "mouseout": {"state": {"target": ["0", "0", "18", "15", "17"], "time": [803, 7957, 7992, 8025, 8058]}, "edge": {"target": [], "time": []}}}, "displayed_time": "15.66", "trialTime": 16445, "trial_type": "mouselab-mdp", "trial_index": 28, "time_elapsed": 632912, "internal_node_id": "0.0-6.0-1.0-7.0"}}, {"uniqueid": "w83239758:a14083805", "current_trial": 29, "dateTime": 1693835246744, "trialdata": {"revealed_states": [], "clicked_states": ["1"], "num_clicks_accrued": [0, 0, 0, 0, 0, 0, 0, 0, 0, 0, 0, 0, 0], "stateRewards": ["", -1, -2, -1, -10, -57, 73, -72, -16, 75, -14, -46, -2, -3, -7, -1, -61, -60, 76, -4, 50, 4, 14, 2, 2, -7, 12, -65, -32, 15, -8, -76, -25, -61], "withholdReward": false, "trial_id": "mdp_trial_9", "block": "test", "trialIndex": 14, "score": -86.75, "costs": 0.25, "simulationMode": [null, null, null, null, null], "rewards": [2, 2, -7, -8, -76], "path": ["0", "0", "23", "24", "25", "30", "31"], "rt": [3900, 150, 105, 355, 693], "actions": ["left", "left", "left", "down", "right"], "actionTimes": [5584, 6253, 6877, 7739, 8943], "queries": {"click": {"state": {"target": ["1"], "time": [2469]}, "edge": {"target": [], "time": []}}, "mouseover": {"state": {"target": ["1"], "time": [2007]}, "edge": {"target": [], "time": []}}, "mouseout": {"state": {"target": ["22", "0", "1", "1", "18", "15", "22"], "time": [827, 972, 2663, 3337, 9714, 9730, 11045]}, "edge": {"target": [], "time": []}}}, "displayed_time": "15.69", "trialTime": 16246, "trial_type": "mouselab-mdp", "trial_index": 29, "time_elapsed": 649507, "internal_node_id": "0.0-6.0-1.0-8.0"}}, {"uniqueid": "w83239758:a14083805", "current_trial": 30, "dateTime": 1693835262992, "trialdata": {"revealed_states": [], "clicked_states": [], "num_clicks_accrued": [0, 0, 0, 0, 0, 0, 0, 0, 0, 0, 0, 0, 0], "stateRewards": ["", -1, -1, 7, -15, -43, -21, -84, -9, -45, -66, 2, 1, -2, 2, 8, -27, 44, -52, -5, -84, 11, 53, 1, 4, -4, 16, 83, -82, -15, -16, 68, -43, 81], "withholdReward": false, "trial_id": "mdp_trial_10", "block": "test", "trialIndex": 15, "score": -31, "costs": 0, "simulationMode": [null, null, null, null, null], "rewards": [-1, -1, 7, -15, -21], "path": ["0", "0", "1", "2", "3", "4", "6"], "rt": [784, 61, 252, 571, 67], "actions": ["up", "up", "up", "right", "right"], "actionTimes": [2031, 2610, 3401, 4486, 5063], "queries": {"click": {"state": {"target": [], "time": []}, "edge": {"target": [], "time": []}}, "mouseover": {"state": {"target": [], "time": []}, "edge": {"target": [], "time": []}}, "mouseout": {"state": {"target": ["0", "18"], "time": [736, 6794]}, "edge": {"target": [], "time": []}}}, "displayed_time": "15.25", "trialTime": 15888, "trial_type": "mouselab-mdp", "trial_index": 30, "time_elapsed": 665756, "internal_node_id": "0.0-6.0-1.0-9.0"}}, {"uniqueid": "w83239758:a14083805", "current_trial": 31, "dateTime": 1693835280856, "trialdata": {"revealed_states": [], "clicked_states": [], "num_clicks_accrued": [0, 0, 0, 0, 0, 0, 0, 0, 0, 0, 0, 0, 0], "stateRewards": ["", 2, 4, 4, -8, -36, -33, 38, 16, -51, 57, 57, 1, 3, 4, -6, 45, 68, 87, 1, 63, 24, -55, -2, 2, -6, -13, -63, -50, 8, 2, 80, 6, 60], "withholdReward": false, "trial_id": "mdp_trial_11", "block": "test", "trialIndex": 16, "score": 47, "costs": 0, "simulationMode": [null, null, null, null, null], "rewards": [1, 3, 4, -6, 45], "path": ["0", "0", "12", "13", "14", "15", "16"], "rt": [2732, 117, 106, 74, 547], "actions": ["right", "right", "right", "up", "up"], "actionTimes": [4967, 5605, 6226, 6810, 7867], "queries": {"click": {"state": {"target": [], "time": []}, "edge": {"target": [], "time": []}}, "mouseover": {"state": {"target": ["1", "1", "12"], "time": [2506, 2973, 3086]}, "edge": {"target": [], "time": []}}, "mouseout": {"state": {"target": ["19", "13", "12", "0", "0", "1", "1", "12", "13"], "time": [1327, 1387, 1437, 1609, 2418, 2588, 3020, 17073, 17156]}, "edge": {"target": [], "time": []}}}, "displayed_time": "16.24", "trialTime": 17494, "trial_type": "mouselab-mdp", "trial_index": 31, "time_elapsed": 683620, "internal_node_id": "0.0-6.0-1.0-10.0"}}, {"uniqueid": "w83239758:a14083805", "current_trial": 32, "dateTime": 1693835298833, "trialdata": {"revealed_states": [], "clicked_states": [], "num_clicks_accrued": [0, 0, 0, 0, 0, 0, 0, 0, 0, 0, 0, 0, 0], "stateRewards": ["", 2, 4, -3, 16, -58, 30, -35, 11, -60, 47, 27, -2, -1, -7, -16, 23, -70, 68, -10, -65, -43, -34, -2, 1, 7, 9, -63, 34, -31, -8, -12, -86, 59], "withholdReward": false, "trial_id": "mdp_trial_12", "block": "test", "trialIndex": 17, "score": 61, "costs": 0, "simulationMode": [null, null, null, null, null], "rewards": [2, 4, -3, 11, 47], "path": ["0", "0", "1", "2", "3", "8", "10"], "rt": [644, 95, 129, 1066, 814], "actions": ["up", "up", "up", "left", "down"], "actionTimes": [2255, 2860, 3509, 5095, 6425], "queries": {"click": {"state": {"target": [], "time": []}, "edge": {"target": [], "time": []}}, "mouseover": {"state": {"target": [], "time": []}, "edge": {"target": [], "time": []}}, "mouseout": {"state": {"target": ["0", "17"], "time": [7142, 7273]}, "edge": {"target": [], "time": []}}}, "displayed_time": "15.61", "trialTime": 17576, "trial_type": "mouselab-mdp", "trial_index": 32, "time_elapsed": 701597, "internal_node_id": "0.0-6.0-1.0-11.0"}}, {"uniqueid": "w83239758:a14083805", "current_trial": 33, "dateTime": 1693835321672, "trialdata": {"revealed_states": [], "clicked_states": [], "num_clicks_accrued": [0, 0, 0, 0, 0, 0, 0, 0, 0, 0, 0, 0, 0], "stateRewards": ["", -2, -3, 1, -7, 39, -67, 16, 5, -20, 73, 66, -1, 4, 5, -3, 23, -68, -87, -8, 3, -3, 17, 1, -4, -2, -13, -32, 34, 61, -5, -11, -18, 12], "withholdReward": false, "trial_id": "mdp_trial_13", "block": "test", "trialIndex": 18, "score": 5, "costs": 0, "simulationMode": [null, null, null, null, null], "rewards": [-2, -3, 1, -7, 16], "path": ["0", "0", "1", "2", "3", "4", "7"], "rt": [2571, 51, 189, 260, 177], "actions": ["up", "up", "up", "right", "down"], "actionTimes": [4115, 4713, 5418, 6186, 6885], "queries": {"click": {"state": {"target": [], "time": []}, "edge": {"target": [], "time": []}}, "mouseover": {"state": {"target": ["1"], "time": [3458]}, "edge": {"target": [], "time": []}}, "mouseout": {"state": {"target": ["19", "22", "0", "1", "0", "23", "24", "0", "0"], "time": [581, 596, 3130, 3710, 21341, 21374, 21526, 21591, 22059]}, "edge": {"target": [], "time": []}}}, "displayed_time": "15.55", "trialTime": 22447, "trial_type": "mouselab-mdp", "trial_index": 33, "time_elapsed": 724437, "internal_node_id": "0.0-6.0-1.0-12.0"}}, {"uniqueid": "w83239758:a14083805", "current_trial": 34, "dateTime": 1693835338184, "trialdata": {"revealed_states": [], "clicked_states": [], "num_clicks_accrued": [0, 0, 0, 0, 0, 0, 0, 0, 0, 0, 0, 0, 0], "stateRewards": ["", -1, 1, 8, -3, -24, 11, -65, -6, -77, 48, 44, -2, 1, -2, -7, -55, -35, 33, 8, -28, 19, -53, -1, -1, -5, -5, -70, 10, 44, 8, -58, -70, 51], "withholdReward": false, "trial_id": "mdp_trial_14", "block": "test", "trialIndex": 19, "score": 46, "costs": 0, "simulationMode": [null, null, null, null, null], "rewards": [-1, 1, 8, -6, 44], "path": ["0", "0", "1", "2", "3", "8", "11"], "rt": [856, 34, 50, 499, 91], "actions": ["up", "up", "up", "left", "left"], "actionTimes": [2206, 2755, 3337, 4352, 4961], "queries": {"click": {"state": {"target": [], "time": []}, "edge": {"target": [], "time": []}}, "mouseover": {"state": {"target": ["1", "2"], "time": [1574, 1594]}, "edge": {"target": [], "time": []}}, "mouseout": {"state": {"target": ["0", "1", "1", "2"], "time": [243, 588, 1589, 5771]}, "edge": {"target": [], "time": []}}}, "displayed_time": "15.35", "trialTime": 16095, "trial_type": "mouselab-mdp", "trial_index": 34, "time_elapsed": 740948, "internal_node_id": "0.0-6.0-1.0-13.0"}}, {"uniqueid": "w83239758:a14083805", "current_trial": 35, "dateTime": 1693835356477, "trialdata": {"revealed_states": [], "clicked_states": [], "num_clicks_accrued": [0, 0, 0, 0, 0, 0, 0, 0, 0, 0, 0, 0, 0], "stateRewards": ["", 1, -4, -6, 11, -20, 8, -30, 1, -38, 88, 42, 2, 3, 5, -12, -8, -74, 30, -8, 67, -19, 42, 2, -1, 4, 13, 50, -68, 2, -8, -15, 87, -46], "withholdReward": false, "trial_id": "mdp_trial_15", "block": "test", "trialIndex": 20, "score": 10, "costs": 0, "simulationMode": [null, null, null, null, null], "rewards": [1, -4, -6, 11, 8], "path": ["0", "0", "1", "2", "3", "4", "6"], "rt": [1329, 98, 243, 138, 437], "actions": ["up", "up", "up", "right", "right"], "actionTimes": [4277, 4885, 5645, 6290, 7239], "queries": {"click": {"state": {"target": [], "time": []}, "edge": {"target": [], "time": []}}, "mouseover": {"state": {"target": ["1"], "time": [3290]}, "edge": {"target": [], "time": []}}, "mouseout": {"state": {"target": ["20", "19", "22", "19", "22", "0", "1", "18", "15"], "time": [1635, 1669, 1785, 2035, 2068, 3272, 15623, 15706, 15747]}, "edge": {"target": [], "time": []}}}, "displayed_time": "16.95", "trialTime": 17901, "trial_type": "mouselab-mdp", "trial_index": 35, "time_elapsed": 759241, "internal_node_id": "0.0-6.0-1.0-14.0"}}, {"uniqueid": "w83239758:a14083805", "current_trial": 36, "dateTime": 1693835375318, "trialdata": {"revealed_states": [], "clicked_states": [], "num_clicks_accrued": [0, 0, 0, 0, 0, 0, 0, 0, 0, 0, 0, 0, 0], "stateRewards": ["", -2, 4, -5, -12, 85, -24, -18, -15, -78, -22, 26, -1, -1, 2, 14, -45, 52, -23, 7, -33, 24, -6, -2, -4, 5, -7, -16, 36, -39, 5, 71, -87, -23], "withholdReward": false, "trial_id": "mdp_trial_16", "block": "test", "trialIndex": 21, "score": -24, "costs": 0, "simulationMode": [null, null, null, null, null], "rewards": [-2, -4, 5, -7, -16], "path": ["0", "0", "23", "24", "25", "26", "27"], "rt": [1107, 90, 91, 3, 30], "actions": ["left", "left", "left", "up", "up"], "actionTimes": [2465, 3071, 3672, 4183, 4743], "queries": {"click": {"state": {"target": [], "time": []}, "edge": {"target": [], "time": []}}, "mouseover": {"state": {"target": [], "time": []}, "edge": {"target": [], "time": []}}, "mouseout": {"state": {"target": ["0", "13"], "time": [14436, 14467]}, "edge": {"target": [], "time": []}}}, "displayed_time": "15.36", "trialTime": 18452, "trial_type": "mouselab-mdp", "trial_index": 36, "time_elapsed": 778081, "internal_node_id": "0.0-6.0-1.0-15.0"}}, {"uniqueid": "w83239758:a14083805", "current_trial": 37, "dateTime": 1693835392550, "trialdata": {"revealed_states": [], "clicked_states": [], "num_clicks_accrued": [0, 0, 0, 0, 0, 0, 0, 0, 0, 0, 0, 0, 0], "stateRewards": ["", -1, -3, 1, 13, -64, -29, 12, -4, -33, 50, 56, 2, -3, 4, 11, -64, -58, -55, 12, 47, 38, -25, -2, 2, 5, -15, 85, 7, 84, 10, 8, 57, 26], "withholdReward": false, "trial_id": "mdp_trial_17", "block": "test", "trialIndex": 22, "score": 49, "costs": 0, "simulationMode": [null, null, null, null, null], "rewards": [-1, -3, 1, -4, 56], "path": ["0", "0", "1", "2", "3", "8", "11"], "rt": [759, 270, 2, 583, 54], "actions": ["up", "up", "up", "left", "left"], "actionTimes": [3177, 3965, 4482, 5594, 6163], "queries": {"click": {"state": {"target": [], "time": []}, "edge": {"target": [], "time": []}}, "mouseover": {"state": {"target": [], "time": []}, "edge": {"target": [], "time": []}}, "mouseout": {"state": {"target": ["17", "14", "19", "12", "0"], "time": [1279, 1329, 1596, 1761, 2668]}, "edge": {"target": [], "time": []}}}, "displayed_time": "16.42", "trialTime": 16837, "trial_type": "mouselab-mdp", "trial_index": 37, "time_elapsed": 795315, "internal_node_id": "0.0-6.0-1.0-16.0"}}, {"uniqueid": "w83239758:a14083805", "current_trial": 38, "dateTime": 1693835409239, "trialdata": {"revealed_states": [], "clicked_states": [], "num_clicks_accrued": [0, 0, 0, 0, 0, 0, 0, 0, 0, 0, 0, 0, 0], "stateRewards": ["", 1, 2, -3, -5, 66, -50, -47, -5, 1, 28, -27, 1, 1, -1, -6, 37, -25, 56, 1, -82, -66, -40, -1, -4, -7, 15, -61, -23, 26, 10, 14, -56, 29], "withholdReward": false, "trial_id": "mdp_trial_18", "block": "test", "trialIndex": 23, "score": -55, "costs": 0, "simulationMode": [null, null, null, null, null], "rewards": [1, 2, -3, -5, -50], "path": ["0", "0", "1", "2", "3", "4", "6"], "rt": [1210, 190, 129, 404, 92], "actions": ["up", "up", "up", "right", "right"], "actionTimes": [2810, 3511, 4150, 5072, 5677], "queries": {"click": {"state": {"target": [], "time": []}, "edge": {"target": [], "time": []}}, "mouseover": {"state": {"target": [], "time": []}, "edge": {"target": [], "time": []}}, "mouseout": {"state": {"target": ["14", "13", "12", "0", "25", "24"], "time": [753, 837, 886, 1823, 12226, 12243]}, "edge": {"target": [], "time": []}}}, "displayed_time": "15.60", "trialTime": 16199, "trial_type": "mouselab-mdp", "trial_index": 38, "time_elapsed": 812004, "internal_node_id": "0.0-6.0-1.0-17.0"}}, {"uniqueid": "w83239758:a14083805", "current_trial": 39, "dateTime": 1693835426127, "trialdata": {"revealed_states": [], "clicked_states": [], "num_clicks_accrued": [0, 0, 0, 0, 0, 0, 0, 0, 0, 0, 0, 0, 0], "stateRewards": ["", 1, 1, 7, -11, 80, -20, -53, -14, 3, 31, 27, 2, -1, -8, -10, 33, 41, 86, 9, 78, -37, -13, -1, -2, -6, -8, -80, 75, 4, -16, -49, -74, 24], "withholdReward": false, "trial_id": "mdp_trial_19", "block": "test", "trialIndex": 24, "score": -97, "costs": 0, "simulationMode": [null, null, null, null, null], "rewards": [-1, -2, -6, -8, -80], "path": ["0", "0", "23", "24", "25", "26", "27"], "rt": [1369, 149, 71, 517, 181], "actions": ["left", "left", "left", "up", "up"], "actionTimes": [3264, 3932, 4520, 5550, 6247], "queries": {"click": {"state": {"target": [], "time": []}, "edge": {"target": [], "time": []}}, "mouseover": {"state": {"target": ["23"], "time": [2420]}, "edge": {"target": [], "time": []}}, "mouseout": {"state": {"target": ["31", "0", "12", "23", "31", "31", "20", "20"], "time": [435, 838, 1034, 2451, 7045, 7129, 7228, 16138]}, "edge": {"target": [], "time": []}}}, "displayed_time": "15.89", "trialTime": 16487, "trial_type": "mouselab-mdp", "trial_index": 39, "time_elapsed": 828891, "internal_node_id": "0.0-6.0-1.0-18.0"}}, {"uniqueid": "w83239758:a14083805", "current_trial": 40, "dateTime": 1693835442699, "trialdata": {"revealed_states": [], "clicked_states": [], "num_clicks_accrued": [0, 0, 0, 0, 0, 0, 0, 0, 0, 0, 0, 0, 0], "stateRewards": ["", 1, 1, -5, 10, -31, 73, 14, -8, -23, 63, -70, -1, 2, 8, 7, 25, -59, 27, -10, -40, -71, -15, -2, 3, -8, -5, -19, 77, -34, 7, 67, 63, 19], "withholdReward": false, "trial_id": "mdp_trial_20", "block": "test", "trialIndex": 25, "score": -72, "costs": 0, "simulationMode": [null, null, null, null, null], "rewards": [-1, 2, 8, -10, -71], "path": ["0", "0", "12", "13", "14", "19", "21"], "rt": [1117, 74, 69, 56, 110], "actions": ["right", "right", "right", "down", "down"], "actionTimes": [2310, 2891, 3468, 4041, 4674], "queries": {"click": {"state": {"target": [], "time": []}, "edge": {"target": [], "time": []}}, "mouseover": {"state": {"target": [], "time": []}, "edge": {"target": [], "time": []}}, "mouseout": {"state": {"target": ["14", "13", "12", "26", "10", "14", "13"], "time": [271, 354, 535, 5495, 5627, 15385, 15501]}, "edge": {"target": [], "time": []}}}, "displayed_time": "15.20", "trialTime": 16121, "trial_type": "mouselab-mdp", "trial_index": 40, "time_elapsed": 845463, "internal_node_id": "0.0-6.0-1.0-19.0"}}, {"uniqueid": "w83239758:a14083805", "current_trial": 41, "dateTime": 1693835458817, "trialdata": {"revealed_states": [], "clicked_states": [], "num_clicks_accrued": [0, 0, 0, 0, 0, 0, 0, 0, 0, 0, 0, 0, 0], "stateRewards": ["", 1, -2, -8, -3, 31, -84, -55, -14, 15, -58, 17, -2, -3, 7, 7, -12, 48, 67, 4, -44, -68, 46, 2, 3, -5, -7, 76, 27, 5, 11, 57, 52, 59], "withholdReward": false, "trial_id": "mdp_trial_21", "block": "test", "trialIndex": 26, "score": 19, "costs": 0, "simulationMode": [null, null, null, null, null], "rewards": [1, -2, -8, -3, 31], "path": ["0", "0", "1", "2", "3", "4", "5"], "rt": [956, 77, 158, 339, 195], "actions": ["up", "up", "up", "right", "up"], "actionTimes": [2255, 2850, 3515, 4363, 5068], "queries": {"click": {"state": {"target": [], "time": []}, "edge": {"target": [], "time": []}}, "mouseover": {"state": {"target": [], "time": []}, "edge": {"target": [], "time": []}}, "mouseout": {"state": {"target": ["0", "0", "0", "12", "13"], "time": [842, 5738, 5835, 5851, 5868]}, "edge": {"target": [], "time": []}}}, "displayed_time": "15.30", "trialTime": 15729, "trial_type": "mouselab-mdp", "trial_index": 41, "time_elapsed": 861581, "internal_node_id": "0.0-6.0-1.0-20.0"}}, {"uniqueid": "w83239758:a14083805", "current_trial": 42, "dateTime": 1693835475323, "trialdata": {"revealed_states": [], "clicked_states": [], "num_clicks_accrued": [0, 0, 0, 0, 0, 0, 0, 0, 0, 0, 0, 0, 0], "stateRewards": ["", 1, 1, -3, 2, 22, -25, -11, -5, 50, 49, 3, 1, -1, 8, 14, -85, -30, 57, -6, -39, -16, 59, -2, -1, 5, 5, 59, -16, 8, 4, 67, 56, -9], "withholdReward": false, "trial_id": "mdp_trial_22", "block": "test", "trialIndex": 27, "score": 43, "costs": 0, "simulationMode": [null, null, null, null, null], "rewards": [1, 1, -3, -5, 49], "path": ["0", "0", "1", "2", "3", "8", "10"], "rt": [1592, 155, 122, 103, 34], "actions": ["up", "up", "up", "left", "down"], "actionTimes": [3310, 3979, 4620, 5242, 5789], "queries": {"click": {"state": {"target": [], "time": []}, "edge": {"target": [], "time": []}}, "mouseover": {"state": {"target": [], "time": []}, "edge": {"target": [], "time": []}}, "mouseout": {"state": {"target": ["15", "18", "0", "0", "15", "17"], "time": [809, 839, 991, 6546, 6585, 6601]}, "edge": {"target": [], "time": []}}}, "displayed_time": "15.72", "trialTime": 16101, "trial_type": "mouselab-mdp", "trial_index": 42, "time_elapsed": 878086, "internal_node_id": "0.0-6.0-1.0-21.0"}}, {"uniqueid": "w83239758:a14083805", "current_trial": 43, "dateTime": 1693835491811, "trialdata": {"revealed_states": [], "clicked_states": [], "num_clicks_accrued": [0, 0, 0, 0, 0, 0, 0, 0, 0, 0, 0, 0, 0], "stateRewards": ["", 2, 4, 7, -6, -76, -81, 2, 5, -66, -3, 36, -2, -4, 6, -2, -69, 4, -49, -6, 67, 38, -67, 2, 1, 1, 6, -68, -21, 52, -16, -16, 6, -70], "withholdReward": false, "trial_id": "mdp_trial_23", "block": "test", "trialIndex": 28, "score": -28, "costs": 0, "simulationMode": [null, null, null, null, null], "rewards": [2, 1, 1, -16, -16], "path": ["0", "0", "23", "24", "25", "30", "31"], "rt": [1025, 19, 102, 534, 367], "actions": ["left", "left", "left", "down", "right"], "actionTimes": [2765, 3303, 3919, 4969, 5855], "queries": {"click": {"state": {"target": [], "time": []}, "edge": {"target": [], "time": []}}, "mouseover": {"state": {"target": [], "time": []}, "edge": {"target": [], "time": []}}, "mouseout": {"state": {"target": ["15", "18", "0", "12", "13", "12", "0", "23", "24", "24"], "time": [819, 934, 6746, 6779, 6795, 7778, 7811, 7845, 7962, 8128]}, "edge": {"target": [], "time": []}}}, "displayed_time": "15.74", "trialTime": 16068, "trial_type": "mouselab-mdp", "trial_index": 43, "time_elapsed": 894576, "internal_node_id": "0.0-6.0-1.0-22.0"}}, {"uniqueid": "w83239758:a14083805", "current_trial": 44, "dateTime": 1693835510100, "trialdata": {"revealed_states": [], "clicked_states": [], "num_clicks_accrued": [0, 0, 0, 0, 0, 0, 0, 0, 0, 0, 0, 0, 0], "stateRewards": ["", 1, -3, 4, 13, -72, 52, 5, 5, -58, 5, 14, 2, 1, 3, -14, -86, -4, 73, 6, -58, -50, 49, 2, -3, -4, 2, 33, -41, 42, -11, 81, 45, 53], "withholdReward": false, "trial_id": "mdp_trial_24", "block": "test", "trialIndex": 29, "score": -57, "costs": 0, "simulationMode": [null, null, null, null, null], "rewards": [1, -3, 4, 13, -72], "path": ["0", "0", "1", "2", "3", "4", "5"], "rt": [2015, 215, 117, 503, 135], "actions": ["up", "up", "up", "right", "up"], "actionTimes": [5431, 6167, 6801, 7819, 8467], "queries": {"click": {"state": {"target": [], "time": []}, "edge": {"target": [], "time": []}}, "mouseover": {"state": {"target": [], "time": []}, "edge": {"target": [], "time": []}}, "mouseout": {"state": {"target": ["0", "12", "13", "14"], "time": [9180, 9195, 9228, 9244]}, "edge": {"target": [], "time": []}}}, "displayed_time": "17.42", "trialTime": 17857, "trial_type": "mouselab-mdp", "trial_index": 44, "time_elapsed": 912864, "internal_node_id": "0.0-6.0-1.0-23.0"}}, {"uniqueid": "w83239758:a14083805", "current_trial": 45, "dateTime": 1693835526175, "trialdata": {"revealed_states": [], "clicked_states": [], "num_clicks_accrued": [0, 0, 0, 0, 0, 0, 0, 0, 0, 0, 0, 0, 0], "stateRewards": ["", -1, -3, -7, -7, -76, 30, -49, 11, -70, 56, 2, 1, 4, -3, -14, -59, -83, -25, -9, -21, -67, -73, -2, 4, 4, -9, -11, -32, 60, 9, -87, 22, -64], "withholdReward": false, "trial_id": "mdp_trial_25", "block": "test", "trialIndex": 30, "score": -35, "costs": 0, "simulationMode": [null, null, null, null, null], "rewards": [-2, 4, 4, -9, -32], "path": ["0", "0", "23", "24", "25", "26", "28"], "rt": [721, 870, 169, 54, 707], "actions": ["left", "left", "left", "up", "right"], "actionTimes": [1918, 3309, 3988, 4556, 5790], "queries": {"click": {"state": {"target": [], "time": []}, "edge": {"target": [], "time": []}}, "mouseover": {"state": {"target": [], "time": []}, "edge": {"target": [], "time": []}}, "mouseout": {"state": {"target": ["0", "18", "21"], "time": [6416, 6463, 11742]}, "edge": {"target": [], "time": []}}}, "displayed_time": "15.20", "trialTime": 15648, "trial_type": "mouselab-mdp", "trial_index": 45, "time_elapsed": 928938, "internal_node_id": "0.0-6.0-1.0-24.0"}}, {"uniqueid": "w83239758:a14083805", "current_trial": 46, "dateTime": 1693835542309, "trialdata": {"revealed_states": [], "clicked_states": [], "num_clicks_accrued": [0, 0, 0, 0, 0, 0, 0, 0, 0, 0, 0, 0, 0], "stateRewards": ["", -1, 3, -4, -14, 78, 67, 2, 13, -32, 28, 39, -2, 1, -4, -4, -4, -42, -86, 11, 64, -29, -32, -1, -4, 2, -7, 5, 68, -61, 2, -21, 85, 50], "withholdReward": false, "trial_id": "mdp_trial_26", "block": "test", "trialIndex": 31, "score": 50, "costs": 0, "simulationMode": [null, null, null, null, null], "rewards": [-1, 3, -4, 13, 39], "path": ["0", "0", "1", "2", "3", "8", "11"], "rt": [1255, 154, 146, 22, 40], "actions": ["up", "up", "up", "left", "left"], "actionTimes": [2433, 3098, 3755, 4296, 4848], "queries": {"click": {"state": {"target": [], "time": []}, "edge": {"target": [], "time": []}}, "mouseover": {"state": {"target": [], "time": []}, "edge": {"target": [], "time": []}}, "mouseout": {"state": {"target": ["0", "15", "17"], "time": [1401, 5655, 5672]}, "edge": {"target": [], "time": []}}}, "displayed_time": "15.18", "trialTime": 15723, "trial_type": "mouselab-mdp", "trial_index": 46, "time_elapsed": 945073, "internal_node_id": "0.0-6.0-1.0-25.0"}}, {"uniqueid": "w83239758:a14083805", "current_trial": 47, "dateTime": 1693835558850, "trialdata": {"revealed_states": [], "clicked_states": [], "num_clicks_accrued": [0, 0, 0, 0, 0, 0, 0, 0, 0, 0, 0, 0, 0], "stateRewards": ["", 1, -4, -6, -1, -21, 17, -72, 10, 77, 67, -46, -1, 4, -2, 14, -66, -49, -45, -15, -52, 23, -67, 2, -2, -2, 15, -3, 45, -64, 5, -44, 83, 61], "withholdReward": false, "trial_id": "mdp_trial_27", "block": "test", "trialIndex": 32, "score": 7, "costs": 0, "simulationMode": [null, null, null, null, null], "rewards": [1, -4, -6, -1, 17], "path": ["0", "0", "1", "2", "3", "4", "6"], "rt": [930, 57, 828, 297, 64], "actions": ["up", "up", "up", "right", "right"], "actionTimes": [2678, 3251, 4609, 5422, 6005], "queries": {"click": {"state": {"target": [], "time": []}, "edge": {"target": [], "time": []}}, "mouseover": {"state": {"target": [], "time": []}, "edge": {"target": [], "time": []}}, "mouseout": {"state": {"target": ["19", "14", "13", "12", "0", "24", "1", "16"], "time": [745, 810, 877, 1093, 6788, 6821, 6974, 7005]}, "edge": {"target": [], "time": []}}}, "displayed_time": "15.75", "trialTime": 16097, "trial_type": "mouselab-mdp", "trial_index": 47, "time_elapsed": 961614, "internal_node_id": "0.0-6.0-1.0-26.0"}}, {"uniqueid": "w83239758:a14083805", "current_trial": 48, "dateTime": 1693835577015, "trialdata": {"revealed_states": [], "clicked_states": [], "num_clicks_accrued": [0, 0, 0, 0, 0, 0, 0, 0, 0, 0, 0, 0, 0], "stateRewards": ["", 2, 2, 3, -15, 23, -14, 73, -7, -32, -20, -6, 1, 1, -5, -12, 73, 6, -84, 11, -81, -57, 13, -2, -1, -4, -8, -52, -58, 49, 13, 5, -41, -41], "withholdReward": false, "trial_id": "mdp_trial_28", "block": "test", "trialIndex": 33, "score": -35, "costs": 0, "simulationMode": [null, null, null, null, null], "rewards": [-2, -1, -4, 13, -41], "path": ["0", "0", "23", "24", "25", "30", "32"], "rt": [402, 4, 96, 45, 393], "actions": ["left", "left", "left", "down", "down"], "actionTimes": [3273, 3793, 4418, 4984, 5915], "queries": {"click": {"state": {"target": [], "time": []}, "edge": {"target": [], "time": []}}, "mouseover": {"state": {"target": [], "time": []}, "edge": {"target": [], "time": []}}, "mouseout": {"state": {"target": ["32", "23", "13", "12", "0", "0", "22"], "time": [782, 839, 1159, 1189, 1289, 1673, 17143]}, "edge": {"target": [], "time": []}}}, "displayed_time": "16.87", "trialTime": 17709, "trial_type": "mouselab-mdp", "trial_index": 48, "time_elapsed": 979780, "internal_node_id": "0.0-6.0-1.0-27.0"}}, {"uniqueid": "w83239758:a14083805", "current_trial": 49, "dateTime": 1693835593356, "trialdata": {"revealed_states": [], "clicked_states": [], "num_clicks_accrued": [0, 0, 0, 0, 0, 0, 0, 0, 0, 0, 0, 0, 0], "stateRewards": ["", 1, 3, 1, -13, 52, -28, 67, -14, 3, 63, -70, -1, -4, 7, -11, -10, 47, -18, 6, 69, -9, -61, 2, 3, -6, 10, 63, -34, 40, -6, -79, -35, -32], "withholdReward": false, "trial_id": "mdp_trial_29", "block": "test", "trialIndex": 34, "score": 49, "costs": 0, "simulationMode": [null, null, null, null, null], "rewards": [2, 3, -6, 10, 40], "path": ["0", "0", "23", "24", "25", "26", "29"], "rt": [729, 485, 508, 72, 16], "actions": ["left", "left", "left", "up", "left"], "actionTimes": [1932, 2938, 3961, 4540, 5067], "queries": {"click": {"state": {"target": [], "time": []}, "edge": {"target": [], "time": []}}, "mouseover": {"state": {"target": [], "time": []}, "edge": {"target": [], "time": []}}, "mouseout": {"state": {"target": ["0"], "time": [622]}, "edge": {"target": [], "time": []}}}, "displayed_time": "15.21", "trialTime": 15895, "trial_type": "mouselab-mdp", "trial_index": 49, "time_elapsed": 996120, "internal_node_id": "0.0-6.0-1.0-28.0"}}, {"uniqueid": "w83239758:a14083805", "current_trial": 50, "dateTime": 1693835611018, "trialdata": {"revealed_states": [], "clicked_states": [], "num_clicks_accrued": [0, 0, 0, 0, 0, 0, 0, 0, 0, 0, 0, 0, 0], "stateRewards": ["", 1, 2, 8, -2, 23, -69, -18, -16, 54, -21, 71, -1, -4, 7, 11, 43, -6, 88, 6, -55, 72, 43, 1, -3, -2, -1, 68, -31, -54, 4, -8, 25, -2], "withholdReward": false, "trial_id": "mdp_trial_30", "block": "test", "trialIndex": 35, "score": 101, "costs": 0, "simulationMode": [null, null, null, null, null], "rewards": [-1, -4, 7, 11, 88], "path": ["0", "0", "12", "13", "14", "15", "18"], "rt": [1125, 172, 135, 77, 395], "actions": ["right", "right", "right", "up", "left"], "actionTimes": [2551, 3244, 3891, 4483, 5404], "queries": {"click": {"state": {"target": [], "time": []}, "edge": {"target": [], "time": []}}, "mouseover": {"state": {"target": [], "time": []}, "edge": {"target": [], "time": []}}, "mouseout": {"state": {"target": ["21", "0", "0", "12", "15", "17"], "time": [293, 890, 6050, 6064, 6118, 6134]}, "edge": {"target": [], "time": []}}}, "displayed_time": "15.43", "trialTime": 17210, "trial_type": "mouselab-mdp", "trial_index": 50, "time_elapsed": 1013782, "internal_node_id": "0.0-6.0-1.0-29.0"}}, {"uniqueid": "w83239758:a14083805", "current_trial": 51, "dateTime": 1693835628649, "trialdata": {"revealed_states": [], "clicked_states": [], "num_clicks_accrued": [0, 0, 0, 0, 0, 0, 0, 0, 0, 0, 0, 0, 0], "stateRewards": ["", 1, -4, 6, -3, 40, 76, -51, 5, -24, -63, 44, -2, -2, 8, 1, 76, -85, -58, 10, 59, 20, 11, -2, 3, -3, 3, -82, -10, 54, -7, -57, -6, -32], "withholdReward": false, "trial_id": "mdp_trial_31", "block": "test", "trialIndex": 36, "score": -15, "costs": 0, "simulationMode": [null, null, null, null, null], "rewards": [-2, 3, -3, -7, -6], "path": ["0", "0", "23", "24", "25", "30", "32"], "rt": [359, 544, 138, 39, 85], "actions": ["left", "left", "left", "down", "down"], "actionTimes": [3204, 4257, 4916, 5471, 6062], "queries": {"click": {"state": {"target": [], "time": []}, "edge": {"target": [], "time": []}}, "mouseover": {"state": {"target": [], "time": []}, "edge": {"target": [], "time": []}}, "mouseout": {"state": {"target": ["22", "0", "0", "18", "17", "14", "13", "12"], "time": [796, 2144, 7191, 7223, 7255, 14817, 14834, 14915]}, "edge": {"target": [], "time": []}}}, "displayed_time": "16.85", "trialTime": 17197, "trial_type": "mouselab-mdp", "trial_index": 51, "time_elapsed": 1031413, "internal_node_id": "0.0-6.0-1.0-30.0"}}, {"uniqueid": "w83239758:a14083805", "current_trial": 52, "dateTime": 1693835644538, "trialdata": {"revealed_states": [], "clicked_states": [], "num_clicks_accrued": [0, 0, 0, 0, 0, 0, 0, 0, 0, 0, 0, 0, 0], "stateRewards": ["", -2, 1, -5, 2, -68, 80, 33, 10, 67, -59, 20, -1, -3, 3, 14, 74, -2, 24, -16, 63, 80, 46, -1, 4, 6, 12, 83, -38, -43, -4, 43, 14, -79], "withholdReward": false, "trial_id": "mdp_trial_32", "block": "test", "trialIndex": 37, "score": -55, "costs": 0, "simulationMode": [null, null, null, null, null], "rewards": [-2, 1, -5, 10, -59], "path": ["0", "0", "1", "2", "3", "8", "10"], "rt": [531, 9, 88, 13, 700], "actions": ["up", "up", "up", "left", "down"], "actionTimes": [1637, 2156, 2768, 3292, 4528], "queries": {"click": {"state": {"target": [], "time": []}, "edge": {"target": [], "time": []}}, "mouseover": {"state": {"target": [], "time": []}, "edge": {"target": [], "time": []}}, "mouseout": {"state": {"target": ["0", "0"], "time": [234, 5228]}, "edge": {"target": [], "time": []}}}, "displayed_time": "15.11", "trialTime": 15435, "trial_type": "mouselab-mdp", "trial_index": 52, "time_elapsed": 1047301, "internal_node_id": "0.0-6.0-1.0-31.0"}}, {"uniqueid": "w83239758:a14083805", "current_trial": 53, "dateTime": 1693835663675, "trialdata": {"revealed_states": [], "clicked_states": [], "num_clicks_accrued": [0, 0, 0, 0, 0, 0, 0, 0, 0, 0, 0, 0, 0], "stateRewards": ["", -1, 3, 1, -7, 56, 76, 57, 3, 11, -9, 14, 1, -2, 2, 8, -77, -3, 79, -5, 88, 24, -66, -2, -1, 7, -7, -30, 14, -76, 11, -36, 28, -6], "withholdReward": false, "trial_id": "mdp_trial_33", "block": "test", "trialIndex": 38, "score": 72, "costs": 0, "simulationMode": [null, null, null, null, null], "rewards": [-1, 3, 1, -7, 76], "path": ["0", "0", "1", "2", "3", "4", "6"], "rt": [512, 86, 67, 96, 52], "actions": ["up", "up", "up", "right", "right"], "actionTimes": [2619, 3222, 3802, 4415, 4986], "queries": {"click": {"state": {"target": [], "time": []}, "edge": {"target": [], "time": []}}, "mouseover": {"state": {"target": [], "time": []}, "edge": {"target": [], "time": []}}, "mouseout": {"state": {"target": ["17", "15", "18", "12", "0"], "time": [1084, 1101, 1135, 1384, 5972]}, "edge": {"target": [], "time": []}}}, "displayed_time": "16.11", "trialTime": 18675, "trial_type": "mouselab-mdp", "trial_index": 53, "time_elapsed": 1066437, "internal_node_id": "0.0-6.0-1.0-32.0"}}, {"uniqueid": "w83239758:a14083805", "current_trial": 54, "dateTime": 1693835680083, "trialdata": {"revealed_states": [], "clicked_states": [], "num_clicks_accrued": [0, 0, 0, 0, 0, 0, 0, 0, 0, 0, 0, 0, 0], "stateRewards": ["", 2, -1, 3, -12, -83, 6, -33, 9, 28, 24, -50, -2, -1, -2, -5, -87, 37, 82, 12, 80, -5, 10, -2, -3, -6, 9, 22, -1, 16, 9, 77, -62, 58], "withholdReward": false, "trial_id": "mdp_trial_34", "block": "test", "trialIndex": 39, "score": 2, "costs": 0, "simulationMode": [null, null, null, null, null], "rewards": [-2, -1, -2, 12, -5], "path": ["0", "0", "12", "13", "14", "19", "21"], "rt": [1298, 5, 182, 762, 153], "actions": ["right", "right", "right", "down", "down"], "actionTimes": [2836, 3362, 4069, 5348, 6021], "queries": {"click": {"state": {"target": [], "time": []}, "edge": {"target": [], "time": []}}, "mouseover": {"state": {"target": [], "time": []}, "edge": {"target": [], "time": []}}, "mouseout": {"state": {"target": ["20", "19", "22", "12"], "time": [371, 522, 588, 686]}, "edge": {"target": [], "time": []}}}, "displayed_time": "15.54", "trialTime": 15927, "trial_type": "mouselab-mdp", "trial_index": 54, "time_elapsed": 1082847, "internal_node_id": "0.0-6.0-1.0-33.0"}}, {"uniqueid": "w83239758:a14083805", "current_trial": 55, "dateTime": 1693835696825, "trialdata": {"revealed_states": [], "clicked_states": [], "num_clicks_accrued": [0, 0, 0, 0, 0, 0, 0, 0, 0, 0, 0, 0, 0], "stateRewards": ["", 2, 3, -2, -8, -8, -41, 74, 15, -23, -80, 1, 1, 3, 3, -15, -63, -78, 67, 13, 75, -41, 86, 2, -2, 6, -3, -8, -49, 50, -6, 83, 74, 80], "withholdReward": false, "trial_id": "mdp_trial_35", "block": "test", "trialIndex": 40, "score": -46, "costs": 0, "simulationMode": [null, null, null, null, null], "rewards": [2, 3, -2, -8, -41], "path": ["0", "0", "1", "2", "3", "4", "6"], "rt": [726, 23, 53, 329, 400], "actions": ["up", "up", "up", "right", "right"], "actionTimes": [2313, 2849, 3427, 4277, 5191], "queries": {"click": {"state": {"target": [], "time": []}, "edge": {"target": [], "time": []}}, "mouseover": {"state": {"target": [], "time": []}, "edge": {"target": [], "time": []}}, "mouseout": {"state": {"target": ["12", "18"], "time": [959, 6219]}, "edge": {"target": [], "time": []}}}, "displayed_time": "15.59", "trialTime": 16289, "trial_type": "mouselab-mdp", "trial_index": 55, "time_elapsed": 1099589, "internal_node_id": "0.0-6.0-1.0-34.0"}}, {"uniqueid": "w83239758:a14083805", "current_trial": 56, "dateTime": 1693835712814, "trialdata": {"revealed_states": [], "clicked_states": [], "num_clicks_accrued": [0, 0, 0, 0, 0, 0, 0, 0, 0, 0, 0, 0, 0], "stateRewards": ["", 1, 1, 1, 15, -76, 52, -32, 14, -57, 37, 49, 1, -4, -3, 6, 83, -76, 25, 9, 36, -1, -17, -1, 4, 4, -2, -22, -21, 58, -15, -57, 49, -24], "withholdReward": false, "trial_id": "mdp_trial_36", "block": "test", "trialIndex": 41, "score": 66, "costs": 0, "simulationMode": [null, null, null, null, null], "rewards": [1, 1, 1, 14, 49], "path": ["0", "0", "1", "2", "3", "8", "11"], "rt": [815, 42, 63, 434, 88], "actions": ["up", "up", "up", "left", "left"], "actionTimes": [1959, 2520, 3107, 4061, 4665], "queries": {"click": {"state": {"target": [], "time": []}, "edge": {"target": [], "time": []}}, "mouseover": {"state": {"target": ["12"], "time": [1470]}, "edge": {"target": [], "time": []}}, "mouseout": {"state": {"target": ["12", "12", "17", "32"], "time": [232, 5457, 5507, 6608]}, "edge": {"target": [], "time": []}}}, "displayed_time": "15.14", "trialTime": 15515, "trial_type": "mouselab-mdp", "trial_index": 56, "time_elapsed": 1115578, "internal_node_id": "0.0-6.0-1.0-35.0"}}, {"uniqueid": "w83239758:a14083805", "current_trial": 57, "dateTime": 1693835729150, "trialdata": {"revealed_states": [], "clicked_states": [], "num_clicks_accrued": [0, 0, 0, 0, 0, 0, 0, 0, 0, 0, 0, 0, 0], "stateRewards": ["", 1, -2, -2, 10, -31, -77, 35, 9, -47, 8, 48, -2, 1, -4, -3, -26, -50, 43, -11, 76, -38, 17, 1, -1, 6, 10, 15, -9, 12, -8, 85, 11, -55], "withholdReward": false, "trial_id": "mdp_trial_37", "block": "test", "trialIndex": 42, "score": -70, "costs": 0, "simulationMode": [null, null, null, null, null], "rewards": [1, -2, -2, 10, -77], "path": ["0", "0", "1", "2", "3", "4", "6"], "rt": [557, 600, 131, 472, 131], "actions": ["up", "up", "up", "right", "right"], "actionTimes": [1609, 2724, 3369, 4359, 5002], "queries": {"click": {"state": {"target": [], "time": []}, "edge": {"target": [], "time": []}}, "mouseover": {"state": {"target": [], "time": []}, "edge": {"target": [], "time": []}}, "mouseout": {"state": {"target": ["22", "12", "0", "0", "12"], "time": [164, 272, 587, 5722, 5749]}, "edge": {"target": [], "time": []}}}, "displayed_time": "15.05", "trialTime": 15840, "trial_type": "mouselab-mdp", "trial_index": 57, "time_elapsed": 1131913, "internal_node_id": "0.0-6.0-1.0-36.0"}}, {"uniqueid": "w83239758:a14083805", "current_trial": 58, "dateTime": 1693835745492, "trialdata": {"revealed_states": [], "clicked_states": [], "num_clicks_accrued": [0, 0, 0, 0, 0, 0, 0, 0, 0, 0, 0, 0, 0], "stateRewards": ["", 2, -4, -8, -15, 71, -43, -41, 7, -17, 20, 67, -1, -1, -4, 6, 37, -24, -47, 9, 34, 57, 45, 1, 2, -4, -5, -23, 88, -5, 13, -40, 43, 44], "withholdReward": false, "trial_id": "mdp_trial_38", "block": "test", "trialIndex": 43, "score": 55, "costs": 0, "simulationMode": [null, null, null, null, null], "rewards": [1, 2, -4, 13, 43], "path": ["0", "0", "23", "24", "25", "30", "32"], "rt": [847, 136, 118, 99, 29], "actions": ["left", "left", "left", "down", "down"], "actionTimes": [2337, 2985, 3617, 4230, 4777], "queries": {"click": {"state": {"target": [], "time": []}, "edge": {"target": [], "time": []}}, "mouseover": {"state": {"target": [], "time": []}, "edge": {"target": [], "time": []}}, "mouseout": {"state": {"target": ["19", "0", "17"], "time": [649, 5614, 5661]}, "edge": {"target": [], "time": []}}}, "displayed_time": "15.50", "trialTime": 15859, "trial_type": "mouselab-mdp", "trial_index": 58, "time_elapsed": 1148256, "internal_node_id": "0.0-6.0-1.0-37.0"}}, {"uniqueid": "w83239758:a14083805", "current_trial": 59, "dateTime": 1693835761653, "trialdata": {"revealed_states": [], "clicked_states": [], "num_clicks_accrued": [0, 0, 0, 0, 0, 0, 0, 0, 0, 0, 0, 0, 0], "stateRewards": ["", 2, -4, 7, 3, 23, -42, 4, 7, -81, -33, 7, -2, -4, 5, -1, 50, -57, -14, -13, -14, 44, 55, -2, -2, 5, -2, 33, 1, 57, -13, -7, 58, 87], "withholdReward": false, "trial_id": "mdp_trial_39", "block": "test", "trialIndex": 44, "score": 19, "costs": 0, "simulationMode": [null, null, null, null, null], "rewards": [2, -4, 7, 7, 7], "path": ["0", "0", "1", "2", "3", "8", "11"], "rt": [719, 40, 80, 444, 60], "actions": ["up", "up", "up", "left", "left"], "actionTimes": [1896, 2443, 3033, 3996, 4576], "queries": {"click": {"state": {"target": [], "time": []}, "edge": {"target": [], "time": []}}, "mouseover": {"state": {"target": [], "time": []}, "edge": {"target": [], "time": []}}, "mouseout": {"state": {"target": ["20", "13", "12", "0", "12"], "time": [372, 485, 535, 5288, 5314]}, "edge": {"target": [], "time": []}}}, "displayed_time": "15.18", "trialTime": 15573, "trial_type": "mouselab-mdp", "trial_index": 59, "time_elapsed": 1164417, "internal_node_id": "0.0-6.0-1.0-38.0"}}, {"uniqueid": "w83239758:a14083805", "current_trial": 60, "dateTime": 1693835778452, "trialdata": {"revealed_states": [], "clicked_states": [], "num_clicks_accrued": [0, 0, 0, 0, 0, 0, 0, 0, 0, 0, 0, 0, 0], "stateRewards": ["", 1, 1, 5, 6, -29, -7, 3, -16, 9, -46, 65, -1, 4, -1, -16, -63, -77, -87, 8, 80, -50, 43, -1, -1, -5, 5, -38, -71, -62, 9, 81, -50, -52], "withholdReward": false, "trial_id": "mdp_trial_40", "block": "test", "trialIndex": 45, "score": 6, "costs": 0, "simulationMode": [null, null, null, null, null], "rewards": [1, 1, 5, 6, -7], "path": ["0", "0", "1", "2", "3", "4", "6"], "rt": [324, 46, 91, 677, 16], "actions": ["up", "up", "up", "right", "right"], "actionTimes": [2087, 2641, 3269, 4454, 4992], "queries": {"click": {"state": {"target": [], "time": []}, "edge": {"target": [], "time": []}}, "mouseover": {"state": {"target": [], "time": []}, "edge": {"target": [], "time": []}}, "mouseout": {"state": {"target": ["20", "14", "13", "12", "0"], "time": [663, 760, 794, 1110, 1293]}, "edge": {"target": [], "time": []}}}, "displayed_time": "15.77", "trialTime": 16329, "trial_type": "mouselab-mdp", "trial_index": 60, "time_elapsed": 1181215, "internal_node_id": "0.0-6.0-1.0-39.0"}}, {"uniqueid": "w83239758:a14083805", "current_trial": 61, "dateTime": 1693835806336, "trialdata": {"rt": 27872, "response": {"Q0": "$-2 to $2", "Q1": "$-16 to $16", "Q2": "$-32 to $32", "Q3": "The cost for clicking on nodes varied between nodes.", "Q4": "Very motivated"}, "question_order": [0, 1, 2, 3, 4], "trial_id": "final_quiz_control", "trial_type": "survey-multi-choice", "trial_index": 61, "time_elapsed": 1209101, "internal_node_id": "0.0-6.0-2.0"}}, {"uniqueid": "w83239758:a14083805", "current_trial": 62, "dateTime": 1693835862405, "trialdata": {"rt": 55909, "response": {"Q0": "I always went were there was a possibility of more money", "Q1": "I improved by clicking on the nodes to see the amounts", "Q2": "It was difficult because the amounts kept changing"}, "trial_id": "self_report_control", "trial_type": "survey-text", "trial_index": 62, "time_elapsed": 1265170, "internal_node_id": "0.0-6.0-3.0"}}, {"uniqueid": "w83239758:a14083805", "current_trial": 63, "dateTime": 1693835902413, "trialdata": {"rt": 40001, "response": {"Q0": "Agree", "Q1": "Strongly disagree", "Q2": "Agree", "Q3": "Agree", "Q4": "Strongly agree", "Q5": "Strongly agree", "Q6": "Strongly disagree"}, "question_order": [0, 1, 2, 3, 4, 5, 6], "trial_id": "self_report_2", "trial_type": "survey-multi-choice", "trial_index": 63, "time_elapsed": 1305178, "internal_node_id": "0.0-6.0-4.0"}}, {"uniqueid": "w83239758:a14083805", "current_trial": 64, "dateTime": 1693835915477, "trialdata": {"rt": 13031, "response": {"gender": "female", "age": "21", "colorblind": "0", "effort": "0"}, "trial_type": "survey-html-form", "trial_index": 64, "time_elapsed": 1318242, "internal_node_id": "0.0-6.0-5.0"}}, {"uniqueid": "w83239758:a14083805", "current_trial": 65, "dateTime": 1693835937915, "trialdata": {"rt": 22333, "response": {"Q0": "no", "Q1": "no i have never", "Q2": "it was a fun game"}, "trial_type": "survey-text", "trial_index": 65, "time_elapsed": 1340680, "internal_node_id": "0.0-6.0-6.0"}}, {"uniqueid": "w83239758:a14083805", "current_trial": 66, "dateTime": 1693835948086, "trialdata": {"rt": 10163, "stimulus": "<h1>Completion Code Instructions (1/2)</h1>\n<br><br><br><br>\nYou have reached the end of the experiment! The completion code consists of two parts: (1) a code with 2 characters (2) a code with 6 characters. On this page, you will receive the second part of the code. The first part of the completion code will be on the next page.\n<br><br>\nThe second part of your completion code is: <b>EWEK22</b>\n<br><br>\nPlease note this down. Then, press 'Next' in order to find the first part of your completion code. Once the data has been saved, you will receive this code either in this window or in the original browser window where you started the experiment.\n <br><br>\n<h2 style='color: red;'>Note: this is <strong>NOT</strong> the full completion code. Copy this down and click 'Next' to get the full completion code on the next page.</h2>", "response": 0, "trial_type": "html-button-response", "trial_index": 66, "time_elapsed": 1350851, "internal_node_id": "0.0-6.0-7.0"}}, {"uniqueid": "w83239758:a14083805", "current_trial": 67, "dateTime": 1693835949102, "trialdata": {"success": true, "trial_type": "fullscreen", "trial_index": 67, "time_elapsed": 1351867, "internal_node_id": "0.0-7.0"}}], "questiondata": {"params": {"CODE": "C6DMOQA6", "MIN_TIME": 14, "inspectCost": 1, "startTime": "Mon Sep 04 2023 15:36:34 GMT+0200 (South Africa Standard Time)", "bonusRate": 0.002, "variance": "1_2_4_8_44", "branching": "31123"}}, "eventdata": [{"eventtype": "initialized", "value": null, "timestamp": 1693834593260, "interval": 0}, {"eventtype": "window_resize", "value": [1024, 654], "timestamp": 1693834593260, "interval": 0}, {"eventtype": "window_resize", "value": [1024, 654], "timestamp": 1693834593959, "interval": 699}, {"eventtype": "window_resize", "value": [1366, 768], "timestamp": 1693834609965, "interval": 16006}, {"eventtype": "focus", "value": "off", "timestamp": 1693834875473, "interval": 265508}, {"eventtype": "focus", "value": "on", "timestamp": 1693834875474, "interval": 1}, {"eventtype": "window_resize", "value": [1024, 654], "timestamp": 1693834875697, "interval": 223}, {"eventtype": "window_resize", "value": [1366, 768], "timestamp": 1693834877561, "interval": 1864}, {"eventtype": "focus", "value": "off", "timestamp": 1693834985409, "interval": 107848}, {"eventtype": "focus", "value": "on", "timestamp": 1693834985410, "interval": 1}, {"eventtype": "window_resize", "value": [1024, 654], "timestamp": 1693834985629, "interval": 219}, {"eventtype": "window_resize", "value": [1366, 768], "timestamp": 1693834988778, "interval": 3149}, {"eventtype": "window_resize", "value": [1024, 654], "timestamp": 1693835948362, "interval": 959584}], "useragent": "Mozilla/5.0 (Windows NT 10.0; Win64; x64) AppleWebKit/537.36 (KHTML, like Gecko) Chrome/116.0.0.0 Safari/537.36", "mode": "live", "id": "w83239758:a14083805", "status": "user data saved", "Beginhit": "2023-09-04 13:36:24.829462", "Beginexp": "2023-09-04 13:36:49.121476", "Endhit": "2023-09-04 13:59:08.714794", "psiturkStatus": 3, "browser": "<redacted>", "platform": "windows", "language": "en-US"}