{"condition": 1, "counterbalance": 0, "assignmentId": "a14806509", "workerId": "w85676839", "hitId": "h88988329", "currenttrial": 68, "bonus": 0, "data": [{"uniqueid": "w85676839:a14806509", "current_trial": 0, "dateTime": 1691142154365, "trialdata": {"success": true, "trial_type": "fullscreen", "trial_index": 0, "time_elapsed": 5521, "internal_node_id": "0.0-0.0"}}, {"uniqueid": "w85676839:a14806509", "current_trial": 1, "dateTime": 1691142171035, "trialdata": {"view_history": [{"page_index": 0, "viewing_time": 16654}], "rt": 16655, "trial_id": "exp_instructions_misaligned", "trial_type": "instructions", "trial_index": 1, "time_elapsed": 22190, "internal_node_id": "0.0-1.0"}}, {"uniqueid": "w85676839:a14806509", "current_trial": 2, "dateTime": 1691142180264, "trialdata": {"success": true, "trial_type": "fullscreen", "trial_index": 2, "time_elapsed": 31420, "internal_node_id": "0.0-2.0-0.0"}}, {"uniqueid": "w85676839:a14806509", "current_trial": 3, "dateTime": 1691142365281, "trialdata": {"view_history": [{"page_index": 0, "viewing_time": 71390}, {"page_index": 1, "viewing_time": 66960}, {"page_index": 2, "viewing_time": 11361}, {"page_index": 3, "viewing_time": 35300}], "rt": 185012, "trial_id": "mouselab_instructions_1_misaligned", "trial_type": "instructions", "trial_index": 3, "time_elapsed": 216437, "internal_node_id": "0.0-2.0-1.0"}}, {"uniqueid": "w85676839:a14806509", "current_trial": 4, "dateTime": 1691142392579, "trialdata": {"revealed_states": [], "clicked_states": ["1"], "num_clicks_accrued": [0, 0, 0, 0, 0, 0, 0, 0, 0, 0, 0, 0, 0], "stateRewards": ["", -10, -10, -10, 10, 10, -10, -10, 10, 10, 10, -10, 10, -10, -10, 10, 10, -10, 10, 10, 10, 10, 10, -10, 10, -10, -10, -10, -10, -10, 10, 10, 10, -10], "withholdReward": false, "trial_id": "practice_1", "block": "test", "trialIndex": 0, "score": -7, "costs": -0.5, "simulationMode": [null, null, null, null, null], "rewards": [-10, -10, -10, 10, 10], "path": ["0", "0", "1", "2", "3", "4", "5"], "rt": [7453, 418, 673, 1016, 234], "actions": ["up", "up", "up", "right", "up"], "actionTimes": [12279, 13218, 14407, 15935, 16670], "queries": {"click": {"state": {"target": ["1"], "time": [8245]}, "edge": {"target": [], "time": []}}, "mouseover": {"state": {"target": ["1", "2"], "time": [7577, 10628]}, "edge": {"target": [], "time": []}}, "mouseout": {"state": {"target": ["0", "1", "2", "1", "13", "14", "20"], "time": [7052, 8361, 10880, 11045, 21815, 21848, 21917]}, "edge": {"target": [], "time": []}}}, "displayed_time": "17.19", "trialTime": 25148, "trial_type": "mouselab-mdp", "trial_index": 4, "time_elapsed": 243733, "internal_node_id": "0.0-2.0-2.0-0.0"}}, {"uniqueid": "w85676839:a14806509", "current_trial": 5, "dateTime": 1691142411632, "trialdata": {"revealed_states": [], "clicked_states": [], "num_clicks_accrued": [0, 0, 0, 0, 0, 0, 0, 0, 0, 0, 0, 0, 0], "stateRewards": ["", -10, -10, -10, 10, -10, -10, 10, 10, -10, -10, 10, 10, -10, -10, -10, 10, -10, -10, 10, 10, 10, 10, -10, -10, 10, -10, -10, 10, 10, -10, -10, -10, -10], "withholdReward": false, "trial_id": "practice_2", "block": "test", "trialIndex": 1, "score": 13.5, "costs": 0, "simulationMode": [null, null, null, null, null], "rewards": [10, -10, -10, 10, 10], "path": ["0", "0", "12", "13", "14", "19", "21"], "rt": [6009, 860, 747, 878, 597], "actions": ["right", "right", "right", "down", "down"], "actionTimes": [10094, 11482, 12738, 14117, 15220], "queries": {"click": {"state": {"target": [], "time": []}, "edge": {"target": [], "time": []}}, "mouseover": {"state": {"target": [], "time": []}, "edge": {"target": [], "time": []}}, "mouseout": {"state": {"target": ["20", "22", "0"], "time": [2227, 2795, 3262]}, "edge": {"target": [], "time": []}}}, "displayed_time": "15.72", "trialTime": 18580, "trial_type": "mouselab-mdp", "trial_index": 5, "time_elapsed": 262787, "internal_node_id": "0.0-2.0-2.0-1.0"}}, {"uniqueid": "w85676839:a14806509", "current_trial": 6, "dateTime": 1691142447221, "trialdata": {"view_history": [{"page_index": 0, "viewing_time": 27926}, {"page_index": 1, "viewing_time": 7655}], "rt": 35581, "trial_id": "mouselab_instructions_2_misaligned", "trial_type": "instructions", "trial_index": 6, "time_elapsed": 298377, "internal_node_id": "0.0-2.0-3.0"}}, {"uniqueid": "w85676839:a14806509", "current_trial": 7, "dateTime": 1691142495137, "trialdata": {"rt": 47909, "response": {"Q0": "The cost for clicking on nodes may vary between nodes.", "Q1": "The better I perform the higher my bonus will be.", "Q2": "No, the amount of cash at each node of the web may be different each time.", "Q3": "To click on the least number of nodes.", "Q4": "Any time during the round.", "Q5": "3 seconds"}, "question_order": [0, 1, 2, 3, 4, 5], "correct": {"Q0": "The cost for clicking on nodes may vary between nodes.", "Q1": "The better I perform the higher my bonus will be.", "Q2": "No, the amount of cash at each node of the web may be different each time.", "Q3": "To get the highest total score.", "Q4": "Only before moving the spider.", "Q5": "3 seconds"}, "trial_id": "mouselab_quiz_misaligned", "trial_type": "survey-multi-choice", "trial_index": 7, "time_elapsed": 346293, "internal_node_id": "0.0-2.0-4.0"}}, {"uniqueid": "w85676839:a14806509", "current_trial": 8, "dateTime": 1691142505948, "trialdata": {"success": true, "trial_type": "fullscreen", "trial_index": 8, "time_elapsed": 357104, "internal_node_id": "0.0-2.1-0.1"}}, {"uniqueid": "w85676839:a14806509", "current_trial": 9, "dateTime": 1691142700997, "trialdata": {"view_history": [{"page_index": 0, "viewing_time": 61366}, {"page_index": 1, "viewing_time": 76073}, {"page_index": 2, "viewing_time": 23781}, {"page_index": 3, "viewing_time": 33824}], "rt": 195044, "trial_id": "mouselab_instructions_1_misaligned", "trial_type": "instructions", "trial_index": 9, "time_elapsed": 552153, "internal_node_id": "0.0-2.1-1.1"}}, {"uniqueid": "w85676839:a14806509", "current_trial": 10, "dateTime": 1691142716007, "trialdata": {"revealed_states": [], "clicked_states": [], "num_clicks_accrued": [0, 0, 0, 0, 0, 0, 0, 0, 0, 0, 0, 0, 0], "stateRewards": ["", -10, -10, -10, 10, 10, -10, -10, 10, 10, 10, -10, 10, -10, -10, 10, 10, -10, 10, 10, 10, 10, 10, -10, 10, -10, -10, -10, -10, -10, 10, 10, 10, -10], "withholdReward": false, "trial_id": "practice_1", "block": "test", "trialIndex": 2, "score": 13.5, "costs": 0, "simulationMode": [null, null, null, null, null], "rewards": [10, -10, -10, 10, 10], "path": ["0", "0", "12", "13", "14", "19", "21"], "rt": [2404, 471, 355, 820, 444], "actions": ["right", "right", "right", "down", "down"], "actionTimes": [6449, 7424, 8293, 9634, 10581], "queries": {"click": {"state": {"target": [], "time": []}, "edge": {"target": [], "time": []}}, "mouseover": {"state": {"target": [], "time": []}, "edge": {"target": [], "time": []}}, "mouseout": {"state": {"target": [], "time": []}, "edge": {"target": [], "time": []}}}, "displayed_time": "11.09", "trialTime": 14506, "trial_type": "mouselab-mdp", "trial_index": 10, "time_elapsed": 567162, "internal_node_id": "0.0-2.1-2.1-0.1"}}, {"uniqueid": "w85676839:a14806509", "current_trial": 11, "dateTime": 1691142733748, "trialdata": {"revealed_states": [], "clicked_states": ["23", "25", "1", "13"], "num_clicks_accrued": [0, 0, 0, 0, 0, 0, 0, 0, 0, 0, 0, 0, 0], "stateRewards": ["", -10, -10, -10, 10, -10, -10, 10, 10, -10, -10, 10, 10, -10, -10, -10, 10, -10, -10, 10, 10, 10, 10, -10, -10, 10, -10, -10, 10, 10, -10, -10, -10, -10], "withholdReward": false, "trial_id": "practice_2", "block": "test", "trialIndex": 3, "score": 11.5, "costs": -2, "simulationMode": [null, null, null, null, null], "rewards": [10, -10, -10, 10, 10], "path": ["0", "0", "12", "13", "14", "19", "21"], "rt": [8204, 237, 393, 871, 414], "actions": ["right", "right", "right", "down", "down"], "actionTimes": [10315, 11081, 11988, 13366, 14292], "queries": {"click": {"state": {"target": ["23", "25", "1", "13"], "time": [3595, 5462, 6705, 8095]}, "edge": {"target": [], "time": []}}, "mouseover": {"state": {"target": ["23", "24", "25", "25", "1", "1", "12", "13"], "time": [3171, 4557, 4702, 4988, 6021, 6320, 7355, 7599]}, "edge": {"target": [], "time": []}}, "mouseout": {"state": {"target": ["0", "23", "24", "25", "25", "1", "1", "12", "13"], "time": [3005, 4304, 4668, 4772, 5580, 6089, 7293, 7422, 8214]}, "edge": {"target": [], "time": []}}}, "displayed_time": "14.80", "trialTime": 17250, "trial_type": "mouselab-mdp", "trial_index": 11, "time_elapsed": 584903, "internal_node_id": "0.0-2.1-2.1-1.1"}}, {"uniqueid": "w85676839:a14806509", "current_trial": 12, "dateTime": 1691142793609, "trialdata": {"view_history": [{"page_index": 0, "viewing_time": 53892}, {"page_index": 1, "viewing_time": 5961}], "rt": 59854, "trial_id": "mouselab_instructions_2_misaligned", "trial_type": "instructions", "trial_index": 12, "time_elapsed": 644765, "internal_node_id": "0.0-2.1-3.1"}}, {"uniqueid": "w85676839:a14806509", "current_trial": 13, "dateTime": 1691142887061, "trialdata": {"rt": 93447, "response": {"Q0": "The cost for clicking on nodes may vary between nodes.", "Q1": "The better I perform the higher my bonus will be.", "Q2": "No, the amount of cash at each node of the web may be different each time.", "Q3": "To click on the least number of nodes.", "Q4": "Only before moving the spider.", "Q5": "3 seconds"}, "question_order": [0, 1, 2, 3, 4, 5], "correct": {"Q0": "The cost for clicking on nodes may vary between nodes.", "Q1": "The better I perform the higher my bonus will be.", "Q2": "No, the amount of cash at each node of the web may be different each time.", "Q3": "To get the highest total score.", "Q4": "Only before moving the spider.", "Q5": "3 seconds"}, "trial_id": "mouselab_quiz_misaligned", "trial_type": "survey-multi-choice", "trial_index": 13, "time_elapsed": 738217, "internal_node_id": "0.0-2.1-4.1"}}, {"uniqueid": "w85676839:a14806509", "current_trial": 14, "dateTime": 1691142901467, "trialdata": {"success": true, "trial_type": "fullscreen", "trial_index": 14, "time_elapsed": 752622, "internal_node_id": "0.0-2.2-0.2"}}, {"uniqueid": "w85676839:a14806509", "current_trial": 15, "dateTime": 1691143224763, "trialdata": {"view_history": [{"page_index": 0, "viewing_time": 92905}, {"page_index": 1, "viewing_time": 113579}, {"page_index": 2, "viewing_time": 78404}, {"page_index": 3, "viewing_time": 38404}], "rt": 323292, "trial_id": "mouselab_instructions_1_misaligned", "trial_type": "instructions", "trial_index": 15, "time_elapsed": 1075919, "internal_node_id": "0.0-2.2-1.2"}}, {"uniqueid": "w85676839:a14806509", "current_trial": 16, "dateTime": 1691143241243, "trialdata": {"revealed_states": [], "clicked_states": ["12", "23"], "num_clicks_accrued": [0, 0, 0, 0, 0, 0, 0, 0, 0, 0, 0, 0, 0], "stateRewards": ["", -10, -10, -10, 10, 10, -10, -10, 10, 10, 10, -10, 10, -10, -10, 10, 10, -10, 10, 10, 10, 10, 10, -10, 10, -10, -10, -10, -10, -10, 10, 10, 10, -10], "withholdReward": false, "trial_id": "practice_1", "block": "test", "trialIndex": 4, "score": 12.5, "costs": -1, "simulationMode": [null, null, null, null, null], "rewards": [10, -10, -10, 10, 10], "path": ["0", "0", "12", "13", "14", "19", "21"], "rt": [3922, 402, 481, 1054, 395], "actions": ["right", "right", "right", "down", "down"], "actionTimes": [7132, 8043, 9034, 10599, 11493], "queries": {"click": {"state": {"target": ["12", "23"], "time": [4402, 5679]}, "edge": {"target": [], "time": []}}, "mouseover": {"state": {"target": ["12", "0", "23"], "time": [4008, 5125, 5239]}, "edge": {"target": [], "time": []}}, "mouseout": {"state": {"target": ["0", "12", "0", "23", "0", "12", "13"], "time": [3824, 5074, 5190, 5799, 15346, 15397, 15431]}, "edge": {"target": [], "time": []}}}, "displayed_time": "12.00", "trialTime": 15954, "trial_type": "mouselab-mdp", "trial_index": 16, "time_elapsed": 1092398, "internal_node_id": "0.0-2.2-2.2-0.2"}}, {"uniqueid": "w85676839:a14806509", "current_trial": 17, "dateTime": 1691143257566, "trialdata": {"revealed_states": [], "clicked_states": ["1", "23", "12"], "num_clicks_accrued": [0, 0, 0, 0, 0, 0, 0, 0, 0, 0, 0, 0, 0], "stateRewards": ["", -10, -10, -10, 10, -10, -10, 10, 10, -10, -10, 10, 10, -10, -10, -10, 10, -10, -10, 10, 10, 10, 10, -10, -10, 10, -10, -10, 10, 10, -10, -10, -10, -10], "withholdReward": false, "trial_id": "practice_2", "block": "test", "trialIndex": 5, "score": 12, "costs": -1.5, "simulationMode": [null, null, null, null, null], "rewards": [10, -10, -10, 10, 10], "path": ["0", "0", "12", "13", "14", "19", "21"], "rt": [5338, 141, 211, 601, 644], "actions": ["right", "right", "right", "down", "down"], "actionTimes": [9529, 10186, 10909, 12017, 13178], "queries": {"click": {"state": {"target": ["1", "23", "12"], "time": [5249, 6686, 8139]}, "edge": {"target": [], "time": []}}, "mouseover": {"state": {"target": ["1", "23", "23", "12"], "time": [4805, 5875, 6207, 7757]}, "edge": {"target": [], "time": []}}, "mouseout": {"state": {"target": ["12", "0", "1", "1", "23", "23", "12"], "time": [3219, 4669, 5388, 5810, 5959, 6817, 8265]}, "edge": {"target": [], "time": []}}}, "displayed_time": "13.68", "trialTime": 15621, "trial_type": "mouselab-mdp", "trial_index": 17, "time_elapsed": 1108721, "internal_node_id": "0.0-2.2-2.2-1.2"}}, {"uniqueid": "w85676839:a14806509", "current_trial": 18, "dateTime": 1691143283377, "trialdata": {"view_history": [{"page_index": 0, "viewing_time": 22504}, {"page_index": 1, "viewing_time": 3303}], "rt": 25807, "trial_id": "mouselab_instructions_2_misaligned", "trial_type": "instructions", "trial_index": 18, "time_elapsed": 1134533, "internal_node_id": "0.0-2.2-3.2"}}, {"uniqueid": "w85676839:a14806509", "current_trial": 19, "dateTime": 1691143316714, "trialdata": {"rt": 33332, "response": {"Q0": "The cost for clicking on nodes may vary between nodes.", "Q1": "The better I perform the higher my bonus will be.", "Q2": "No, the amount of cash at each node of the web may be different each time.", "Q3": "To get the highest total score.", "Q4": "Only before moving the spider.", "Q5": "3 seconds"}, "question_order": [0, 1, 2, 3, 4, 5], "correct": {"Q0": "The cost for clicking on nodes may vary between nodes.", "Q1": "The better I perform the higher my bonus will be.", "Q2": "No, the amount of cash at each node of the web may be different each time.", "Q3": "To get the highest total score.", "Q4": "Only before moving the spider.", "Q5": "3 seconds"}, "trial_id": "mouselab_quiz_misaligned", "trial_type": "survey-multi-choice", "trial_index": 19, "time_elapsed": 1167870, "internal_node_id": "0.0-2.2-4.2"}}, {"uniqueid": "w85676839:a14806509", "current_trial": 20, "dateTime": 1691143332265, "trialdata": {"rt": 15539, "stimulus": "\n<h1> Get ready to start the game! </h1>\n\nThank you for reading the instructions. Get ready start with the 40 rounds of this game.\n<br><br>\nIf you need to take a break, feel free to take one after the end of a round, before continuing to the next one.\n<br><br>\nRemember, the more money the spider gets, the bigger your bonus will be!\n<br><br>\n<div style='text-align: center;'>Press <code>space</code> to begin.</div>\n\n<br><br>\n(If, at any point, the <code>space</code> key does not take you to the next page, click once on the text and try again.)", "response": " ", "trial_id": "mdp_ready", "trial_type": "html-keyboard-response", "trial_index": 20, "time_elapsed": 1183421, "internal_node_id": "0.0-4.0-0.0"}}, {"uniqueid": "w85676839:a14806509", "current_trial": 21, "dateTime": 1691143353834, "trialdata": {"revealed_states": [], "clicked_states": ["23", "12"], "num_clicks_accrued": [0, 0, 0, 0, 0, 0, 0, 0, 0, 0, 0, 0, 0], "stateRewards": ["", 1, -4, -6, 11, -20, 8, -30, 1, -38, 88, 42, 2, 3, 5, -12, -8, -74, 30, -8, 67, -19, 42, 2, -1, 4, 13, 50, -68, 2, -8, -15, 87, -46], "withholdReward": false, "trial_id": "mdp_trial_1", "block": "test", "trialIndex": 6, "score": -16.5, "costs": 0.5, "simulationMode": [null, null, null, null, null], "rewards": [2, 3, 5, -8, -19], "path": ["0", "0", "12", "13", "14", "19", "21"], "rt": [5332, 208, 278, 415, 295], "actions": ["right", "right", "right", "down", "down"], "actionTimes": [8382, 9107, 9894, 10817, 11610], "queries": {"click": {"state": {"target": ["23", "12"], "time": [4732, 7448]}, "edge": {"target": [], "time": []}}, "mouseover": {"state": {"target": ["23", "12"], "time": [4127, 7063]}, "edge": {"target": [], "time": []}}, "mouseout": {"state": {"target": ["23", "0", "0", "23"], "time": [1676, 2092, 4044, 6747]}, "edge": {"target": [], "time": []}}}, "displayed_time": "17.05", "trialTime": 20924, "trial_type": "mouselab-mdp", "trial_index": 21, "time_elapsed": 1204989, "internal_node_id": "0.0-4.0-1.0-0.0"}}, {"uniqueid": "w85676839:a14806509", "current_trial": 22, "dateTime": 1691143387635, "trialdata": {"revealed_states": [], "clicked_states": ["23", "24", "30", "19", "15", "2", "3", "4", "8", "14", "21", "25"], "num_clicks_accrued": [0, 0, 0, 0, 0, 0, 0, 0, 0, 0, 0, 0, 0], "stateRewards": ["", 1, 2, 2, -15, -84, 28, -26, 13, 31, 86, 30, -2, 1, -1, -8, 66, -40, -1, -10, -32, 57, -17, 1, 2, -2, 9, -23, 77, 85, 12, -32, -62, -35], "withholdReward": false, "trial_id": "mdp_trial_2", "block": "test", "trialIndex": 7, "score": 31.8, "costs": -13.2, "simulationMode": [null, null, null, null, null], "rewards": [-2, 1, -1, -10, 57], "path": ["0", "0", "12", "13", "14", "19", "21"], "rt": [20662, 375, 647, 652, 718], "actions": ["right", "right", "right", "down", "down"], "actionTimes": [23995, 24881, 26039, 27192, 28408], "queries": {"click": {"state": {"target": ["23", "24", "30", "19", "15", "2", "3", "4", "8", "14", "21", "25"], "time": [4451, 5792, 7009, 8751, 10641, 11837, 12886, 14116, 15351, 17760, 18846, 22711]}, "edge": {"target": [], "time": []}}, "mouseover": {"state": {"target": ["23", "24", "25", "30", "23", "0", "12", "13", "19", "14", "15", "7", "2", "3", "4", "4", "8", "9", "22", "19", "14", "19", "21", "22", "12", "23", "24", "31", "25"], "time": [3995, 5383, 6460, 6612, 7861, 7885, 7923, 7985, 8313, 9562, 10182, 11185, 11219, 12445, 13329, 13651, 14999, 16033, 16767, 16851, 17249, 18285, 18337, 19519, 19787, 20236, 20366, 20433, 21734]}, "edge": {"target": [], "time": []}}, "mouseout": {"state": {"target": ["12", "0", "23", "24", "24", "25", "30", "23", "0", "12", "13", "19", "14", "15", "7", "2", "3", "4", "4", "8", "9", "22", "19", "14", "19", "21", "22", "12", "23", "24", "31"], "time": [2241, 3912, 5264, 5911, 6428, 6511, 7131, 7880, 7906, 7940, 8095, 8881, 10098, 11118, 11202, 12247, 13311, 13347, 14667, 15848, 16265, 16784, 17187, 18234, 18305, 19432, 19572, 19882, 20270, 20384, 21451]}, "edge": {"target": [], "time": []}}}, "displayed_time": "28.91", "trialTime": 33201, "trial_type": "mouselab-mdp", "trial_index": 22, "time_elapsed": 1238790, "internal_node_id": "0.0-4.0-1.0-1.0"}}, {"uniqueid": "w85676839:a14806509", "current_trial": 23, "dateTime": 1691143411777, "trialdata": {"revealed_states": [], "clicked_states": ["24", "31", "14"], "num_clicks_accrued": [0, 0, 0, 0, 0, 0, 0, 0, 0, 0, 0, 0, 0], "stateRewards": ["", -2, -3, -3, 9, 79, 67, 22, -15, -56, 27, -85, -2, 4, -4, -15, -20, -32, 60, 15, 71, 57, 17, 1, 2, -8, 15, -37, -81, 82, 15, 21, -3, 2], "withholdReward": false, "trial_id": "mdp_trial_3", "block": "test", "trialIndex": 8, "score": 3.5500000000000007, "costs": -3.45, "simulationMode": [null, null, null, null, null], "rewards": [1, 2, -8, 15, -3], "path": ["0", "0", "23", "24", "25", "30", "32"], "rt": [8673, 197, 507, 466, 970], "actions": ["left", "left", "left", "down", "down"], "actionTimes": [13450, 14163, 15171, 16147, 17617], "queries": {"click": {"state": {"target": ["24", "31", "14"], "time": [7224, 8273, 11478]}, "edge": {"target": [], "time": []}}, "mouseover": {"state": {"target": ["23", "24", "24", "31", "31", "13", "20", "14"], "time": [5559, 5610, 5894, 7647, 7857, 8692, 9041, 10142]}, "edge": {"target": [], "time": []}}, "mouseout": {"state": {"target": ["25", "24", "0", "23", "24", "24", "31", "31", "13", "20", "14"], "time": [3504, 3554, 5495, 5592, 5875, 7590, 7689, 8625, 8708, 9759, 21814]}, "edge": {"target": [], "time": []}}}, "displayed_time": "18.78", "trialTime": 23575, "trial_type": "mouselab-mdp", "trial_index": 23, "time_elapsed": 1262932, "internal_node_id": "0.0-4.0-1.0-2.0"}}, {"uniqueid": "w85676839:a14806509", "current_trial": 24, "dateTime": 1691143439703, "trialdata": {"revealed_states": [], "clicked_states": ["13", "24", "31", "19", "14", "1"], "num_clicks_accrued": [0, 0, 0, 0, 0, 0, 0, 0, 0, 0, 0, 0, 0], "stateRewards": ["", -1, 1, 8, -8, -49, 62, -78, 16, 28, -81, 78, -2, -3, -1, -4, 67, 49, -2, -13, -16, -39, 83, 1, -4, 4, -5, -20, 7, 84, 7, -32, -59, 19], "withholdReward": false, "trial_id": "mdp_trial_4", "block": "test", "trialIndex": 9, "score": 96.9, "costs": -5.1, "simulationMode": [null, null, null, null, null], "rewards": [-1, 1, 8, 16, 78], "path": ["0", "0", "1", "2", "3", "8", "11"], "rt": [13847, 540, 562, 914, 341], "actions": ["up", "up", "up", "left", "left"], "actionTimes": [16625, 17678, 18767, 20187, 21044], "queries": {"click": {"state": {"target": ["13", "24", "31", "19", "14", "1"], "time": [4219, 6060, 7971, 11690, 13397, 14632]}, "edge": {"target": [], "time": []}}, "mouseover": {"state": {"target": ["12", "13", "12", "23", "24", "31", "30", "22", "19", "14", "1"], "time": [3565, 3931, 4913, 5145, 5667, 7467, 9282, 10953, 11118, 12968, 14187]}, "edge": {"target": [], "time": []}}, "mouseout": {"state": {"target": ["13", "12", "0", "12", "13", "12", "23", "24", "31", "30", "22", "19", "14", "1", "16"], "time": [1695, 1779, 3513, 3748, 4862, 4953, 5549, 7217, 9218, 10665, 11031, 11816, 13849, 15384, 23472]}, "edge": {"target": [], "time": []}}}, "displayed_time": "21.56", "trialTime": 27350, "trial_type": "mouselab-mdp", "trial_index": 24, "time_elapsed": 1290858, "internal_node_id": "0.0-4.0-1.0-3.0"}}, {"uniqueid": "w85676839:a14806509", "current_trial": 25, "dateTime": 1691143460471, "trialdata": {"revealed_states": [], "clicked_states": ["2", "24", "19", "16"], "num_clicks_accrued": [0, 0, 0, 0, 0, 0, 0, 0, 0, 0, 0, 0, 0], "stateRewards": ["", -2, 2, 3, -7, 76, 63, 21, 15, 35, -8, -44, 1, 1, -2, -12, 23, 24, 76, -9, 46, 66, -49, -2, -1, 7, 12, 40, -71, -45, -6, 38, -49, 46], "withholdReward": false, "trial_id": "mdp_trial_5", "block": "test", "trialIndex": 10, "score": 6.600000000000001, "costs": -4.4, "simulationMode": [null, null, null, null, null, null], "rewards": [1, 1, -2, -12, 23], "path": ["0", "0", "12", "13", "14", "15", "16"], "rt": [9034, 1022, 317, 266, 606, 322], "actions": ["right", "right", "right", "right", "up", "up"], "actionTimes": [13012, 14046, 14880, 15669, 16788, 17617], "queries": {"click": {"state": {"target": ["2", "24", "19", "16"], "time": [5312, 6528, 8369, 10358]}, "edge": {"target": [], "time": []}}, "mouseover": {"state": {"target": ["1", "2", "28", "24", "24", "23", "12", "13", "19", "19", "14", "15", "16", "7"], "time": [4533, 4868, 5835, 5919, 6160, 7064, 7106, 7184, 7400, 7918, 8960, 9089, 9267, 11160]}, "edge": {"target": [], "time": []}}, "mouseout": {"state": {"target": ["0", "1", "2", "28", "24", "24", "23", "12", "13", "19", "19", "14", "15", "16", "7"], "time": [3231, 4663, 5689, 5865, 6037, 7053, 7085, 7142, 7269, 7487, 8904, 9039, 9194, 10505, 11262]}, "edge": {"target": [], "time": []}}}, "displayed_time": "18.13", "trialTime": 20127, "trial_type": "mouselab-mdp", "trial_index": 25, "time_elapsed": 1311627, "internal_node_id": "0.0-4.0-1.0-4.0"}}, {"uniqueid": "w85676839:a14806509", "current_trial": 26, "dateTime": 1691143479199, "trialdata": {"revealed_states": [], "clicked_states": [], "num_clicks_accrued": [0, 0, 0, 0, 0, 0, 0, 0, 0, 0, 0, 0, 0], "stateRewards": ["", -1, 1, -1, 2, 19, 85, -18, 2, -3, -26, 36, 2, 4, 7, -9, -18, 70, 72, -5, 35, -20, -28, 1, -2, -4, -3, -59, -11, -63, -2, -72, 59, -69], "withholdReward": false, "trial_id": "mdp_trial_6", "block": "test", "trialIndex": 11, "score": -25, "costs": 0, "simulationMode": [null, null, null, null, null], "rewards": [-1, 1, -1, 2, -26], "path": ["0", "0", "1", "2", "3", "8", "10"], "rt": [1336, 381, 319, 790, 301], "actions": ["up", "up", "up", "left", "down"], "actionTimes": [3493, 4386, 5214, 6501, 7318], "queries": {"click": {"state": {"target": [], "time": []}, "edge": {"target": [], "time": []}}, "mouseover": {"state": {"target": [], "time": []}, "edge": {"target": [], "time": []}}, "mouseout": {"state": {"target": ["1"], "time": [1122]}, "edge": {"target": [], "time": []}}}, "displayed_time": "16.16", "trialTime": 18154, "trial_type": "mouselab-mdp", "trial_index": 26, "time_elapsed": 1330354, "internal_node_id": "0.0-4.0-1.0-5.0"}}, {"uniqueid": "w85676839:a14806509", "current_trial": 27, "dateTime": 1691143496861, "trialdata": {"revealed_states": [], "clicked_states": [], "num_clicks_accrued": [0, 0, 0, 0, 0, 0, 0, 0, 0, 0, 0, 0, 0], "stateRewards": ["", -2, 4, -5, -12, 85, -24, -18, -15, -78, -22, 26, -1, -1, 2, 14, -45, 52, -23, 7, -33, 24, -6, -2, -4, 5, -7, -16, 36, -39, 5, 71, -87, -23], "withholdReward": false, "trial_id": "mdp_trial_7", "block": "test", "trialIndex": 12, "score": 66, "costs": 0, "simulationMode": [null, null, null, null, null], "rewards": [-1, -1, 2, 14, 52], "path": ["0", "0", "12", "13", "14", "15", "17"], "rt": [1186, 359, 381, 786, 94], "actions": ["right", "right", "right", "up", "right"], "actionTimes": [2652, 3516, 4402, 5698, 6301], "queries": {"click": {"state": {"target": [], "time": []}, "edge": {"target": [], "time": []}}, "mouseover": {"state": {"target": [], "time": []}, "edge": {"target": [], "time": []}}, "mouseout": {"state": {"target": ["0"], "time": [965]}, "edge": {"target": [], "time": []}}}, "displayed_time": "15.47", "trialTime": 16984, "trial_type": "mouselab-mdp", "trial_index": 27, "time_elapsed": 1348016, "internal_node_id": "0.0-4.0-1.0-6.0"}}, {"uniqueid": "w85676839:a14806509", "current_trial": 28, "dateTime": 1691143514229, "trialdata": {"revealed_states": [], "clicked_states": [], "num_clicks_accrued": [0, 0, 0, 0, 0, 0, 0, 0, 0, 0, 0, 0, 0], "stateRewards": ["", -2, -1, -5, 10, -36, -70, 68, -9, 86, 71, -10, 2, -4, 7, -7, 66, 44, -66, -13, -69, 43, 15, -2, 2, 6, -13, 62, 57, 50, -10, -69, 42, -72], "withholdReward": false, "trial_id": "mdp_trial_8", "block": "test", "trialIndex": 13, "score": 55, "costs": 0, "simulationMode": [null, null, null, null, null], "rewards": [-2, 2, 6, -13, 62], "path": ["0", "0", "23", "24", "25", "26", "27"], "rt": [1558, 498, 448, 565, 573], "actions": ["left", "left", "left", "up", "up"], "actionTimes": [3184, 4187, 5133, 6200, 7276], "queries": {"click": {"state": {"target": [], "time": []}, "edge": {"target": [], "time": []}}, "mouseover": {"state": {"target": [], "time": []}, "edge": {"target": [], "time": []}}, "mouseout": {"state": {"target": ["0"], "time": [1170]}, "edge": {"target": [], "time": []}}}, "displayed_time": "15.63", "trialTime": 16728, "trial_type": "mouselab-mdp", "trial_index": 28, "time_elapsed": 1365384, "internal_node_id": "0.0-4.0-1.0-7.0"}}, {"uniqueid": "w85676839:a14806509", "current_trial": 29, "dateTime": 1691143532401, "trialdata": {"revealed_states": [], "clicked_states": [], "num_clicks_accrued": [0, 0, 0, 0, 0, 0, 0, 0, 0, 0, 0, 0, 0], "stateRewards": ["", 2, 4, -5, 7, 81, 35, 6, 11, 14, -72, 42, -1, 2, 3, -7, -77, -44, -40, -15, -85, 51, -32, -2, -1, -5, 7, -74, 47, 52, 16, -49, 48, -46], "withholdReward": false, "trial_id": "mdp_trial_9", "block": "test", "trialIndex": 14, "score": -41, "costs": 0, "simulationMode": [null, null, null, null, null], "rewards": [-2, -1, -5, 16, -49], "path": ["0", "0", "23", "24", "25", "30", "31"], "rt": [2219, 229, 286, 189, 1223], "actions": ["left", "left", "left", "down", "right"], "actionTimes": [4633, 5373, 6164, 6869, 8601], "queries": {"click": {"state": {"target": [], "time": []}, "edge": {"target": [], "time": []}}, "mouseover": {"state": {"target": [], "time": []}, "edge": {"target": [], "time": []}}, "mouseout": {"state": {"target": ["0", "0"], "time": [1954, 11659]}, "edge": {"target": [], "time": []}}}, "displayed_time": "16.42", "trialTime": 17532, "trial_type": "mouselab-mdp", "trial_index": 29, "time_elapsed": 1383555, "internal_node_id": "0.0-4.0-1.0-8.0"}}, {"uniqueid": "w85676839:a14806509", "current_trial": 30, "dateTime": 1691143553843, "trialdata": {"revealed_states": [], "clicked_states": [], "num_clicks_accrued": [0, 0, 0, 0, 0, 0, 0, 0, 0, 0, 0, 0, 0], "stateRewards": ["", 1, -2, 4, 7, -43, -83, -60, -5, -86, -80, 83, -1, -2, 6, 11, -15, 21, 13, 9, 29, -49, 11, -1, 4, -6, -11, 87, 40, 63, -8, -39, -11, 62], "withholdReward": false, "trial_id": "mdp_trial_10", "block": "test", "trialIndex": 15, "score": -50, "costs": 0, "simulationMode": [null, null, null, null, null], "rewards": [1, -2, 4, 7, -60], "path": ["0", "0", "1", "2", "3", "4", "7"], "rt": [1775, 246, 398, 520, 307], "actions": ["up", "up", "up", "right", "down"], "actionTimes": [4728, 5479, 6381, 7425, 8236], "queries": {"click": {"state": {"target": [], "time": []}, "edge": {"target": [], "time": []}}, "mouseover": {"state": {"target": [], "time": []}, "edge": {"target": [], "time": []}}, "mouseout": {"state": {"target": ["0"], "time": [2189]}, "edge": {"target": [], "time": []}}}, "displayed_time": "16.95", "trialTime": 20788, "trial_type": "mouselab-mdp", "trial_index": 30, "time_elapsed": 1404997, "internal_node_id": "0.0-4.0-1.0-9.0"}}, {"uniqueid": "w85676839:a14806509", "current_trial": 31, "dateTime": 1691143576701, "trialdata": {"revealed_states": [], "clicked_states": ["25", "7", "19"], "num_clicks_accrued": [0, 0, 0, 0, 0, 0, 0, 0, 0, 0, 0, 0, 0], "stateRewards": ["", -1, 1, 8, -3, -24, 11, -65, -6, -77, 48, 44, -2, 1, -2, -7, -55, -35, 33, 8, -28, 19, -53, -1, -1, -5, -5, -70, 10, 44, 8, -58, -70, 51], "withholdReward": false, "trial_id": "mdp_trial_11", "block": "test", "trialIndex": 16, "score": -27.65, "costs": -4.6499999999999995, "simulationMode": [null, null, null, null, null], "rewards": [-2, 1, -2, 8, -28], "path": ["0", "0", "12", "13", "14", "19", "20"], "rt": [11423, 657, 503, 861, 862], "actions": ["right", "right", "right", "down", "right"], "actionTimes": [12587, 13776, 14789, 16186, 17564], "queries": {"click": {"state": {"target": ["25", "7", "19"], "time": [2463, 5145, 10580]}, "edge": {"target": [], "time": []}}, "mouseover": {"state": {"target": ["23", "24", "25", "7", "6", "6", "4", "3", "1", "12", "13", "19", "19", "22"], "time": [1707, 1758, 1853, 3925, 6262, 6575, 6674, 7056, 9227, 9328, 9730, 9894, 10166, 11945]}, "edge": {"target": [], "time": []}}, "mouseout": {"state": {"target": ["0", "23", "24", "25", "7", "6", "6", "4", "3", "1", "12", "13", "19", "19", "22", "22"], "time": [692, 1753, 1787, 2586, 6178, 6373, 6640, 6695, 9093, 9262, 9694, 9778, 9911, 11743, 11967, 19553]}, "edge": {"target": [], "time": []}}}, "displayed_time": "18.07", "trialTime": 22204, "trial_type": "mouselab-mdp", "trial_index": 31, "time_elapsed": 1427856, "internal_node_id": "0.0-4.0-1.0-10.0"}}, {"uniqueid": "w85676839:a14806509", "current_trial": 32, "dateTime": 1691143598071, "trialdata": {"revealed_states": [], "clicked_states": ["24", "30"], "num_clicks_accrued": [0, 0, 0, 0, 0, 0, 0, 0, 0, 0, 0, 0, 0], "stateRewards": ["", -2, -1, -2, -15, 87, 57, 29, -10, 77, -80, -7, 1, -3, 6, 14, -11, 87, -59, 4, -71, 16, -11, 2, 2, -7, 2, -47, 61, 50, 14, -20, 17, 81], "withholdReward": false, "trial_id": "mdp_trial_12", "block": "test", "trialIndex": 17, "score": 26.1, "costs": -1.9, "simulationMode": [null, null, null, null, null], "rewards": [2, 2, -7, 14, 17], "path": ["0", "0", "23", "24", "25", "30", "32"], "rt": [4746, 653, 312, 354, 327], "actions": ["left", "left", "left", "down", "down"], "actionTimes": [9914, 11077, 11886, 12745, 13568], "queries": {"click": {"state": {"target": ["24", "30"], "time": [7288, 8409]}, "edge": {"target": [], "time": []}}, "mouseover": {"state": {"target": ["23", "24", "30", "23", "0"], "time": [5988, 6871, 7937, 9186, 9288]}, "edge": {"target": [], "time": []}}, "mouseout": {"state": {"target": ["19", "22", "0", "23", "24", "30", "23"], "time": [3818, 3867, 4384, 6038, 7817, 9089, 9223]}, "edge": {"target": [], "time": []}}}, "displayed_time": "19.17", "trialTime": 20742, "trial_type": "mouselab-mdp", "trial_index": 32, "time_elapsed": 1449225, "internal_node_id": "0.0-4.0-1.0-11.0"}}, {"uniqueid": "w85676839:a14806509", "current_trial": 33, "dateTime": 1691143615943, "trialdata": {"revealed_states": [], "clicked_states": ["2", "8", "4"], "num_clicks_accrued": [0, 0, 0, 0, 0, 0, 0, 0, 0, 0, 0, 0, 0], "stateRewards": ["", -1, 2, -2, 13, -56, -28, 10, 14, 53, -80, -29, 1, -3, -3, -14, 14, 9, -40, -9, 18, 18, 48, 1, 1, 1, -9, 64, -39, -9, 7, -52, -78, 7], "withholdReward": false, "trial_id": "mdp_trial_13", "block": "test", "trialIndex": 18, "score": 62.55, "costs": -3.45, "simulationMode": [null, null, null, null, null], "rewards": [-1, 2, -2, 14, 53], "path": ["0", "0", "1", "2", "3", "8", "9"], "rt": [4638, 217, 341, 444, 186], "actions": ["up", "up", "up", "left", "up"], "actionTimes": [6033, 6769, 7622, 8571, 9269], "queries": {"click": {"state": {"target": ["2", "8", "4"], "time": [2575, 3604, 4829]}, "edge": {"target": [], "time": []}}, "mouseover": {"state": {"target": ["1", "2", "8", "3", "4"], "time": [1873, 2024, 3086, 4150, 4403]}, "edge": {"target": [], "time": []}}, "mouseout": {"state": {"target": ["0", "1", "2", "8", "3"], "time": [1755, 1988, 2697, 4106, 4232]}, "edge": {"target": [], "time": []}}}, "displayed_time": "15.40", "trialTime": 17193, "trial_type": "mouselab-mdp", "trial_index": 33, "time_elapsed": 1467098, "internal_node_id": "0.0-4.0-1.0-12.0"}}, {"uniqueid": "w85676839:a14806509", "current_trial": 34, "dateTime": 1691143637307, "trialdata": {"revealed_states": [], "clicked_states": ["24", "26", "2", "3", "6", "8"], "num_clicks_accrued": [0, 0, 0, 0, 0, 0, 0, 0, 0, 0, 0, 0, 0], "stateRewards": ["", 1, 1, -6, -2, 7, 77, 3, 16, -16, 66, 31, -1, 3, -8, -6, 33, -50, -48, 7, -60, -66, 36, 2, -3, 3, -7, -12, -61, -79, -4, 8, 74, -70], "withholdReward": false, "trial_id": "mdp_trial_14", "block": "test", "trialIndex": 19, "score": 64.1, "costs": -6.8999999999999995, "simulationMode": [null, null, null, null, null], "rewards": [1, 1, -6, -2, 77], "path": ["0", "0", "1", "2", "3", "4", "6"], "rt": [11537, 370, 424, 546, 362], "actions": ["up", "up", "up", "right", "right"], "actionTimes": [14045, 14920, 15857, 16914, 17778], "queries": {"click": {"state": {"target": ["24", "26", "2", "3", "6", "8"], "time": [3774, 5185, 6812, 7992, 9051, 11833]}, "edge": {"target": [], "time": []}}, "mouseover": {"state": {"target": ["23", "24", "26", "28", "10", "2", "7", "2", "3", "4", "6", "4", "4", "8", "3", "7"], "time": [3107, 3290, 4587, 5658, 5714, 5767, 6057, 6323, 7458, 8376, 8591, 9657, 10025, 11443, 12645, 12730]}, "edge": {"target": [], "time": []}}, "mouseout": {"state": {"target": ["4", "7", "0", "23", "24", "26", "28", "10", "2", "7", "2", "3", "4", "6", "4", "4", "8", "3", "7"], "time": [1186, 1237, 3042, 3142, 4339, 5641, 5676, 5734, 6008, 6272, 6939, 8325, 8506, 9512, 9707, 10962, 11961, 12676, 12787]}, "edge": {"target": [], "time": []}}}, "displayed_time": "18.37", "trialTime": 20617, "trial_type": "mouselab-mdp", "trial_index": 34, "time_elapsed": 1488461, "internal_node_id": "0.0-4.0-1.0-13.0"}}, {"uniqueid": "w85676839:a14806509", "current_trial": 35, "dateTime": 1691143655904, "trialdata": {"revealed_states": [], "clicked_states": ["19", "20", "24", "30"], "num_clicks_accrued": [0, 0, 0, 0, 0, 0, 0, 0, 0, 0, 0, 0, 0], "stateRewards": ["", 1, 1, -5, 10, -31, 73, 14, -8, -23, 63, -70, -1, 2, 8, 7, 25, -59, 27, -10, -40, -71, -15, -2, 3, -8, -5, -19, 77, -34, 7, 67, 63, 19], "withholdReward": false, "trial_id": "mdp_trial_15", "block": "test", "trialIndex": 20, "score": 13.4, "costs": -5.6, "simulationMode": [null, null, null, null, null], "rewards": [-2, 3, -8, 7, 19], "path": ["0", "0", "23", "24", "25", "30", "33"], "rt": [8550, 456, 307, 721, 876], "actions": ["left", "left", "left", "down", "left"], "actionTimes": [10919, 11889, 12709, 13942, 15327], "queries": {"click": {"state": {"target": ["19", "20", "24", "30"], "time": [3982, 5068, 8223, 9794]}, "edge": {"target": [], "time": []}}, "mouseover": {"state": {"target": ["12", "13", "19", "20", "14", "14", "13", "12", "0", "23", "24", "25", "30"], "time": [3012, 3096, 3594, 4407, 5478, 5807, 6897, 6965, 7091, 7476, 7794, 8894, 9348]}, "edge": {"target": [], "time": []}}, "mouseout": {"state": {"target": ["0", "12", "13", "19", "19", "20", "14", "14", "13", "12", "0", "23", "24", "25", "30"], "time": [2978, 3060, 3177, 4113, 4356, 5203, 5708, 6892, 6930, 7028, 7413, 7559, 8348, 9262, 9918]}, "edge": {"target": [], "time": []}}}, "displayed_time": "16.37", "trialTime": 17960, "trial_type": "mouselab-mdp", "trial_index": 35, "time_elapsed": 1507059, "internal_node_id": "0.0-4.0-1.0-14.0"}}, {"uniqueid": "w85676839:a14806509", "current_trial": 36, "dateTime": 1691143674661, "trialdata": {"revealed_states": [], "clicked_states": ["2", "8", "6", "27"], "num_clicks_accrued": [0, 0, 0, 0, 0, 0, 0, 0, 0, 0, 0, 0, 0], "stateRewards": ["", 1, -2, -8, -3, 31, -84, -55, -14, 15, -58, 17, -2, -3, 7, 7, -12, 48, 67, 4, -44, -68, 46, 2, 3, -5, -7, 76, 27, 5, 11, 57, 52, 59], "withholdReward": false, "trial_id": "mdp_trial_16", "block": "test", "trialIndex": 21, "score": 62.8, "costs": -6.199999999999999, "simulationMode": [null, null, null, null, null], "rewards": [2, 3, -5, -7, 76], "path": ["0", "0", "23", "24", "25", "26", "27"], "rt": [10938, 298, 271, 637, 6], "actions": ["left", "left", "left", "up", "up"], "actionTimes": [12757, 13554, 14331, 15486, 16013], "queries": {"click": {"state": {"target": ["2", "8", "6", "27"], "time": [2827, 3801, 4994, 9141]}, "edge": {"target": [], "time": []}}, "mouseover": {"state": {"target": ["1", "2", "8", "4", "6", "4", "28", "25", "26", "27", "26", "25", "24", "23"], "time": [1978, 2332, 3302, 4318, 4555, 5251, 5450, 5634, 6855, 8418, 9554, 10721, 11711, 11796]}, "edge": {"target": [], "time": []}}, "mouseout": {"state": {"target": ["30", "23", "0", "0", "1", "2", "8", "4", "6", "4", "28", "25", "26", "27", "26", "25", "24", "23"], "time": [614, 699, 794, 1129, 2183, 3185, 3933, 4372, 5232, 5271, 5469, 6667, 8117, 9517, 9784, 11690, 11762, 11829]}, "edge": {"target": [], "time": []}}}, "displayed_time": "16.54", "trialTime": 18134, "trial_type": "mouselab-mdp", "trial_index": 36, "time_elapsed": 1525816, "internal_node_id": "0.0-4.0-1.0-15.0"}}, {"uniqueid": "w85676839:a14806509", "current_trial": 37, "dateTime": 1691143692373, "trialdata": {"revealed_states": [], "clicked_states": ["32", "28"], "num_clicks_accrued": [0, 0, 0, 0, 0, 0, 0, 0, 0, 0, 0, 0, 0], "stateRewards": ["", -2, 2, -2, -7, -50, -62, -45, 7, 36, -24, -72, -1, -1, 8, -1, -67, 20, -52, 2, 35, -50, 80, -1, 1, 6, -6, -70, 6, 88, 8, -47, 74, -19], "withholdReward": false, "trial_id": "mdp_trial_17", "block": "test", "trialIndex": 22, "score": 83.7, "costs": -4.3, "simulationMode": [null, null, null, null, null, null], "rewards": [-1, 1, 6, 8, 74], "path": ["0", "0", "23", "24", "25", "30", "32"], "rt": [6641, 583, 299, 324, 274, 316], "actions": ["left", "left", "left", "left", "down", "down"], "actionTimes": [8718, 9307, 10122, 10959, 11744, 12572], "queries": {"click": {"state": {"target": ["32", "28"], "time": [3210, 7000]}, "edge": {"target": [], "time": []}}, "mouseover": {"state": {"target": ["23", "24", "30", "32", "30", "25", "24", "28"], "time": [2257, 2346, 2649, 2778, 3610, 3694, 5163, 6548]}, "edge": {"target": [], "time": []}}, "mouseout": {"state": {"target": ["0", "23", "24", "30", "32", "30", "25", "24", "28"], "time": [1091, 2296, 2367, 2695, 3328, 3660, 4977, 6431, 7133]}, "edge": {"target": [], "time": []}}}, "displayed_time": "16.08", "trialTime": 17117, "trial_type": "mouselab-mdp", "trial_index": 37, "time_elapsed": 1543528, "internal_node_id": "0.0-4.0-1.0-16.0"}}, {"uniqueid": "w85676839:a14806509", "current_trial": 38, "dateTime": 1691143710256, "trialdata": {"revealed_states": [], "clicked_states": ["5", "32", "15"], "num_clicks_accrued": [0, 0, 0, 0, 0, 0, 0, 0, 0, 0, 0, 0, 0], "stateRewards": ["", 2, -2, -8, 9, -20, 55, -58, 14, 42, 2, 36, 1, -3, -5, 5, -58, 57, 60, 16, 57, 30, -70, -2, 1, 3, 10, 59, 23, 77, -13, -26, 88, -72], "withholdReward": false, "trial_id": "mdp_trial_18", "block": "test", "trialIndex": 23, "score": 71.15, "costs": -5.85, "simulationMode": [null, null, null, null, null], "rewards": [-2, 1, 3, -13, 88], "path": ["0", "0", "23", "24", "25", "30", "32"], "rt": [9299, 412, 187, 774, 120], "actions": ["left", "left", "left", "down", "down"], "actionTimes": [11372, 12310, 13004, 14287, 14918], "queries": {"click": {"state": {"target": ["5", "32", "15"], "time": [3579, 6601, 10355]}, "edge": {"target": [], "time": []}}, "mouseover": {"state": {"target": ["4", "5", "9", "28", "30", "32", "22", "21", "19", "14", "15"], "time": [2773, 3174, 4089, 5459, 6013, 6276, 7601, 7965, 9263, 9347, 9712]}, "edge": {"target": [], "time": []}}, "mouseout": {"state": {"target": ["28", "0", "4", "5", "9", "28", "30", "32", "22", "21", "19", "14", "15"], "time": [804, 2573, 3107, 3908, 5356, 5492, 6102, 7275, 7911, 9213, 9326, 9676, 10479]}, "edge": {"target": [], "time": []}}}, "displayed_time": "16.07", "trialTime": 17271, "trial_type": "mouselab-mdp", "trial_index": 38, "time_elapsed": 1561411, "internal_node_id": "0.0-4.0-1.0-17.0"}}, {"uniqueid": "w85676839:a14806509", "current_trial": 39, "dateTime": 1691143729808, "trialdata": {"revealed_states": [], "clicked_states": ["27", "21", "29"], "num_clicks_accrued": [0, 0, 0, 0, 0, 0, 0, 0, 0, 0, 0, 0, 0], "stateRewards": ["", -1, 4, 3, 12, -27, 34, -33, 3, -63, 1, 6, 2, 2, -6, -11, -77, -85, 68, -6, 51, 81, -60, -2, -2, 1, 15, 20, 15, 68, -10, -14, 6, -4], "withholdReward": false, "trial_id": "mdp_trial_19", "block": "test", "trialIndex": 24, "score": 66.55, "costs": -6.449999999999999, "simulationMode": [null, null, null, null, null, null], "rewards": [2, 2, -6, -6, 81], "path": ["0", "0", "12", "13", "14", "19", "21"], "rt": [10925, 777, 304, 6, 474, 481], "actions": ["right", "right", "right", "right", "down", "down"], "actionTimes": [13051, 13835, 14642, 15164, 16158, 17186], "queries": {"click": {"state": {"target": ["27", "21", "29"], "time": [3286, 7155, 10571]}, "edge": {"target": [], "time": []}}, "mouseover": {"state": {"target": ["28", "26", "27", "28", "25", "30", "32", "21", "21", "31", "30", "25", "29", "25", "30", "32"], "time": [2493, 2609, 2843, 3711, 4592, 4651, 4841, 6143, 6664, 8326, 9263, 9565, 10229, 10916, 10967, 11128]}, "edge": {"target": [], "time": []}}, "mouseout": {"state": {"target": ["15", "18", "0", "23", "23", "0", "28", "26", "27", "28", "25", "30", "32", "21", "21", "31", "30", "25", "29", "25", "30"], "time": [772, 791, 856, 874, 1156, 1256, 2544, 2760, 3593, 4524, 4614, 4757, 5895, 6294, 7760, 9227, 9396, 9629, 10861, 10937, 11018]}, "edge": {"target": [], "time": []}}}, "displayed_time": "17.69", "trialTime": 18853, "trial_type": "mouselab-mdp", "trial_index": 39, "time_elapsed": 1580963, "internal_node_id": "0.0-4.0-1.0-18.0"}}, {"uniqueid": "w85676839:a14806509", "current_trial": 40, "dateTime": 1691143758324, "trialdata": {"revealed_states": [], "clicked_states": ["32", "16", "27", "5", "10"], "num_clicks_accrued": [0, 0, 0, 0, 0, 0, 0, 0, 0, 0, 0, 0, 0], "stateRewards": ["", -2, 1, -7, 9, 8, 25, 61, -7, -17, 69, -81, 1, 4, -4, -11, 16, 67, 44, 3, 6, -45, -54, -2, 3, 6, -11, -15, 32, -47, 3, -39, -6, -88], "withholdReward": false, "trial_id": "mdp_trial_20", "block": "test", "trialIndex": 25, "score": -4.75, "costs": -10.75, "simulationMode": [null, null, null, null, null, null], "rewards": [1, 4, -4, -11, 16], "path": ["0", "0", "12", "13", "14", "15", "16"], "rt": [18469, 561, 209, 286, 368, 69], "actions": ["right", "right", "right", "right", "up", "up"], "actionTimes": [21335, 21903, 22628, 23422, 24287, 24860], "queries": {"click": {"state": {"target": ["32", "16", "27", "5", "10"], "time": [4694, 8837, 12339, 15792, 19459]}, "edge": {"target": [], "time": []}}, "mouseover": {"state": {"target": ["23", "24", "30", "32", "32", "21", "19", "14", "15", "16", "10", "27", "11", "8", "9", "5", "9", "8", "10"], "time": [3359, 3414, 3492, 3678, 4162, 5771, 7712, 7812, 8210, 8396, 10131, 10800, 12868, 12945, 13146, 15334, 17386, 18849, 19000]}, "edge": {"target": [], "time": []}}, "mouseout": {"state": {"target": ["32", "31", "23", "24", "30", "32", "32", "21", "19", "14", "15", "16", "10", "27", "11", "8", "9", "5", "9", "8"], "time": [1289, 1372, 3394, 3443, 3592, 3776, 4812, 7539, 7762, 7893, 8344, 9607, 10149, 12827, 12908, 12996, 14948, 16996, 18814, 18899]}, "edge": {"target": [], "time": []}}}, "displayed_time": "25.38", "trialTime": 27895, "trial_type": "mouselab-mdp", "trial_index": 40, "time_elapsed": 1609479, "internal_node_id": "0.0-4.0-1.0-19.0"}}, {"uniqueid": "w85676839:a14806509", "current_trial": 41, "dateTime": 1691143776846, "trialdata": {"revealed_states": [], "clicked_states": ["8", "9", "14", "30"], "num_clicks_accrued": [0, 0, 0, 0, 0, 0, 0, 0, 0, 0, 0, 0, 0], "stateRewards": ["", 2, -1, 1, 10, -52, 86, -22, -2, -14, -63, 38, 1, 3, 7, -8, 11, -32, -27, 9, -71, 40, -87, -2, -1, 5, -7, 12, 31, -57, 13, 86, -58, 29], "withholdReward": false, "trial_id": "mdp_trial_21", "block": "test", "trialIndex": 26, "score": 53.8, "costs": -6.2, "simulationMode": [null, null, null, null, null], "rewards": [1, 3, 7, 9, 40], "path": ["0", "0", "12", "13", "14", "19", "21"], "rt": [9276, 550, 309, 392, 161], "actions": ["right", "right", "right", "down", "down"], "actionTimes": [11923, 12985, 13795, 14694, 15367], "queries": {"click": {"state": {"target": ["8", "9", "14", "30"], "time": [4040, 5952, 9257, 11377]}, "edge": {"target": [], "time": []}}, "mouseover": {"state": {"target": ["10", "8", "11", "9", "3", "13", "19", "21", "21", "19", "14", "12", "0", "23", "24", "30"], "time": [3377, 3610, 4580, 5429, 6346, 6495, 6863, 6933, 7144, 8647, 8760, 10165, 10217, 10427, 10515, 10900]}, "edge": {"target": [], "time": []}}, "mouseout": {"state": {"target": ["10", "0", "10", "8", "11", "9", "3", "13", "19", "21", "21", "19", "14", "12", "0", "23", "24", "30"], "time": [1142, 1806, 3476, 4528, 5295, 6312, 6379, 6515, 6884, 6952, 8563, 8729, 10130, 10183, 10252, 10476, 10548, 11494]}, "edge": {"target": [], "time": []}}}, "displayed_time": "16.65", "trialTime": 17808, "trial_type": "mouselab-mdp", "trial_index": 41, "time_elapsed": 1628001, "internal_node_id": "0.0-4.0-1.0-20.0"}}, {"uniqueid": "w85676839:a14806509", "current_trial": 42, "dateTime": 1691143798644, "trialdata": {"revealed_states": [], "clicked_states": ["9", "21", "20", "30"], "num_clicks_accrued": [0, 0, 0, 0, 0, 0, 0, 0, 0, 0, 0, 0, 0], "stateRewards": ["", 1, 1, 4, 11, 83, -66, 18, -16, -23, 5, 25, 1, -3, 1, -12, 18, 24, -86, -11, -64, 36, 40, 2, 1, -6, 13, 55, 29, 72, -2, 81, -72, -41], "withholdReward": false, "trial_id": "mdp_trial_22", "block": "test", "trialIndex": 27, "score": 16, "costs": -7.999999999999999, "simulationMode": [null, null, null, null, null], "rewards": [1, -3, 1, -11, 36], "path": ["0", "0", "12", "13", "14", "19", "21"], "rt": [12640, 46, 323, 487, 332], "actions": ["right", "right", "right", "down", "down"], "actionTimes": [15915, 16462, 17302, 18300, 19132], "queries": {"click": {"state": {"target": ["9", "21", "20", "30"], "time": [4597, 7900, 11284, 14264]}, "edge": {"target": [], "time": []}}, "mouseover": {"state": {"target": ["11", "9", "28", "24", "31", "32", "21", "20", "0", "30", "23", "0"], "time": [3890, 4208, 5084, 5141, 5195, 5358, 7425, 8655, 12006, 12084, 15062, 15344]}, "edge": {"target": [], "time": []}}, "mouseout": {"state": {"target": ["30", "0", "11", "9", "28", "24", "31", "32", "21", "20", "0", "30", "23"], "time": [1919, 2452, 3924, 4991, 5122, 5159, 5246, 6990, 8020, 11418, 12030, 14962, 15131]}, "edge": {"target": [], "time": []}}}, "displayed_time": "19.63", "trialTime": 21125, "trial_type": "mouselab-mdp", "trial_index": 42, "time_elapsed": 1649799, "internal_node_id": "0.0-4.0-1.0-21.0"}}, {"uniqueid": "w85676839:a14806509", "current_trial": 43, "dateTime": 1691143816117, "trialdata": {"revealed_states": [], "clicked_states": ["3", "30", "19", "15"], "num_clicks_accrued": [0, 0, 0, 0, 0, 0, 0, 0, 0, 0, 0, 0, 0], "stateRewards": ["", -1, 1, -6, -1, 80, 23, 2, -11, 73, -81, 59, 1, 3, 5, -1, -26, 28, -3, 16, -59, -13, -50, -2, -2, 2, 15, -50, 86, 17, -4, 37, 35, 44], "withholdReward": false, "trial_id": "mdp_trial_23", "block": "test", "trialIndex": 28, "score": -39.6, "costs": -5.6, "simulationMode": [null, null, null, null, null], "rewards": [1, 3, 5, 16, -59], "path": ["0", "0", "12", "13", "14", "19", "20"], "rt": [7661, 102, 127, 716, 304], "actions": ["right", "right", "right", "down", "right"], "actionTimes": [9229, 9835, 10473, 11696, 12499], "queries": {"click": {"state": {"target": ["3", "30", "19", "15"], "time": [3295, 4977, 6486, 7989]}, "edge": {"target": [], "time": []}}, "mouseover": {"state": {"target": ["3", "8", "28", "30", "22", "19", "14", "15"], "time": [2757, 3818, 3984, 4490, 5608, 5707, 7106, 7407]}, "edge": {"target": [], "time": []}}, "mouseout": {"state": {"target": ["0", "3", "8", "28", "30", "22", "19", "14", "15"], "time": [2405, 3796, 3858, 4003, 5389, 5658, 7006, 7206, 8557]}, "edge": {"target": [], "time": []}}}, "displayed_time": "15.57", "trialTime": 16809, "trial_type": "mouselab-mdp", "trial_index": 43, "time_elapsed": 1667272, "internal_node_id": "0.0-4.0-1.0-22.0"}}, {"uniqueid": "w85676839:a14806509", "current_trial": 44, "dateTime": 1691143840784, "trialdata": {"revealed_states": [], "clicked_states": ["2", "30", "32", "19", "20"], "num_clicks_accrued": [0, 0, 0, 0, 0, 0, 0, 0, 0, 0, 0, 0, 0], "stateRewards": ["", -1, -2, 8, -6, -79, -6, 87, 9, -5, -66, -38, 2, 2, 5, -6, -82, 74, 85, -8, 67, -30, -15, 1, -2, -2, -2, 87, 64, 49, 7, 2, -38, -9], "withholdReward": false, "trial_id": "mdp_trial_24", "block": "test", "trialIndex": 29, "score": 60.25, "costs": -7.75, "simulationMode": [null, null, null, null, null], "rewards": [2, 2, 5, -8, 67], "path": ["0", "0", "12", "13", "14", "19", "20"], "rt": [14280, 415, 275, 439, 690], "actions": ["right", "right", "right", "down", "right"], "actionTimes": [17929, 18859, 19641, 20583, 21786], "queries": {"click": {"state": {"target": ["2", "30", "32", "19", "20"], "time": [5456, 6992, 8063, 12241, 13512]}, "edge": {"target": [], "time": []}}, "mouseover": {"state": {"target": ["1", "2", "24", "30", "32", "21", "19", "20", "21", "21", "21", "22", "13", "14"], "time": [4422, 5069, 5845, 6367, 7562, 9553, 11705, 13053, 14441, 14925, 15336, 17105, 17348, 17452]}, "edge": {"target": [], "time": []}}, "mouseout": {"state": {"target": ["13", "12", "0", "1", "2", "24", "30", "30", "32", "21", "19", "20", "20", "21", "21", "21", "22", "13"], "time": [2270, 2699, 4238, 4670, 5772, 5957, 7113, 7523, 8953, 11638, 13005, 13631, 14337, 14803, 15154, 17074, 17142, 17410]}, "edge": {"target": [], "time": []}}}, "displayed_time": "22.30", "trialTime": 23963, "trial_type": "mouselab-mdp", "trial_index": 44, "time_elapsed": 1691939, "internal_node_id": "0.0-4.0-1.0-23.0"}}, {"uniqueid": "w85676839:a14806509", "current_trial": 45, "dateTime": 1691143859888, "trialdata": {"revealed_states": [], "clicked_states": ["2", "32", "8"], "num_clicks_accrued": [0, 0, 0, 0, 0, 0, 0, 0, 0, 0, 0, 0, 0], "stateRewards": ["", -1, 3, 1, -7, 56, 76, 57, 3, 11, -9, 14, 1, -2, 2, 8, -77, -3, 79, -5, 88, 24, -66, -2, -1, 7, -7, -30, 14, -76, 11, -36, 28, -6], "withholdReward": false, "trial_id": "mdp_trial_25", "block": "test", "trialIndex": 30, "score": 12.95, "costs": -4.05, "simulationMode": [null, null, null, null, null], "rewards": [-1, 3, 1, 3, 11], "path": ["0", "0", "1", "2", "3", "8", "9"], "rt": [7838, 603, 275, 184, 807], "actions": ["up", "up", "up", "left", "up"], "actionTimes": [11322, 12438, 13226, 13923, 15250], "queries": {"click": {"state": {"target": ["2", "32", "8"], "time": [5412, 6703, 9590]}, "edge": {"target": [], "time": []}}, "mouseover": {"state": {"target": ["1", "2", "24", "30", "32", "0", "7", "4", "3", "8", "3", "4"], "time": [4258, 4942, 5890, 6093, 6276, 7375, 7713, 7872, 8946, 9162, 10194, 10285]}, "edge": {"target": [], "time": []}}, "mouseout": {"state": {"target": ["14", "13", "12", "0", "1", "2", "24", "30", "32", "0", "7", "4", "3", "8", "3", "4"], "time": [2243, 2323, 2388, 4126, 4425, 5808, 5953, 6162, 7274, 7415, 7835, 8909, 9014, 10144, 10266, 10467]}, "edge": {"target": [], "time": []}}}, "displayed_time": "17.49", "trialTime": 18433, "trial_type": "mouselab-mdp", "trial_index": 45, "time_elapsed": 1711043, "internal_node_id": "0.0-4.0-1.0-24.0"}}, {"uniqueid": "w85676839:a14806509", "current_trial": 46, "dateTime": 1691143881488, "trialdata": {"revealed_states": [], "clicked_states": ["14", "25", "3", "5", "9"], "num_clicks_accrued": [0, 0, 0, 0, 0, 0, 0, 0, 0, 0, 0, 0, 0], "stateRewards": ["", 2, 3, 6, -12, -29, 12, 87, 4, 35, -30, 67, 2, 3, -5, -9, 44, 69, -8, 1, 45, -8, 28, -2, -1, -8, 11, -12, -5, 81, 9, 87, 82, 88], "withholdReward": false, "trial_id": "mdp_trial_26", "block": "test", "trialIndex": 31, "score": 42.85, "costs": -7.15, "simulationMode": [null, null, null, null, null, null], "rewards": [2, 3, 6, 4, 35], "path": ["0", "0", "1", "2", "3", "8", "9"], "rt": [11335, 1172, 334, 277, 352, 144], "actions": ["up", "up", "up", "up", "left", "up"], "actionTimes": [14545, 15725, 16564, 17345, 18204, 18876], "queries": {"click": {"state": {"target": ["14", "25", "3", "5", "9"], "time": [4794, 6206, 7595, 9594, 12639]}, "edge": {"target": [], "time": []}}, "mouseover": {"state": {"target": ["12", "13", "14", "12", "0", "23", "24", "25", "28", "10", "3", "4", "5", "9", "8", "1"], "time": [3921, 4055, 4403, 5414, 5438, 5464, 5487, 5526, 6828, 6913, 7094, 8589, 9155, 10472, 13413, 13617]}, "edge": {"target": [], "time": []}}, "mouseout": {"state": {"target": ["7", "1", "0", "12", "13", "14", "12", "0", "23", "24", "25", "28", "10", "3", "4", "5", "9", "8", "1"], "time": [1967, 2184, 3857, 4004, 4272, 5334, 5434, 5459, 5483, 5507, 6791, 6863, 6963, 8173, 9072, 10363, 13390, 13450, 13723]}, "edge": {"target": [], "time": []}}}, "displayed_time": "19.38", "trialTime": 20937, "trial_type": "mouselab-mdp", "trial_index": 46, "time_elapsed": 1732643, "internal_node_id": "0.0-4.0-1.0-25.0"}}, {"uniqueid": "w85676839:a14806509", "current_trial": 47, "dateTime": 1691143900010, "trialdata": {"revealed_states": [], "clicked_states": ["30", "26", "27"], "num_clicks_accrued": [0, 0, 0, 0, 0, 0, 0, 0, 0, 0, 0, 0, 0], "stateRewards": ["", -1, 1, -2, 5, 73, 15, 61, 8, 7, 38, 76, 2, 2, -4, -6, -6, -26, 43, -5, -45, -85, -35, -2, 1, -4, 15, -10, 69, 72, -11, 84, -49, -38], "withholdReward": false, "trial_id": "mdp_trial_27", "block": "test", "trialIndex": 32, "score": 73.75, "costs": -5.25, "simulationMode": [null, null, null, null, null, null], "rewards": [-2, 1, -4, 15, 69], "path": ["0", "0", "23", "24", "25", "26", "28"], "rt": [5917, 841, 373, 324, 627, 372], "actions": ["left", "left", "left", "left", "up", "right"], "actionTimes": [8751, 9602, 10523, 11358, 12496, 13373], "queries": {"click": {"state": {"target": ["30", "26", "27"], "time": [4355, 6051, 7324]}, "edge": {"target": [], "time": []}}, "mouseover": {"state": {"target": ["23", "31", "30", "30", "25", "26", "27"], "time": [3425, 3509, 3596, 3924, 4994, 5500, 6861]}, "edge": {"target": [], "time": []}}, "mouseout": {"state": {"target": ["23", "0", "23", "31", "30", "30", "25", "26"], "time": [1456, 2003, 3449, 3559, 3618, 4910, 5070, 6615]}, "edge": {"target": [], "time": []}}}, "displayed_time": "16.84", "trialTime": 17890, "trial_type": "mouselab-mdp", "trial_index": 47, "time_elapsed": 1751166, "internal_node_id": "0.0-4.0-1.0-26.0"}}, {"uniqueid": "w85676839:a14806509", "current_trial": 48, "dateTime": 1691143918941, "trialdata": {"revealed_states": [], "clicked_states": ["29", "17"], "num_clicks_accrued": [0, 0, 0, 0, 0, 0, 0, 0, 0, 0, 0, 0, 0], "stateRewards": ["", 1, -1, 1, 13, 31, -56, 72, 2, 41, 5, 63, -2, -3, -2, 3, -71, -26, 52, 13, -31, 24, -67, 2, -2, 5, 4, 66, 43, 72, 9, 86, -26, 44], "withholdReward": false, "trial_id": "mdp_trial_28", "block": "test", "trialIndex": 33, "score": 76.7, "costs": -4.3, "simulationMode": [null, null, null, null, null], "rewards": [2, -2, 5, 4, 72], "path": ["0", "0", "23", "24", "25", "26", "29"], "rt": [8546, 430, 229, 259, 133], "actions": ["left", "left", "left", "up", "left"], "actionTimes": [11254, 12209, 12939, 13706, 14346], "queries": {"click": {"state": {"target": ["29", "17"], "time": [3991, 8037]}, "edge": {"target": [], "time": []}}, "mouseover": {"state": {"target": ["23", "24", "29", "26", "24", "23", "0", "18", "15", "17", "16", "17", "18", "1", "28", "25"], "time": [3331, 3368, 3616, 4562, 4702, 4771, 4855, 5166, 5237, 5508, 6898, 7418, 8796, 8832, 8924, 9217]}, "edge": {"target": [], "time": []}}, "mouseout": {"state": {"target": ["27", "28", "23", "0", "23", "24", "29", "26", "24", "23", "0", "18", "15", "17", "16", "17", "18", "1", "28"], "time": [1431, 1514, 1612, 1746, 3365, 3418, 4516, 4584, 4751, 4835, 5124, 5194, 5296, 6785, 6919, 8771, 8825, 8852, 9004]}, "edge": {"target": [], "time": []}}}, "displayed_time": "16.71", "trialTime": 18125, "trial_type": "mouselab-mdp", "trial_index": 48, "time_elapsed": 1770096, "internal_node_id": "0.0-4.0-1.0-27.0"}}, {"uniqueid": "w85676839:a14806509", "current_trial": 49, "dateTime": 1691143939430, "trialdata": {"revealed_states": [], "clicked_states": ["1", "26", "29", "27", "17"], "num_clicks_accrued": [0, 0, 0, 0, 0, 0, 0, 0, 0, 0, 0, 0, 0], "stateRewards": ["", -2, 2, 3, -7, -31, -33, 29, -8, -57, 50, -83, -1, -1, 5, 13, -23, -62, 25, 5, -66, -85, 14, 1, -2, -1, 16, 71, 33, -19, -14, 5, -43, 79], "withholdReward": false, "trial_id": "mdp_trial_29", "block": "test", "trialIndex": 34, "score": 77.25, "costs": -7.75, "simulationMode": [null, null, null, null, null, null], "rewards": [1, -2, -1, 16, 71], "path": ["0", "0", "23", "24", "25", "26", "27"], "rt": [12395, 74, 7, 416, 112, 64], "actions": ["left", "left", "left", "left", "up", "up"], "actionTimes": [14873, 14955, 15494, 16430, 17068, 17635], "queries": {"click": {"state": {"target": ["1", "26", "29", "27", "17"], "time": [3970, 6253, 7372, 10847, 13662]}, "edge": {"target": [], "time": []}}, "mouseover": {"state": {"target": ["1", "28", "26", "29", "27", "28", "1", "15", "17"], "time": [3408, 4262, 5628, 6874, 8619, 11411, 12525, 13008, 13075]}, "edge": {"target": [], "time": []}}, "mouseout": {"state": {"target": ["25", "12", "12", "0", "1", "28", "26", "29", "27", "28", "1", "15"], "time": [896, 1222, 1424, 3165, 3997, 4307, 6785, 8299, 11370, 12452, 12549, 13052]}, "edge": {"target": [], "time": []}}}, "displayed_time": "18.16", "trialTime": 19714, "trial_type": "mouselab-mdp", "trial_index": 49, "time_elapsed": 1790584, "internal_node_id": "0.0-4.0-1.0-28.0"}}, {"uniqueid": "w85676839:a14806509", "current_trial": 50, "dateTime": 1691143958213, "trialdata": {"revealed_states": [], "clicked_states": ["1", "26", "3", "5", "9"], "num_clicks_accrued": [0, 0, 0, 0, 0, 0, 0, 0, 0, 0, 0, 0, 0], "stateRewards": ["", 2, -1, 5, 8, 75, -35, -77, 1, -9, -81, -58, 1, 2, -7, 5, 77, -16, 19, 16, -10, -18, 40, -2, 3, 7, -5, 64, 1, -62, 10, 27, 10, 65], "withholdReward": false, "trial_id": "mdp_trial_30", "block": "test", "trialIndex": 35, "score": 82.45, "costs": -6.550000000000001, "simulationMode": [null, null, null, null, null, null], "rewards": [2, -1, 5, 8, 75], "path": ["0", "0", "1", "2", "3", "4", "5"], "rt": [10128, 196, 18, 429, 265, 695], "actions": ["up", "up", "up", "up", "right", "up"], "actionTimes": [12465, 12668, 13204, 14163, 14928, 16153], "queries": {"click": {"state": {"target": ["1", "26", "3", "5", "9"], "time": [4000, 5206, 6877, 8203, 11078]}, "edge": {"target": [], "time": []}}, "mouseover": {"state": {"target": ["1", "28", "26", "10", "2", "3", "5", "9"], "time": [3558, 4490, 4644, 6084, 6141, 6475, 7400, 8829]}, "edge": {"target": [], "time": []}}, "mouseout": {"state": {"target": ["17", "13", "12", "0", "1", "28", "26", "10", "2", "3", "5", "9"], "time": [1139, 1221, 1256, 3141, 4128, 4576, 5894, 6104, 6339, 7328, 8595, 11203]}, "edge": {"target": [], "time": []}}}, "displayed_time": "16.67", "trialTime": 18086, "trial_type": "mouselab-mdp", "trial_index": 50, "time_elapsed": 1809367, "internal_node_id": "0.0-4.0-1.0-29.0"}}, {"uniqueid": "w85676839:a14806509", "current_trial": 51, "dateTime": 1691143981803, "trialdata": {"revealed_states": [], "clicked_states": ["26", "15", "19", "8", "9", "11"], "num_clicks_accrued": [0, 0, 0, 0, 0, 0, 0, 0, 0, 0, 0, 0, 0], "stateRewards": ["", 2, -4, 7, 3, 23, -42, 4, 7, -81, -33, 7, -2, -4, 5, -1, 50, -57, -14, -13, -14, 44, 55, -2, -2, 5, -2, 33, 1, 57, -13, -7, 58, 87], "withholdReward": false, "trial_id": "mdp_trial_31", "block": "test", "trialIndex": 36, "score": 8.5, "costs": -10.5, "simulationMode": [null, null, null, null, null], "rewards": [2, -4, 7, 7, 7], "path": ["0", "0", "1", "2", "3", "8", "11"], "rt": [15802, 33, 70, 501, 38], "actions": ["up", "up", "up", "left", "left"], "actionTimes": [18128, 18670, 19269, 20289, 20847], "queries": {"click": {"state": {"target": ["26", "15", "19", "8", "9", "11"], "time": [3671, 5182, 6474, 7913, 10227, 13590]}, "edge": {"target": [], "time": []}}, "mouseover": {"state": {"target": ["28", "26", "10", "15", "14", "19", "13", "7", "3", "8", "8", "3", "9", "3", "8", "11", "10", "28", "25", "30", "32"], "time": [2551, 3221, 3969, 4770, 5747, 6025, 6814, 6895, 7043, 7235, 7658, 8643, 9744, 10763, 11500, 11824, 14032, 15317, 15379, 15423, 15777]}, "edge": {"target": [], "time": []}}, "mouseout": {"state": {"target": ["9", "8", "10", "1", "28", "26", "10", "15", "14", "19", "13", "7", "3", "8", "8", "3", "9", "3", "8", "11", "10", "28", "25", "30"], "time": [804, 970, 1020, 1086, 2638, 3949, 3992, 5691, 5845, 6772, 6838, 6933, 7180, 7309, 8581, 8924, 10607, 11460, 11607, 13977, 15296, 15343, 15400, 15669]}, "edge": {"target": [], "time": []}}}, "displayed_time": "21.36", "trialTime": 22884, "trial_type": "mouselab-mdp", "trial_index": 51, "time_elapsed": 1832958, "internal_node_id": "0.0-4.0-1.0-30.0"}}, {"uniqueid": "w85676839:a14806509", "current_trial": 52, "dateTime": 1691144000365, "trialdata": {"revealed_states": [], "clicked_states": [], "num_clicks_accrued": [0, 0, 0, 0, 0, 0, 0, 0, 0, 0, 0, 0, 0], "stateRewards": ["", 2, -1, 4, -9, -43, 7, 54, -13, 38, -40, -83, -1, 2, -8, -10, 34, -33, 11, -14, -79, 65, 26, 1, 2, 4, 10, 21, 1, 86, 4, -53, 28, -29], "withholdReward": false, "trial_id": "mdp_trial_32", "block": "test", "trialIndex": 37, "score": 50, "costs": 0, "simulationMode": [null, null, null, null, null], "rewards": [2, -1, 4, -9, 54], "path": ["0", "0", "1", "2", "3", "4", "7"], "rt": [1382, 198, 274, 123, 175], "actions": ["up", "up", "up", "right", "down"], "actionTimes": [3996, 4697, 5472, 6116, 6790], "queries": {"click": {"state": {"target": [], "time": []}, "edge": {"target": [], "time": []}}, "mouseover": {"state": {"target": [], "time": []}, "edge": {"target": [], "time": []}}, "mouseout": {"state": {"target": ["32", "31", "23"], "time": [1297, 1391, 1478]}, "edge": {"target": [], "time": []}}}, "displayed_time": "16.62", "trialTime": 17843, "trial_type": "mouselab-mdp", "trial_index": 52, "time_elapsed": 1851520, "internal_node_id": "0.0-4.0-1.0-31.0"}}, {"uniqueid": "w85676839:a14806509", "current_trial": 53, "dateTime": 1691144020252, "trialdata": {"revealed_states": [], "clicked_states": ["32"], "num_clicks_accrued": [0, 0, 0, 0, 0, 0, 0, 0, 0, 0, 0, 0, 0], "stateRewards": ["", 1, 4, -4, 14, 35, 51, 19, -13, 54, 78, -74, -2, -1, -3, 13, -11, -42, -73, -15, -24, -3, -69, 2, -1, 5, 16, -27, 73, 58, 9, -60, 5, -60], "withholdReward": false, "trial_id": "mdp_trial_33", "block": "test", "trialIndex": 38, "score": 17.85, "costs": -2.15, "simulationMode": [null, null, null, null, null], "rewards": [2, -1, 5, 9, 5], "path": ["0", "0", "23", "24", "25", "30", "32"], "rt": [5812, 250, 160, 120, 186], "actions": ["left", "left", "left", "down", "down"], "actionTimes": [7620, 8385, 9063, 9702, 10433], "queries": {"click": {"state": {"target": ["32"], "time": [3018]}, "edge": {"target": [], "time": []}}, "mouseover": {"state": {"target": ["30", "32", "30", "31"], "time": [2376, 2710, 3582, 6061]}, "edge": {"target": [], "time": []}}, "mouseout": {"state": {"target": ["0", "0", "30", "32", "30", "31"], "time": [794, 1923, 2577, 3133, 6011, 6212]}, "edge": {"target": [], "time": []}}}, "displayed_time": "15.81", "trialTime": 18506, "trial_type": "mouselab-mdp", "trial_index": 53, "time_elapsed": 1871407, "internal_node_id": "0.0-4.0-1.0-32.0"}}, {"uniqueid": "w85676839:a14806509", "current_trial": 54, "dateTime": 1691144072646, "trialdata": {"revealed_states": [], "clicked_states": ["32", "27"], "num_clicks_accrued": [0, 0, 0, 0, 0, 0, 0, 0, 0, 0, 0, 0, 0], "stateRewards": ["", -1, -4, -1, -11, 43, 69, 39, 4, 17, -20, -82, -2, -1, 4, 8, -79, 24, -79, 11, 36, 64, 41, 2, 4, -1, 11, -79, -47, 75, -3, 63, -36, -19], "withholdReward": false, "trial_id": "mdp_trial_34", "block": "test", "trialIndex": 39, "score": 86.7, "costs": -4.3, "simulationMode": [null, null, null, null, null], "rewards": [2, 4, -1, 11, 75], "path": ["0", "0", "23", "24", "25", "26", "29"], "rt": [17445, 99, 124, 392, 59], "actions": ["left", "left", "left", "up", "left"], "actionTimes": [42468, 43080, 43750, 44647, 45229], "queries": {"click": {"state": {"target": ["32", "27"], "time": [26778, 29725]}, "edge": {"target": [], "time": []}}, "mouseover": {"state": {"target": ["23", "24", "30", "32", "30", "25", "26", "27", "27", "30", "26", "30"], "time": [25856, 25893, 25959, 26343, 27389, 27467, 27860, 28014, 29262, 37658, 37705, 41422]}, "edge": {"target": [], "time": []}}, "mouseout": {"state": {"target": ["0", "23", "24", "30", "32", "30", "25", "26", "27", "27", "30", "26"], "time": [20550, 25875, 25908, 26043, 27314, 27430, 27768, 27936, 28201, 37649, 37697, 41412]}, "edge": {"target": [], "time": []}}}, "displayed_time": "50.03", "trialTime": 51566, "trial_type": "mouselab-mdp", "trial_index": 54, "time_elapsed": 1923801, "internal_node_id": "0.0-4.0-1.0-33.0"}}, {"uniqueid": "w85676839:a14806509", "current_trial": 55, "dateTime": 1691144137191, "trialdata": {"revealed_states": [], "clicked_states": ["25", "15", "16", "32"], "num_clicks_accrued": [0, 0, 0, 0, 0, 0, 0, 0, 0, 0, 0, 0, 0], "stateRewards": ["", 1, 2, -3, -5, 66, -50, -47, -5, 1, 28, -27, 1, 1, -1, -6, 37, -25, 56, 1, -82, -66, -40, -1, -4, -7, 15, -61, -23, 26, 10, 14, -56, 29], "withholdReward": false, "trial_id": "mdp_trial_35", "block": "test", "trialIndex": 40, "score": 25.2, "costs": -6.800000000000001, "simulationMode": [null, null, null, null, null], "rewards": [1, 1, -1, -6, 37], "path": ["0", "0", "12", "13", "14", "15", "16"], "rt": [12205, 250, 392, 407, 182], "actions": ["right", "right", "right", "up", "up"], "actionTimes": [56609, 57362, 58268, 59187, 59876], "queries": {"click": {"state": {"target": ["25", "15", "16", "32"], "time": [46120, 47948, 49252, 53493]}, "edge": {"target": [], "time": []}}, "mouseover": {"state": {"target": ["23", "24", "25", "1", "18", "15", "17", "15", "16", "1", "28", "26", "29", "26", "28", "24", "30", "32", "13", "14", "14"], "time": [45233, 45435, 45684, 46685, 46857, 46904, 47026, 47502, 48771, 50125, 50452, 50533, 50847, 52267, 52437, 52587, 52672, 52987, 54588, 54633, 55097]}, "edge": {"target": [], "time": []}}, "mouseout": {"state": {"target": ["30", "13", "12", "0", "23", "24", "25", "1", "18", "15", "17", "15", "16", "1", "28", "26", "29", "26", "28", "24", "30", "32", "13", "14"], "time": [18264, 43043, 43110, 45168, 45317, 45634, 46587, 46706, 46878, 46963, 47336, 48453, 49932, 50409, 50490, 50643, 52186, 52371, 52520, 52638, 52920, 54443, 54611, 54653]}, "edge": {"target": [], "time": []}}}, "displayed_time": "60.38", "trialTime": 61856, "trial_type": "mouselab-mdp", "trial_index": 55, "time_elapsed": 1988346, "internal_node_id": "0.0-4.0-1.0-34.0"}}, {"uniqueid": "w85676839:a14806509", "current_trial": 56, "dateTime": 1691144157441, "trialdata": {"revealed_states": [], "clicked_states": ["6", "11", "29"], "num_clicks_accrued": [0, 0, 0, 0, 0, 0, 0, 0, 0, 0, 0, 0, 0], "stateRewards": ["", 1, 1, -5, 8, -6, 45, 16, -6, -7, -22, -38, -1, -4, 8, -11, -16, 21, -45, -15, -59, -32, 42, -1, 3, 6, 11, -7, 34, -27, -8, 85, 43, -9], "withholdReward": false, "trial_id": "mdp_trial_36", "block": "test", "trialIndex": 41, "score": 43.55, "costs": -6.449999999999999, "simulationMode": [null, null, null, null, null], "rewards": [1, 1, -5, 8, 45], "path": ["0", "0", "1", "2", "3", "4", "6"], "rt": [11728, 92, 269, 350, 201], "actions": ["up", "up", "up", "right", "right"], "actionTimes": [14836, 15462, 16242, 17101, 17805], "queries": {"click": {"state": {"target": ["6", "11", "29"], "time": [4465, 7544, 11068]}, "edge": {"target": [], "time": []}}, "mouseover": {"state": {"target": ["1", "2", "4", "6", "4", "3", "8", "11", "24", "25", "29", "26", "28"], "time": [3679, 3745, 3815, 3962, 4950, 5014, 5157, 5329, 8831, 8973, 9213, 11562, 12076]}, "edge": {"target": [], "time": []}}, "mouseout": {"state": {"target": ["14", "13", "12", "0", "23", "1", "2", "4", "6", "4", "3", "8", "11", "11", "24", "25", "29", "26", "28"], "time": [1000, 1042, 1093, 1193, 1509, 3714, 3775, 3878, 4910, 4991, 5075, 5273, 7667, 8268, 8923, 9020, 11441, 11816, 13430]}, "edge": {"target": [], "time": []}}}, "displayed_time": "18.34", "trialTime": 19509, "trial_type": "mouselab-mdp", "trial_index": 56, "time_elapsed": 2008596, "internal_node_id": "0.0-4.0-1.0-35.0"}}, {"uniqueid": "w85676839:a14806509", "current_trial": 57, "dateTime": 1691144179826, "trialdata": {"revealed_states": [], "clicked_states": ["20", "33", "21", "32"], "num_clicks_accrued": [0, 0, 0, 0, 0, 0, 0, 0, 0, 0, 0, 0, 0], "stateRewards": ["", 2, -1, -1, 7, 11, -40, -22, -2, 69, 37, 8, -2, 4, -8, -12, -2, -72, -3, -12, 17, 63, 12, 1, 3, -7, 6, 25, 61, 61, -9, 28, -17, 27], "withholdReward": false, "trial_id": "mdp_trial_37", "block": "test", "trialIndex": 42, "score": 36.4, "costs": -8.6, "simulationMode": [null, null, null, null, null, null], "rewards": [-2, 4, -8, -12, 63], "path": ["0", "0", "12", "13", "14", "19", "21"], "rt": [12143, 849, 86, 1143, 237, 468], "actions": ["right", "right", "right", "right", "down", "down"], "actionTimes": [14728, 15584, 16202, 18168, 18911, 19893], "queries": {"click": {"state": {"target": ["20", "33", "21", "32"], "time": [4064, 6844, 10804, 13829]}, "edge": {"target": [], "time": []}}, "mouseover": {"state": {"target": ["12", "19", "20", "20", "19", "22", "31", "30", "33", "30", "32", "21", "32"], "time": [2869, 3210, 3358, 3677, 4781, 4809, 4874, 4901, 4962, 7856, 8083, 10329, 12113]}, "edge": {"target": [], "time": []}}, "mouseout": {"state": {"target": ["0", "12", "19", "20", "20", "19", "22", "31", "30", "33", "30", "32", "21"], "time": [2779, 2959, 3246, 3395, 4195, 4802, 4833, 4894, 4923, 7742, 7976, 9280, 11534]}, "edge": {"target": [], "time": []}}}, "displayed_time": "20.40", "trialTime": 21615, "trial_type": "mouselab-mdp", "trial_index": 57, "time_elapsed": 2030981, "internal_node_id": "0.0-4.0-1.0-36.0"}}, {"uniqueid": "w85676839:a14806509", "current_trial": 58, "dateTime": 1691144203181, "trialdata": {"revealed_states": [], "clicked_states": ["32", "21", "16"], "num_clicks_accrued": [0, 0, 0, 0, 0, 0, 0, 0, 0, 0, 0, 0, 0], "stateRewards": ["", -2, 3, -5, -7, 66, 43, -60, -4, -70, -75, 4, -1, 2, 2, -13, 54, 11, -40, -1, 77, 32, 15, -2, 3, -8, -9, -35, 83, -27, 6, -74, -34, 44], "withholdReward": false, "trial_id": "mdp_trial_38", "block": "test", "trialIndex": 43, "score": 37.55, "costs": -6.449999999999999, "simulationMode": [null, null, null, null, null], "rewards": [-1, 2, 2, -13, 54], "path": ["0", "0", "12", "13", "14", "15", "16"], "rt": [12510, 9, 92, 19, 55], "actions": ["right", "right", "right", "up", "up"], "actionTimes": [15947, 16465, 17077, 17636, 18205], "queries": {"click": {"state": {"target": ["32", "21", "16"], "time": [4981, 8246, 11574]}, "edge": {"target": [], "time": []}}, "mouseover": {"state": {"target": ["30", "33", "32", "21", "19", "14", "15", "16", "13", "20", "20", "19"], "time": [4076, 4133, 4642, 5714, 8887, 8954, 8996, 9373, 12590, 12690, 13094, 13657]}, "edge": {"target": [], "time": []}}, "mouseout": {"state": {"target": ["32", "0", "30", "33", "32", "21", "19", "14", "15", "16", "13", "20", "20"], "time": [1887, 4010, 4103, 4163, 5411, 8803, 8916, 8987, 9331, 12412, 12616, 12712, 13271]}, "edge": {"target": [], "time": []}}}, "displayed_time": "18.73", "trialTime": 19981, "trial_type": "mouselab-mdp", "trial_index": 58, "time_elapsed": 2054336, "internal_node_id": "0.0-4.0-1.0-37.0"}}, {"uniqueid": "w85676839:a14806509", "current_trial": 59, "dateTime": 1691144274321, "trialdata": {"revealed_states": [], "clicked_states": ["27", "26", "15", "16", "17", "18"], "num_clicks_accrued": [0, 0, 0, 0, 0, 0, 0, 0, 0, 0, 0, 0, 0], "stateRewards": ["", -1, -3, -5, -14, -13, -47, 79, 8, -60, -64, 41, -1, 2, 3, 13, -46, 61, -79, -11, -64, -65, 23, 1, -2, 6, -14, 46, 32, 21, 7, 75, -66, 15], "withholdReward": false, "trial_id": "mdp_trial_39", "block": "test", "trialIndex": 44, "score": 66.3, "costs": -11.700000000000001, "simulationMode": [null, null, null, null, null, null], "rewards": [-1, 2, 3, 13, 61], "path": ["0", "0", "12", "13", "14", "15", "17"], "rt": [16903, 508, 482, 254, 89, 86], "actions": ["right", "right", "right", "right", "up", "right"], "actionTimes": [63608, 64124, 65130, 65900, 66514, 67111], "queries": {"click": {"state": {"target": ["27", "26", "15", "16", "17", "18"], "time": [48366, 51856, 54836, 56322, 59389, 62258]}, "edge": {"target": [], "time": []}}, "mouseover": {"state": {"target": ["27", "26", "28", "1", "18", "15", "28", "15", "16", "17", "17", "15", "18"], "time": [47828, 49142, 52488, 52592, 52711, 52826, 53835, 54432, 55795, 57102, 57453, 60263, 60866]}, "edge": {"target": [], "time": []}}, "mouseout": {"state": {"target": ["19", "12", "27", "26", "28", "1", "18", "15", "28", "15", "16", "17", "17", "15"], "time": [45071, 45343, 48988, 52466, 52515, 52632, 52734, 53447, 54298, 55756, 57027, 57191, 60188, 60376]}, "edge": {"target": [], "time": []}}}, "displayed_time": "67.64", "trialTime": 69781, "trial_type": "mouselab-mdp", "trial_index": 59, "time_elapsed": 2125476, "internal_node_id": "0.0-4.0-1.0-38.0"}}, {"uniqueid": "w85676839:a14806509", "current_trial": 60, "dateTime": 1691144301195, "trialdata": {"revealed_states": [], "clicked_states": ["32", "30", "26", "27", "29"], "num_clicks_accrued": [0, 0, 0, 0, 0, 0, 0, 0, 0, 0, 0, 0, 0], "stateRewards": ["", -2, 2, -4, -4, -59, 88, 62, -3, 69, -15, -34, 1, -2, -5, 7, -54, -20, 78, -16, -74, -53, -21, 2, -4, 2, 13, -8, -44, 26, 9, 72, 4, 17], "withholdReward": false, "trial_id": "mdp_trial_40", "block": "test", "trialIndex": 45, "score": 3.4499999999999993, "costs": -9.55, "simulationMode": [null, null, null, null, null, null], "rewards": [2, -4, 2, 9, 4], "path": ["0", "0", "23", "24", "25", "30", "32"], "rt": [14546, 890, 139, 106, 271, 1470], "actions": ["left", "left", "left", "left", "down", "down"], "actionTimes": [19057, 19954, 20592, 21244, 22023, 24008], "queries": {"click": {"state": {"target": ["32", "30", "26", "27", "29"], "time": [6429, 9976, 12281, 13686, 18479]}, "edge": {"target": [], "time": []}}, "mouseover": {"state": {"target": ["23", "31", "30", "32", "33", "30", "25", "26", "27", "29"], "time": [5396, 5540, 5843, 6058, 7279, 9329, 11394, 11785, 13220, 15433]}, "edge": {"target": [], "time": []}}, "mouseout": {"state": {"target": ["18", "1", "23", "31", "30", "32", "33", "30", "25", "26", "27"], "time": [2991, 3256, 5455, 5569, 5871, 7195, 9163, 11295, 11745, 12406, 14599]}, "edge": {"target": [], "time": []}}}, "displayed_time": "24.55", "trialTime": 25958, "trial_type": "mouselab-mdp", "trial_index": 60, "time_elapsed": 2152350, "internal_node_id": "0.0-4.0-1.0-39.0"}}, {"uniqueid": "w85676839:a14806509", "current_trial": 61, "dateTime": 1691144518327, "trialdata": {"rt": 216387, "response": {"Q0": "$-2 to $2", "Q1": "$-32 to $32", "Q2": "$-88 to $88", "Q3": "The cost for clicking on nodes varied between nodes.", "Q4": "Very motivated"}, "question_order": [0, 1, 2, 3, 4], "trial_id": "final_quiz_control", "trial_type": "survey-multi-choice", "trial_index": 61, "time_elapsed": 2369483, "internal_node_id": "0.0-4.0-2.0"}}, {"uniqueid": "w85676839:a14806509", "current_trial": 62, "dateTime": 1691144635965, "trialdata": {"rt": 117116, "response": {"Q0": "i checked the 4th and fifth nodes in all directions too see what would give me the mnost value.", "Q1": "yes I did. i minimized clicking nodes to avoid the fee and only opened nodes that gave high value.", "Q2": "nothing was difficult"}, "trial_id": "self_report_control", "trial_type": "survey-text", "trial_index": 62, "time_elapsed": 2487121, "internal_node_id": "0.0-4.0-3.0"}}, {"uniqueid": "w85676839:a14806509", "current_trial": 63, "dateTime": 1691144694918, "trialdata": {"rt": 58942, "response": {"Q0": "Disagree", "Q1": "Agree", "Q2": "Agree", "Q3": "Agree", "Q4": "Strongly disagree", "Q5": "Strongly agree", "Q6": "Strongly disagree"}, "question_order": [0, 1, 2, 3, 4, 5, 6], "trial_id": "self_report_2", "trial_type": "survey-multi-choice", "trial_index": 63, "time_elapsed": 2546074, "internal_node_id": "0.0-4.0-4.0"}}, {"uniqueid": "w85676839:a14806509", "current_trial": 64, "dateTime": 1691144722751, "trialdata": {"rt": 27802, "response": {"gender": "female", "age": "24", "colorblind": "0", "effort": "0"}, "trial_type": "survey-html-form", "trial_index": 64, "time_elapsed": 2573907, "internal_node_id": "0.0-4.0-5.0"}}, {"uniqueid": "w85676839:a14806509", "current_trial": 65, "dateTime": 1691144758128, "trialdata": {"rt": 35366, "response": {"Q0": "nothing", "Q1": "no I have never", "Q2": "none"}, "trial_type": "survey-text", "trial_index": 65, "time_elapsed": 2609284, "internal_node_id": "0.0-4.0-6.0"}}, {"uniqueid": "w85676839:a14806509", "current_trial": 66, "dateTime": 1691144764750, "trialdata": {"rt": 6614, "stimulus": "Press 'Finish HIT' in order to reach the completion code. Once the data has been saved, you will receive the code either in this window or in the original browser window where you started the experiment.\n", "response": 0, "trial_type": "html-button-response", "trial_index": 66, "time_elapsed": 2615905, "internal_node_id": "0.0-5.0"}}, {"uniqueid": "w85676839:a14806509", "current_trial": 67, "dateTime": 1691144765756, "trialdata": {"success": true, "trial_type": "fullscreen", "trial_index": 67, "time_elapsed": 2616911, "internal_node_id": "0.0-6.0"}}], "questiondata": {"params": {"CODE": "C6DMOQA6", "MIN_TIME": 14, "inspectCost": 1, "startTime": "Fri Aug 04 2023 11:42:25 GMT+0200 (South Africa Standard Time)", "bonusRate": 0.002, "variance": "1_2_4_8_44", "branching": "31123"}, "final_score": 1377.2}, "eventdata": [{"eventtype": "initialized", "value": null, "timestamp": 1691142144029, "interval": 0}, {"eventtype": "window_resize", "value": [1024, 654], "timestamp": 1691142144029, "interval": 0}, {"eventtype": "window_resize", "value": [1024, 654], "timestamp": 1691142144941, "interval": 912}, {"eventtype": "window_resize", "value": [1366, 768], "timestamp": 1691142153781, "interval": 8840}, {"eventtype": "focus", "value": "off", "timestamp": 1691142501745, "interval": 347964}, {"eventtype": "focus", "value": "on", "timestamp": 1691142501746, "interval": 1}, {"eventtype": "window_resize", "value": [1024, 654], "timestamp": 1691142501956, "interval": 210}, {"eventtype": "window_resize", "value": [1366, 768], "timestamp": 1691142505191, "interval": 3235}, {"eventtype": "focus", "value": "off", "timestamp": 1691142898595, "interval": 393404}, {"eventtype": "focus", "value": "on", "timestamp": 1691142898595, "interval": 0}, {"eventtype": "window_resize", "value": [1024, 654], "timestamp": 1691142898809, "interval": 214}, {"eventtype": "window_resize", "value": [1366, 768], "timestamp": 1691142900707, "interval": 1898}], "useragent": "Mozilla/5.0 (Windows NT 10.0; Win64; x64) AppleWebKit/537.36 (KHTML, like Gecko) Chrome/115.0.0.0 Safari/537.36", "mode": "live", "id": "w85676839:a14806509", "status": "user data saved", "Beginhit": "2023-08-04 09:42:19.441904", "Beginexp": "2023-08-04 09:42:36.979252", "Endhit": "2023-08-04 10:26:12.137279", "psiturkStatus": 3, "browser": "<redacted>", "platform": "windows", "language": "en-US"}