{"condition": 1, "counterbalance": 0, "assignmentId": "a80695365", "workerId": "w60622137", "hitId": "h92330590", "currenttrial": 56, "bonus": 0, "data": [{"uniqueid": "w60622137:a80695365", "current_trial": 0, "dateTime": 1691142249455, "trialdata": {"success": true, "trial_type": "fullscreen", "trial_index": 0, "time_elapsed": 8102, "internal_node_id": "0.0-0.0"}}, {"uniqueid": "w60622137:a80695365", "current_trial": 1, "dateTime": 1691142279731, "trialdata": {"view_history": [{"page_index": 0, "viewing_time": 30254}], "rt": 30255, "trial_id": "exp_instructions_misaligned", "trial_type": "instructions", "trial_index": 1, "time_elapsed": 38380, "internal_node_id": "0.0-1.0"}}, {"uniqueid": "w60622137:a80695365", "current_trial": 2, "dateTime": 1691142416633, "trialdata": {"success": true, "trial_type": "fullscreen", "trial_index": 2, "time_elapsed": 175282, "internal_node_id": "0.0-2.0-0.0"}}, {"uniqueid": "w60622137:a80695365", "current_trial": 3, "dateTime": 1691142668972, "trialdata": {"view_history": [{"page_index": 0, "viewing_time": 84699}, {"page_index": 1, "viewing_time": 73620}, {"page_index": 2, "viewing_time": 25253}, {"page_index": 3, "viewing_time": 68758}], "rt": 252332, "trial_id": "mouselab_instructions_1_misaligned", "trial_type": "instructions", "trial_index": 3, "time_elapsed": 427621, "internal_node_id": "0.0-2.0-1.0"}}, {"uniqueid": "w60622137:a80695365", "current_trial": 4, "dateTime": 1691142699456, "trialdata": {"revealed_states": [], "clicked_states": [], "num_clicks_accrued": [0, 0, 0, 0, 0, 0, 0, 0, 0, 0, 0, 0, 0], "stateRewards": ["", 10, -10, 10, 10, -10, 10, 10, -10, 10, 10, -10, -10, -10, -10, -10, 10, 10, -10, -10, 10, 10, -10, 10, 10, 10, 10, -10, 10, 10, -10, 10, -10, 10], "withholdReward": false, "trial_id": "practice_1", "block": "test", "trialIndex": 0, "score": -26.5, "costs": 0, "simulationMode": [null, null, null, null, null], "rewards": [-10, -10, -10, -10, 10], "path": ["0", "0", "12", "13", "14", "15", "16"], "rt": [2606, 379, 1314, 1030, 1142], "actions": ["right", "right", "right", "up", "up"], "actionTimes": [8942, 9860, 11712, 13299, 14982], "queries": {"click": {"state": {"target": [], "time": []}, "edge": {"target": [], "time": []}}, "mouseover": {"state": {"target": ["12"], "time": [7738]}, "edge": {"target": [], "time": []}}, "mouseout": {"state": {"target": ["12", "1", "2", "1", "18", "15", "0", "12", "20", "14", "13", "22"], "time": [1244, 2377, 2893, 3441, 3491, 3809, 7423, 20354, 20418, 24247, 24313, 25332]}, "edge": {"target": [], "time": []}}}, "displayed_time": "15.50", "trialTime": 28958, "trial_type": "mouselab-mdp", "trial_index": 4, "time_elapsed": 458104, "internal_node_id": "0.0-2.0-2.0-0.0"}}, {"uniqueid": "w60622137:a80695365", "current_trial": 5, "dateTime": 1691142714720, "trialdata": {"revealed_states": [], "clicked_states": [], "num_clicks_accrued": [0, 0, 0, 0, 0, 0, 0, 0, 0, 0, 0, 0, 0], "stateRewards": ["", -10, -10, 10, -10, -10, 10, 10, 10, 10, -10, -10, -10, -10, 10, 10, -10, 10, -10, -10, -10, 10, -10, 10, 10, -10, -10, 10, -10, 10, -10, -10, -10, -10], "withholdReward": false, "trial_id": "practice_2", "block": "test", "trialIndex": 1, "score": -26.5, "costs": 0, "simulationMode": [null, null, null, null, null], "rewards": [-10, -10, 10, -10, -10], "path": ["0", "0", "12", "13", "14", "19", "20"], "rt": [1291, 343, 420, 1617, 370], "actions": ["right", "right", "right", "down", "right"], "actionTimes": [6417, 7304, 8262, 10430, 11347], "queries": {"click": {"state": {"target": [], "time": []}, "edge": {"target": [], "time": []}}, "mouseover": {"state": {"target": [], "time": []}, "edge": {"target": [], "time": []}}, "mouseout": {"state": {"target": ["31", "23", "0"], "time": [781, 1148, 2694]}, "edge": {"target": [], "time": []}}}, "displayed_time": "11.89", "trialTime": 14533, "trial_type": "mouselab-mdp", "trial_index": 5, "time_elapsed": 473368, "internal_node_id": "0.0-2.0-2.0-1.0"}}, {"uniqueid": "w60622137:a80695365", "current_trial": 6, "dateTime": 1691142779214, "trialdata": {"view_history": [{"page_index": 0, "viewing_time": 46412}, {"page_index": 1, "viewing_time": 18075}], "rt": 64488, "trial_id": "mouselab_instructions_2_misaligned", "trial_type": "instructions", "trial_index": 6, "time_elapsed": 537863, "internal_node_id": "0.0-2.0-3.0"}}, {"uniqueid": "w60622137:a80695365", "current_trial": 7, "dateTime": 1691142859386, "trialdata": {"rt": 80161, "response": {"Q0": "The cost for clicking on nodes may vary between nodes.", "Q1": "The better I perform the higher my bonus will be.", "Q2": "No, the amount of cash at each node of the web may be different each time.", "Q3": "To get the highest total score.", "Q4": "Only before moving the spider.", "Q5": "3 seconds"}, "question_order": [0, 1, 2, 3, 4, 5], "correct": {"Q0": "The cost for clicking on nodes may vary between nodes.", "Q1": "The better I perform the higher my bonus will be.", "Q2": "No, the amount of cash at each node of the web may be different each time.", "Q3": "To get the highest total score.", "Q4": "Only before moving the spider.", "Q5": "3 seconds"}, "trial_id": "mouselab_quiz_misaligned", "trial_type": "survey-multi-choice", "trial_index": 7, "time_elapsed": 618035, "internal_node_id": "0.0-2.0-4.0"}}, {"uniqueid": "w60622137:a80695365", "current_trial": 8, "dateTime": 1691142887777, "trialdata": {"rt": 28370, "stimulus": "\n<h1> Get ready to start the game! </h1>\n\nThank you for reading the instructions. Get ready start with the 40 rounds of this game.\n<br><br>\nIf you need to take a break, feel free to take one after the end of a round, before continuing to the next one.\n<br><br>\nRemember, the more money the spider gets, the bigger your bonus will be!\n<br><br>\n<div style='text-align: center;'>Press <code>space</code> to begin.</div>\n\n<br><br>\n(If, at any point, the <code>space</code> key does not take you to the next page, click once on the text and try again.)", "response": " ", "trial_id": "mdp_ready", "trial_type": "html-keyboard-response", "trial_index": 8, "time_elapsed": 646426, "internal_node_id": "0.0-4.0-0.0"}}, {"uniqueid": "w60622137:a80695365", "current_trial": 9, "dateTime": 1691142919869, "trialdata": {"revealed_states": [], "clicked_states": [], "num_clicks_accrued": [0, 0, 0, 0, 0, 0, 0, 0, 0, 0, 0, 0, 0], "stateRewards": ["", 2, -1, -1, -9, -81, -30, 55, -6, 78, 25, 62, 2, 4, -1, 9, -85, 1, -19, 1, -60, 12, -34, 1, 4, -1, -13, -24, -16, -83, -8, 16, 43, 9], "withholdReward": false, "trial_id": "mdp_trial_1", "block": "test", "trialIndex": 2, "score": 12, "costs": 0, "simulationMode": [null, null, null, null, null], "rewards": [1, 4, -1, -8, 16], "path": ["0", "0", "23", "24", "25", "30", "31"], "rt": [1718, 368, 389, 1096, 725], "actions": ["left", "left", "left", "down", "right"], "actionTimes": [10192, 11110, 12052, 13676, 14929], "queries": {"click": {"state": {"target": [], "time": []}, "edge": {"target": [], "time": []}}, "mouseover": {"state": {"target": [], "time": []}, "edge": {"target": [], "time": []}}, "mouseout": {"state": {"target": ["13", "16", "0", "17", "0", "1"], "time": [1428, 6885, 18203, 18255, 27177, 28356]}, "edge": {"target": [], "time": []}}}, "displayed_time": "22.48", "trialTime": 30866, "trial_type": "mouselab-mdp", "trial_index": 9, "time_elapsed": 678517, "internal_node_id": "0.0-4.0-1.0-0.0"}}, {"uniqueid": "w60622137:a80695365", "current_trial": 10, "dateTime": 1691142945147, "trialdata": {"revealed_states": [], "clicked_states": [], "num_clicks_accrued": [0, 0, 0, 0, 0, 0, 0, 0, 0, 0, 0, 0, 0], "stateRewards": ["", 1, 1, 6, -14, -40, 37, 16, -13, 33, -68, 49, 2, 4, 3, 6, 55, 27, 32, 10, -65, 20, -87, 2, 1, -6, -5, -42, 12, 29, -8, 16, 76, -33], "withholdReward": false, "trial_id": "mdp_trial_2", "block": "test", "trialIndex": 3, "score": -73, "costs": 0, "simulationMode": [null, null, null, null, null], "rewards": [1, 1, 6, -13, -68], "path": ["0", "0", "1", "2", "3", "8", "10"], "rt": [1620, 526, 793, 1396, 1025], "actions": ["up", "up", "up", "left", "down"], "actionTimes": [6677, 7758, 9094, 11021, 12580], "queries": {"click": {"state": {"target": [], "time": []}, "edge": {"target": [], "time": []}}, "mouseover": {"state": {"target": [], "time": []}, "edge": {"target": [], "time": []}}, "mouseout": {"state": {"target": ["0", "17", "15", "18", "0", "0"], "time": [15762, 22732, 22767, 22789, 23134, 23601]}, "edge": {"target": [], "time": []}}}, "displayed_time": "19.06", "trialTime": 24372, "trial_type": "mouselab-mdp", "trial_index": 10, "time_elapsed": 703794, "internal_node_id": "0.0-4.0-1.0-1.0"}}, {"uniqueid": "w60622137:a80695365", "current_trial": 11, "dateTime": 1691142969612, "trialdata": {"revealed_states": [], "clicked_states": [], "num_clicks_accrued": [0, 0, 0, 0, 0, 0, 0, 0, 0, 0, 0, 0, 0], "stateRewards": ["", -2, -1, -5, 10, -36, -70, 68, -9, 86, 71, -10, 2, -4, 7, -7, 66, 44, -66, -13, -69, 43, 15, -2, 2, 6, -13, 62, 57, 50, -10, -69, 42, -72], "withholdReward": false, "trial_id": "mdp_trial_3", "block": "test", "trialIndex": 4, "score": 54, "costs": 0, "simulationMode": [null, null, null, null, null], "rewards": [-2, -1, -5, -9, 71], "path": ["0", "0", "1", "2", "3", "8", "10"], "rt": [841, 341, 411, 1930, 1189], "actions": ["up", "up", "up", "left", "down"], "actionTimes": [4322, 5218, 6189, 8664, 10384], "queries": {"click": {"state": {"target": [], "time": []}, "edge": {"target": [], "time": []}}, "mouseover": {"state": {"target": [], "time": []}, "edge": {"target": [], "time": []}}, "mouseout": {"state": {"target": ["0", "15", "17", "15", "18"], "time": [13595, 13632, 20067, 20096, 20149]}, "edge": {"target": [], "time": []}}}, "displayed_time": "17.48", "trialTime": 23042, "trial_type": "mouselab-mdp", "trial_index": 11, "time_elapsed": 728260, "internal_node_id": "0.0-4.0-1.0-2.0"}}, {"uniqueid": "w60622137:a80695365", "current_trial": 12, "dateTime": 1691142995400, "trialdata": {"revealed_states": [], "clicked_states": [], "num_clicks_accrued": [0, 0, 0, 0, 0, 0, 0, 0, 0, 0, 0, 0, 0], "stateRewards": ["", -2, -4, -6, 12, -58, -70, -80, 2, 16, -88, -62, 1, 2, -5, 11, 77, -35, -44, -5, 18, -83, 87, 1, -3, -5, 13, -44, -21, -86, 10, -52, 8, 29], "withholdReward": false, "trial_id": "mdp_trial_4", "block": "test", "trialIndex": 5, "score": -35, "costs": 0, "simulationMode": [null, null, null, null, null], "rewards": [1, 2, -5, 11, -44], "path": ["0", "0", "12", "13", "14", "15", "18"], "rt": [2816, 577, 672, 1861, 637], "actions": ["right", "right", "right", "up", "left"], "actionTimes": [9410, 10547, 11766, 14212, 15425], "queries": {"click": {"state": {"target": [], "time": []}, "edge": {"target": [], "time": []}}, "mouseover": {"state": {"target": ["12"], "time": [7798]}, "edge": {"target": [], "time": []}}, "mouseout": {"state": {"target": ["0"], "time": [7697]}, "edge": {"target": [], "time": []}}}, "displayed_time": "20.60", "trialTime": 24458, "trial_type": "mouselab-mdp", "trial_index": 12, "time_elapsed": 754048, "internal_node_id": "0.0-4.0-1.0-3.0"}}, {"uniqueid": "w60622137:a80695365", "current_trial": 13, "dateTime": 1691143018327, "trialdata": {"revealed_states": [], "clicked_states": [], "num_clicks_accrued": [0, 0, 0, 0, 0, 0, 0, 0, 0, 0, 0, 0, 0], "stateRewards": ["", 2, 3, -6, -5, -3, 55, 40, 11, 61, 11, 51, 2, -4, -6, 9, -25, 29, -15, -6, 7, -77, -2, -2, -4, 1, 14, -43, -1, 56, -12, -54, 41, -74], "withholdReward": false, "trial_id": "mdp_trial_5", "block": "test", "trialIndex": 6, "score": -14, "costs": 0, "simulationMode": [null, null, null, null, null], "rewards": [2, -4, -6, 9, -15], "path": ["0", "0", "12", "13", "14", "15", "18"], "rt": [1753, 420, 470, 663, 475], "actions": ["right", "right", "right", "up", "left"], "actionTimes": [5620, 6573, 7566, 8761, 9776], "queries": {"click": {"state": {"target": [], "time": []}, "edge": {"target": [], "time": []}}, "mouseover": {"state": {"target": [], "time": []}, "edge": {"target": [], "time": []}}, "mouseout": {"state": {"target": ["12", "0", "0", "13", "12", "0"], "time": [2290, 2771, 18450, 18952, 19301, 19336]}, "edge": {"target": [], "time": []}}}, "displayed_time": "17.87", "trialTime": 21293, "trial_type": "mouselab-mdp", "trial_index": 13, "time_elapsed": 776976, "internal_node_id": "0.0-4.0-1.0-4.0"}}, {"uniqueid": "w60622137:a80695365", "current_trial": 14, "dateTime": 1691143042268, "trialdata": {"revealed_states": [], "clicked_states": [], "num_clicks_accrued": [0, 0, 0, 0, 0, 0, 0, 0, 0, 0, 0, 0, 0], "stateRewards": ["", 1, 2, -6, -13, -51, 22, -4, -12, -44, -12, 6, -2, -2, -2, -14, -46, -4, -77, -2, 36, -79, 41, 2, -4, 2, -6, -55, 59, 70, -5, 39, -19, 24], "withholdReward": false, "trial_id": "mdp_trial_6", "block": "test", "trialIndex": 7, "score": -97, "costs": 0, "simulationMode": [null, null, null, null, null], "rewards": [-2, -2, -2, -14, -77], "path": ["0", "0", "12", "13", "14", "15", "18"], "rt": [921, 341, 457, 626, 756], "actions": ["right", "right", "right", "up", "left"], "actionTimes": [5070, 5940, 6926, 8083, 9384], "queries": {"click": {"state": {"target": [], "time": []}, "edge": {"target": [], "time": []}}, "mouseover": {"state": {"target": [], "time": []}, "edge": {"target": [], "time": []}}, "mouseout": {"state": {"target": ["0", "0", "15", "12"], "time": [1390, 10666, 10719, 20564]}, "edge": {"target": [], "time": []}}}, "displayed_time": "18.15", "trialTime": 22299, "trial_type": "mouselab-mdp", "trial_index": 14, "time_elapsed": 800915, "internal_node_id": "0.0-4.0-1.0-5.0"}}, {"uniqueid": "w60622137:a80695365", "current_trial": 15, "dateTime": 1691143068189, "trialdata": {"revealed_states": [], "clicked_states": [], "num_clicks_accrued": [0, 0, 0, 0, 0, 0, 0, 0, 0, 0, 0, 0, 0], "stateRewards": ["", 2, 4, 4, 9, -88, -10, 44, 16, -54, 64, 78, 1, 2, 5, 16, 80, 36, 7, -4, 9, -47, -70, -1, -3, 6, -16, 11, 80, 28, 8, -1, 34, -17], "withholdReward": false, "trial_id": "mdp_trial_7", "block": "test", "trialIndex": 8, "score": 31, "costs": 0, "simulationMode": [null, null, null, null, null], "rewards": [1, 2, 5, 16, 7], "path": ["0", "0", "12", "13", "14", "15", "18"], "rt": [1386, 643, 499, 1231, 840], "actions": ["right", "right", "right", "up", "left"], "actionTimes": [6245, 7441, 8473, 10233, 11614], "queries": {"click": {"state": {"target": [], "time": []}, "edge": {"target": [], "time": []}}, "mouseover": {"state": {"target": [], "time": []}, "edge": {"target": [], "time": []}}, "mouseout": {"state": {"target": ["0", "0"], "time": [4948, 17759]}, "edge": {"target": [], "time": []}}}, "displayed_time": "18.86", "trialTime": 24414, "trial_type": "mouselab-mdp", "trial_index": 15, "time_elapsed": 826838, "internal_node_id": "0.0-4.0-1.0-6.0"}}, {"uniqueid": "w60622137:a80695365", "current_trial": 16, "dateTime": 1691143099163, "trialdata": {"revealed_states": [], "clicked_states": [], "num_clicks_accrued": [0, 0, 0, 0, 0, 0, 0, 0, 0, 0, 0, 0, 0], "stateRewards": ["", 2, -1, 3, -12, -83, 6, -33, 9, 28, 24, -50, -2, -1, -2, -5, -87, 37, 82, 12, 80, -5, 10, -2, -3, -6, 9, 22, -1, 16, 9, 77, -62, 58], "withholdReward": false, "trial_id": "mdp_trial_8", "block": "test", "trialIndex": 9, "score": 56, "costs": 0, "simulationMode": [null, null, null, null, null], "rewards": [-2, -3, -6, 9, 58], "path": ["0", "0", "23", "24", "25", "30", "33"], "rt": [2757, 788, 492, 932, 1030], "actions": ["left", "left", "left", "down", "left"], "actionTimes": [13275, 14603, 15649, 17112, 18671], "queries": {"click": {"state": {"target": [], "time": []}, "edge": {"target": [], "time": []}}, "mouseover": {"state": {"target": ["23"], "time": [11631]}, "edge": {"target": [], "time": []}}, "mouseout": {"state": {"target": ["0", "0", "0", "23"], "time": [2936, 7370, 8350, 22266]}, "edge": {"target": [], "time": []}}}, "displayed_time": "24.52", "trialTime": 28704, "trial_type": "mouselab-mdp", "trial_index": 16, "time_elapsed": 857811, "internal_node_id": "0.0-4.0-1.0-7.0"}}, {"uniqueid": "w60622137:a80695365", "current_trial": 17, "dateTime": 1691143126289, "trialdata": {"revealed_states": [], "clicked_states": [], "num_clicks_accrued": [0, 0, 0, 0, 0, 0, 0, 0, 0, 0, 0, 0, 0], "stateRewards": ["", -2, -1, -1, 5, -54, -87, 35, 2, -8, 20, -22, 1, 3, 6, 13, -75, -32, -55, -3, 56, 62, -22, -1, -4, -1, -7, -51, 84, 70, 7, -15, 5, 55], "withholdReward": false, "trial_id": "mdp_trial_9", "block": "test", "trialIndex": 10, "score": 63, "costs": 0, "simulationMode": [null, null, null, null, null], "rewards": [1, 3, 6, -3, 56], "path": ["0", "0", "12", "13", "14", "19", "20"], "rt": [2171, 494, 492, 1207, 1663], "actions": ["right", "right", "right", "down", "right"], "actionTimes": [7859, 8892, 9918, 11678, 13882], "queries": {"click": {"state": {"target": [], "time": []}, "edge": {"target": [], "time": []}}, "mouseover": {"state": {"target": [], "time": []}, "edge": {"target": [], "time": []}}, "mouseout": {"state": {"target": ["0"], "time": [705]}, "edge": {"target": [], "time": []}}}, "displayed_time": "19.69", "trialTime": 24800, "trial_type": "mouselab-mdp", "trial_index": 17, "time_elapsed": 884937, "internal_node_id": "0.0-4.0-1.0-8.0"}}, {"uniqueid": "w60622137:a80695365", "current_trial": 18, "dateTime": 1691143153158, "trialdata": {"revealed_states": [], "clicked_states": [], "num_clicks_accrued": [0, 0, 0, 0, 0, 0, 0, 0, 0, 0, 0, 0, 0], "stateRewards": ["", -2, 4, -3, -13, 63, -36, 62, 11, 78, 34, -51, 2, -2, 8, -6, -40, -18, 31, 9, 64, 39, 79, 1, 4, -4, 15, -12, 76, 73, -10, -77, 86, -4], "withholdReward": false, "trial_id": "mdp_trial_10", "block": "test", "trialIndex": 11, "score": 89, "costs": 0, "simulationMode": [null, null, null, null, null], "rewards": [1, 4, -4, 15, 73], "path": ["0", "0", "23", "24", "25", "26", "29"], "rt": [2563, 412, 319, 1913, 660], "actions": ["left", "left", "left", "up", "left"], "actionTimes": [7961, 8920, 9828, 12300, 13501], "queries": {"click": {"state": {"target": [], "time": []}, "edge": {"target": [], "time": []}}, "mouseover": {"state": {"target": [], "time": []}, "edge": {"target": [], "time": []}}, "mouseout": {"state": {"target": ["0"], "time": [1282]}, "edge": {"target": [], "time": []}}}, "displayed_time": "19.40", "trialTime": 24988, "trial_type": "mouselab-mdp", "trial_index": 18, "time_elapsed": 911806, "internal_node_id": "0.0-4.0-1.0-9.0"}}, {"uniqueid": "w60622137:a80695365", "current_trial": 19, "dateTime": 1691143175501, "trialdata": {"revealed_states": [], "clicked_states": [], "num_clicks_accrued": [0, 0, 0, 0, 0, 0, 0, 0, 0, 0, 0, 0, 0], "stateRewards": ["", -1, -3, -6, 14, 41, 18, 63, -14, 80, 21, 17, -2, -4, -2, -5, 13, 70, 8, -4, -64, -10, -20, 2, -1, 4, -1, -17, -55, 42, -7, 47, 54, 15], "withholdReward": false, "trial_id": "mdp_trial_11", "block": "test", "trialIndex": 12, "score": 22, "costs": 0, "simulationMode": [null, null, null, null, null], "rewards": [-1, -3, -6, 14, 18], "path": ["0", "0", "1", "2", "3", "4", "6"], "rt": [1697, 443, 510, 1268, 301], "actions": ["up", "up", "up", "right", "right"], "actionTimes": [4975, 5959, 7003, 8804, 9640], "queries": {"click": {"state": {"target": [], "time": []}, "edge": {"target": [], "time": []}}, "mouseover": {"state": {"target": [], "time": []}, "edge": {"target": [], "time": []}}, "mouseout": {"state": {"target": ["0"], "time": [629]}, "edge": {"target": [], "time": []}}}, "displayed_time": "17.28", "trialTime": 20296, "trial_type": "mouselab-mdp", "trial_index": 19, "time_elapsed": 934149, "internal_node_id": "0.0-4.0-1.0-10.0"}}, {"uniqueid": "w60622137:a80695365", "current_trial": 20, "dateTime": 1691143200967, "trialdata": {"revealed_states": [], "clicked_states": [], "num_clicks_accrued": [0, 0, 0, 0, 0, 0, 0, 0, 0, 0, 0, 0, 0], "stateRewards": ["", -2, -4, 6, 14, -34, 49, 36, -8, -3, 32, -4, 1, -2, 1, -8, -20, -71, -57, -7, -86, -62, -16, -2, -3, -5, 11, 23, -21, 53, 5, -5, 85, 73], "withholdReward": false, "trial_id": "mdp_trial_12", "block": "test", "trialIndex": 13, "score": -12, "costs": 0, "simulationMode": [null, null, null, null, null], "rewards": [-2, -4, 6, -8, -4], "path": ["0", "0", "1", "2", "3", "8", "11"], "rt": [2765, 278, 266, 506, 243], "actions": ["up", "up", "up", "left", "left"], "actionTimes": [7109, 7923, 8740, 9782, 10588], "queries": {"click": {"state": {"target": [], "time": []}, "edge": {"target": [], "time": []}}, "mouseover": {"state": {"target": [], "time": []}, "edge": {"target": [], "time": []}}, "mouseout": {"state": {"target": [], "time": []}, "edge": {"target": [], "time": []}}}, "displayed_time": "18.35", "trialTime": 23026, "trial_type": "mouselab-mdp", "trial_index": 20, "time_elapsed": 959614, "internal_node_id": "0.0-4.0-1.0-11.0"}}, {"uniqueid": "w60622137:a80695365", "current_trial": 21, "dateTime": 1691143233770, "trialdata": {"revealed_states": [], "clicked_states": [], "num_clicks_accrued": [0, 0, 0, 0, 0, 0, 0, 0, 0, 0, 0, 0, 0], "stateRewards": ["", 1, 1, 7, -11, 80, -20, -53, -14, 3, 31, 27, 2, -1, -8, -10, 33, 41, 86, 9, 78, -37, -13, -1, -2, -6, -8, -80, 75, 4, -16, -49, -74, 24], "withholdReward": false, "trial_id": "mdp_trial_13", "block": "test", "trialIndex": 14, "score": -2, "costs": 0, "simulationMode": [null, null, null, null, null], "rewards": [1, 1, 7, -14, 3], "path": ["0", "0", "1", "2", "3", "8", "9"], "rt": [1367, 172, 297, 602, 856], "actions": ["up", "up", "up", "left", "up"], "actionTimes": [13651, 14348, 15180, 16332, 17722], "queries": {"click": {"state": {"target": [], "time": []}, "edge": {"target": [], "time": []}}, "mouseover": {"state": {"target": [], "time": []}, "edge": {"target": [], "time": []}}, "mouseout": {"state": {"target": ["0"], "time": [10617]}, "edge": {"target": [], "time": []}}}, "displayed_time": "26.29", "trialTime": 29988, "trial_type": "mouselab-mdp", "trial_index": 21, "time_elapsed": 992418, "internal_node_id": "0.0-4.0-1.0-12.0"}}, {"uniqueid": "w60622137:a80695365", "current_trial": 22, "dateTime": 1691143259998, "trialdata": {"revealed_states": [], "clicked_states": [], "num_clicks_accrued": [0, 0, 0, 0, 0, 0, 0, 0, 0, 0, 0, 0, 0], "stateRewards": ["", 2, 3, 8, 11, 25, -80, 6, -4, -56, 84, -23, -2, -4, -3, 4, -51, -9, -61, -15, -64, 67, -35, 1, -1, -7, -6, 83, 59, -15, 12, -79, 56, 41], "withholdReward": false, "trial_id": "mdp_trial_14", "block": "test", "trialIndex": 15, "score": -47, "costs": 0, "simulationMode": [null, null, null, null, null], "rewards": [2, 3, 8, -4, -56], "path": ["0", "0", "1", "2", "3", "8", "9"], "rt": [991, 221, 278, 482, 796], "actions": ["up", "up", "up", "left", "up"], "actionTimes": [7293, 8044, 8852, 9881, 11227], "queries": {"click": {"state": {"target": [], "time": []}, "edge": {"target": [], "time": []}}, "mouseover": {"state": {"target": [], "time": []}, "edge": {"target": [], "time": []}}, "mouseout": {"state": {"target": ["0"], "time": [4803]}, "edge": {"target": [], "time": []}}}, "displayed_time": "20.30", "trialTime": 24561, "trial_type": "mouselab-mdp", "trial_index": 22, "time_elapsed": 1018646, "internal_node_id": "0.0-4.0-1.0-13.0"}}, {"uniqueid": "w60622137:a80695365", "current_trial": 23, "dateTime": 1691143286906, "trialdata": {"revealed_states": [], "clicked_states": [], "num_clicks_accrued": [0, 0, 0, 0, 0, 0, 0, 0, 0, 0, 0, 0, 0], "stateRewards": ["", -1, -4, -6, -15, 21, -67, -63, 9, 51, 69, -14, -1, 3, 8, -8, 39, 72, 63, 15, 19, 47, 15, 1, 4, 5, 16, -18, 34, 35, -14, -80, 40, 1], "withholdReward": false, "trial_id": "mdp_trial_15", "block": "test", "trialIndex": 16, "score": -3, "costs": 0, "simulationMode": [null, null, null, null, null], "rewards": [1, 4, 5, -14, 1], "path": ["0", "0", "23", "24", "25", "30", "33"], "rt": [1567, 230, 318, 1030, 916], "actions": ["left", "left", "left", "down", "left"], "actionTimes": [7428, 8217, 9073, 10629, 12081], "queries": {"click": {"state": {"target": [], "time": []}, "edge": {"target": [], "time": []}}, "mouseover": {"state": {"target": [], "time": []}, "edge": {"target": [], "time": []}}, "mouseout": {"state": {"target": ["0", "13"], "time": [21286, 21329]}, "edge": {"target": [], "time": []}}}, "displayed_time": "19.86", "trialTime": 24789, "trial_type": "mouselab-mdp", "trial_index": 23, "time_elapsed": 1045554, "internal_node_id": "0.0-4.0-1.0-14.0"}}, {"uniqueid": "w60622137:a80695365", "current_trial": 24, "dateTime": 1691143310881, "trialdata": {"revealed_states": [], "clicked_states": [], "num_clicks_accrued": [0, 0, 0, 0, 0, 0, 0, 0, 0, 0, 0, 0, 0], "stateRewards": ["", 2, 4, 4, -8, -36, -33, 38, 16, -51, 57, 57, 1, 3, 4, -6, 45, 68, 87, 1, 63, 24, -55, -2, 2, -6, -13, -63, -50, 8, 2, 80, 6, 60], "withholdReward": false, "trial_id": "mdp_trial_16", "block": "test", "trialIndex": 17, "score": 33, "costs": 0, "simulationMode": [null, null, null, null, null], "rewards": [1, 3, 4, 1, 24], "path": ["0", "0", "12", "13", "14", "19", "21"], "rt": [324, 121, 753, 993, 379], "actions": ["right", "right", "right", "down", "down"], "actionTimes": [3419, 4211, 5510, 7039, 7968], "queries": {"click": {"state": {"target": [], "time": []}, "edge": {"target": [], "time": []}}, "mouseover": {"state": {"target": [], "time": []}, "edge": {"target": [], "time": []}}, "mouseout": {"state": {"target": ["13", "12", "0", "22"], "time": [651, 1099, 13416, 13851]}, "edge": {"target": [], "time": []}}}, "displayed_time": "17.10", "trialTime": 21221, "trial_type": "mouselab-mdp", "trial_index": 24, "time_elapsed": 1069529, "internal_node_id": "0.0-4.0-1.0-15.0"}}, {"uniqueid": "w60622137:a80695365", "current_trial": 25, "dateTime": 1691143332760, "trialdata": {"revealed_states": [], "clicked_states": [], "num_clicks_accrued": [0, 0, 0, 0, 0, 0, 0, 0, 0, 0, 0, 0, 0], "stateRewards": ["", -1, 3, 8, 9, -53, 20, -84, 2, -28, -62, -31, -1, -2, -7, 2, 51, 58, 45, -4, -17, -41, 36, 2, -2, -7, -15, 29, -54, -37, -16, -43, 65, -17], "withholdReward": false, "trial_id": "mdp_trial_17", "block": "test", "trialIndex": 18, "score": -59, "costs": 0, "simulationMode": [null, null, null, null, null], "rewards": [2, -2, -7, -15, -37], "path": ["0", "0", "23", "24", "25", "26", "29"], "rt": [3143, 157, 452, 1113, 617], "actions": ["left", "left", "left", "up", "left"], "actionTimes": [5238, 5940, 6922, 8580, 9743], "queries": {"click": {"state": {"target": [], "time": []}, "edge": {"target": [], "time": []}}, "mouseover": {"state": {"target": [], "time": []}, "edge": {"target": [], "time": []}}, "mouseout": {"state": {"target": ["0", "0", "12", "13", "14"], "time": [681, 13278, 13314, 13348, 13395]}, "edge": {"target": [], "time": []}}}, "displayed_time": "16.10", "trialTime": 19697, "trial_type": "mouselab-mdp", "trial_index": 25, "time_elapsed": 1091408, "internal_node_id": "0.0-4.0-1.0-16.0"}}, {"uniqueid": "w60622137:a80695365", "current_trial": 26, "dateTime": 1691143355295, "trialdata": {"revealed_states": [], "clicked_states": [], "num_clicks_accrued": [0, 0, 0, 0, 0, 0, 0, 0, 0, 0, 0, 0, 0], "stateRewards": ["", 2, 3, 6, -12, -29, 12, 87, 4, 35, -30, 67, 2, 3, -5, -9, 44, 69, -8, 1, 45, -8, 28, -2, -1, -8, 11, -12, -5, 81, 9, 87, 82, 88], "withholdReward": false, "trial_id": "mdp_trial_18", "block": "test", "trialIndex": 19, "score": -5, "costs": 0, "simulationMode": [null, null, null, null, null], "rewards": [-2, -1, -8, 11, -5], "path": ["0", "0", "23", "24", "25", "26", "28"], "rt": [1942, 244, 206, 830, 307], "actions": ["left", "left", "left", "up", "right"], "actionTimes": [5390, 6165, 6912, 8277, 9109], "queries": {"click": {"state": {"target": [], "time": []}, "edge": {"target": [], "time": []}}, "mouseover": {"state": {"target": [], "time": []}, "edge": {"target": [], "time": []}}, "mouseout": {"state": {"target": ["1"], "time": [1088]}, "edge": {"target": [], "time": []}}}, "displayed_time": "17.45", "trialTime": 20557, "trial_type": "mouselab-mdp", "trial_index": 26, "time_elapsed": 1113944, "internal_node_id": "0.0-4.0-1.0-17.0"}}, {"uniqueid": "w60622137:a80695365", "current_trial": 27, "dateTime": 1691143382785, "trialdata": {"revealed_states": [], "clicked_states": [], "num_clicks_accrued": [0, 0, 0, 0, 0, 0, 0, 0, 0, 0, 0, 0, 0], "stateRewards": ["", -2, 4, 3, 5, -61, 4, 30, 1, -47, 83, 10, 1, 4, 7, -14, 19, -74, -83, 6, -2, -2, -65, -1, -2, 4, -11, 12, -1, -68, 11, -38, -28, 66], "withholdReward": false, "trial_id": "mdp_trial_19", "block": "test", "trialIndex": 20, "score": 2, "costs": 0, "simulationMode": [null, null, null, null, null], "rewards": [-1, -2, 4, -11, 12], "path": ["0", "0", "23", "24", "25", "26", "27"], "rt": [942, 182, 204, 632, 1720], "actions": ["left", "left", "left", "up", "up"], "actionTimes": [6258, 6988, 7760, 8923, 11179], "queries": {"click": {"state": {"target": [], "time": []}, "edge": {"target": [], "time": []}}, "mouseover": {"state": {"target": [], "time": []}, "edge": {"target": [], "time": []}}, "mouseout": {"state": {"target": ["0", "0", "0"], "time": [736, 3493, 17610]}, "edge": {"target": [], "time": []}}}, "displayed_time": "19.32", "trialTime": 24788, "trial_type": "mouselab-mdp", "trial_index": 27, "time_elapsed": 1141433, "internal_node_id": "0.0-4.0-1.0-18.0"}}, {"uniqueid": "w60622137:a80695365", "current_trial": 28, "dateTime": 1691143406134, "trialdata": {"revealed_states": [], "clicked_states": [], "num_clicks_accrued": [0, 0, 0, 0, 0, 0, 0, 0, 0, 0, 0, 0, 0], "stateRewards": ["", -1, 1, 3, -8, -23, -15, -14, -11, -23, 58, 68, 1, 3, 5, 12, -17, -41, -7, -10, -4, 82, 10, 1, 4, -4, 11, 73, 55, -55, -1, -86, -86, 54], "withholdReward": false, "trial_id": "mdp_trial_20", "block": "test", "trialIndex": 21, "score": -43, "costs": 0, "simulationMode": [null, null, null, null, null], "rewards": [1, 4, -4, 11, -55], "path": ["0", "0", "23", "24", "25", "26", "29"], "rt": [1324, 7, 160, 832, 249], "actions": ["left", "left", "left", "up", "left"], "actionTimes": [3921, 4477, 5199, 6562, 7374], "queries": {"click": {"state": {"target": [], "time": []}, "edge": {"target": [], "time": []}}, "mouseover": {"state": {"target": [], "time": []}, "edge": {"target": [], "time": []}}, "mouseout": {"state": {"target": ["0"], "time": [1391]}, "edge": {"target": [], "time": []}}}, "displayed_time": "16.60", "trialTime": 20165, "trial_type": "mouselab-mdp", "trial_index": 28, "time_elapsed": 1164780, "internal_node_id": "0.0-4.0-1.0-19.0"}}, {"uniqueid": "w60622137:a80695365", "current_trial": 29, "dateTime": 1691143430189, "trialdata": {"revealed_states": [], "clicked_states": [], "num_clicks_accrued": [0, 0, 0, 0, 0, 0, 0, 0, 0, 0, 0, 0, 0], "stateRewards": ["", -1, 1, -1, 2, 19, 85, -18, 2, -3, -26, 36, 2, 4, 7, -9, -18, 70, 72, -5, 35, -20, -28, 1, -2, -4, -3, -59, -11, -63, -2, -72, 59, -69], "withholdReward": false, "trial_id": "mdp_trial_21", "block": "test", "trialIndex": 22, "score": 76, "costs": 0, "simulationMode": [null, null, null, null, null], "rewards": [2, 4, 7, -9, 72], "path": ["0", "0", "12", "13", "14", "15", "18"], "rt": [1740, 7, 279, 1130, 631], "actions": ["right", "right", "right", "up", "left"], "actionTimes": [7128, 7691, 8514, 10187, 11349], "queries": {"click": {"state": {"target": [], "time": []}, "edge": {"target": [], "time": []}}, "mouseover": {"state": {"target": [], "time": []}, "edge": {"target": [], "time": []}}, "mouseout": {"state": {"target": [], "time": []}, "edge": {"target": [], "time": []}}}, "displayed_time": "19.39", "trialTime": 22426, "trial_type": "mouselab-mdp", "trial_index": 29, "time_elapsed": 1188837, "internal_node_id": "0.0-4.0-1.0-20.0"}}, {"uniqueid": "w60622137:a80695365", "current_trial": 30, "dateTime": 1691143455391, "trialdata": {"revealed_states": [], "clicked_states": [], "num_clicks_accrued": [0, 0, 0, 0, 0, 0, 0, 0, 0, 0, 0, 0, 0], "stateRewards": ["", 1, 3, -2, 15, 51, 15, -19, 11, 67, -45, -73, 2, 4, -2, -13, 36, 9, -28, 10, -30, 31, 16, 1, 2, -1, -16, 14, -22, 36, -1, 88, -5, 45], "withholdReward": false, "trial_id": "mdp_trial_22", "block": "test", "trialIndex": 23, "score": 27, "costs": 0, "simulationMode": [null, null, null, null, null], "rewards": [2, 4, -2, -13, 36], "path": ["0", "0", "12", "13", "14", "15", "16"], "rt": [1695, 119, 1037, 740, 1284], "actions": ["right", "right", "right", "up", "up"], "actionTimes": [6055, 6724, 8357, 9642, 11456], "queries": {"click": {"state": {"target": [], "time": []}, "edge": {"target": [], "time": []}}, "mouseover": {"state": {"target": [], "time": []}, "edge": {"target": [], "time": []}}, "mouseout": {"state": {"target": ["0"], "time": [4407]}, "edge": {"target": [], "time": []}}}, "displayed_time": "18.36", "trialTime": 22520, "trial_type": "mouselab-mdp", "trial_index": 30, "time_elapsed": 1214039, "internal_node_id": "0.0-4.0-1.0-21.0"}}, {"uniqueid": "w60622137:a80695365", "current_trial": 31, "dateTime": 1691143481578, "trialdata": {"revealed_states": [], "clicked_states": [], "num_clicks_accrued": [0, 0, 0, 0, 0, 0, 0, 0, 0, 0, 0, 0, 0], "stateRewards": ["", -2, -4, 4, -11, -63, -60, -7, 2, -14, 81, -43, -1, -1, -5, 7, 10, 69, 40, 8, -83, 52, 60, 1, 2, 5, -5, 16, 64, 14, -3, 29, 7, -51], "withholdReward": false, "trial_id": "mdp_trial_23", "block": "test", "trialIndex": 24, "score": 69, "costs": 0, "simulationMode": [null, null, null, null, null], "rewards": [-1, -1, -5, 7, 69], "path": ["0", "0", "12", "13", "14", "15", "17"], "rt": [932, 351, 332, 671, 477], "actions": ["right", "right", "right", "up", "right"], "actionTimes": [4902, 5786, 6666, 7906, 8924], "queries": {"click": {"state": {"target": [], "time": []}, "edge": {"target": [], "time": []}}, "mouseover": {"state": {"target": [], "time": []}, "edge": {"target": [], "time": []}}, "mouseout": {"state": {"target": [], "time": []}, "edge": {"target": [], "time": []}}}, "displayed_time": "17.97", "trialTime": 23074, "trial_type": "mouselab-mdp", "trial_index": 31, "time_elapsed": 1240227, "internal_node_id": "0.0-4.0-1.0-22.0"}}, {"uniqueid": "w60622137:a80695365", "current_trial": 32, "dateTime": 1691143506789, "trialdata": {"revealed_states": [], "clicked_states": [], "num_clicks_accrued": [0, 0, 0, 0, 0, 0, 0, 0, 0, 0, 0, 0, 0], "stateRewards": ["", -1, 1, -6, -1, 80, 23, 2, -11, 73, -81, 59, 1, 3, 5, -1, -26, 28, -3, 16, -59, -13, -50, -2, -2, 2, 15, -50, 86, 17, -4, 37, 35, 44], "withholdReward": false, "trial_id": "mdp_trial_24", "block": "test", "trialIndex": 25, "score": -34, "costs": 0, "simulationMode": [null, null, null, null, null], "rewards": [1, 3, 5, 16, -59], "path": ["0", "0", "12", "13", "14", "19", "20"], "rt": [1567, 245, 578, 894, 1077], "actions": ["right", "right", "right", "down", "right"], "actionTimes": [6122, 6922, 8386, 9824, 11434], "queries": {"click": {"state": {"target": [], "time": []}, "edge": {"target": [], "time": []}}, "mouseover": {"state": {"target": [], "time": []}, "edge": {"target": [], "time": []}}, "mouseout": {"state": {"target": [], "time": []}, "edge": {"target": [], "time": []}}}, "displayed_time": "18.56", "trialTime": 22828, "trial_type": "mouselab-mdp", "trial_index": 32, "time_elapsed": 1265437, "internal_node_id": "0.0-4.0-1.0-23.0"}}, {"uniqueid": "w60622137:a80695365", "current_trial": 33, "dateTime": 1691143528644, "trialdata": {"revealed_states": [], "clicked_states": [], "num_clicks_accrued": [0, 0, 0, 0, 0, 0, 0, 0, 0, 0, 0, 0, 0], "stateRewards": ["", -2, -1, -4, -15, -14, -67, 32, -3, -59, 63, 31, 2, -1, -7, -15, 71, -66, -27, -3, -54, -39, 72, 2, 1, 1, -13, 77, -40, 35, -9, 35, 75, 57], "withholdReward": false, "trial_id": "mdp_trial_25", "block": "test", "trialIndex": 26, "score": 52, "costs": 0, "simulationMode": [null, null, null, null, null], "rewards": [2, 1, 1, -9, 57], "path": ["0", "0", "23", "24", "25", "30", "33"], "rt": [2387, 192, 420, 560, 3233], "actions": ["left", "left", "left", "down", "left"], "actionTimes": [4899, 5623, 6576, 7668, 11435], "queries": {"click": {"state": {"target": [], "time": []}, "edge": {"target": [], "time": []}}, "mouseover": {"state": {"target": [], "time": []}, "edge": {"target": [], "time": []}}, "mouseout": {"state": {"target": ["23"], "time": [251]}, "edge": {"target": [], "time": []}}}, "displayed_time": "16.51", "trialTime": 19865, "trial_type": "mouselab-mdp", "trial_index": 33, "time_elapsed": 1287292, "internal_node_id": "0.0-4.0-1.0-24.0"}}, {"uniqueid": "w60622137:a80695365", "current_trial": 34, "dateTime": 1691143552953, "trialdata": {"revealed_states": [], "clicked_states": [], "num_clicks_accrued": [0, 0, 0, 0, 0, 0, 0, 0, 0, 0, 0, 0, 0], "stateRewards": ["", -2, 3, -1, 2, -72, 63, 20, -1, 62, -66, 39, -2, 3, -6, 14, 22, 47, 1, 8, -49, -1, -41, 2, 2, -6, -16, -64, -60, -34, 16, 54, 22, -7], "withholdReward": false, "trial_id": "mdp_trial_26", "block": "test", "trialIndex": 27, "score": 36, "costs": 0, "simulationMode": [null, null, null, null, null], "rewards": [2, 2, -6, 16, 22], "path": ["0", "0", "23", "24", "25", "30", "32"], "rt": [1874, 55, 207, 621, 269], "actions": ["left", "left", "left", "down", "down"], "actionTimes": [6714, 7333, 8109, 9297, 10167], "queries": {"click": {"state": {"target": [], "time": []}, "edge": {"target": [], "time": []}}, "mouseover": {"state": {"target": [], "time": []}, "edge": {"target": [], "time": []}}, "mouseout": {"state": {"target": ["12", "0"], "time": [3121, 3172]}, "edge": {"target": [], "time": []}}}, "displayed_time": "18.84", "trialTime": 21582, "trial_type": "mouselab-mdp", "trial_index": 34, "time_elapsed": 1311601, "internal_node_id": "0.0-4.0-1.0-25.0"}}, {"uniqueid": "w60622137:a80695365", "current_trial": 35, "dateTime": 1691143579308, "trialdata": {"revealed_states": [], "clicked_states": [], "num_clicks_accrued": [0, 0, 0, 0, 0, 0, 0, 0, 0, 0, 0, 0, 0], "stateRewards": ["", 2, 2, 3, -15, 23, -14, 73, -7, -32, -20, -6, 1, 1, -5, -12, 73, 6, -84, 11, -81, -57, 13, -2, -1, -4, -8, -52, -58, 49, 13, 5, -41, -41], "withholdReward": false, "trial_id": "mdp_trial_27", "block": "test", "trialIndex": 28, "score": 11, "costs": 0, "simulationMode": [null, null, null, null, null], "rewards": [-2, -1, -4, 13, 5], "path": ["0", "0", "23", "24", "25", "30", "31"], "rt": [1854, 150, 220, 888, 1583], "actions": ["left", "left", "left", "down", "right"], "actionTimes": [8330, 9026, 9797, 11224, 13365], "queries": {"click": {"state": {"target": [], "time": []}, "edge": {"target": [], "time": []}}, "mouseover": {"state": {"target": ["0"], "time": [6664]}, "edge": {"target": [], "time": []}}, "mouseout": {"state": {"target": ["0", "0", "7", "0"], "time": [4942, 17663, 22831, 22898]}, "edge": {"target": [], "time": []}}}, "displayed_time": "20.48", "trialTime": 23457, "trial_type": "mouselab-mdp", "trial_index": 35, "time_elapsed": 1337956, "internal_node_id": "0.0-4.0-1.0-26.0"}}, {"uniqueid": "w60622137:a80695365", "current_trial": 36, "dateTime": 1691143601633, "trialdata": {"revealed_states": [], "clicked_states": [], "num_clicks_accrued": [0, 0, 0, 0, 0, 0, 0, 0, 0, 0, 0, 0, 0], "stateRewards": ["", 1, 2, -3, -5, 66, -50, -47, -5, 1, 28, -27, 1, 1, -1, -6, 37, -25, 56, 1, -82, -66, -40, -1, -4, -7, 15, -61, -23, 26, 10, 14, -56, 29], "withholdReward": false, "trial_id": "mdp_trial_28", "block": "test", "trialIndex": 29, "score": -55, "costs": 0, "simulationMode": [null, null, null, null, null], "rewards": [1, 2, -3, -5, -50], "path": ["0", "0", "1", "2", "3", "4", "6"], "rt": [1782, 370, 388, 799, 237], "actions": ["up", "up", "up", "right", "right"], "actionTimes": [3724, 4654, 5585, 6935, 7725], "queries": {"click": {"state": {"target": [], "time": []}, "edge": {"target": [], "time": []}}, "mouseover": {"state": {"target": [], "time": []}, "edge": {"target": [], "time": []}}, "mouseout": {"state": {"target": [], "time": []}, "edge": {"target": [], "time": []}}}, "displayed_time": "15.94", "trialTime": 18943, "trial_type": "mouselab-mdp", "trial_index": 36, "time_elapsed": 1360282, "internal_node_id": "0.0-4.0-1.0-27.0"}}, {"uniqueid": "w60622137:a80695365", "current_trial": 37, "dateTime": 1691143623906, "trialdata": {"revealed_states": [], "clicked_states": [], "num_clicks_accrued": [0, 0, 0, 0, 0, 0, 0, 0, 0, 0, 0, 0, 0], "stateRewards": ["", -1, 1, 8, -8, -49, 62, -78, 16, 28, -81, 78, -2, -3, -1, -4, 67, 49, -2, -13, -16, -39, 83, 1, -4, 4, -5, -20, 7, 84, 7, -32, -59, 19], "withholdReward": false, "trial_id": "mdp_trial_29", "block": "test", "trialIndex": 30, "score": 80, "costs": 0, "simulationMode": [null, null, null, null, null], "rewards": [1, -4, 4, -5, 84], "path": ["0", "0", "23", "24", "25", "26", "29"], "rt": [2153, 447, 316, 577, 523], "actions": ["left", "left", "left", "up", "left"], "actionTimes": [5146, 6138, 6991, 8105, 9167], "queries": {"click": {"state": {"target": [], "time": []}, "edge": {"target": [], "time": []}}, "mouseover": {"state": {"target": [], "time": []}, "edge": {"target": [], "time": []}}, "mouseout": {"state": {"target": ["28", "28"], "time": [null, 1090]}, "edge": {"target": [], "time": []}}}, "displayed_time": "16.99", "trialTime": 19715, "trial_type": "mouselab-mdp", "trial_index": 37, "time_elapsed": 1382554, "internal_node_id": "0.0-4.0-1.0-28.0"}}, {"uniqueid": "w60622137:a80695365", "current_trial": 38, "dateTime": 1691143655055, "trialdata": {"revealed_states": [], "clicked_states": [], "num_clicks_accrued": [0, 0, 0, 0, 0, 0, 0, 0, 0, 0, 0, 0, 0], "stateRewards": ["", 2, -3, 5, -14, -63, -9, -24, -11, -54, -43, 68, 2, -2, -4, 7, -64, 30, 47, 12, -74, 11, 86, 1, -3, 3, 10, -71, -42, -52, -1, -29, -16, 69], "withholdReward": false, "trial_id": "mdp_trial_30", "block": "test", "trialIndex": 31, "score": -60, "costs": 0, "simulationMode": [null, null, null, null, null], "rewards": [1, -3, 3, 10, -71], "path": ["0", "0", "23", "24", "25", "26", "27"], "rt": [2510, 248, 417, 804, 213], "actions": ["left", "left", "left", "up", "up"], "actionTimes": [12042, 12856, 13914, 15276, 16022], "queries": {"click": {"state": {"target": [], "time": []}, "edge": {"target": [], "time": []}}, "mouseover": {"state": {"target": [], "time": []}, "edge": {"target": [], "time": []}}, "mouseout": {"state": {"target": ["0"], "time": [1869]}, "edge": {"target": [], "time": []}}}, "displayed_time": "23.53", "trialTime": 28241, "trial_type": "mouselab-mdp", "trial_index": 38, "time_elapsed": 1413703, "internal_node_id": "0.0-4.0-1.0-29.0"}}, {"uniqueid": "w60622137:a80695365", "current_trial": 39, "dateTime": 1691143685744, "trialdata": {"revealed_states": [], "clicked_states": [], "num_clicks_accrued": [0, 0, 0, 0, 0, 0, 0, 0, 0, 0, 0, 0, 0], "stateRewards": ["", 1, 2, 2, -15, -84, 28, -26, 13, 31, 86, 30, -2, 1, -1, -8, 66, -40, -1, -10, -32, 57, -17, 1, 2, -2, 9, -23, 77, 85, 12, -32, -62, -35], "withholdReward": false, "trial_id": "mdp_trial_31", "block": "test", "trialIndex": 32, "score": 95, "costs": 0, "simulationMode": [null, null, null, null, null], "rewards": [1, 2, -2, 9, 85], "path": ["0", "0", "23", "24", "25", "26", "29"], "rt": [1958, 157, 296, 889, 1906], "actions": ["left", "left", "left", "up", "left"], "actionTimes": [11058, 11767, 12636, 14133, 16620], "queries": {"click": {"state": {"target": [], "time": []}, "edge": {"target": [], "time": []}}, "mouseover": {"state": {"target": [], "time": []}, "edge": {"target": [], "time": []}}, "mouseout": {"state": {"target": ["0", "1"], "time": [6523, 7161]}, "edge": {"target": [], "time": []}}}, "displayed_time": "23.10", "trialTime": 27418, "trial_type": "mouselab-mdp", "trial_index": 39, "time_elapsed": 1444392, "internal_node_id": "0.0-4.0-1.0-30.0"}}, {"uniqueid": "w60622137:a80695365", "current_trial": 40, "dateTime": 1691143718430, "trialdata": {"revealed_states": [], "clicked_states": [], "num_clicks_accrued": [0, 0, 0, 0, 0, 0, 0, 0, 0, 0, 0, 0, 0], "stateRewards": ["", -2, -1, 3, -3, 71, -58, -21, 7, -10, -75, -37, 2, 4, -1, -12, -79, -29, -48, 3, -41, -10, -30, -1, -2, 1, -15, 13, 66, 22, -1, -42, -86, -55], "withholdReward": false, "trial_id": "mdp_trial_32", "block": "test", "trialIndex": 33, "score": 49, "costs": 0, "simulationMode": [null, null, null, null, null], "rewards": [-1, -2, 1, -15, 66], "path": ["0", "0", "23", "24", "25", "26", "28"], "rt": [3934, 56, 374, 1213, 994], "actions": ["left", "left", "left", "up", "right"], "actionTimes": [16855, 17442, 18357, 20105, 21643], "queries": {"click": {"state": {"target": [], "time": []}, "edge": {"target": [], "time": []}}, "mouseover": {"state": {"target": [], "time": []}, "edge": {"target": [], "time": []}}, "mouseout": {"state": {"target": ["0"], "time": [15978]}, "edge": {"target": [], "time": []}}}, "displayed_time": "26.92", "trialTime": 30254, "trial_type": "mouselab-mdp", "trial_index": 40, "time_elapsed": 1477078, "internal_node_id": "0.0-4.0-1.0-31.0"}}, {"uniqueid": "w60622137:a80695365", "current_trial": 41, "dateTime": 1691143753526, "trialdata": {"revealed_states": [], "clicked_states": [], "num_clicks_accrued": [0, 0, 0, 0, 0, 0, 0, 0, 0, 0, 0, 0, 0], "stateRewards": ["", 2, 4, 7, -6, -76, -81, 2, 5, -66, -3, 36, -2, -4, 6, -2, -69, 4, -49, -6, 67, 38, -67, 2, 1, 1, 6, -68, -21, 52, -16, -16, 6, -70], "withholdReward": false, "trial_id": "mdp_trial_33", "block": "test", "trialIndex": 34, "score": -11, "costs": 0, "simulationMode": [null, null, null, null, null], "rewards": [2, 1, 1, 6, -21], "path": ["0", "0", "23", "24", "25", "26", "28"], "rt": [3912, 1208, 405, 921, 979], "actions": ["left", "left", "left", "up", "right"], "actionTimes": [16196, 17962, 18912, 20379, 22267], "queries": {"click": {"state": {"target": [], "time": []}, "edge": {"target": [], "time": []}}, "mouseover": {"state": {"target": ["0"], "time": [12646]}, "edge": {"target": [], "time": []}}, "mouseout": {"state": {"target": ["0", "0"], "time": [10120, 12337]}, "edge": {"target": [], "time": []}}}, "displayed_time": "26.28", "trialTime": 32488, "trial_type": "mouselab-mdp", "trial_index": 41, "time_elapsed": 1512175, "internal_node_id": "0.0-4.0-1.0-32.0"}}, {"uniqueid": "w60622137:a80695365", "current_trial": 42, "dateTime": 1691143777899, "trialdata": {"revealed_states": [], "clicked_states": [], "num_clicks_accrued": [0, 0, 0, 0, 0, 0, 0, 0, 0, 0, 0, 0, 0], "stateRewards": ["", 2, 3, -3, 4, 72, -28, 34, -12, 57, -64, -15, 2, 1, -4, -15, 2, 49, 31, -1, -42, -58, 31, -2, 1, -2, -13, -75, -19, -22, -6, 61, 10, -56], "withholdReward": false, "trial_id": "mdp_trial_34", "block": "test", "trialIndex": 35, "score": 15, "costs": 0, "simulationMode": [null, null, null, null, null], "rewards": [2, 1, -4, -15, 31], "path": ["0", "0", "12", "13", "14", "15", "18"], "rt": [3273, 163, 508, 869, 1081], "actions": ["right", "right", "right", "up", "left"], "actionTimes": [7330, 8047, 9097, 10506, 12149], "queries": {"click": {"state": {"target": [], "time": []}, "edge": {"target": [], "time": []}}, "mouseover": {"state": {"target": [], "time": []}, "edge": {"target": [], "time": []}}, "mouseout": {"state": {"target": ["0"], "time": [1575]}, "edge": {"target": [], "time": []}}}, "displayed_time": "18.05", "trialTime": 21934, "trial_type": "mouselab-mdp", "trial_index": 42, "time_elapsed": 1536547, "internal_node_id": "0.0-4.0-1.0-33.0"}}, {"uniqueid": "w60622137:a80695365", "current_trial": 43, "dateTime": 1691143807377, "trialdata": {"revealed_states": [], "clicked_states": [], "num_clicks_accrued": [0, 0, 0, 0, 0, 0, 0, 0, 0, 0, 0, 0, 0], "stateRewards": ["", 1, 2, -8, 9, 18, -83, -11, 6, -64, -48, 17, -2, -2, -5, -3, -24, -3, -86, -2, 48, -41, -22, -2, 4, 7, 8, 81, 13, -48, 10, 61, 19, 57], "withholdReward": false, "trial_id": "mdp_trial_35", "block": "test", "trialIndex": 36, "score": -15, "costs": 0, "simulationMode": [null, null, null, null, null], "rewards": [-2, -2, -5, -3, -3], "path": ["0", "0", "12", "13", "14", "15", "17"], "rt": [5115, 282, 456, 871, 587], "actions": ["right", "right", "right", "up", "right"], "actionTimes": [11522, 12337, 13419, 14907, 16127], "queries": {"click": {"state": {"target": [], "time": []}, "edge": {"target": [], "time": []}}, "mouseover": {"state": {"target": [], "time": []}, "edge": {"target": [], "time": []}}, "mouseout": {"state": {"target": ["0"], "time": [4906]}, "edge": {"target": [], "time": []}}}, "displayed_time": "20.41", "trialTime": 27380, "trial_type": "mouselab-mdp", "trial_index": 43, "time_elapsed": 1566025, "internal_node_id": "0.0-4.0-1.0-34.0"}}, {"uniqueid": "w60622137:a80695365", "current_trial": 44, "dateTime": 1691143832716, "trialdata": {"revealed_states": [], "clicked_states": [], "num_clicks_accrued": [0, 0, 0, 0, 0, 0, 0, 0, 0, 0, 0, 0, 0], "stateRewards": ["", 1, -1, -7, -7, -22, 15, -13, 13, 26, -32, 38, -1, 1, -7, -4, 16, -62, 86, 12, -54, 56, 64, -2, -1, 6, 14, -57, 37, 62, -6, -25, 50, -70], "withholdReward": false, "trial_id": "mdp_trial_36", "block": "test", "trialIndex": 37, "score": 79, "costs": 0, "simulationMode": [null, null, null, null, null], "rewards": [-2, -1, 6, 14, 62], "path": ["0", "0", "23", "24", "25", "26", "29"], "rt": [1919, 1071, 328, 973, 1095], "actions": ["left", "left", "left", "up", "left"], "actionTimes": [7867, 9559, 10441, 11972, 13686], "queries": {"click": {"state": {"target": [], "time": []}, "edge": {"target": [], "time": []}}, "mouseover": {"state": {"target": [], "time": []}, "edge": {"target": [], "time": []}}, "mouseout": {"state": {"target": ["0", "0"], "time": [3904, 6079]}, "edge": {"target": [], "time": []}}}, "displayed_time": "19.95", "trialTime": 23975, "trial_type": "mouselab-mdp", "trial_index": 44, "time_elapsed": 1591364, "internal_node_id": "0.0-4.0-1.0-35.0"}}, {"uniqueid": "w60622137:a80695365", "current_trial": 45, "dateTime": 1691143865877, "trialdata": {"revealed_states": [], "clicked_states": [], "num_clicks_accrued": [0, 0, 0, 0, 0, 0, 0, 0, 0, 0, 0, 0, 0], "stateRewards": ["", 2, 1, -3, 7, 46, 11, -36, 16, 71, 5, 1, 2, -2, -8, -3, -4, 6, 55, 7, 68, -54, 2, 1, 1, 6, -6, 42, -4, -84, -11, -65, 63, 25], "withholdReward": false, "trial_id": "mdp_trial_37", "block": "test", "trialIndex": 38, "score": -2, "costs": 0, "simulationMode": [null, null, null, null, null], "rewards": [1, 1, 6, -6, -4], "path": ["0", "0", "23", "24", "25", "26", "28"], "rt": [1513, 121, 389, 772, 424], "actions": ["left", "left", "left", "up", "right"], "actionTimes": [9453, 10103, 11021, 12363, 13337], "queries": {"click": {"state": {"target": [], "time": []}, "edge": {"target": [], "time": []}}, "mouseover": {"state": {"target": [], "time": []}, "edge": {"target": [], "time": []}}, "mouseout": {"state": {"target": ["0", "0", "0"], "time": [1230, 8024, 29469]}, "edge": {"target": [], "time": []}}}, "displayed_time": "21.94", "trialTime": 30108, "trial_type": "mouselab-mdp", "trial_index": 45, "time_elapsed": 1624525, "internal_node_id": "0.0-4.0-1.0-36.0"}}, {"uniqueid": "w60622137:a80695365", "current_trial": 46, "dateTime": 1691143888272, "trialdata": {"revealed_states": [], "clicked_states": [], "num_clicks_accrued": [0, 0, 0, 0, 0, 0, 0, 0, 0, 0, 0, 0, 0], "stateRewards": ["", 1, 2, -5, 14, 54, -14, -25, 16, -5, -87, 78, -1, 1, 3, -3, 52, 53, 53, -10, 73, -69, -48, 2, 3, 1, 8, -62, -7, 85, 7, 82, 52, -28], "withholdReward": false, "trial_id": "mdp_trial_38", "block": "test", "trialIndex": 39, "score": 92, "costs": 0, "simulationMode": [null, null, null, null, null], "rewards": [1, 2, -5, 16, 78], "path": ["0", "0", "1", "2", "3", "8", "11"], "rt": [786, 290, 266, 532, 486], "actions": ["up", "up", "up", "left", "left"], "actionTimes": [3346, 4181, 4987, 6072, 7100], "queries": {"click": {"state": {"target": [], "time": []}, "edge": {"target": [], "time": []}}, "mouseover": {"state": {"target": [], "time": []}, "edge": {"target": [], "time": []}}, "mouseout": {"state": {"target": ["0", "0", "5", "4", "7"], "time": [1259, 16359, 18237, 19370, 19420]}, "edge": {"target": [], "time": []}}}, "displayed_time": "16.56", "trialTime": 20217, "trial_type": "mouselab-mdp", "trial_index": 46, "time_elapsed": 1646920, "internal_node_id": "0.0-4.0-1.0-37.0"}}, {"uniqueid": "w60622137:a80695365", "current_trial": 47, "dateTime": 1691143911490, "trialdata": {"revealed_states": [], "clicked_states": [], "num_clicks_accrued": [0, 0, 0, 0, 0, 0, 0, 0, 0, 0, 0, 0, 0], "stateRewards": ["", 1, 4, -8, -5, -15, -7, 21, 13, -30, 40, -65, 1, 1, 5, -14, 35, 27, -38, -11, 36, -58, -47, -2, 4, -3, 13, -16, -49, 22, 15, -56, -44, -10], "withholdReward": false, "trial_id": "mdp_trial_39", "block": "test", "trialIndex": 40, "score": -20, "costs": 0, "simulationMode": [null, null, null, null, null], "rewards": [1, 4, -8, 13, -30], "path": ["0", "0", "1", "2", "3", "8", "9"], "rt": [1985, 460, 475, 829, 606], "actions": ["up", "up", "up", "left", "up"], "actionTimes": [5764, 7019, 8056, 9443, 10593], "queries": {"click": {"state": {"target": [], "time": []}, "edge": {"target": [], "time": []}}, "mouseover": {"state": {"target": [], "time": []}, "edge": {"target": [], "time": []}}, "mouseout": {"state": {"target": ["1"], "time": [1684]}, "edge": {"target": [], "time": []}}}, "displayed_time": "17.78", "trialTime": 20876, "trial_type": "mouselab-mdp", "trial_index": 47, "time_elapsed": 1670138, "internal_node_id": "0.0-4.0-1.0-38.0"}}, {"uniqueid": "w60622137:a80695365", "current_trial": 48, "dateTime": 1691143942128, "trialdata": {"revealed_states": [], "clicked_states": [], "num_clicks_accrued": [0, 0, 0, 0, 0, 0, 0, 0, 0, 0, 0, 0, 0], "stateRewards": ["", 1, 2, 8, -2, 23, -69, -18, -16, 54, -21, 71, -1, -4, 7, 11, 43, -6, 88, 6, -55, 72, 43, 1, -3, -2, -1, 68, -31, -54, 4, -8, 25, -2], "withholdReward": false, "trial_id": "mdp_trial_40", "block": "test", "trialIndex": 41, "score": -59, "costs": 0, "simulationMode": [null, null, null, null, null], "rewards": [1, -3, -2, -1, -54], "path": ["0", "0", "23", "24", "25", "26", "29"], "rt": [1990, 179, 230, 1036, 374], "actions": ["left", "left", "left", "up", "left"], "actionTimes": [10951, 11682, 12462, 14050, 14976], "queries": {"click": {"state": {"target": [], "time": []}, "edge": {"target": [], "time": []}}, "mouseover": {"state": {"target": [], "time": []}, "edge": {"target": [], "time": []}}, "mouseout": {"state": {"target": ["0", "0"], "time": [6439, 25567]}, "edge": {"target": [], "time": []}}}, "displayed_time": "22.96", "trialTime": 27960, "trial_type": "mouselab-mdp", "trial_index": 48, "time_elapsed": 1700776, "internal_node_id": "0.0-4.0-1.0-39.0"}}, {"uniqueid": "w60622137:a80695365", "current_trial": 49, "dateTime": 1691144035843, "trialdata": {"rt": 93613, "response": {"Q0": "$-16 to 16", "Q1": "$-4 to $4", "Q2": "$-88 to $88", "Q3": "There was no cost for clicking on nodes.", "Q4": "Very motivated"}, "question_order": [0, 1, 2, 3, 4], "trial_id": "final_quiz_control", "trial_type": "survey-multi-choice", "trial_index": 49, "time_elapsed": 1794492, "internal_node_id": "0.0-4.0-2.0"}}, {"uniqueid": "w60622137:a80695365", "current_trial": 50, "dateTime": 1691144187420, "trialdata": {"rt": 151184, "response": {"Q0": "I was mainly going for the outer nodes", "Q1": "I think so, once i got money in one area i did a few more there before moving on", "Q2": "Not difficult, it was just luck"}, "trial_id": "self_report_control", "trial_type": "survey-text", "trial_index": 50, "time_elapsed": 1946068, "internal_node_id": "0.0-4.0-3.0"}}, {"uniqueid": "w60622137:a80695365", "current_trial": 51, "dateTime": 1691144301155, "trialdata": {"rt": 113722, "response": {"Q0": "Neither disagree nor agree", "Q1": "Neither disagree nor agree", "Q2": "Neither disagree nor agree", "Q3": "Neither disagree nor agree", "Q4": "Neither disagree nor agree", "Q5": "Neither disagree nor agree", "Q6": "Neither disagree nor agree"}, "question_order": [0, 1, 2, 3, 4, 5, 6], "trial_id": "self_report_2", "trial_type": "survey-multi-choice", "trial_index": 51, "time_elapsed": 2059803, "internal_node_id": "0.0-4.0-4.0"}}, {"uniqueid": "w60622137:a80695365", "current_trial": 52, "dateTime": 1691144350468, "trialdata": {"rt": 49291, "response": {"gender": "female", "age": "60", "colorblind": "0", "effort": "0"}, "trial_type": "survey-html-form", "trial_index": 52, "time_elapsed": 2109115, "internal_node_id": "0.0-4.0-5.0"}}, {"uniqueid": "w60622137:a80695365", "current_trial": 53, "dateTime": 1691144373078, "trialdata": {"rt": 22597, "response": {"Q0": "", "Q1": "no", "Q2": ""}, "trial_type": "survey-text", "trial_index": 53, "time_elapsed": 2131725, "internal_node_id": "0.0-4.0-6.0"}}, {"uniqueid": "w60622137:a80695365", "current_trial": 54, "dateTime": 1691144375251, "trialdata": {"rt": 2159, "stimulus": "Press 'Finish HIT' in order to reach the completion code. Once the data has been saved, you will receive the code either in this window or in the original browser window where you started the experiment.\n", "response": 0, "trial_type": "html-button-response", "trial_index": 54, "time_elapsed": 2133899, "internal_node_id": "0.0-5.0"}}, {"uniqueid": "w60622137:a80695365", "current_trial": 55, "dateTime": 1691144376263, "trialdata": {"success": true, "trial_type": "fullscreen", "trial_index": 55, "time_elapsed": 2134911, "internal_node_id": "0.0-6.0"}}], "questiondata": {"params": {"CODE": "C6DMOQA6", "MIN_TIME": 14, "inspectCost": 1, "startTime": "Fri Aug 04 2023 10:44:00 GMT+0100 (British Summer Time)", "bonusRate": 0.002, "variance": "1_2_4_8_44", "branching": "31123"}, "final_score": 397}, "eventdata": [{"eventtype": "initialized", "value": null, "timestamp": 1691142239775, "interval": 0}, {"eventtype": "window_resize", "value": [1024, 658], "timestamp": 1691142239775, "interval": 0}, {"eventtype": "window_resize", "value": [1024, 658], "timestamp": 1691142240136, "interval": 361}, {"eventtype": "window_resize", "value": [1366, 768], "timestamp": 1691142248740, "interval": 8604}], "useragent": "Mozilla/5.0 (Windows NT 10.0; Win64; x64) AppleWebKit/537.36 (KHTML, like Gecko) Chrome/115.0.0.0 Safari/537.36 Edg/115.0.1901.188", "mode": "live", "id": "w60622137:a80695365", "status": "user data saved", "Beginhit": "2023-08-04 09:43:35.697559", "Beginexp": "2023-08-04 09:43:48.083894", "Endhit": "2023-08-04 10:19:16.864083", "psiturkStatus": 3, "browser": "<redacted>", "platform": "windows", "language": "en-GB"}