{"condition": 1, "counterbalance": 0, "assignmentId": "a85263904", "workerId": "w51722018", "hitId": "h14721683", "currenttrial": 56, "bonus": 0, "data": [{"uniqueid": "w51722018:a85263904", "current_trial": 0, "dateTime": 1693480724426, "trialdata": {"success": true, "trial_type": "fullscreen", "trial_index": 0, "time_elapsed": 42146, "internal_node_id": "0.0-0.0"}}, {"uniqueid": "w51722018:a85263904", "current_trial": 1, "dateTime": 1693480726335, "trialdata": {"view_history": [{"page_index": 0, "viewing_time": 1900}], "rt": 1901, "trial_id": "exp_instructions_misaligned", "trial_type": "instructions", "trial_index": 1, "time_elapsed": 44056, "internal_node_id": "0.0-1.0"}}, {"uniqueid": "w51722018:a85263904", "current_trial": 2, "dateTime": 1693480873735, "trialdata": {"view_history": [{"page_index": 0, "viewing_time": 43334}, {"page_index": 1, "viewing_time": 66488}, {"page_index": 2, "viewing_time": 13360}, {"page_index": 3, "viewing_time": 24216}], "rt": 147398, "trial_id": "mouselab_instructions_1_misaligned", "trial_type": "instructions", "trial_index": 2, "time_elapsed": 191456, "internal_node_id": "0.0-2.0-1.0"}}, {"uniqueid": "w51722018:a85263904", "current_trial": 3, "dateTime": 1693480928600, "trialdata": {"revealed_states": [], "clicked_states": ["1", "12", "13", "14", "23", "19", "21", "22", "20", "24", "30", "31", "32", "25", "33", "28", "29", "26", "2", "10", "8", "3"], "num_clicks_accrued": [0, 0, 0, 0, 0, 0, 0, 0, 0, 0, 0, 0, 0], "stateRewards": ["", -10, -10, -10, -10, -10, -10, -10, -10, -10, 10, 10, 10, 10, 10, 10, -10, -10, -10, -10, 10, 10, -10, 10, 10, 10, -10, -10, 10, 10, 10, 10, 10, -10], "withholdReward": false, "trial_id": "practice_1", "block": "test", "trialIndex": 0, "score": 42.5, "costs": -11, "simulationMode": [null, null, null, null, null], "rewards": [10, 10, 10, 10, 10], "path": ["0", "0", "23", "24", "25", "30", "32"], "rt": [43760, 309, 108, 79, 73], "actions": ["left", "left", "left", "down", "down"], "actionTimes": [48661, 49482, 50082, 50654, 51232], "queries": {"click": {"state": {"target": ["1", "12", "13", "14", "23", "19", "21", "22", "20", "24", "30", "31", "32", "25", "33", "28", "29", "26", "2", "10", "8", "3"], "time": [9510, 11813, 13827, 15035, 16112, 18368, 19673, 20852, 22164, 23866, 25419, 26690, 28258, 29713, 30981, 37690, 39595, 40959, 42747, 43993, 45306, 46514]}, "edge": {"target": [], "time": []}}, "mouseover": {"state": {"target": ["12", "13", "14", "13", "12", "1", "12", "13", "14", "23", "24", "0", "22", "22", "19", "19", "22", "21", "20", "22", "20", "13", "12", "23", "24", "25", "30", "25", "31", "32", "25", "33", "24", "23", "23", "24", "23", "1", "28", "28", "23", "28", "26", "29", "26", "27", "10", "2", "2", "10", "8", "3", "2", "23"], "time": [6083, 6381, 7176, 7400, 7706, 8187, 10656, 12227, 14295, 15513, 16634, 17252, 17555, 17830, 17870, 18203, 18869, 19457, 19938, 20505, 21193, 22910, 22993, 23277, 23677, 24162, 25265, 25799, 26316, 27184, 29054, 30606, 31459, 31480, 32131, 32559, 33796, 35849, 36504, 36617, 36949, 37486, 38038, 39375, 40489, 41224, 42277, 42302, 42479, 43176, 44548, 46132, 47518, 47805]}, "edge": {"target": [], "time": []}}, "mouseout": {"state": {"target": ["12", "0", "1", "12", "13", "14", "13", "12", "1", "12", "12", "12", "13", "14", "13", "12", "23", "24", "23", "0", "22", "22", "19", "19", "22", "19", "21", "20", "19", "22", "19", "20", "13", "12", "23", "24", "25", "30", "25", "31", "32", "30", "25", "33", "24", "23", "23", "24", "23", "1", "28", "28", "23", "28", "26", "29", "26", "27", "10", "2", "2", "10", "8", "3", "2", "23"], "time": [null, 2226, 3863, 6332, 6736, 7369, 7434, 8120, 10456, 11871, 11908, 12042, 14111, 15280, 15430, 15463, 16433, 17217, 17250, 17267, 17686, 17841, 17935, 18636, 19171, 19204, 19804, 20456, 20472, 21125, 21176, 22626, 22960, 23126, 23644, 24061, 25030, 25510, 26216, 26971, 28352, 28686, 30340, 31374, 31476, 31507, 32459, 33679, 35502, 36450, 36522, 36668, 37255, 37919, 38538, 39892, 41107, 42231, 42297, 42325, 43131, 44429, 45631, 47484, 47535, 48057]}, "edge": {"target": [], "time": []}}}, "displayed_time": "51.73", "trialTime": 54457, "trial_type": "mouselab-mdp", "trial_index": 3, "time_elapsed": 246320, "internal_node_id": "0.0-2.0-2.0-0.0"}}, {"uniqueid": "w51722018:a85263904", "current_trial": 4, "dateTime": 1693480950076, "trialdata": {"revealed_states": [], "clicked_states": ["12", "13", "14", "19", "22", "21", "20"], "num_clicks_accrued": [0, 0, 0, 0, 0, 0, 0, 0, 0, 0, 0, 0, 0], "stateRewards": ["", -10, -10, -10, 10, -10, 10, -10, -10, -10, 10, 10, 10, 10, -10, 10, -10, 10, -10, 10, -10, 10, 10, -10, -10, -10, -10, 10, -10, 10, 10, -10, 10, 10], "withholdReward": false, "trial_id": "practice_2", "block": "test", "trialIndex": 1, "score": 30, "costs": -3.5, "simulationMode": [null, null, null, null, null], "rewards": [10, 10, -10, 10, 10], "path": ["0", "0", "12", "13", "14", "19", "21"], "rt": [12590, 490, 49, 27, 60], "actions": ["right", "right", "right", "down", "down"], "actionTimes": [16123, 17121, 17667, 18192, 18742], "queries": {"click": {"state": {"target": ["12", "13", "14", "19", "22", "21", "20"], "time": [4836, 6347, 8488, 9811, 11168, 12586, 13634]}, "edge": {"target": [], "time": []}}, "mouseover": {"state": {"target": ["12", "13", "14", "19", "21", "22", "21", "20"], "time": [4380, 5544, 6678, 9283, 10173, 10918, 11457, 13176]}, "edge": {"target": [], "time": []}}, "mouseout": {"state": {"target": ["22", "22", "12", "0", "12", "13", "14", "19", "21", "22", "21"], "time": [1837, 2588, 2873, 3174, 5248, 6628, 9199, 10100, 10653, 11369, 12893]}, "edge": {"target": [], "time": []}}}, "displayed_time": "19.25", "trialTime": 21222, "trial_type": "mouselab-mdp", "trial_index": 4, "time_elapsed": 267795, "internal_node_id": "0.0-2.0-2.0-1.0"}}, {"uniqueid": "w51722018:a85263904", "current_trial": 5, "dateTime": 1693481023935, "trialdata": {"view_history": [{"page_index": 0, "viewing_time": 66972}, {"page_index": 1, "viewing_time": 6880}], "rt": 73852, "trial_id": "mouselab_instructions_2_misaligned", "trial_type": "instructions", "trial_index": 5, "time_elapsed": 341656, "internal_node_id": "0.0-2.0-3.0"}}, {"uniqueid": "w51722018:a85263904", "current_trial": 6, "dateTime": 1693481054968, "trialdata": {"rt": 31028, "response": {"Q0": "The cost for clicking on nodes may vary between nodes.", "Q1": "The better I perform the higher my bonus will be.", "Q2": "No, the amount of cash at each node of the web may be different each time.", "Q3": "To get the highest total score.", "Q4": "Only before moving the spider.", "Q5": "3 seconds"}, "question_order": [0, 1, 2, 3, 4, 5], "correct": {"Q0": "The cost for clicking on nodes may vary between nodes.", "Q1": "The better I perform the higher my bonus will be.", "Q2": "No, the amount of cash at each node of the web may be different each time.", "Q3": "To get the highest total score.", "Q4": "Only before moving the spider.", "Q5": "3 seconds"}, "trial_id": "mouselab_quiz_misaligned", "trial_type": "survey-multi-choice", "trial_index": 6, "time_elapsed": 372689, "internal_node_id": "0.0-2.0-4.0"}}, {"uniqueid": "w51722018:a85263904", "current_trial": 7, "dateTime": 1693481059703, "trialdata": {"rt": 4726, "response": {"Q0": "No"}, "question_order": [0], "trial_id": "repeat_check", "trial_type": "survey-multi-choice", "trial_index": 7, "time_elapsed": 377424, "internal_node_id": "0.0-4.0-0.0"}}, {"uniqueid": "w51722018:a85263904", "current_trial": 8, "dateTime": 1693481061749, "trialdata": {"rt": 2038, "stimulus": "\n<h1> Get ready to start the game! </h1>\n\nThank you for reading the instructions. Get ready start with the 40 rounds of this game.\n<br><br>\nIf you need to take a break, feel free to take one after the end of a round, before continuing to the next one.\n<br><br>\nRemember, the more money the spider gets, the bigger your bonus will be!\n<br><br>\n<div style='text-align: center;'>Press <code>space</code> to begin.</div>\n\n<br><br>\n(If, at any point, the <code>space</code> key does not take you to the next page, click once on the text and try again.)", "response": " ", "trial_id": "mdp_ready", "trial_type": "html-keyboard-response", "trial_index": 8, "time_elapsed": 379470, "internal_node_id": "0.0-6.0-0.0"}}, {"uniqueid": "w51722018:a85263904", "current_trial": 9, "dateTime": 1693481080252, "trialdata": {"revealed_states": [], "clicked_states": [], "num_clicks_accrued": [0, 0, 0, 0, 0, 0, 0, 0, 0, 0, 0, 0, 0], "stateRewards": ["", -2, -4, 2, 10, -17, 18, 73, 11, -32, 23, -13, -2, -4, 7, 12, -25, 66, -23, 15, 40, -76, -9, 1, 2, -7, -5, -20, 24, 3, -5, 16, -73, 70], "withholdReward": false, "trial_id": "mdp_trial_1", "block": "test", "trialIndex": 2, "score": -11, "costs": 0, "simulationMode": [null, null, null, null, null], "rewards": [-2, -4, 2, 10, -17], "path": ["0", "0", "1", "2", "3", "4", "5"], "rt": [9359, 61, 50, 1, 306], "actions": ["up", "up", "up", "right", "up"], "actionTimes": [11349, 11918, 12471, 12975, 13796], "queries": {"click": {"state": {"target": [], "time": []}, "edge": {"target": [], "time": []}}, "mouseover": {"state": {"target": ["1", "18", "12"], "time": [6795, 8297, 8768]}, "edge": {"target": [], "time": []}}, "mouseout": {"state": {"target": ["0", "0", "1", "18", "12", "12"], "time": [986, 6064, 8151, 8702, 15479, 17343]}, "edge": {"target": [], "time": []}}}, "displayed_time": "15.99", "trialTime": 18223, "trial_type": "mouselab-mdp", "trial_index": 9, "time_elapsed": 397971, "internal_node_id": "0.0-6.0-1.0-0.0"}}, {"uniqueid": "w51722018:a85263904", "current_trial": 10, "dateTime": 1693481105674, "trialdata": {"revealed_states": [], "clicked_states": ["12", "13", "14", "19", "21", "24", "25", "23", "31", "33", "30", "32"], "num_clicks_accrued": [0, 0, 0, 0, 0, 0, 0, 0, 0, 0, 0, 0, 0], "stateRewards": ["", -2, -2, -3, -6, -15, -11, 41, -12, -63, -76, 2, -2, -3, 8, 9, -36, -2, -18, -16, -32, -85, -17, -2, 1, 5, -16, 82, 35, -88, -1, 80, -82, -20], "withholdReward": false, "trial_id": "mdp_trial_2", "block": "test", "trialIndex": 3, "score": 69.2, "costs": -13.8, "simulationMode": [null, null, null, null, null, null, null], "rewards": [-2, 1, 5, -1, 80], "path": ["0", "0", "23", "24", "25", "30", "31"], "rt": [10079, 2945, 6303, 196, 68, 128, 117], "actions": ["left", "left", "left", "left", "left", "down", "right"], "actionTimes": [11262, 14211, 20517, 21214, 21786, 22414, 23038], "queries": {"click": {"state": {"target": ["12", "13", "14", "19", "21", "24", "25", "23", "31", "33", "30", "32"], "time": [1602, 2258, 3070, 3609, 4078, 7595, 8451, 9164, 9707, 12073, 12514, 13312]}, "edge": {"target": [], "time": []}}, "mouseover": {"state": {"target": ["12", "13", "14", "19", "21", "22", "12", "0", "23", "24", "23", "24", "25", "23", "31", "30", "30", "33", "30", "32", "31", "0", "0", "1", "0", "24", "31"], "time": [1194, 1950, 2434, 3286, 3914, 4338, 4704, 4739, 4792, 5339, 5640, 6174, 8315, 9030, 9413, 9997, 10748, 11949, 12367, 13085, 15740, 16374, 17749, 17932, 18446, 19017, 19367]}, "edge": {"target": [], "time": []}}, "mouseout": {"state": {"target": ["12", "0", "12", "13", "14", "19", "21", "22", "12", "0", "23", "24", "23", "24", "25", "24", "23", "31", "31", "30", "30", "33", "30", "32", "31", "0", "0", "1", "0", "24", "31"], "time": [396, 1192, 1817, 2400, 3235, 3836, 4151, 4621, 4722, 4772, 5306, 5606, 6140, 8261, 8745, 8795, 9329, 9788, 9913, 10464, 11821, 12284, 12751, 13825, 15825, 16430, 17814, 18396, 18464, 19184, 19636]}, "edge": {"target": [], "time": []}}}, "displayed_time": "23.54", "trialTime": 25164, "trial_type": "mouselab-mdp", "trial_index": 10, "time_elapsed": 423393, "internal_node_id": "0.0-6.0-1.0-1.0"}}, {"uniqueid": "w51722018:a85263904", "current_trial": 11, "dateTime": 1693481702451, "trialdata": {"revealed_states": [], "clicked_states": ["1", "2", "10", "11", "29", "33", "31", "32"], "num_clicks_accrued": [0, 0, 0, 0, 0, 0, 0, 0, 0, 0, 0, 0, 0], "stateRewards": ["", -1, 2, 5, -6, 13, -64, -47, 8, -79, -80, -33, 1, 2, -2, -16, 56, -71, -10, 3, 29, 44, 85, -1, 4, 5, 4, -36, -56, 19, 8, 52, -13, -2], "withholdReward": false, "trial_id": "mdp_trial_3", "block": "test", "trialIndex": 4, "score": 55, "costs": -13.000000000000002, "simulationMode": [null, null, null, null, null], "rewards": [-1, 4, 5, 8, 52], "path": ["0", "0", "23", "24", "25", "30", "31"], "rt": [23454, 529, 118, 175, 154], "actions": ["left", "left", "left", "down", "right"], "actionTimes": [591723, 592770, 593395, 594070, 594720], "queries": {"click": {"state": {"target": ["1", "2", "10", "11", "29", "33", "31", "32"], "time": [569236, 570041, 570579, 573693, 576741, 579640, 582725, 587254]}, "edge": {"target": [], "time": []}}, "mouseover": {"state": {"target": ["1", "1", "2", "10", "10", "8", "9", "8", "11", "8", "11", "28", "24", "24", "23", "23", "24", "26", "29", "33", "30", "31", "32", "33", "30", "31", "25", "28", "30", "32", "21", "20", "19", "0", "0"], "time": [568739, 569020, 569487, 570189, 570387, 570887, 571506, 571923, 572140, 573009, 573375, 574059, 574327, 574459, 575128, 575562, 575612, 575996, 576480, 577280, 577782, 578066, 578805, 579418, 579902, 580070, 583044, 583342, 586935, 586966, 587703, 588200, 590289, 591206, 591633]}, "edge": {"target": [], "time": []}}, "mouseout": {"state": {"target": ["0", "1", "1", "2", "10", "10", "8", "9", "8", "11", "8", "11", "28", "24", "24", "23", "23", "24", "26", "29", "33", "30", "31", "32", "33", "30", "31", "25", "28", "30", "32", "21", "20", "19", "0", "0"], "time": [568705, 568789, 569420, 570186, 570236, 570837, 571439, 571840, 572007, 572891, 573359, 574042, 574076, 574397, 574626, 575311, 575578, 575646, 576133, 577098, 577765, 577833, 578584, 579385, 579852, 580024, 582991, 583158, 586869, 586954, 587414, 587967, 590275, 590322, 591323, 595935]}, "edge": {"target": [], "time": []}}}, "displayed_time": "595.21", "trialTime": 596520, "trial_type": "mouselab-mdp", "trial_index": 11, "time_elapsed": 1020171, "internal_node_id": "0.0-6.0-1.0-2.0"}}, {"uniqueid": "w51722018:a85263904", "current_trial": 12, "dateTime": 1693481732026, "trialdata": {"revealed_states": [], "clicked_states": ["20", "22", "21", "31", "29", "28", "27"], "num_clicks_accrued": [0, 0, 0, 0, 0, 0, 0, 0, 0, 0, 0, 0, 0], "stateRewards": ["", 1, -4, -6, -1, -21, 17, -72, 10, 77, 67, -46, -1, 4, -2, 14, -66, -49, -45, -15, -52, 23, -67, 2, -2, -2, 15, -3, 45, -64, 5, -44, 83, 61], "withholdReward": false, "trial_id": "mdp_trial_4", "block": "test", "trialIndex": 5, "score": 42.95, "costs": -15.05, "simulationMode": [null, null, null, null, null], "rewards": [2, -2, -2, 15, 45], "path": ["0", "0", "23", "24", "25", "26", "28"], "rt": [23123, 545, 169, 100, 48], "actions": ["left", "left", "left", "up", "right"], "actionTimes": [24344, 25391, 26066, 26666, 27213], "queries": {"click": {"state": {"target": ["20", "22", "21", "31", "29", "28", "27"], "time": [2182, 5238, 8060, 11099, 14284, 17443, 21094]}, "edge": {"target": [], "time": []}}, "mouseover": {"state": {"target": ["20", "19", "22", "21", "30", "32", "32", "31", "25", "29", "26", "28", "26", "27", "1", "18", "13"], "time": [1960, 2389, 2423, 5662, 8483, 8800, 8985, 9284, 11488, 12039, 14543, 14828, 17765, 18836, 23274, 23340, 23941]}, "edge": {"target": [], "time": []}}, "mouseout": {"state": {"target": ["0", "0", "20", "19", "22", "21", "30", "32", "32", "31", "25", "29", "26", "28", "26", "27", "1", "18", "13"], "time": [389, 1233, 2373, 2406, 5444, 8366, 8755, 8854, 9035, 11440, 11538, 14510, 14610, 17731, 17865, 23224, 23291, 23374, 23991]}, "edge": {"target": [], "time": []}}}, "displayed_time": "27.73", "trialTime": 28966, "trial_type": "mouselab-mdp", "trial_index": 12, "time_elapsed": 1049745, "internal_node_id": "0.0-6.0-1.0-3.0"}}, {"uniqueid": "w51722018:a85263904", "current_trial": 13, "dateTime": 1693481755725, "trialdata": {"revealed_states": [], "clicked_states": ["6", "11", "10", "7", "31", "33"], "num_clicks_accrued": [0, 0, 0, 0, 0, 0, 0, 0, 0, 0, 0, 0, 0], "stateRewards": ["", 1, 1, 1, -3, -7, -1, -41, -10, 20, -72, -63, 1, -4, -2, 2, -66, 30, -84, -2, 49, 23, 71, -1, -4, 4, -12, 67, 5, 18, -16, 88, 56, -5], "withholdReward": false, "trial_id": "mdp_trial_5", "block": "test", "trialIndex": 6, "score": 58.1, "costs": -12.9, "simulationMode": [null, null, null, null, null], "rewards": [-1, -4, 4, -16, 88], "path": ["0", "0", "23", "24", "25", "30", "31"], "rt": [18176, 2, 87, 102, 102], "actions": ["left", "left", "left", "down", "right"], "actionTimes": [19552, 20059, 20661, 21262, 21862], "queries": {"click": {"state": {"target": ["6", "11", "10", "7", "31", "33"], "time": [2098, 4878, 7685, 10635, 13587, 16374]}, "edge": {"target": [], "time": []}}, "mouseover": {"state": {"target": ["1", "7", "4", "6", "4", "3", "8", "11", "9", "8", "10", "2", "7", "1", "31", "30", "33", "32"], "time": [1545, 1612, 1759, 1959, 2526, 2545, 2561, 2844, 5998, 6816, 7058, 8151, 8403, 11173, 11842, 14035, 14078, 17050]}, "edge": {"target": [], "time": []}}, "mouseout": {"state": {"target": ["1", "0", "1", "7", "4", "6", "4", "3", "8", "11", "9", "8", "10", "2", "7", "1", "31", "30", "33", "32"], "time": [843, 1093, 1578, 1659, 1825, 2475, 2543, 2559, 2576, 5363, 6783, 6850, 8134, 8305, 11123, 11208, 14016, 14062, 16849, 17103]}, "edge": {"target": [], "time": []}}}, "displayed_time": "22.36", "trialTime": 23437, "trial_type": "mouselab-mdp", "trial_index": 13, "time_elapsed": 1073445, "internal_node_id": "0.0-6.0-1.0-4.0"}}, {"uniqueid": "w51722018:a85263904", "current_trial": 14, "dateTime": 1693481777026, "trialdata": {"revealed_states": [], "clicked_states": ["20", "17", "18", "22", "31"], "num_clicks_accrued": [0, 0, 0, 0, 0, 0, 0, 0, 0, 0, 0, 0, 0], "stateRewards": ["", -2, 1, -7, -8, -37, -76, -87, 11, 30, -63, 80, -1, 4, 2, -1, 42, 17, 52, -3, -75, -80, -68, 2, -3, -5, -15, -48, 82, 24, -7, 5, -22, -71], "withholdReward": false, "trial_id": "mdp_trial_6", "block": "test", "trialIndex": 7, "score": 45.25, "costs": -10.75, "simulationMode": [null, null, null, null, null], "rewards": [-1, 4, 2, -1, 52], "path": ["0", "0", "12", "13", "14", "15", "18"], "rt": [15733, 528, 68, 23, 66], "actions": ["right", "right", "right", "up", "left"], "actionTimes": [17060, 18082, 18657, 19180, 19756], "queries": {"click": {"state": {"target": ["20", "17", "18", "22", "31"], "time": [1959, 4880, 7922, 10684, 13758]}, "edge": {"target": [], "time": []}}, "mouseover": {"state": {"target": ["12", "13", "14", "20", "14", "15", "17", "15", "18", "13", "22", "31", "0", "18"], "time": [1391, 1441, 1460, 1713, 2376, 2461, 2761, 5315, 5582, 8520, 8770, 12243, 14547, 15016]}, "edge": {"target": [], "time": []}}, "mouseout": {"state": {"target": ["0", "12", "13", "14", "20", "14", "15", "17", "15", "18", "13", "22", "31", "0", "18"], "time": [1375, 1424, 1458, 1475, 2109, 2394, 2627, 5282, 5433, 8487, 8587, 11158, 14514, 14564, 20443]}, "edge": {"target": [], "time": []}}}, "displayed_time": "20.26", "trialTime": 21032, "trial_type": "mouselab-mdp", "trial_index": 14, "time_elapsed": 1094745, "internal_node_id": "0.0-6.0-1.0-5.0"}}, {"uniqueid": "w51722018:a85263904", "current_trial": 15, "dateTime": 1693481793726, "trialdata": {"revealed_states": [], "clicked_states": ["27", "32"], "num_clicks_accrued": [0, 0, 0, 0, 0, 0, 0, 0, 0, 0, 0, 0, 0], "stateRewards": ["", -1, -1, 7, -15, -43, -21, -84, -9, -45, -66, 2, 1, -2, 2, 8, -27, 44, -52, -5, -84, 11, 53, 1, 4, -4, 16, 83, -82, -15, -16, 68, -43, 81], "withholdReward": false, "trial_id": "mdp_trial_7", "block": "test", "trialIndex": 8, "score": 95.7, "costs": -4.3, "simulationMode": [null, null, null, null, null], "rewards": [1, 4, -4, 16, 83], "path": ["0", "0", "23", "24", "25", "26", "27"], "rt": [7374, 572, 130, 69, 177], "actions": ["left", "left", "left", "up", "up"], "actionTimes": [8711, 9783, 10409, 10982, 11658], "queries": {"click": {"state": {"target": ["27", "32"], "time": [2567, 5592]}, "edge": {"target": [], "time": []}}, "mouseover": {"state": {"target": ["10", "27", "25", "33", "32"], "time": [1981, 2312, 3064, 3331, 3548]}, "edge": {"target": [], "time": []}}, "mouseout": {"state": {"target": ["0", "10", "27", "25", "33", "32"], "time": [1669, 2062, 2818, 3081, 3382, 5969]}, "edge": {"target": [], "time": []}}}, "displayed_time": "15.34", "trialTime": 16433, "trial_type": "mouselab-mdp", "trial_index": 15, "time_elapsed": 1111445, "internal_node_id": "0.0-6.0-1.0-6.0"}}, {"uniqueid": "w51722018:a85263904", "current_trial": 16, "dateTime": 1693481825126, "trialdata": {"revealed_states": [], "clicked_states": ["27", "32", "31", "6", "11", "7", "5"], "num_clicks_accrued": [0, 0, 0, 0, 0, 0, 0, 0, 0, 0, 0, 0, 0], "stateRewards": ["", 2, 3, -1, 6, 44, -4, -59, -14, -3, 64, 16, 1, -3, 3, 6, 3, 49, 19, 3, -49, -14, -86, 1, 2, -3, -8, -33, 14, 32, -13, -77, -47, -67], "withholdReward": false, "trial_id": "mdp_trial_8", "block": "test", "trialIndex": 9, "score": 38.95, "costs": -15.05, "simulationMode": [null, null, null, null, null], "rewards": [2, 3, -1, 6, 44], "path": ["0", "0", "1", "2", "3", "4", "5"], "rt": [25173, 69, 106, 51, 87], "actions": ["up", "up", "up", "right", "up"], "actionTimes": [27340, 27909, 28512, 29059, 29662], "queries": {"click": {"state": {"target": ["27", "32", "31", "6", "11", "7", "5"], "time": [3875, 7111, 10146, 13187, 16251, 19498, 22771]}, "edge": {"target": [], "time": []}}, "mouseover": {"state": {"target": ["23", "24", "25", "33", "27", "26", "25", "30", "32", "31", "23", "1", "4", "6", "4", "3", "8", "11", "10", "2", "7", "4", "5", "3", "10"], "time": [2517, 2551, 2578, 2900, 3548, 4031, 4049, 4066, 4114, 7320, 10492, 10511, 10776, 10929, 13564, 13583, 13697, 13847, 16642, 17039, 17303, 20057, 20141, 22996, 23230]}, "edge": {"target": [], "time": []}}, "mouseout": {"state": {"target": ["0", "23", "24", "25", "33", "27", "26", "25", "30", "32", "31", "23", "1", "4", "6", "4", "3", "8", "11", "10", "2", "7", "4", "5", "3", "10"], "time": [2500, 2547, 2564, 2611, 3182, 4014, 4047, 4064, 4098, 7270, 10475, 10508, 10542, 10879, 13531, 13580, 13597, 13813, 16536, 16754, 17072, 20024, 20095, 22946, 23013, 30747]}, "edge": {"target": [], "time": []}}}, "displayed_time": "30.16", "trialTime": 31137, "trial_type": "mouselab-mdp", "trial_index": 16, "time_elapsed": 1142846, "internal_node_id": "0.0-6.0-1.0-7.0"}}, {"uniqueid": "w51722018:a85263904", "current_trial": 17, "dateTime": 1693481844651, "trialdata": {"revealed_states": [], "clicked_states": ["18", "16", "17", "20"], "num_clicks_accrued": [0, 0, 0, 0, 0, 0, 0, 0, 0, 0, 0, 0, 0], "stateRewards": ["", -1, 3, -5, -2, -13, -9, -34, -7, -81, 32, 35, -2, -2, 1, -14, -32, 81, 7, 4, 82, 56, -8, -1, 3, -8, 6, -24, -24, -53, 2, 38, 61, 54], "withholdReward": false, "trial_id": "mdp_trial_9", "block": "test", "trialIndex": 10, "score": 74.4, "costs": -8.6, "simulationMode": [null, null, null, null, null], "rewards": [-2, -2, 1, 4, 82], "path": ["0", "0", "12", "13", "14", "19", "20"], "rt": [14557, 33, 131, 122, 104], "actions": ["right", "right", "right", "down", "right"], "actionTimes": [15611, 16155, 16782, 17407, 18007], "queries": {"click": {"state": {"target": ["18", "16", "17", "20"], "time": [3191, 6226, 9168, 12122]}, "edge": {"target": [], "time": []}}, "mouseover": {"state": {"target": ["31", "30", "33", "33", "30", "23", "18", "15", "16", "18", "16", "17", "20", "21", "19"], "time": [1495, 1729, 1960, 2193, 2261, 2295, 2324, 2343, 2698, 2959, 3978, 6633, 9638, 12693, 13277]}, "edge": {"target": [], "time": []}}, "mouseout": {"state": {"target": ["0", "31", "30", "33", "33", "30", "23", "18", "15", "16", "18", "16", "17", "20", "21", "19"], "time": [1229, 1529, 1826, 2027, 2243, 2277, 2312, 2341, 2426, 2911, 3678, 6498, 9487, 12543, 13160, 13310]}, "edge": {"target": [], "time": []}}}, "displayed_time": "18.50", "trialTime": 19256, "trial_type": "mouselab-mdp", "trial_index": 17, "time_elapsed": 1162370, "internal_node_id": "0.0-6.0-1.0-8.0"}}, {"uniqueid": "w51722018:a85263904", "current_trial": 18, "dateTime": 1693481871202, "trialdata": {"revealed_states": [], "clicked_states": ["29", "27", "33", "32", "31"], "num_clicks_accrued": [0, 0, 0, 0, 0, 0, 0, 0, 0, 0, 0, 0, 0], "stateRewards": ["", 2, -4, -8, -15, 71, -43, -41, 7, -17, 20, 67, -1, -1, -4, 6, 37, -24, -47, 9, 34, 57, 45, 1, 2, -4, -5, -23, 88, -5, 13, -40, 43, 44], "withholdReward": false, "trial_id": "mdp_trial_10", "block": "test", "trialIndex": 11, "score": 45.25, "costs": -10.75, "simulationMode": [null, null, null, null, null], "rewards": [1, 2, -4, 13, 44], "path": ["0", "0", "23", "24", "25", "30", "33"], "rt": [17173, 442, 108, 197, 130], "actions": ["left", "left", "left", "down", "left"], "actionTimes": [19350, 20297, 20898, 21598, 22222], "queries": {"click": {"state": {"target": ["29", "27", "33", "32", "31"], "time": [3567, 6663, 9736, 12780, 16263]}, "edge": {"target": [], "time": []}}, "mouseover": {"state": {"target": ["23", "24", "25", "29", "26", "27", "8", "27", "26", "33", "32", "31", "30", "33"], "time": [2613, 2645, 2844, 3275, 3992, 4026, 4377, 4827, 7098, 7415, 10220, 13562, 16733, 17448]}, "edge": {"target": [], "time": []}}, "mouseout": {"state": {"target": ["14", "13", "12", "0", "23", "24", "25", "29", "26", "27", "8", "27", "26", "33", "32", "31", "30", "33", "30"], "time": [1574, 1606, 1623, 2596, 2636, 2740, 3123, 3796, 4008, 4042, 4410, 6852, 7131, 9936, 13143, 16731, 16747, 23332, 23414]}, "edge": {"target": [], "time": []}}}, "displayed_time": "22.73", "trialTime": 26273, "trial_type": "mouselab-mdp", "trial_index": 18, "time_elapsed": 1188922, "internal_node_id": "0.0-6.0-1.0-9.0"}}, {"uniqueid": "w51722018:a85263904", "current_trial": 19, "dateTime": 1693481891497, "trialdata": {"revealed_states": [], "clicked_states": ["20", "22", "21", "33"], "num_clicks_accrued": [0, 0, 0, 0, 0, 0, 0, 0, 0, 0, 0, 0, 0], "stateRewards": ["", -2, 4, 3, 5, -61, 4, 30, 1, -47, 83, 10, 1, 4, 7, -14, 19, -74, -83, 6, -2, -2, -65, -1, -2, 4, -11, 12, -1, -68, 11, -38, -28, 66], "withholdReward": false, "trial_id": "mdp_trial_11", "block": "test", "trialIndex": 12, "score": 69.4, "costs": -8.6, "simulationMode": [null, null, null, null, null], "rewards": [-1, -2, 4, 11, 66], "path": ["0", "0", "23", "24", "25", "30", "33"], "rt": [14255, 404, 103, 202, 125], "actions": ["left", "left", "left", "down", "left"], "actionTimes": [15697, 16595, 17195, 17895, 18519], "queries": {"click": {"state": {"target": ["20", "22", "21", "33"], "time": [2726, 5808, 8935, 12064]}, "edge": {"target": [], "time": []}}, "mouseover": {"state": {"target": ["18", "15", "14", "20", "21", "22", "21", "30", "33", "32"], "time": [2083, 2116, 2150, 2533, 4135, 4702, 6171, 9409, 9843, 12465]}, "edge": {"target": [], "time": []}}, "mouseout": {"state": {"target": ["0", "18", "15", "14", "20", "21", "22", "21", "30", "33", "32"], "time": [1215, 2100, 2133, 2283, 3216, 4235, 6104, 9161, 9593, 12264, 19365]}, "edge": {"target": [], "time": []}}}, "displayed_time": "19.01", "trialTime": 20017, "trial_type": "mouselab-mdp", "trial_index": 19, "time_elapsed": 1209218, "internal_node_id": "0.0-6.0-1.0-10.0"}}, {"uniqueid": "w51722018:a85263904", "current_trial": 20, "dateTime": 1693481910777, "trialdata": {"revealed_states": [], "clicked_states": ["6", "9", "33", "29"], "num_clicks_accrued": [0, 0, 0, 0, 0, 0, 0, 0, 0, 0, 0, 0, 0], "stateRewards": ["", -1, -4, 8, 8, -68, 47, 24, -7, -61, 49, -69, -1, -1, 8, -7, 42, 1, -45, -11, 10, -63, -6, 1, 4, 6, -16, 79, -37, -58, -12, 81, 18, -53], "withholdReward": false, "trial_id": "mdp_trial_12", "block": "test", "trialIndex": 13, "score": 49.4, "costs": -8.6, "simulationMode": [null, null, null, null, null], "rewards": [-1, -4, 8, 8, 47], "path": ["0", "0", "1", "2", "3", "4", "6"], "rt": [13762, 53, 89, 78, 95], "actions": ["up", "up", "up", "right", "right"], "actionTimes": [14984, 15529, 16132, 16707, 17307], "queries": {"click": {"state": {"target": ["6", "9", "33", "29"], "time": [2053, 5329, 8536, 11783]}, "edge": {"target": [], "time": []}}, "mouseover": {"state": {"target": ["7", "6", "5", "9", "9", "3", "27", "26", "25", "33", "33", "30", "24", "28", "26", "29"], "time": [1656, 1902, 2486, 2836, 3304, 5761, 6676, 6709, 6893, 6976, 7227, 8929, 8962, 9163, 9247, 9498]}, "edge": {"target": [], "time": []}}, "mouseout": {"state": {"target": ["0", "7", "6", "5", "9", "9", "3", "27", "26", "25", "33", "33", "30", "24", "28", "26", "29"], "time": [635, 1690, 2403, 2820, 2853, 5674, 5774, 6693, 6843, 6910, 7010, 8914, 8948, 8980, 9214, 9380, 12485]}, "edge": {"target": [], "time": []}}}, "displayed_time": "17.81", "trialTime": 19032, "trial_type": "mouselab-mdp", "trial_index": 20, "time_elapsed": 1228497, "internal_node_id": "0.0-6.0-1.0-11.0"}}, {"uniqueid": "w51722018:a85263904", "current_trial": 21, "dateTime": 1693481945452, "trialdata": {"revealed_states": [], "clicked_states": ["29", "17", "22", "11", "7", "6", "31", "33"], "num_clicks_accrued": [0, 0, 0, 0, 0, 0, 0, 0, 0, 0, 0, 0, 0], "stateRewards": ["", -2, 3, -5, -7, 66, 43, -60, -4, -70, -75, 4, -1, 2, 2, -13, 54, 11, -40, -1, 77, 32, 15, -2, 3, -8, -9, -35, 83, -27, 6, -74, -34, 44], "withholdReward": false, "trial_id": "mdp_trial_13", "block": "test", "trialIndex": 14, "score": 25.8, "costs": -17.2, "simulationMode": [null, null, null, null, null], "rewards": [-2, 3, -8, 6, 44], "path": ["0", "0", "23", "24", "25", "30", "33"], "rt": [28330, 514, 53, 36, 10], "actions": ["left", "left", "left", "down", "left"], "actionTimes": [29808, 30855, 31402, 31953, 32477], "queries": {"click": {"state": {"target": ["29", "17", "22", "11", "7", "6", "31", "33"], "time": [2394, 6016, 9224, 12547, 15698, 19019, 22472, 25665]}, "edge": {"target": [], "time": []}}, "mouseover": {"state": {"target": ["0", "23", "24", "29", "10", "2", "6", "6", "17", "17", "19", "22", "19", "19", "12", "0", "23", "11", "3", "4", "7", "6", "2", "31", "32", "31", "23", "1", "33", "30", "16", "32", "32"], "time": [1722, 1784, 1821, 2120, 2868, 2984, 3251, 3752, 5644, 5894, 6623, 7074, 9414, 9763, 9813, 9832, 9863, 10264, 12950, 13068, 13351, 16089, 19210, 19361, 19629, 20081, 23002, 23034, 24222, 25855, 25972, 26740, 27024]}, "edge": {"target": [], "time": []}}, "mouseout": {"state": {"target": ["0", "0", "23", "24", "29", "10", "2", "6", "6", "17", "17", "19", "22", "19", "19", "12", "0", "23", "11", "3", "4", "7", "6", "2", "31", "32", "31", "23", "1", "31", "33", "30", "16", "32", "32"], "time": [1115, 1740, 1817, 1837, 2477, 2970, 3183, 3268, 5611, 5662, 6223, 6757, 9411, 9445, 9779, 9829, 9845, 9947, 12850, 13001, 13117, 15956, 19183, 19228, 19428, 20034, 22985, 23017, 23802, 23986, 25838, 25871, 26005, 26757, 33390]}, "edge": {"target": [], "time": []}}}, "displayed_time": "32.98", "trialTime": 34405, "trial_type": "mouselab-mdp", "trial_index": 21, "time_elapsed": 1263171, "internal_node_id": "0.0-6.0-1.0-12.0"}}, {"uniqueid": "w51722018:a85263904", "current_trial": 22, "dateTime": 1693481964100, "trialdata": {"revealed_states": [], "clicked_states": ["20", "31", "33", "32"], "num_clicks_accrued": [0, 0, 0, 0, 0, 0, 0, 0, 0, 0, 0, 0, 0], "stateRewards": ["", -2, -2, -7, -13, -10, 49, -68, -1, 84, 70, 88, 1, 4, 4, 12, -57, 25, 30, 8, -1, -77, 57, 2, 3, 2, 3, -18, -80, 23, -15, -41, 70, 11], "withholdReward": false, "trial_id": "mdp_trial_14", "block": "test", "trialIndex": 15, "score": 53.4, "costs": -8.6, "simulationMode": [null, null, null, null, null], "rewards": [2, 3, 2, -15, 70], "path": ["0", "0", "23", "24", "25", "30", "32"], "rt": [13785, 164, 3, 29, 44], "actions": ["left", "left", "left", "down", "down"], "actionTimes": [14774, 15447, 15952, 16495, 17044], "queries": {"click": {"state": {"target": ["20", "31", "33", "32"], "time": [1836, 4886, 8110, 11455]}, "edge": {"target": [], "time": []}}, "mouseover": {"state": {"target": ["12", "22", "19", "20", "31", "30", "33", "30", "31", "33", "32", "21"], "time": [1137, 1343, 1474, 1723, 2356, 2591, 2874, 3691, 3726, 5395, 8317, 11689]}, "edge": {"target": [], "time": []}}, "mouseout": {"state": {"target": ["22", "0", "12", "22", "19", "20", "31", "30", "33", "30", "31", "33", "32", "21"], "time": [122, 1104, 1154, 1406, 1590, 2024, 2390, 2741, 3676, 3709, 5111, 8300, 11606, 17705]}, "edge": {"target": [], "time": []}}}, "displayed_time": "17.53", "trialTime": 18371, "trial_type": "mouselab-mdp", "trial_index": 22, "time_elapsed": 1281820, "internal_node_id": "0.0-6.0-1.0-13.0"}}, {"uniqueid": "w51722018:a85263904", "current_trial": 23, "dateTime": 1693481981778, "trialdata": {"revealed_states": [], "clicked_states": [], "num_clicks_accrued": [0, 0, 0, 0, 0, 0, 0, 0, 0, 0, 0, 0, 0], "stateRewards": ["", -2, -3, 4, 1, 33, -53, 15, 9, -12, 61, -6, -2, 4, 6, -11, 47, -43, -7, -11, 46, 23, -28, -1, -1, 3, -10, 11, 76, -76, 10, 18, -38, 87], "withholdReward": false, "trial_id": "mdp_trial_15", "block": "test", "trialIndex": 16, "score": -27, "costs": 0, "simulationMode": [null, null, null, null, null], "rewards": [-1, -1, 3, 10, -38], "path": ["0", "0", "23", "24", "25", "30", "32"], "rt": [6887, 171, 50, 411, 159], "actions": ["left", "left", "left", "down", "down"], "actionTimes": [8097, 8769, 9316, 10244, 10894], "queries": {"click": {"state": {"target": [], "time": []}, "edge": {"target": [], "time": []}}, "mouseover": {"state": {"target": ["25", "24"], "time": [5560, 6494]}, "edge": {"target": [], "time": []}}, "mouseout": {"state": {"target": ["0", "25", "24"], "time": [900, 6293, 6512]}, "edge": {"target": [], "time": []}}}, "displayed_time": "15.21", "trialTime": 17394, "trial_type": "mouselab-mdp", "trial_index": 23, "time_elapsed": 1299497, "internal_node_id": "0.0-6.0-1.0-14.0"}}, {"uniqueid": "w51722018:a85263904", "current_trial": 24, "dateTime": 1693481998678, "trialdata": {"revealed_states": [], "clicked_states": ["29", "20"], "num_clicks_accrued": [0, 0, 0, 0, 0, 0, 0, 0, 0, 0, 0, 0, 0], "stateRewards": ["", 1, -2, -2, 10, -31, -77, 35, 9, -47, 8, 48, -2, 1, -4, -3, -26, -50, 43, -11, 76, -38, 17, 1, -1, 6, 10, 15, -9, 12, -8, 85, 11, -55], "withholdReward": false, "trial_id": "mdp_trial_16", "block": "test", "trialIndex": 17, "score": 55.7, "costs": -4.3, "simulationMode": [null, null, null, null, null], "rewards": [-2, 1, -4, -11, 76], "path": ["0", "0", "12", "13", "14", "19", "20"], "rt": [7449, 37, 106, 50, 36], "actions": ["right", "right", "right", "down", "right"], "actionTimes": [9015, 9560, 10163, 10711, 11260], "queries": {"click": {"state": {"target": ["29", "20"], "time": [2187, 5446]}, "edge": {"target": [], "time": []}}, "mouseover": {"state": {"target": ["26", "29", "26", "12", "19", "20", "17"], "time": [1712, 1959, 3660, 4045, 4328, 4547, 5781]}, "edge": {"target": [], "time": []}}, "mouseout": {"state": {"target": ["12", "13", "12", "0", "0", "26", "29", "26", "12", "19", "20", "17"], "time": [20, 575, 807, 839, 1574, 1896, 3627, 3694, 4062, 4362, 5717, 12814]}, "edge": {"target": [], "time": []}}}, "displayed_time": "15.57", "trialTime": 16588, "trial_type": "mouselab-mdp", "trial_index": 24, "time_elapsed": 1316397, "internal_node_id": "0.0-6.0-1.0-15.0"}}, {"uniqueid": "w51722018:a85263904", "current_trial": 25, "dateTime": 1693482029078, "trialdata": {"revealed_states": [], "clicked_states": ["11", "20", "17", "33"], "num_clicks_accrued": [0, 0, 0, 0, 0, 0, 0, 0, 0, 0, 0, 0, 0], "stateRewards": ["", -2, -1, -4, -15, -14, -67, 32, -3, -59, 63, 31, 2, -1, -7, -15, 71, -66, -27, -3, -54, -39, 72, 2, 1, 1, -13, 77, -40, 35, -9, 35, 75, 57], "withholdReward": false, "trial_id": "mdp_trial_17", "block": "test", "trialIndex": 18, "score": 43.4, "costs": -8.6, "simulationMode": [null, null, null, null, null], "rewards": [2, 1, 1, -9, 57], "path": ["0", "0", "23", "24", "25", "30", "33"], "rt": [15559, 398, 72, 505, 703], "actions": ["left", "left", "left", "down", "left"], "actionTimes": [17084, 17981, 18555, 19557, 20756], "queries": {"click": {"state": {"target": ["11", "20", "17", "33"], "time": [2174, 5628, 9789, 13684]}, "edge": {"target": [], "time": []}}, "mouseover": {"state": {"target": ["1", "10", "11", "1", "19", "20", "14", "15", "16", "17", "14", "19", "22", "31", "33", "32"], "time": [1703, 1773, 1921, 2906, 3340, 3591, 8989, 9019, 9332, 9567, 10902, 10953, 13012, 13144, 13409, 14442]}, "edge": {"target": [], "time": []}}, "mouseout": {"state": {"target": ["0", "1", "10", "11", "1", "19", "20", "20", "14", "15", "16", "17", "14", "19", "22", "31", "33", "32"], "time": [1654, 1722, 1806, 2523, 2945, 3490, 7530, 8938, 9006, 9049, 9433, 10837, 10937, 10985, 13057, 13258, 14258, 29289]}, "edge": {"target": [], "time": []}}}, "displayed_time": "21.25", "trialTime": 30106, "trial_type": "mouselab-mdp", "trial_index": 25, "time_elapsed": 1346798, "internal_node_id": "0.0-6.0-1.0-16.0"}}, {"uniqueid": "w51722018:a85263904", "current_trial": 26, "dateTime": 1693482061328, "trialdata": {"revealed_states": [], "clicked_states": ["29", "31"], "num_clicks_accrued": [0, 0, 0, 0, 0, 0, 0, 0, 0, 0, 0, 0, 0], "stateRewards": ["", 2, 3, 6, -5, -74, -53, 17, -12, 46, 44, 18, -2, 4, 1, -8, 22, -23, -49, 9, -45, 55, 81, 1, -1, -7, -16, -83, -71, -45, 2, 51, 82, 61], "withholdReward": false, "trial_id": "mdp_trial_18", "block": "test", "trialIndex": 19, "score": 41.7, "costs": -4.3, "simulationMode": [null, null, null, null, null], "rewards": [1, -1, -7, 2, 51], "path": ["0", "0", "23", "24", "25", "30", "31"], "rt": [7915, 21, 38, 62, 120], "actions": ["left", "left", "left", "down", "right"], "actionTimes": [11411, 11933, 12483, 13058, 13684], "queries": {"click": {"state": {"target": ["29", "31"], "time": [4782, 7879]}, "edge": {"target": [], "time": []}}, "mouseover": {"state": {"target": ["23", "24", "26", "29", "25", "24", "31", "22", "19", "20"], "time": [4018, 4054, 4232, 4530, 5683, 5733, 5950, 8437, 8587, 8922]}, "edge": {"target": [], "time": []}}, "mouseout": {"state": {"target": ["23", "24", "26", "29", "25", "24", "31", "22", "19", "20"], "time": [4036, 4165, 4315, 5633, 5715, 5749, 8275, 8554, 8838, 31260]}, "edge": {"target": [], "time": []}}}, "displayed_time": "17.50", "trialTime": 31912, "trial_type": "mouselab-mdp", "trial_index": 26, "time_elapsed": 1379048, "internal_node_id": "0.0-6.0-1.0-17.0"}}, {"uniqueid": "w51722018:a85263904", "current_trial": 27, "dateTime": 1693482078477, "trialdata": {"revealed_states": [], "clicked_states": ["33", "20", "31"], "num_clicks_accrued": [0, 0, 0, 0, 0, 0, 0, 0, 0, 0, 0, 0, 0], "stateRewards": ["", -2, 2, -4, -4, -59, 88, 62, -3, 69, -15, -34, 1, -2, -5, 7, -54, -20, 78, -16, -74, -53, -21, 2, -4, 2, 13, -8, -44, 26, 9, 72, 4, 17], "withholdReward": false, "trial_id": "mdp_trial_19", "block": "test", "trialIndex": 20, "score": 74.55, "costs": -6.449999999999999, "simulationMode": [null, null, null, null, null], "rewards": [2, -4, 2, 9, 72], "path": ["0", "0", "23", "24", "25", "30", "31"], "rt": [10555, 265, 77, 106, 208], "actions": ["left", "left", "left", "down", "right"], "actionTimes": [12079, 12849, 13428, 14025, 14728], "queries": {"click": {"state": {"target": ["33", "20", "31"], "time": [2247, 5328, 8479]}, "edge": {"target": [], "time": []}}, "mouseover": {"state": {"target": ["23", "24", "33", "30", "0", "19", "20", "19", "22", "31", "32"], "time": [1732, 1772, 1846, 2414, 2548, 3683, 3817, 5637, 5670, 6611, 8825]}, "edge": {"target": [], "time": []}}, "mouseout": {"state": {"target": ["20", "0", "0", "23", "24", "33", "30", "0", "19", "20", "19", "22", "31", "32"], "time": [648, 962, 1690, 1766, 1791, 2398, 2431, 2899, 3767, 5620, 5653, 5686, 8708, 15722]}, "edge": {"target": [], "time": []}}}, "displayed_time": "15.53", "trialTime": 16827, "trial_type": "mouselab-mdp", "trial_index": 27, "time_elapsed": 1396196, "internal_node_id": "0.0-6.0-1.0-18.0"}}, {"uniqueid": "w51722018:a85263904", "current_trial": 28, "dateTime": 1693482098901, "trialdata": {"revealed_states": [], "clicked_states": ["11", "31", "29", "6"], "num_clicks_accrued": [0, 0, 0, 0, 0, 0, 0, 0, 0, 0, 0, 0, 0], "stateRewards": ["", 1, 1, -6, -2, 7, 77, 3, 16, -16, 66, 31, -1, 3, -8, -6, 33, -50, -48, 7, -60, -66, 36, 2, -3, 3, -7, -12, -61, -79, -4, 8, 74, -70], "withholdReward": false, "trial_id": "mdp_trial_20", "block": "test", "trialIndex": 21, "score": 62.4, "costs": -8.6, "simulationMode": [null, null, null, null, null], "rewards": [1, 1, -6, -2, 77], "path": ["0", "0", "1", "2", "3", "4", "6"], "rt": [14844, 3, 57, 63, 72], "actions": ["up", "up", "up", "right", "right"], "actionTimes": [16259, 16761, 17332, 17905, 18482], "queries": {"click": {"state": {"target": ["11", "31", "29", "6"], "time": [2330, 5812, 9366, 12823]}, "edge": {"target": [], "time": []}}, "mouseover": {"state": {"target": ["1", "10", "11", "31", "31", "32", "33", "29", "1", "6", "17", "17"], "time": [1847, 1930, 2151, 4604, 4852, 7673, 7890, 9164, 9527, 10027, 13316, 13567]}, "edge": {"target": [], "time": []}}, "mouseout": {"state": {"target": ["0", "1", "10", "11", "31", "31", "32", "33", "29", "1", "6", "17", "17", "14"], "time": [1748, 1863, 1964, 2565, 4652, 6038, 7690, 9064, 9476, 9543, 13000, 13367, 19365, 19396]}, "edge": {"target": [], "time": []}}}, "displayed_time": "18.98", "trialTime": 20108, "trial_type": "mouselab-mdp", "trial_index": 28, "time_elapsed": 1416620, "internal_node_id": "0.0-6.0-1.0-19.0"}}, {"uniqueid": "w51722018:a85263904", "current_trial": 29, "dateTime": 1693482121327, "trialdata": {"revealed_states": [], "clicked_states": ["17", "29", "31", "21", "33"], "num_clicks_accrued": [0, 0, 0, 0, 0, 0, 0, 0, 0, 0, 0, 0, 0], "stateRewards": ["", 1, 2, 8, -2, 23, -69, -18, -16, 54, -21, 71, -1, -4, 7, 11, 43, -6, 88, 6, -55, 72, 43, 1, -3, -2, -1, 68, -31, -54, 4, -8, 25, -2], "withholdReward": false, "trial_id": "mdp_trial_21", "block": "test", "trialIndex": 22, "score": 69.25, "costs": -10.75, "simulationMode": [null, null, null, null, null, null], "rewards": [-1, -4, 7, 6, 72], "path": ["0", "0", "12", "13", "14", "19", "21"], "rt": [13856, 1975, 348, 647, 92, 42], "actions": ["right", "right", "right", "right", "down", "down"], "actionTimes": [15102, 17080, 17929, 19080, 19677, 20227], "queries": {"click": {"state": {"target": ["17", "29", "31", "21", "33"], "time": [1901, 4986, 8019, 11018, 13895]}, "edge": {"target": [], "time": []}}, "mouseover": {"state": {"target": ["12", "17", "20", "19", "26", "29", "26", "10", "2", "4", "6", "7", "31", "21", "33", "30", "31"], "time": [1456, 1669, 2154, 2655, 2738, 3071, 5326, 5392, 5443, 5693, 6043, 6848, 6878, 8618, 11569, 14324, 14359]}, "edge": {"target": [], "time": []}}, "mouseout": {"state": {"target": ["0", "12", "17", "20", "19", "26", "29", "26", "10", "2", "4", "6", "7", "31", "21", "33", "30", "31"], "time": [1424, 1472, 2070, 2438, 2671, 2755, 5309, 5342, 5409, 5492, 5880, 6845, 6860, 8214, 11262, 14307, 14357, 14373]}, "edge": {"target": [], "time": []}}}, "displayed_time": "20.74", "trialTime": 22104, "trial_type": "mouselab-mdp", "trial_index": 29, "time_elapsed": 1439046, "internal_node_id": "0.0-6.0-1.0-20.0"}}, {"uniqueid": "w51722018:a85263904", "current_trial": 30, "dateTime": 1693482150478, "trialdata": {"revealed_states": [], "clicked_states": ["9"], "num_clicks_accrued": [0, 0, 0, 0, 0, 0, 0, 0, 0, 0, 0, 0, 0], "stateRewards": ["", -2, 1, -5, 2, -68, 80, 33, 10, 67, -59, 20, -1, -3, 3, 14, 74, -2, 24, -16, 63, 80, 46, -1, 4, 6, 12, 83, -38, -43, -4, 43, 14, -79], "withholdReward": false, "trial_id": "mdp_trial_22", "block": "test", "trialIndex": 23, "score": 68.85, "costs": -2.15, "simulationMode": [null, null, null, null, null], "rewards": [-2, 1, -5, 10, 67], "path": ["0", "0", "1", "2", "3", "8", "9"], "rt": [5052, 304, 3, 185, 3], "actions": ["up", "up", "up", "left", "up"], "actionTimes": [6421, 7220, 7721, 8420, 8922], "queries": {"click": {"state": {"target": ["9"], "time": [2785]}, "edge": {"target": [], "time": []}}, "mouseover": {"state": {"target": ["1", "2", "3", "8", "11", "9", "8", "25", "33"], "time": [1454, 1554, 1905, 2072, 2291, 2490, 3093, 3360, 3692]}, "edge": {"target": [], "time": []}}, "mouseout": {"state": {"target": ["23", "1", "2", "3", "8", "11", "9", "8", "25", "33"], "time": [387, 1504, 1721, 2005, 2122, 2422, 3091, 3107, 3440, 10839]}, "edge": {"target": [], "time": []}}}, "displayed_time": "15.37", "trialTime": 28871, "trial_type": "mouselab-mdp", "trial_index": 30, "time_elapsed": 1468198, "internal_node_id": "0.0-6.0-1.0-21.0"}}, {"uniqueid": "w51722018:a85263904", "current_trial": 31, "dateTime": 1693482176977, "trialdata": {"revealed_states": [], "clicked_states": [], "num_clicks_accrued": [0, 0, 0, 0, 0, 0, 0, 0, 0, 0, 0, 0, 0], "stateRewards": ["", 1, -1, 1, 13, 31, -56, 72, 2, 41, 5, 63, -2, -3, -2, 3, -71, -26, 52, 13, -31, 24, -67, 2, -2, 5, 4, 66, 43, 72, 9, 86, -26, 44], "withholdReward": false, "trial_id": "mdp_trial_23", "block": "test", "trialIndex": 24, "score": 100, "costs": 0, "simulationMode": [null, null, null, null, null], "rewards": [2, -2, 5, 9, 86], "path": ["0", "0", "23", "24", "25", "30", "31"], "rt": [5251, 221, 78, 144, 77], "actions": ["left", "left", "left", "down", "right"], "actionTimes": [6595, 7319, 7893, 8543, 9143], "queries": {"click": {"state": {"target": [], "time": []}, "edge": {"target": [], "time": []}}, "mouseover": {"state": {"target": ["26", "29", "29", "24"], "time": [4163, 4362, 4526, 5913]}, "edge": {"target": [], "time": []}}, "mouseout": {"state": {"target": ["32", "31", "0", "26", "29", "29", "24"], "time": [521, 568, 1052, 4347, 4377, 5882, 5929]}, "edge": {"target": [], "time": []}}}, "displayed_time": "15.35", "trialTime": 26169, "trial_type": "mouselab-mdp", "trial_index": 31, "time_elapsed": 1494697, "internal_node_id": "0.0-6.0-1.0-22.0"}}, {"uniqueid": "w51722018:a85263904", "current_trial": 32, "dateTime": 1693482220078, "trialdata": {"revealed_states": [], "clicked_states": ["33", "6", "29", "20"], "num_clicks_accrued": [0, 0, 0, 0, 0, 0, 0, 0, 0, 0, 0, 0, 0], "stateRewards": ["", 1, 1, 7, -11, 80, -20, -53, -14, 3, 31, 27, 2, -1, -8, -10, 33, 41, 86, 9, 78, -37, -13, -1, -2, -6, -8, -80, 75, 4, -16, -49, -74, 24], "withholdReward": false, "trial_id": "mdp_trial_24", "block": "test", "trialIndex": 25, "score": 71.4, "costs": -8.6, "simulationMode": [null, null, null, null, null], "rewards": [2, -1, -8, 9, 78], "path": ["0", "0", "12", "13", "14", "19", "20"], "rt": [15867, 76, 111, 143, 106], "actions": ["right", "right", "right", "down", "right"], "actionTimes": [20437, 21008, 21611, 22261, 22910], "queries": {"click": {"state": {"target": ["33", "6", "29", "20"], "time": [6443, 10145, 13378, 16626]}, "edge": {"target": [], "time": []}}, "mouseover": {"state": {"target": ["23", "24", "33", "16", "6", "11", "29", "26", "28", "13", "19", "20", "19", "0", "23", "24", "31", "32"], "time": [5743, 5770, 6273, 8325, 8559, 10611, 11116, 13769, 13785, 13934, 14285, 14736, 17108, 17172, 17191, 17208, 17356, 17824]}, "edge": {"target": [], "time": []}}, "mouseout": {"state": {"target": ["0", "0", "23", "24", "33", "16", "6", "11", "29", "26", "28", "13", "19", "20", "19", "0", "23", "24", "31", "32"], "time": [1300, 4205, 5762, 5785, 7607, 8358, 10529, 10846, 13767, 13783, 13800, 14119, 14669, 17090, 17128, 17189, 17206, 17256, 17574, 19900]}, "edge": {"target": [], "time": []}}}, "displayed_time": "23.40", "trialTime": 42737, "trial_type": "mouselab-mdp", "trial_index": 32, "time_elapsed": 1537797, "internal_node_id": "0.0-6.0-1.0-23.0"}}, {"uniqueid": "w51722018:a85263904", "current_trial": 33, "dateTime": 1693482237152, "trialdata": {"revealed_states": [], "clicked_states": ["29", "33", "20"], "num_clicks_accrued": [0, 0, 0, 0, 0, 0, 0, 0, 0, 0, 0, 0, 0], "stateRewards": ["", 1, 1, 5, 6, -29, -7, 3, -16, 9, -46, 65, -1, 4, -1, -16, -63, -77, -87, 8, 80, -50, 43, -1, -1, -5, 5, -38, -71, -62, 9, 81, -50, -52], "withholdReward": false, "trial_id": "mdp_trial_25", "block": "test", "trialIndex": 26, "score": 83.55, "costs": -6.449999999999999, "simulationMode": [null, null, null, null, null], "rewards": [-1, 4, -1, 8, 80], "path": ["0", "0", "12", "13", "14", "19", "20"], "rt": [11118, 321, 26, 116, 83], "actions": ["right", "right", "right", "down", "right"], "actionTimes": [12410, 13233, 13755, 14384, 14982], "queries": {"click": {"state": {"target": ["29", "33", "20"], "time": [2196, 5403, 8500]}, "edge": {"target": [], "time": []}}, "mouseover": {"state": {"target": ["24", "25", "29", "26", "25", "33", "30", "31", "22", "19", "20", "14", "15", "4", "3", "9"], "time": [1626, 1657, 1913, 2475, 3811, 4045, 5581, 5600, 5967, 6135, 6315, 8903, 8953, 9121, 9142, 9591]}, "edge": {"target": [], "time": []}}, "mouseout": {"state": {"target": ["22", "23", "0", "24", "25", "29", "26", "25", "33", "30", "31", "22", "19", "20", "14", "15", "4", "3", "9", "4", "6", "16", "17", "14"], "time": [289, 789, 1562, 1640, 1691, 2459, 2491, 3828, 5564, 5597, 5614, 6099, 6231, 8820, 8937, 8970, 9138, 9156, 13928, 13978, 14012, 14045, 15950, 15967]}, "edge": {"target": [], "time": []}}}, "displayed_time": "15.48", "trialTime": 16732, "trial_type": "mouselab-mdp", "trial_index": 33, "time_elapsed": 1554871, "internal_node_id": "0.0-6.0-1.0-24.0"}}, {"uniqueid": "w51722018:a85263904", "current_trial": 34, "dateTime": 1693482253803, "trialdata": {"revealed_states": [], "clicked_states": ["29"], "num_clicks_accrued": [0, 0, 0, 0, 0, 0, 0, 0, 0, 0, 0, 0, 0], "stateRewards": ["", -2, 2, -5, -6, 10, -66, -58, -10, -11, -63, -70, -1, -4, -5, 7, 66, -64, -43, -3, 45, -37, 4, -2, -2, -6, -4, -30, 33, 43, 15, -32, -65, -59], "withholdReward": false, "trial_id": "mdp_trial_26", "block": "test", "trialIndex": 27, "score": 26.85, "costs": -2.15, "simulationMode": [null, null, null, null, null], "rewards": [-2, -2, -6, -4, 43], "path": ["0", "0", "23", "24", "25", "26", "29"], "rt": [4605, 26, 85, 3, 31], "actions": ["left", "left", "left", "up", "left"], "actionTimes": [6217, 6742, 7320, 7823, 8367], "queries": {"click": {"state": {"target": ["29"], "time": [2463]}, "edge": {"target": [], "time": []}}, "mouseover": {"state": {"target": ["23", "26", "29", "25", "31"], "time": [1942, 2007, 2217, 2678, 2942]}, "edge": {"target": [], "time": []}}, "mouseout": {"state": {"target": ["0", "23", "26", "29", "25", "31"], "time": [1925, 1974, 2023, 2641, 2708, 4679]}, "edge": {"target": [], "time": []}}}, "displayed_time": "15.61", "trialTime": 16320, "trial_type": "mouselab-mdp", "trial_index": 34, "time_elapsed": 1571522, "internal_node_id": "0.0-6.0-1.0-25.0"}}, {"uniqueid": "w51722018:a85263904", "current_trial": 35, "dateTime": 1693482276204, "trialdata": {"revealed_states": [], "clicked_states": ["31", "33"], "num_clicks_accrued": [0, 0, 0, 0, 0, 0, 0, 0, 0, 0, 0, 0, 0], "stateRewards": ["", -1, 4, -8, 12, 14, 69, -8, 5, -72, -14, 56, -1, -1, -1, 9, 67, 19, 11, -9, -88, -58, 3, 2, -4, -8, 4, 62, 77, -74, 5, -31, 65, 88], "withholdReward": false, "trial_id": "mdp_trial_27", "block": "test", "trialIndex": 28, "score": 78.7, "costs": -4.3, "simulationMode": [null, null, null, null, null], "rewards": [2, -4, -8, 5, 88], "path": ["0", "0", "23", "24", "25", "30", "33"], "rt": [7611, 178, 67, 127, 159], "actions": ["left", "left", "left", "down", "left"], "actionTimes": [8874, 9548, 10120, 10748, 11398], "queries": {"click": {"state": {"target": ["31", "33"], "time": [1945, 5358]}, "edge": {"target": [], "time": []}}, "mouseover": {"state": {"target": ["0", "31", "6", "10", "33", "17"], "time": [1509, 1730, 2706, 4475, 4825, 5844]}, "edge": {"target": [], "time": []}}, "mouseout": {"state": {"target": ["0", "0", "31", "6", "10", "33", "17"], "time": [1007, 1538, 2155, 4459, 4492, 5477, 12193]}, "edge": {"target": [], "time": []}}}, "displayed_time": "15.26", "trialTime": 22074, "trial_type": "mouselab-mdp", "trial_index": 35, "time_elapsed": 1593923, "internal_node_id": "0.0-6.0-1.0-26.0"}}, {"uniqueid": "w51722018:a85263904", "current_trial": 36, "dateTime": 1693482299353, "trialdata": {"revealed_states": [], "clicked_states": ["33"], "num_clicks_accrued": [0, 0, 0, 0, 0, 0, 0, 0, 0, 0, 0, 0, 0], "stateRewards": ["", 2, -3, 5, -14, -63, -9, -24, -11, -54, -43, 68, 2, -2, -4, 7, -64, 30, 47, 12, -74, 11, 86, 1, -3, 3, 10, -71, -42, -52, -1, -29, -16, 69], "withholdReward": false, "trial_id": "mdp_trial_28", "block": "test", "trialIndex": 29, "score": 66.85, "costs": -2.15, "simulationMode": [null, null, null, null, null], "rewards": [1, -3, 3, -1, 69], "path": ["0", "0", "23", "24", "25", "30", "33"], "rt": [4292, 105, 4, 88, 527], "actions": ["left", "left", "left", "down", "left"], "actionTimes": [5572, 6171, 6670, 7271, 8296], "queries": {"click": {"state": {"target": ["33"], "time": [1964]}, "edge": {"target": [], "time": []}}, "mouseover": {"state": {"target": ["33", "33", "27"], "time": [1338, 1639, 3459]}, "edge": {"target": [], "time": []}}, "mouseout": {"state": {"target": ["0", "33", "33"], "time": [1291, 1405, 3025]}, "edge": {"target": [], "time": []}}}, "displayed_time": "15.28", "trialTime": 22822, "trial_type": "mouselab-mdp", "trial_index": 36, "time_elapsed": 1617073, "internal_node_id": "0.0-6.0-1.0-27.0"}}, {"uniqueid": "w51722018:a85263904", "current_trial": 37, "dateTime": 1693482317702, "trialdata": {"revealed_states": [], "clicked_states": ["16", "33", "29"], "num_clicks_accrued": [0, 0, 0, 0, 0, 0, 0, 0, 0, 0, 0, 0, 0], "stateRewards": ["", -2, 2, 2, -6, 9, 37, 50, -13, -7, -18, -75, -2, -4, 4, 7, 23, -57, -66, -7, -81, -48, -76, 1, 1, -8, 1, 51, -2, 70, 14, 59, 71, -37], "withholdReward": false, "trial_id": "mdp_trial_29", "block": "test", "trialIndex": 30, "score": 58.55, "costs": -6.449999999999999, "simulationMode": [null, null, null, null, null], "rewards": [1, 1, -8, 1, 70], "path": ["0", "0", "23", "24", "25", "26", "29"], "rt": [12425, 25, 370, 24, 90], "actions": ["left", "left", "left", "up", "left"], "actionTimes": [13793, 14315, 15193, 15715, 16315], "queries": {"click": {"state": {"target": ["16", "33", "29"], "time": [2804, 6505, 10403]}, "edge": {"target": [], "time": []}}, "mouseover": {"state": {"target": ["18", "16", "16", "1", "24", "30", "33", "30", "31", "14", "17", "15", "26", "29", "8", "5", "6"], "time": [1738, 2005, 2151, 5523, 5941, 6040, 6226, 6711, 6726, 7159, 7479, 9725, 10018, 10250, 10915, 11199, 11383]}, "edge": {"target": [], "time": []}}, "mouseout": {"state": {"target": ["27", "28", "18", "16", "16", "1", "24", "30", "33", "30", "31", "14", "17", "15", "26", "29", "8", "5", "6"], "time": [635, 698, 1758, 2035, 4456, 5556, 5991, 6179, 6708, 6724, 6742, 7209, 9718, 9742, 10038, 10865, 10931, 11299, 17298]}, "edge": {"target": [], "time": []}}}, "displayed_time": "16.81", "trialTime": 17993, "trial_type": "mouselab-mdp", "trial_index": 37, "time_elapsed": 1635422, "internal_node_id": "0.0-6.0-1.0-28.0"}}, {"uniqueid": "w51722018:a85263904", "current_trial": 38, "dateTime": 1693482337202, "trialdata": {"revealed_states": [], "clicked_states": ["20", "32", "18", "28"], "num_clicks_accrued": [0, 0, 0, 0, 0, 0, 0, 0, 0, 0, 0, 0, 0], "stateRewards": ["", 2, -1, 8, -2, -16, 69, -39, -7, -13, -27, -86, 2, -2, 2, 13, -34, -16, -20, -5, 19, 81, 32, -2, -1, 2, -14, 20, 80, 58, 4, 70, 12, 73], "withholdReward": false, "trial_id": "mdp_trial_30", "block": "test", "trialIndex": 31, "score": 56.4, "costs": -8.6, "simulationMode": [null, null, null, null, null], "rewards": [-2, -1, 2, -14, 80], "path": ["0", "0", "23", "24", "25", "26", "28"], "rt": [13776, 119, 128, 84, 104], "actions": ["left", "left", "left", "up", "right"], "actionTimes": [15189, 15813, 16438, 17012, 17617], "queries": {"click": {"state": {"target": ["20", "32", "18", "28"], "time": [2081, 5403, 8674, 11856]}, "edge": {"target": [], "time": []}}, "mouseover": {"state": {"target": ["0", "20", "19", "31", "30", "33", "32", "31", "0", "12", "18", "18", "28", "26", "28", "26", "29", "27"], "time": [1436, 1940, 2688, 2737, 2755, 2786, 3905, 5858, 5891, 5911, 5975, 6593, 9264, 9283, 9597, 12186, 12319, 12586]}, "edge": {"target": [], "time": []}}, "mouseout": {"state": {"target": ["0", "20", "19", "31", "30", "33", "32", "31", "0", "12", "18", "18", "28", "26", "28", "26", "29", "27", "28", "23"], "time": [1467, 2686, 2702, 2753, 2769, 3821, 5829, 5875, 5909, 5924, 6142, 9213, 9280, 9568, 12152, 12236, 12419, 18699, 18948, 18966]}, "edge": {"target": [], "time": []}}}, "displayed_time": "18.11", "trialTime": 19164, "trial_type": "mouselab-mdp", "trial_index": 38, "time_elapsed": 1654921, "internal_node_id": "0.0-6.0-1.0-29.0"}}, {"uniqueid": "w51722018:a85263904", "current_trial": 39, "dateTime": 1693482361580, "trialdata": {"revealed_states": [], "clicked_states": ["6", "29"], "num_clicks_accrued": [0, 0, 0, 0, 0, 0, 0, 0, 0, 0, 0, 0, 0], "stateRewards": ["", -1, -3, -7, -4, -85, -70, 79, 8, 84, -66, 42, 2, -2, -3, -16, -54, -66, 68, -3, 21, -14, 7, -2, -1, -3, -8, 75, 80, 86, -7, -84, 73, -16], "withholdReward": false, "trial_id": "mdp_trial_31", "block": "test", "trialIndex": 32, "score": 67.7, "costs": -4.3, "simulationMode": [null, null, null, null, null], "rewards": [-2, -1, -3, -8, 86], "path": ["0", "0", "23", "24", "25", "26", "29"], "rt": [7544, 4, 106, 81, 121], "actions": ["left", "left", "left", "up", "left"], "actionTimes": [8708, 9212, 9832, 10407, 11032], "queries": {"click": {"state": {"target": ["6", "29"], "time": [2007, 5246]}, "edge": {"target": [], "time": []}}, "mouseover": {"state": {"target": ["7", "6", "18", "28", "26", "29", "31"], "time": [1330, 1628, 2312, 2578, 2796, 2879, 5533]}, "edge": {"target": [], "time": []}}, "mouseout": {"state": {"target": ["0", "7", "6", "18", "28", "26", "29", "31"], "time": [1264, 1350, 2277, 2528, 2612, 2845, 5399, 11916]}, "edge": {"target": [], "time": []}}}, "displayed_time": "15.17", "trialTime": 24034, "trial_type": "mouselab-mdp", "trial_index": 39, "time_elapsed": 1679299, "internal_node_id": "0.0-6.0-1.0-30.0"}}, {"uniqueid": "w51722018:a85263904", "current_trial": 40, "dateTime": 1693482394796, "trialdata": {"revealed_states": [], "clicked_states": ["6", "29", "31", "17", "11", "21", "32", "33"], "num_clicks_accrued": [0, 0, 0, 0, 0, 0, 0, 0, 0, 0, 0, 0, 0], "stateRewards": ["", 2, -1, 5, 8, 75, -35, -77, 1, -9, -81, -58, 1, 2, -7, 5, 77, -16, 19, 16, -10, -18, 40, -2, 3, 7, -5, 64, 1, -62, 10, 27, 10, 65], "withholdReward": false, "trial_id": "mdp_trial_32", "block": "test", "trialIndex": 33, "score": 65.8, "costs": -17.2, "simulationMode": [null, null, null, null, null], "rewards": [-2, 3, 7, 10, 65], "path": ["0", "0", "23", "24", "25", "30", "33"], "rt": [27425, 219, 72, 179, 95], "actions": ["left", "left", "left", "down", "left"], "actionTimes": [28644, 29393, 29968, 30643, 31243], "queries": {"click": {"state": {"target": ["6", "29", "31", "17", "11", "21", "32", "33"], "time": [1972, 5014, 8206, 11641, 14908, 18043, 21188, 25012]}, "edge": {"target": [], "time": []}}, "mouseover": {"state": {"target": ["6", "2", "26", "29", "25", "31", "13", "15", "17", "15", "18", "10", "11", "2", "20", "21", "19", "20", "19", "32", "33", "25", "28", "10", "3", "5"], "time": [1821, 2784, 3435, 3668, 5271, 5321, 8593, 8797, 9028, 12016, 12052, 12316, 12520, 15173, 15438, 15655, 18510, 18760, 18877, 19011, 21549, 25189, 25207, 25223, 25255, 25504]}, "edge": {"target": [], "time": []}}, "mouseout": {"state": {"target": ["0", "6", "2", "26", "29", "25", "31", "13", "15", "17", "15", "18", "10", "11", "2", "20", "21", "19", "20", "19", "32", "33", "25", "28", "10", "3", "5", "2", "23"], "time": [1520, 2617, 3285, 3485, 5238, 5288, 8443, 8677, 8944, 11983, 12050, 12065, 12416, 15154, 15189, 15471, 18460, 18610, 18860, 18893, 21398, 25170, 25205, 25221, 25238, 25308, 32215, 32249, 32349]}, "edge": {"target": [], "time": []}}}, "displayed_time": "31.73", "trialTime": 32868, "trial_type": "mouselab-mdp", "trial_index": 40, "time_elapsed": 1712517, "internal_node_id": "0.0-6.0-1.0-31.0"}}, {"uniqueid": "w51722018:a85263904", "current_trial": 41, "dateTime": 1693482421104, "trialdata": {"revealed_states": [], "clicked_states": ["9"], "num_clicks_accrued": [0, 0, 0, 0, 0, 0, 0, 0, 0, 0, 0, 0, 0], "stateRewards": ["", -2, 3, -1, 2, -72, 63, 20, -1, 62, -66, 39, -2, 3, -6, 14, 22, 47, 1, 8, -49, -1, -41, 2, 2, -6, -16, -64, -60, -34, 16, 54, 22, -7], "withholdReward": false, "trial_id": "mdp_trial_33", "block": "test", "trialIndex": 34, "score": 58.85, "costs": -2.15, "simulationMode": [null, null, null, null, null], "rewards": [-2, 3, -1, -1, 62], "path": ["0", "0", "1", "2", "3", "8", "9"], "rt": [4979, 5, 8, 123, 430], "actions": ["up", "up", "up", "left", "up"], "actionTimes": [5897, 6403, 6929, 7571, 8496], "queries": {"click": {"state": {"target": ["9"], "time": [2125]}, "edge": {"target": [], "time": []}}, "mouseover": {"state": {"target": ["18", "6", "5", "9", "3", "4", "15", "17"], "time": [952, 1319, 1687, 1770, 2405, 2438, 2956, 2990]}, "edge": {"target": [], "time": []}}, "mouseout": {"state": {"target": ["0", "18", "6", "5", "9", "3", "4", "15"], "time": [534, 985, 1503, 1720, 2356, 2421, 2655, 2972]}, "edge": {"target": [], "time": []}}}, "displayed_time": "14.92", "trialTime": 25922, "trial_type": "mouselab-mdp", "trial_index": 41, "time_elapsed": 1738824, "internal_node_id": "0.0-6.0-1.0-32.0"}}, {"uniqueid": "w51722018:a85263904", "current_trial": 42, "dateTime": 1693482456003, "trialdata": {"revealed_states": [], "clicked_states": ["27", "20", "33", "22", "17", "31", "32", "29"], "num_clicks_accrued": [0, 0, 0, 0, 0, 0, 0, 0, 0, 0, 0, 0, 0], "stateRewards": ["", 2, -1, 4, -9, -43, 7, 54, -13, 38, -40, -83, -1, 2, -8, -10, 34, -33, 11, -14, -79, 65, 26, 1, 2, 4, 10, 21, 1, 86, 4, -53, 28, -29], "withholdReward": false, "trial_id": "mdp_trial_34", "block": "test", "trialIndex": 35, "score": 85.8, "costs": -17.2, "simulationMode": [null, null, null, null, null], "rewards": [1, 2, 4, 10, 86], "path": ["0", "0", "23", "24", "25", "26", "29"], "rt": [28684, 95, 423, 26, 71], "actions": ["left", "left", "left", "up", "left"], "actionTimes": [30120, 30717, 31645, 32167, 32745], "queries": {"click": {"state": {"target": ["27", "20", "33", "22", "17", "31", "32", "29"], "time": [2294, 6596, 10342, 13541, 16870, 20156, 23350, 26717]}, "edge": {"target": [], "time": []}}, "mouseover": {"state": {"target": ["27", "28", "12", "13", "19", "20", "19", "22", "33", "32", "22", "14", "17", "15", "23", "24", "25", "29", "30", "31", "32", "29", "27", "28", "28"], "time": [1993, 5633, 5779, 5813, 6197, 6450, 8485, 8532, 10218, 10786, 11604, 14626, 14675, 17146, 17214, 17233, 17431, 18015, 18616, 18850, 20888, 24376, 27130, 27614, 28165]}, "edge": {"target": [], "time": []}}, "mouseout": {"state": {"target": ["17", "12", "0", "27", "28", "12", "13", "19", "20", "19", "22", "33", "33", "32", "22", "14", "17", "15", "23", "24", "25", "29", "30", "31", "32", "29", "27", "28", "28", "22"], "time": [522, 1006, 1497, 3758, 5662, 5811, 5861, 6214, 8098, 8515, 8548, 10409, 10652, 10987, 14593, 14642, 17113, 17163, 17230, 17246, 17781, 18566, 18666, 20669, 23958, 26786, 27514, 27653, 33614, 33708]}, "edge": {"target": [], "time": []}}}, "displayed_time": "33.24", "trialTime": 34545, "trial_type": "mouselab-mdp", "trial_index": 42, "time_elapsed": 1773723, "internal_node_id": "0.0-6.0-1.0-33.0"}}, {"uniqueid": "w51722018:a85263904", "current_trial": 43, "dateTime": 1693482472928, "trialdata": {"revealed_states": [], "clicked_states": ["10", "20", "31"], "num_clicks_accrued": [0, 0, 0, 0, 0, 0, 0, 0, 0, 0, 0, 0, 0], "stateRewards": ["", -2, 3, 3, -14, 62, 36, 49, 16, 11, 17, -84, 2, -1, 6, 2, -82, -73, 49, -6, -87, 48, 50, -1, -2, -1, -16, -11, 37, -44, 4, 55, 73, -10], "withholdReward": false, "trial_id": "mdp_trial_35", "block": "test", "trialIndex": 36, "score": 48.55, "costs": -6.449999999999999, "simulationMode": [null, null, null, null, null], "rewards": [-1, -2, -1, 4, 55], "path": ["0", "0", "23", "24", "25", "30", "31"], "rt": [11659, 67, 49, 23, 92], "actions": ["left", "left", "left", "down", "right"], "actionTimes": [12808, 13379, 13929, 14454, 15057], "queries": {"click": {"state": {"target": ["10", "20", "31"], "time": [2550, 6086, 9221]}, "edge": {"target": [], "time": []}}, "mouseover": {"state": {"target": ["7", "2", "10", "28", "24", "22", "19", "20", "25", "29", "30", "31", "30", "33", "33"], "time": [1977, 2127, 2325, 2743, 2836, 3314, 3332, 3627, 6433, 6717, 7183, 7433, 9387, 9437, 9638]}, "edge": {"target": [], "time": []}}, "mouseout": {"state": {"target": ["0", "7", "2", "10", "28", "24", "22", "19", "20", "25", "29", "30", "31", "30", "33", "33", "30"], "time": [1240, 2076, 2241, 2727, 2814, 3210, 3329, 3345, 6332, 6449, 7100, 7367, 9370, 9420, 9490, 15820, 15843]}, "edge": {"target": [], "time": []}}}, "displayed_time": "15.55", "trialTime": 16582, "trial_type": "mouselab-mdp", "trial_index": 43, "time_elapsed": 1790648, "internal_node_id": "0.0-6.0-1.0-34.0"}}, {"uniqueid": "w51722018:a85263904", "current_trial": 44, "dateTime": 1693482492678, "trialdata": {"revealed_states": [], "clicked_states": [], "num_clicks_accrued": [0, 0, 0, 0, 0, 0, 0, 0, 0, 0, 0, 0, 0], "stateRewards": ["", -1, -2, 4, 9, 10, -75, 39, 16, -43, 88, -19, -1, 1, 2, 4, -31, 10, 73, 12, 41, -64, -81, -2, 2, -6, 1, -81, -1, -26, 3, -59, -3, -20], "withholdReward": false, "trial_id": "mdp_trial_36", "block": "test", "trialIndex": 37, "score": -62, "costs": 0, "simulationMode": [null, null, null, null, null], "rewards": [-2, 2, -6, 3, -59], "path": ["0", "0", "23", "24", "25", "30", "31"], "rt": [14601, 75, 72, 135, 47], "actions": ["left", "left", "left", "down", "right"], "actionTimes": [15382, 15956, 16534, 17181, 17729], "queries": {"click": {"state": {"target": [], "time": []}, "edge": {"target": [], "time": []}}, "mouseover": {"state": {"target": ["23", "24", "25"], "time": [12393, 12470, 12822]}, "edge": {"target": [], "time": []}}, "mouseout": {"state": {"target": ["0", "23", "24", "25", "24", "23", "0"], "time": [383, 12438, 12693, 16533, 16577, 16610, 16647]}, "edge": {"target": [], "time": []}}}, "displayed_time": "18.25", "trialTime": 19381, "trial_type": "mouselab-mdp", "trial_index": 44, "time_elapsed": 1810398, "internal_node_id": "0.0-6.0-1.0-35.0"}}, {"uniqueid": "w51722018:a85263904", "current_trial": 45, "dateTime": 1693482516353, "trialdata": {"revealed_states": [], "clicked_states": ["27", "20", "22", "33", "32"], "num_clicks_accrued": [0, 0, 0, 0, 0, 0, 0, 0, 0, 0, 0, 0, 0], "stateRewards": ["", -1, -4, -6, -15, 21, -67, -63, 9, 51, 69, -14, -1, 3, 8, -8, 39, 72, 63, 15, 19, 47, 15, 1, 4, 5, 16, -18, 34, 35, -14, -80, 40, 1], "withholdReward": false, "trial_id": "mdp_trial_37", "block": "test", "trialIndex": 38, "score": 25.25, "costs": -10.75, "simulationMode": [null, null, null, null, null], "rewards": [1, 4, 5, -14, 40], "path": ["0", "0", "23", "24", "25", "30", "32"], "rt": [17832, 51, 57, 91, 361], "actions": ["left", "left", "left", "down", "down"], "actionTimes": [19047, 19593, 20168, 20768, 21621], "queries": {"click": {"state": {"target": ["27", "20", "22", "33", "32"], "time": [2000, 5144, 8382, 11942, 15266]}, "edge": {"target": [], "time": []}}, "mouseover": {"state": {"target": ["28", "27", "27", "28", "1", "14", "20", "20", "19", "22", "31", "30", "33", "30", "31", "32", "32", "30", "25", "28"], "time": [1357, 1691, 1826, 2329, 3010, 3060, 3244, 3422, 5314, 5548, 8636, 8820, 9004, 12226, 12342, 12559, 12760, 15498, 15547, 15920]}, "edge": {"target": [], "time": []}}, "mouseout": {"state": {"target": ["0", "28", "27", "27", "28", "1", "14", "20", "20", "19", "22", "31", "30", "33", "30", "31", "32", "32", "30", "25", "28"], "time": [857, 1646, 1725, 2293, 2977, 3026, 3077, 3277, 5296, 5498, 8586, 8686, 8937, 12192, 12312, 12359, 12596, 15431, 15531, 15665, 22715]}, "edge": {"target": [], "time": []}}}, "displayed_time": "22.13", "trialTime": 23295, "trial_type": "mouselab-mdp", "trial_index": 45, "time_elapsed": 1834072, "internal_node_id": "0.0-6.0-1.0-36.0"}}, {"uniqueid": "w51722018:a85263904", "current_trial": 46, "dateTime": 1693482535478, "trialdata": {"revealed_states": [], "clicked_states": ["7", "31", "29", "17"], "num_clicks_accrued": [0, 0, 0, 0, 0, 0, 0, 0, 0, 0, 0, 0, 0], "stateRewards": ["", -1, 4, -5, 9, 29, -75, -42, -16, 24, -28, -41, 2, -3, 1, 10, 60, 47, 55, -1, -53, 22, -40, 2, -3, -6, 4, -26, 44, 54, 15, -76, 42, 14], "withholdReward": false, "trial_id": "mdp_trial_38", "block": "test", "trialIndex": 39, "score": 42.4, "costs": -8.6, "simulationMode": [null, null, null, null, null], "rewards": [2, -3, -6, 4, 54], "path": ["0", "0", "23", "24", "25", "26", "29"], "rt": [13651, 131, 94, 98, 18], "actions": ["left", "left", "left", "up", "left"], "actionTimes": [14958, 15582, 16180, 16783, 17305], "queries": {"click": {"state": {"target": ["7", "31", "29", "17"], "time": [2354, 5610, 8664, 11728]}, "edge": {"target": [], "time": []}}, "mouseover": {"state": {"target": ["12", "13", "14", "15", "15", "18", "7", "2", "28", "26", "29", "33", "30", "31", "25", "29", "13", "14", "17", "15", "12"], "time": [1459, 1495, 1528, 1609, 1875, 1894, 2159, 2527, 2861, 3045, 3261, 3596, 3663, 3696, 5968, 6116, 8955, 8972, 9589, 12143, 12227]}, "edge": {"target": [], "time": []}}, "mouseout": {"state": {"target": ["0", "12", "13", "14", "15", "15", "18", "7", "2", "28", "26", "29", "33", "30", "31", "25", "29", "13", "14", "17", "15", "12"], "time": [1392, 1475, 1513, 1559, 1642, 1893, 1909, 2510, 2544, 2877, 3113, 3278, 3629, 3679, 5865, 6017, 8887, 8970, 8987, 12109, 12160, 12911]}, "edge": {"target": [], "time": []}}}, "displayed_time": "17.82", "trialTime": 18782, "trial_type": "mouselab-mdp", "trial_index": 46, "time_elapsed": 1853197, "internal_node_id": "0.0-6.0-1.0-37.0"}}, {"uniqueid": "w51722018:a85263904", "current_trial": 47, "dateTime": 1693482562604, "trialdata": {"revealed_states": [], "clicked_states": ["33", "20", "21"], "num_clicks_accrued": [0, 0, 0, 0, 0, 0, 0, 0, 0, 0, 0, 0, 0], "stateRewards": ["", -1, 2, -7, -12, -62, 12, -13, 5, 77, -71, 83, 1, -4, 7, 15, -42, -87, -4, 5, -25, 44, 88, -1, 4, -5, -8, 14, 51, 8, -5, 83, -24, -19], "withholdReward": false, "trial_id": "mdp_trial_39", "block": "test", "trialIndex": 40, "score": 46.55, "costs": -6.449999999999999, "simulationMode": [null, null, null, null, null, null], "rewards": [1, -4, 7, 5, 44], "path": ["0", "0", "12", "13", "14", "19", "21"], "rt": [6367, 4375, 27, 45, 162, 440], "actions": ["right", "right", "right", "right", "down", "down"], "actionTimes": [7307, 11685, 12207, 12757, 13410, 14356], "queries": {"click": {"state": {"target": ["33", "20", "21"], "time": [1837, 4956, 8141]}, "edge": {"target": [], "time": []}}, "mouseover": {"state": {"target": ["23", "24", "25", "33", "30", "20", "21", "32"], "time": [1288, 1326, 1481, 1711, 2143, 2778, 5566, 8955]}, "edge": {"target": [], "time": []}}, "mouseout": {"state": {"target": ["0", "23", "24", "25", "33", "30", "20", "21"], "time": [1264, 1311, 1360, 1505, 2126, 2160, 5466, 8438]}, "edge": {"target": [], "time": []}}}, "displayed_time": "14.94", "trialTime": 26760, "trial_type": "mouselab-mdp", "trial_index": 47, "time_elapsed": 1880323, "internal_node_id": "0.0-6.0-1.0-38.0"}}, {"uniqueid": "w51722018:a85263904", "current_trial": 48, "dateTime": 1693482579378, "trialdata": {"revealed_states": [], "clicked_states": ["33", "17", "27"], "num_clicks_accrued": [0, 0, 0, 0, 0, 0, 0, 0, 0, 0, 0, 0, 0], "stateRewards": ["", 1, -1, 8, -3, 38, 85, -20, -4, 8, 23, 73, 2, -4, 6, -13, 44, 7, -28, -11, -77, 45, -69, 1, -1, -7, -11, 75, -51, -87, 7, 36, -53, -26], "withholdReward": false, "trial_id": "mdp_trial_40", "block": "test", "trialIndex": 41, "score": 50.55, "costs": -6.449999999999999, "simulationMode": [null, null, null, null, null], "rewards": [1, -1, -7, -11, 75], "path": ["0", "0", "23", "24", "25", "26", "27"], "rt": [10347, 241, 335, 124, 29], "actions": ["left", "left", "left", "up", "up"], "actionTimes": [11416, 12162, 12991, 13615, 14138], "queries": {"click": {"state": {"target": ["33", "17", "27"], "time": [1605, 4702, 7917]}, "edge": {"target": [], "time": []}}, "mouseover": {"state": {"target": ["33", "30", "13", "14", "17", "15", "18", "1", "27", "3", "4", "14", "19", "22"], "time": [1441, 1868, 2086, 2105, 2937, 5008, 5028, 5192, 5692, 8215, 8385, 8580, 8815, 8914]}, "edge": {"target": [], "time": []}}, "mouseout": {"state": {"target": ["32", "31", "23", "0", "33", "30", "13", "14", "17", "15", "18", "1", "27", "3", "4", "14", "19", "22"], "time": [354, 416, 587, 1080, 1852, 1953, 2103, 2387, 4992, 5025, 5041, 5241, 8203, 8263, 8497, 8597, 8897, 15193]}, "edge": {"target": [], "time": []}}}, "displayed_time": "15.07", "trialTime": 16415, "trial_type": "mouselab-mdp", "trial_index": 48, "time_elapsed": 1897097, "internal_node_id": "0.0-6.0-1.0-39.0"}}, {"uniqueid": "w51722018:a85263904", "current_trial": 49, "dateTime": 1693482615543, "trialdata": {"rt": 36152, "response": {"Q0": "$-16 to 16", "Q1": "$-32 to $32", "Q2": "$-88 to $88", "Q3": "The cost for clicking on nodes varied between nodes.", "Q4": "Slightly motivated"}, "question_order": [0, 1, 2, 3, 4], "trial_id": "final_quiz_control", "trial_type": "survey-multi-choice", "trial_index": 49, "time_elapsed": 1933264, "internal_node_id": "0.0-6.0-2.0"}}, {"uniqueid": "w51722018:a85263904", "current_trial": 50, "dateTime": 1693482703047, "trialdata": {"rt": 87494, "response": {"Q0": "I have to open several nodes and when I get values around 40+, I chose it right away.", "Q1": "I have to trade my current cost of opening nodes versus the probability of getting higher node value to offset the cost.", "Q2": "Strategy was pretty solid all throughout, so difficulty was not so much. It's more about luck in choosing which nodes to pick."}, "trial_id": "self_report_control", "trial_type": "survey-text", "trial_index": 50, "time_elapsed": 2020768, "internal_node_id": "0.0-6.0-3.0"}}, {"uniqueid": "w51722018:a85263904", "current_trial": 51, "dateTime": 1693482747487, "trialdata": {"rt": 44434, "response": {"Q0": "Strongly disagree", "Q1": "Neither disagree nor agree", "Q2": "Neither disagree nor agree", "Q3": "Strongly agree", "Q4": "Neither disagree nor agree", "Q5": "Strongly agree", "Q6": "Strongly disagree"}, "question_order": [0, 1, 2, 3, 4, 5, 6], "trial_id": "self_report_2", "trial_type": "survey-multi-choice", "trial_index": 51, "time_elapsed": 2065208, "internal_node_id": "0.0-6.0-4.0"}}, {"uniqueid": "w51722018:a85263904", "current_trial": 52, "dateTime": 1693482765182, "trialdata": {"rt": 17688, "response": {"gender": "male", "age": "31", "colorblind": "0", "effort": "1"}, "trial_type": "survey-html-form", "trial_index": 52, "time_elapsed": 2082903, "internal_node_id": "0.0-6.0-5.0"}}, {"uniqueid": "w51722018:a85263904", "current_trial": 53, "dateTime": 1693482785054, "trialdata": {"rt": 19865, "response": {"Q0": "None", "Q1": "No I did not participate in a study like this before.", "Q2": "N/A"}, "trial_type": "survey-text", "trial_index": 53, "time_elapsed": 2102774, "internal_node_id": "0.0-6.0-6.0"}}, {"uniqueid": "w51722018:a85263904", "current_trial": 54, "dateTime": 1693482790101, "trialdata": {"rt": 5043, "stimulus": "<h1>Completion Code Instructions (1/2)</h1>\n<br><br><br><br>\nYou have reached the end of the experiment! The completion code consists of two parts: (1) a code with 2 characters (2) a code with 6 characters. On this page, you will receive the second part of the code. The first part of the completion code will be on the next page.\n<br><br>\nThe second part of your completion code is: <b>EWEK22</b>\n<br><br>\nPlease note this down. Then, press 'Finish HIT' in order to find the first part of your completion code. Once the data has been saved, you will receive this code either in this window or in the original browser window where you started the experiment.\n", "response": 0, "trial_type": "html-button-response", "trial_index": 54, "time_elapsed": 2107822, "internal_node_id": "0.0-6.0-7.0"}}, {"uniqueid": "w51722018:a85263904", "current_trial": 55, "dateTime": 1693482791107, "trialdata": {"success": true, "trial_type": "fullscreen", "trial_index": 55, "time_elapsed": 2108828, "internal_node_id": "0.0-7.0"}}], "questiondata": {"params": {"CODE": "C6DMOQA6", "MIN_TIME": 14, "inspectCost": 1, "startTime": "Thu Aug 31 2023 13:18:01 GMT+0200 (Central European Summer Time)", "bonusRate": 0.002, "variance": "1_2_4_8_44", "branching": "31123"}, "final_score": 2072.4}, "eventdata": [{"eventtype": "initialized", "value": null, "timestamp": 1693480681084, "interval": 0}, {"eventtype": "window_resize", "value": [1024, 767], "timestamp": 1693480681084, "interval": 0}, {"eventtype": "window_resize", "value": [1024, 767], "timestamp": 1693480681418, "interval": 334}, {"eventtype": "window_resize", "value": [1920, 1102], "timestamp": 1693480682554, "interval": 1136}, {"eventtype": "window_resize", "value": [1920, 1200], "timestamp": 1693480723650, "interval": 41096}, {"eventtype": "focus", "value": "off", "timestamp": 1693480728209, "interval": 4559}, {"eventtype": "window_resize", "value": [1920, 1199], "timestamp": 1693480728428, "interval": 219}, {"eventtype": "focus", "value": "on", "timestamp": 1693480728581, "interval": 153}, {"eventtype": "window_resize", "value": [1920, 1200], "timestamp": 1693480728798, "interval": 217}, {"eventtype": "focus", "value": "off", "timestamp": 1693482242920, "interval": 1514122}, {"eventtype": "focus", "value": "on", "timestamp": 1693482243031, "interval": 111}, {"eventtype": "focus", "value": "off", "timestamp": 1693482788329, "interval": 545298}, {"eventtype": "focus", "value": "on", "timestamp": 1693482789313, "interval": 984}, {"eventtype": "window_resize", "value": [1920, 1102], "timestamp": 1693482790351, "interval": 1038}], "useragent": "Mozilla/5.0 (Windows NT 10.0; Win64; x64) AppleWebKit/537.36 (KHTML, like Gecko) Chrome/116.0.0.0 Safari/537.36", "mode": "live", "id": "w51722018:a85263904", "status": "user data saved", "Beginhit": "2023-08-31 11:18:00.612035", "Beginexp": "2023-08-31 11:18:45.252911", "Endhit": "2023-08-31 11:53:12.544108", "psiturkStatus": 3, "browser": "<redacted>", "platform": "windows", "language": "en"}