{"condition": 1, "counterbalance": 0, "assignmentId": "a46320833", "workerId": "w98012153", "hitId": "h42015625", "currenttrial": 62, "bonus": 0, "data": [{"uniqueid": "w98012153:a46320833", "current_trial": 0, "dateTime": 1691142097819, "trialdata": {"success": true, "trial_type": "fullscreen", "trial_index": 0, "time_elapsed": 3347, "internal_node_id": "0.0-0.0"}}, {"uniqueid": "w98012153:a46320833", "current_trial": 1, "dateTime": 1691142116950, "trialdata": {"view_history": [{"page_index": 0, "viewing_time": 19121}], "rt": 19124, "trial_id": "exp_instructions_misaligned", "trial_type": "instructions", "trial_index": 1, "time_elapsed": 22479, "internal_node_id": "0.0-1.0"}}, {"uniqueid": "w98012153:a46320833", "current_trial": 2, "dateTime": 1691142122159, "trialdata": {"success": true, "trial_type": "fullscreen", "trial_index": 2, "time_elapsed": 27688, "internal_node_id": "0.0-2.0-0.0"}}, {"uniqueid": "w98012153:a46320833", "current_trial": 3, "dateTime": 1691142522092, "trialdata": {"view_history": [{"page_index": 0, "viewing_time": 105522}, {"page_index": 1, "viewing_time": 140167}, {"page_index": 2, "viewing_time": 96017}, {"page_index": 3, "viewing_time": 58222}], "rt": 399928, "trial_id": "mouselab_instructions_1_misaligned", "trial_type": "instructions", "trial_index": 3, "time_elapsed": 427621, "internal_node_id": "0.0-2.0-1.0"}}, {"uniqueid": "w98012153:a46320833", "current_trial": 4, "dateTime": 1691142540974, "trialdata": {"revealed_states": [], "clicked_states": [], "num_clicks_accrued": [0, 0, 0, 0, 0, 0, 0, 0, 0, 0, 0, 0, 0], "stateRewards": ["", 10, 10, 10, 10, -10, 10, 10, 10, 10, 10, -10, -10, -10, -10, -10, -10, -10, 10, 10, 10, -10, 10, -10, 10, 10, -10, 10, 10, 10, -10, 10, 10, 10], "withholdReward": false, "trial_id": "practice_1", "block": "test", "trialIndex": 0, "score": 33.5, "costs": 0, "simulationMode": [null, null, null, null, null], "rewards": [10, 10, 10, 10, -10], "path": ["0", "0", "1", "2", "3", "8", "11"], "rt": [4392, 1652, 1892, 227, 224], "actions": ["up", "up", "up", "left", "left"], "actionTimes": [7824, 9987, 12392, 13124, 13854], "queries": {"click": {"state": {"target": [], "time": []}, "edge": {"target": [], "time": []}}, "mouseover": {"state": {"target": ["0", "0"], "time": [4265, 6740]}, "edge": {"target": [], "time": []}}, "mouseout": {"state": {"target": ["0", "0", "0", "0"], "time": [2627, 3110, 4320, 6819]}, "edge": {"target": [], "time": []}}}, "displayed_time": "14.36", "trialTime": 17917, "trial_type": "mouselab-mdp", "trial_index": 4, "time_elapsed": 446502, "internal_node_id": "0.0-2.0-2.0-0.0"}}, {"uniqueid": "w98012153:a46320833", "current_trial": 5, "dateTime": 1691142554925, "trialdata": {"revealed_states": [], "clicked_states": [], "num_clicks_accrued": [0, 0, 0, 0, 0, 0, 0, 0, 0, 0, 0, 0, 0], "stateRewards": ["", -10, 10, 10, -10, 10, 10, 10, 10, -10, -10, 10, 10, -10, -10, 10, 10, 10, 10, 10, -10, 10, 10, -10, -10, -10, -10, 10, -10, 10, -10, 10, 10, 10], "withholdReward": false, "trial_id": "practice_2", "block": "test", "trialIndex": 1, "score": -26.5, "costs": 0, "simulationMode": [null, null, null, null, null], "rewards": [-10, -10, -10, -10, 10], "path": ["0", "0", "23", "24", "25", "30", "32"], "rt": [2532, 625, 485, 1067, 295], "actions": ["left", "left", "left", "down", "down"], "actionTimes": [6001, 7141, 8134, 9714, 10524], "queries": {"click": {"state": {"target": [], "time": []}, "edge": {"target": [], "time": []}}, "mouseover": {"state": {"target": ["0"], "time": [4528]}, "edge": {"target": [], "time": []}}, "mouseout": {"state": {"target": ["0"], "time": [4805]}, "edge": {"target": [], "time": []}}}, "displayed_time": "11.04", "trialTime": 13781, "trial_type": "mouselab-mdp", "trial_index": 5, "time_elapsed": 460453, "internal_node_id": "0.0-2.0-2.0-1.0"}}, {"uniqueid": "w98012153:a46320833", "current_trial": 6, "dateTime": 1691142606085, "trialdata": {"view_history": [{"page_index": 0, "viewing_time": 43912}, {"page_index": 1, "viewing_time": 7246}], "rt": 51158, "trial_id": "mouselab_instructions_2_misaligned", "trial_type": "instructions", "trial_index": 6, "time_elapsed": 511613, "internal_node_id": "0.0-2.0-3.0"}}, {"uniqueid": "w98012153:a46320833", "current_trial": 7, "dateTime": 1691142672717, "trialdata": {"rt": 66628, "response": {"Q0": "There is no cost for clicking on nodes.", "Q1": "The better I perform the higher my bonus will be.", "Q2": "No, the amount of cash at each node of the web may be different each time.", "Q3": "To get the highest total score.", "Q4": "Only before moving the spider.", "Q5": "3 seconds"}, "question_order": [0, 1, 2, 3, 4, 5], "correct": {"Q0": "The cost for clicking on nodes may vary between nodes.", "Q1": "The better I perform the higher my bonus will be.", "Q2": "No, the amount of cash at each node of the web may be different each time.", "Q3": "To get the highest total score.", "Q4": "Only before moving the spider.", "Q5": "3 seconds"}, "trial_id": "mouselab_quiz_misaligned", "trial_type": "survey-multi-choice", "trial_index": 7, "time_elapsed": 578245, "internal_node_id": "0.0-2.0-4.0"}}, {"uniqueid": "w98012153:a46320833", "current_trial": 8, "dateTime": 1691142680488, "trialdata": {"success": true, "trial_type": "fullscreen", "trial_index": 8, "time_elapsed": 586017, "internal_node_id": "0.0-2.1-0.1"}}, {"uniqueid": "w98012153:a46320833", "current_trial": 9, "dateTime": 1691142692467, "trialdata": {"view_history": [{"page_index": 0, "viewing_time": 3636}, {"page_index": 1, "viewing_time": 4567}, {"page_index": 2, "viewing_time": 2165}, {"page_index": 3, "viewing_time": 1607}], "rt": 11976, "trial_id": "mouselab_instructions_1_misaligned", "trial_type": "instructions", "trial_index": 9, "time_elapsed": 597996, "internal_node_id": "0.0-2.1-1.1"}}, {"uniqueid": "w98012153:a46320833", "current_trial": 10, "dateTime": 1691142710425, "trialdata": {"revealed_states": [], "clicked_states": ["1"], "num_clicks_accrued": [0, 0, 0, 0, 0, 0, 0, 0, 0, 0, 0, 0, 0], "stateRewards": ["", 10, 10, 10, 10, -10, 10, 10, 10, 10, 10, -10, -10, -10, -10, -10, -10, -10, 10, 10, 10, -10, 10, -10, 10, 10, -10, 10, 10, 10, -10, 10, 10, 10], "withholdReward": false, "trial_id": "practice_1", "block": "test", "trialIndex": 2, "score": 33, "costs": -0.5, "simulationMode": [null, null, null, null, null], "rewards": [10, 10, 10, 10, -10], "path": ["0", "0", "1", "2", "3", "8", "11"], "rt": [3423, 3374, 1605, 313, 161], "actions": ["up", "up", "up", "left", "left"], "actionTimes": [6866, 10756, 12868, 13689, 14370], "queries": {"click": {"state": {"target": ["1"], "time": [4377]}, "edge": {"target": [], "time": []}}, "mouseover": {"state": {"target": ["1"], "time": [3953]}, "edge": {"target": [], "time": []}}, "mouseout": {"state": {"target": ["0", "0", "0", "1", "2", "8", "2", "2", "1", "12"], "time": [2920, 3304, 3802, 6201, 7934, 9747, 10047, 11398, 15862, 15940]}, "edge": {"target": [], "time": []}}}, "displayed_time": "14.88", "trialTime": 17773, "trial_type": "mouselab-mdp", "trial_index": 10, "time_elapsed": 615953, "internal_node_id": "0.0-2.1-2.1-0.1"}}, {"uniqueid": "w98012153:a46320833", "current_trial": 11, "dateTime": 1691142726875, "trialdata": {"revealed_states": [], "clicked_states": ["13", "15", "19"], "num_clicks_accrued": [0, 0, 0, 0, 0, 0, 0, 0, 0, 0, 0, 0, 0], "stateRewards": ["", -10, 10, 10, -10, 10, 10, 10, 10, -10, -10, 10, 10, -10, -10, 10, 10, 10, 10, 10, -10, 10, 10, -10, -10, -10, -10, 10, -10, 10, -10, 10, 10, 10], "withholdReward": false, "trial_id": "practice_2", "block": "test", "trialIndex": 3, "score": 12, "costs": -1.5, "simulationMode": [null, null, null, null, null], "rewards": [10, -10, -10, 10, 10], "path": ["0", "0", "12", "13", "14", "19", "21"], "rt": [6199, 589, 411, 1192, 145], "actions": ["right", "right", "right", "down", "down"], "actionTimes": [9801, 10911, 11834, 13545, 14196], "queries": {"click": {"state": {"target": ["13", "15", "19"], "time": [5328, 6738, 8408]}, "edge": {"target": [], "time": []}}, "mouseover": {"state": {"target": ["12", "13", "12", "13", "18", "15", "22", "19"], "time": [4092, 4294, 4794, 5076, 6273, 6357, 7878, 8123]}, "edge": {"target": [], "time": []}}, "mouseout": {"state": {"target": ["1", "0", "0", "12", "13", "12", "13", "18", "15", "13", "22", "19", "22"], "time": [1398, 1496, 4031, 4194, 4591, 5028, 6141, 6307, 7705, 7805, 8061, 15665, 15734]}, "edge": {"target": [], "time": []}}}, "displayed_time": "14.72", "trialTime": 16281, "trial_type": "mouselab-mdp", "trial_index": 11, "time_elapsed": 632402, "internal_node_id": "0.0-2.1-2.1-1.1"}}, {"uniqueid": "w98012153:a46320833", "current_trial": 12, "dateTime": 1691142737300, "trialdata": {"view_history": [{"page_index": 0, "viewing_time": 8470}, {"page_index": 1, "viewing_time": 1948}], "rt": 10419, "trial_id": "mouselab_instructions_2_misaligned", "trial_type": "instructions", "trial_index": 12, "time_elapsed": 642829, "internal_node_id": "0.0-2.1-3.1"}}, {"uniqueid": "w98012153:a46320833", "current_trial": 13, "dateTime": 1691142788358, "trialdata": {"rt": 51051, "response": {"Q0": "The cost for clicking on nodes may vary between nodes.", "Q1": "The better I perform the higher my bonus will be.", "Q2": "No, the amount of cash at each node of the web may be different each time.", "Q3": "To get the highest total score.", "Q4": "Only before moving the spider.", "Q5": "3 seconds"}, "question_order": [0, 1, 2, 3, 4, 5], "correct": {"Q0": "The cost for clicking on nodes may vary between nodes.", "Q1": "The better I perform the higher my bonus will be.", "Q2": "No, the amount of cash at each node of the web may be different each time.", "Q3": "To get the highest total score.", "Q4": "Only before moving the spider.", "Q5": "3 seconds"}, "trial_id": "mouselab_quiz_misaligned", "trial_type": "survey-multi-choice", "trial_index": 13, "time_elapsed": 693887, "internal_node_id": "0.0-2.1-4.1"}}, {"uniqueid": "w98012153:a46320833", "current_trial": 14, "dateTime": 1691142807705, "trialdata": {"rt": 19330, "stimulus": "\n<h1> Get ready to start the game! </h1>\n\nThank you for reading the instructions. Get ready start with the 40 rounds of this game.\n<br><br>\nIf you need to take a break, feel free to take one after the end of a round, before continuing to the next one.\n<br><br>\nRemember, the more money the spider gets, the bigger your bonus will be!\n<br><br>\n<div style='text-align: center;'>Press <code>space</code> to begin.</div>\n\n<br><br>\n(If, at any point, the <code>space</code> key does not take you to the next page, click once on the text and try again.)", "response": " ", "trial_id": "mdp_ready", "trial_type": "html-keyboard-response", "trial_index": 14, "time_elapsed": 713234, "internal_node_id": "0.0-4.0-0.0"}}, {"uniqueid": "w98012153:a46320833", "current_trial": 15, "dateTime": 1691142826834, "trialdata": {"revealed_states": [], "clicked_states": ["2", "8", "4", "13", "24"], "num_clicks_accrued": [0, 0, 0, 0, 0, 0, 0, 0, 0, 0, 0, 0, 0], "stateRewards": ["", 1, -1, 8, -3, 38, 85, -20, -4, 8, 23, 73, 2, -4, 6, -13, 44, 7, -28, -11, -77, 45, -69, 1, -1, -7, -11, 75, -51, -87, 7, 36, -53, -26], "withholdReward": false, "trial_id": "mdp_trial_1", "block": "test", "trialIndex": 4, "score": 31.85, "costs": -4.15, "simulationMode": [null, null, null, null, null], "rewards": [1, -1, -7, 7, 36], "path": ["0", "0", "23", "24", "25", "30", "31"], "rt": [7731, 281, 275, 425, 377], "actions": ["left", "left", "left", "down", "right"], "actionTimes": [10127, 10939, 11731, 12662, 13563], "queries": {"click": {"state": {"target": ["2", "8", "4", "13", "24"], "time": [3374, 5035, 6575, 8064, 9846]}, "edge": {"target": [], "time": []}}, "mouseover": {"state": {"target": ["1", "2", "8", "3", "4", "4", "13", "12", "0", "23", "24"], "time": [2695, 2829, 4343, 5893, 5925, 6279, 7793, 9138, 9238, 9306, 9355]}, "edge": {"target": [], "time": []}}, "mouseout": {"state": {"target": ["23", "0", "0", "1", "2", "8", "3", "4", "4", "13", "12", "0", "23"], "time": [1602, 1697, 2641, 2762, 3448, 5876, 5908, 6008, 7474, 9105, 9208, 9271, 9322]}, "edge": {"target": [], "time": []}}}, "displayed_time": "16.40", "trialTime": 18933, "trial_type": "mouselab-mdp", "trial_index": 15, "time_elapsed": 732362, "internal_node_id": "0.0-4.0-1.0-0.0"}}, {"uniqueid": "w98012153:a46320833", "current_trial": 16, "dateTime": 1691142844475, "trialdata": {"revealed_states": [], "clicked_states": ["2", "15", "20"], "num_clicks_accrued": [0, 0, 0, 0, 0, 0, 0, 0, 0, 0, 0, 0, 0], "stateRewards": ["", -1, -3, -3, 1, -38, 2, -53, -2, -1, -81, 70, -1, 1, -5, -9, 46, 15, 35, -1, -22, 38, 59, -2, 4, -8, 13, 1, -83, -43, 4, 76, 13, 48], "withholdReward": false, "trial_id": "mdp_trial_2", "block": "test", "trialIndex": 5, "score": -8.05, "costs": -4.05, "simulationMode": [null, null, null, null, null, null], "rewards": [-1, -3, -3, 1, 2], "path": ["0", "0", "1", "2", "3", "4", "6"], "rt": [4284, 1329, 489, 165, 670, 350], "actions": ["right", "up", "up", "up", "right", "right"], "actionTimes": [6214, 7546, 8570, 9242, 10431, 11292], "queries": {"click": {"state": {"target": ["2", "15", "20"], "time": [2787, 4350, 5493]}, "edge": {"target": [], "time": []}}, "mouseover": {"state": {"target": ["7", "2", "7", "18", "15", "14", "20"], "time": [2184, 2587, 3115, 3532, 4132, 4880, 5229]}, "edge": {"target": [], "time": []}}, "mouseout": {"state": {"target": ["24", "23", "1", "0", "7", "2", "7", "18", "15", "14"], "time": [452, 499, 786, 2136, 2267, 3098, 3165, 4034, 4829, 4929]}, "edge": {"target": [], "time": []}}}, "displayed_time": "15.93", "trialTime": 17463, "trial_type": "mouselab-mdp", "trial_index": 16, "time_elapsed": 750004, "internal_node_id": "0.0-4.0-1.0-1.0"}}, {"uniqueid": "w98012153:a46320833", "current_trial": 17, "dateTime": 1691142863515, "trialdata": {"revealed_states": [], "clicked_states": ["1", "10", "11"], "num_clicks_accrued": [0, 0, 0, 0, 0, 0, 0, 0, 0, 0, 0, 0, 0], "stateRewards": ["", -1, 2, 6, 11, 21, -21, -21, -6, 48, -71, 88, -1, -3, 3, 7, 64, 2, 9, -4, 37, -67, 72, 2, 2, -8, -8, -10, 71, -40, -3, 73, 80, 47], "withholdReward": false, "trial_id": "mdp_trial_3", "block": "test", "trialIndex": 6, "score": 84.95, "costs": -4.05, "simulationMode": [null, null, null, null, null, null], "rewards": [-1, 2, 6, -6, 88], "path": ["0", "0", "1", "2", "3", "8", "11"], "rt": [7040, 1885, 392, 928, 171, 111], "actions": ["up", "up", "up", "up", "left", "left"], "actionTimes": [9750, 11638, 12541, 13975, 14667, 15288], "queries": {"click": {"state": {"target": ["1", "10", "11"], "time": [3791, 4779, 8598]}, "edge": {"target": [], "time": []}}, "mouseover": {"state": {"target": ["28", "1", "10", "2", "7", "3", "8", "8", "11", "8", "3", "2"], "time": [3155, 3473, 4370, 5469, 6101, 7167, 7467, 7922, 8339, 11114, 11231, 11280]}, "edge": {"target": [], "time": []}}, "mouseout": {"state": {"target": ["20", "13", "13", "13", "15", "16", "12", "0", "0", "28", "1", "10", "2", "7", "3", "8", "8", "11", "8", "3", "2"], "time": [859, 1077, 1189, 1240, 1323, 1356, 1871, 1905, 2930, 3310, 3856, 5253, 5986, 7051, 7384, 7567, 8139, 8677, 11180, 11247, 11314]}, "edge": {"target": [], "time": []}}}, "displayed_time": "16.71", "trialTime": 18858, "trial_type": "mouselab-mdp", "trial_index": 17, "time_elapsed": 769042, "internal_node_id": "0.0-4.0-1.0-2.0"}}, {"uniqueid": "w98012153:a46320833", "current_trial": 18, "dateTime": 1691142885048, "trialdata": {"revealed_states": [], "clicked_states": ["13", "20"], "num_clicks_accrued": [0, 0, 0, 0, 0, 0, 0, 0, 0, 0, 0, 0, 0], "stateRewards": ["", 2, -1, 3, -12, -83, 6, -33, 9, 28, 24, -50, -2, -1, -2, -5, -87, 37, 82, 12, 80, -5, 10, -2, -3, -6, 9, 22, -1, 16, 9, 77, -62, 58], "withholdReward": false, "trial_id": "mdp_trial_4", "block": "test", "trialIndex": 7, "score": -43.5, "costs": -2.5, "simulationMode": [null, null, null, null, null], "rewards": [2, -1, 3, -12, -33], "path": ["0", "0", "1", "2", "3", "4", "7"], "rt": [8715, 2870, 2107, 206, 320], "actions": ["up", "up", "up", "right", "down"], "actionTimes": [11701, 15078, 17695, 18408, 19238], "queries": {"click": {"state": {"target": ["13", "20"], "time": [5363, 7949]}, "edge": {"target": [], "time": []}}, "mouseover": {"state": {"target": ["12", "13", "13", "22", "19", "21", "19", "20", "19", "22", "22", "19"], "time": [3735, 3798, 4283, 6113, 6948, 7164, 7546, 7713, 8477, 8544, 9793, 11309]}, "edge": {"target": [], "time": []}}, "mouseout": {"state": {"target": ["0", "0", "12", "13", "13", "13", "22", "19", "21", "19", "20", "19", "22", "22", "19"], "time": [2200, 3624, 3766, 4069, 5476, 5963, 6762, 7081, 7464, 7577, 8460, 8510, 9476, 11080, 11326]}, "edge": {"target": [], "time": []}}}, "displayed_time": "19.75", "trialTime": 21353, "trial_type": "mouselab-mdp", "trial_index": 18, "time_elapsed": 790576, "internal_node_id": "0.0-4.0-1.0-3.0"}}, {"uniqueid": "w98012153:a46320833", "current_trial": 19, "dateTime": 1691142902514, "trialdata": {"revealed_states": [], "clicked_states": ["15", "19", "20"], "num_clicks_accrued": [0, 0, 0, 0, 0, 0, 0, 0, 0, 0, 0, 0, 0], "stateRewards": ["", 1, 1, 1, -3, -7, -1, -41, -10, 20, -72, -63, 1, -4, -2, 2, -66, 30, -84, -2, 49, 23, 71, -1, -4, 4, -12, 67, 5, 18, -16, 88, 56, -5], "withholdReward": false, "trial_id": "mdp_trial_5", "block": "test", "trialIndex": 8, "score": 36.75, "costs": -5.25, "simulationMode": [null, null, null, null, null], "rewards": [1, -4, -2, -2, 49], "path": ["0", "0", "12", "13", "14", "19", "20"], "rt": [9002, 800, 256, 229, 323], "actions": ["right", "right", "right", "down", "right"], "actionTimes": [11343, 12679, 13451, 14189, 15033], "queries": {"click": {"state": {"target": ["15", "19", "20"], "time": [5127, 7206, 8420]}, "edge": {"target": [], "time": []}}, "mouseover": {"state": {"target": ["12", "13", "12", "12", "13", "14", "15", "14", "19", "20", "22", "13", "18"], "time": [3139, 3341, 3622, 4023, 4085, 4422, 4702, 5917, 7018, 8133, 9114, 9730, 9864]}, "edge": {"target": [], "time": []}}, "mouseout": {"state": {"target": ["13", "0", "0", "12", "13", "12", "12", "13", "14", "15", "15", "14", "19", "20", "19", "22", "13"], "time": [1005, 1805, 3038, 3236, 3454, 3836, 4051, 4187, 4634, 5206, 5801, 6850, 7309, 8470, 9081, 9646, 9813]}, "edge": {"target": [], "time": []}}}, "displayed_time": "16.34", "trialTime": 17276, "trial_type": "mouselab-mdp", "trial_index": 19, "time_elapsed": 808041, "internal_node_id": "0.0-4.0-1.0-4.0"}}, {"uniqueid": "w98012153:a46320833", "current_trial": 20, "dateTime": 1691142919244, "trialdata": {"revealed_states": [], "clicked_states": ["10", "6"], "num_clicks_accrued": [0, 0, 0, 0, 0, 0, 0, 0, 0, 0, 0, 0, 0], "stateRewards": ["", -2, -1, -6, -14, -55, 78, -13, 11, 14, -71, 59, 2, 2, 6, -6, 9, 38, 14, 7, 85, 11, 68, 1, -4, -1, -3, -63, -85, 9, -2, 63, -86, -10], "withholdReward": false, "trial_id": "mdp_trial_6", "block": "test", "trialIndex": 9, "score": 50.7, "costs": -4.3, "simulationMode": [null, null, null, null, null], "rewards": [-2, -1, -6, -14, 78], "path": ["0", "0", "1", "2", "3", "4", "6"], "rt": [9092, 402, 265, 379, 421], "actions": ["up", "up", "up", "right", "right"], "actionTimes": [10638, 11548, 12326, 13222, 14164], "queries": {"click": {"state": {"target": ["10", "6"], "time": [2791, 5804]}, "edge": {"target": [], "time": []}}, "mouseover": {"state": {"target": ["1", "10", "8", "9", "6", "15", "17", "15", "17"], "time": [1792, 2488, 3384, 3768, 4717, 6865, 7114, 8780, 9283]}, "edge": {"target": [], "time": []}}, "mouseout": {"state": {"target": ["18", "1", "10", "8", "9", "6", "15", "17", "15", "17"], "time": [624, 1957, 2856, 3684, 3817, 6748, 6998, 8731, 9079, 9367]}, "edge": {"target": [], "time": []}}}, "displayed_time": "15.55", "trialTime": 16538, "trial_type": "mouselab-mdp", "trial_index": 20, "time_elapsed": 824772, "internal_node_id": "0.0-4.0-1.0-5.0"}}, {"uniqueid": "w98012153:a46320833", "current_trial": 21, "dateTime": 1691142946350, "trialdata": {"revealed_states": [], "clicked_states": ["25", "31", "29", "28", "27"], "num_clicks_accrued": [0, 0, 0, 0, 0, 0, 0, 0, 0, 0, 0, 0, 0], "stateRewards": ["", -1, -2, 4, 9, 10, -75, 39, 16, -43, 88, -19, -1, 1, 2, 4, -31, 10, 73, 12, 41, -64, -81, -2, 2, -6, 1, -81, -1, -26, 3, -59, -3, -20], "withholdReward": false, "trial_id": "mdp_trial_7", "block": "test", "trialIndex": 10, "score": 45.45, "costs": -9.55, "simulationMode": [null, null, null, null, null, null], "rewards": [-1, 1, 2, 12, 41], "path": ["0", "0", "12", "13", "14", "19", "20"], "rt": [15061, 1556, 337, 323, 263, 176], "actions": ["left", "right", "right", "right", "down", "right"], "actionTimes": [18963, 20522, 21383, 22215, 22987, 23682], "queries": {"click": {"state": {"target": ["25", "31", "29", "28", "27"], "time": [5488, 7076, 9994, 14342, 18402]}, "edge": {"target": [], "time": []}}, "mouseover": {"state": {"target": ["23", "24", "24", "24", "25", "30", "31", "31", "32", "32", "30", "29", "27", "28", "30", "32", "30", "25", "26", "27"], "time": [4290, 4340, 4495, 4824, 5057, 6055, 6272, 6791, 7553, 7854, 9302, 9518, 10668, 11617, 14900, 15281, 17627, 17662, 17711, 17877]}, "edge": {"target": [], "time": []}}, "mouseout": {"state": {"target": ["15", "18", "0", "23", "24", "24", "24", "25", "30", "31", "31", "32", "32", "30", "29", "27", "28", "28", "30", "32", "30", "25", "26", "27", "24", "27", "29"], "time": [943, 976, 4256, 4324, 4391, 4642, 4974, 6022, 6172, 6538, 7487, 7637, 9285, 9319, 10502, 11184, 14781, 14833, 14916, 17615, 17660, 17679, 17777, 25204, 25705, 25788, 26171]}, "edge": {"target": [], "time": []}}}, "displayed_time": "24.19", "trialTime": 26916, "trial_type": "mouselab-mdp", "trial_index": 21, "time_elapsed": 851878, "internal_node_id": "0.0-4.0-1.0-6.0"}}, {"uniqueid": "w98012153:a46320833", "current_trial": 22, "dateTime": 1691142965663, "trialdata": {"revealed_states": [], "clicked_states": [], "num_clicks_accrued": [0, 0, 0, 0, 0, 0, 0, 0, 0, 0, 0, 0, 0], "stateRewards": ["", -1, 1, -1, 2, 19, 85, -18, 2, -3, -26, 36, 2, 4, 7, -9, -18, 70, 72, -5, 35, -20, -28, 1, -2, -4, -3, -59, -11, -63, -2, -72, 59, -69], "withholdReward": false, "trial_id": "mdp_trial_8", "block": "test", "trialIndex": 11, "score": 52, "costs": 0, "simulationMode": [null, null, null, null, null], "rewards": [1, -2, -4, -2, 59], "path": ["0", "0", "23", "24", "25", "30", "32"], "rt": [652, 668, 518, 145, 136], "actions": ["left", "left", "left", "down", "down"], "actionTimes": [3865, 5043, 6076, 6735, 7409], "queries": {"click": {"state": {"target": [], "time": []}, "edge": {"target": [], "time": []}}, "mouseover": {"state": {"target": [], "time": []}, "edge": {"target": [], "time": []}}, "mouseout": {"state": {"target": ["29", "27", "28", "23", "0"], "time": [812, 1360, 1510, 1629, 18460]}, "edge": {"target": [], "time": []}}}, "displayed_time": "17.21", "trialTime": 19121, "trial_type": "mouselab-mdp", "trial_index": 22, "time_elapsed": 871191, "internal_node_id": "0.0-4.0-1.0-7.0"}}, {"uniqueid": "w98012153:a46320833", "current_trial": 23, "dateTime": 1691142993702, "trialdata": {"revealed_states": [], "clicked_states": ["29", "5", "18", "20", "22"], "num_clicks_accrued": [0, 0, 0, 0, 0, 0, 0, 0, 0, 0, 0, 0, 0], "stateRewards": ["", -1, -3, -5, -14, -13, -47, 79, 8, -60, -64, 41, -1, 2, 3, 13, -46, 61, -79, -11, -64, -65, 23, 1, -2, 6, -14, 46, 32, 21, 7, 75, -66, 15], "withholdReward": false, "trial_id": "mdp_trial_9", "block": "test", "trialIndex": 12, "score": -80.75, "costs": -10.75, "simulationMode": [null, null, null, null, null], "rewards": [-1, -3, -5, -14, -47], "path": ["0", "0", "1", "2", "3", "4", "6"], "rt": [20944, 322, 154, 89, 130], "actions": ["up", "up", "up", "right", "right"], "actionTimes": [22839, 23678, 24342, 24943, 25584], "queries": {"click": {"state": {"target": ["29", "5", "18", "20", "22"], "time": [3031, 7704, 12381, 15799, 18767]}, "edge": {"target": [], "time": []}}, "mouseover": {"state": {"target": ["28", "26", "29", "27", "11", "9", "9", "5", "3", "3", "5", "9", "17", "15", "18", "15", "20", "19", "22", "22", "12", "1", "2", "3", "3"], "time": [2392, 2424, 2676, 3424, 3506, 3855, 4222, 5254, 6853, 7089, 7288, 8352, 9101, 11249, 11750, 13047, 13581, 16379, 16433, 16894, 19591, 19891, 19924, 19958, 20341]}, "edge": {"target": [], "time": []}}, "mouseout": {"state": {"target": ["12", "28", "26", "29", "27", "11", "9", "9", "5", "3", "3", "5", "5", "9", "17", "15", "18", "15", "20", "19", "22", "22", "12", "1", "2", "3"], "time": [463, 2411, 2441, 3390, 3440, 3772, 4039, 4838, 6740, 6920, 7135, 7807, 8302, 8635, 11100, 11501, 13013, 13131, 16377, 16411, 16594, 19491, 19641, 19907, 19941, 19975]}, "edge": {"target": [], "time": []}}}, "displayed_time": "26.10", "trialTime": 27827, "trial_type": "mouselab-mdp", "trial_index": 23, "time_elapsed": 899229, "internal_node_id": "0.0-4.0-1.0-8.0"}}, {"uniqueid": "w98012153:a46320833", "current_trial": 24, "dateTime": 1691143030882, "trialdata": {"revealed_states": [], "clicked_states": ["18"], "num_clicks_accrued": [0, 0, 0, 0, 0, 0, 0, 0, 0, 0, 0, 0, 0], "stateRewards": ["", 2, 3, 8, 14, 69, -27, 17, 2, -71, -65, -10, 2, -3, 7, 8, 65, -10, 65, -12, 73, -12, 13, -2, -2, 6, 10, -79, -69, -18, 10, -85, 67, 74], "withholdReward": false, "trial_id": "mdp_trial_10", "block": "test", "trialIndex": 13, "score": 76.85, "costs": -2.15, "simulationMode": [null, null, null, null, null], "rewards": [2, -3, 7, 8, 65], "path": ["0", "0", "12", "13", "14", "15", "18"], "rt": [5484, 255, 241, 802, 570], "actions": ["right", "right", "right", "up", "left"], "actionTimes": [26818, 27580, 28331, 29642, 30725], "queries": {"click": {"state": {"target": ["18"], "time": [22605]}, "edge": {"target": [], "time": []}}, "mouseover": {"state": {"target": ["12", "17", "15", "18", "13", "22", "19", "20", "15", "16", "6", "5"], "time": [21661, 21781, 22077, 22315, 23359, 23693, 23792, 23942, 25258, 25311, 25375, 25440]}, "edge": {"target": [], "time": []}}, "mouseout": {"state": {"target": ["3", "2", "23", "12", "0", "12", "17", "15", "18", "13", "22", "19", "20", "15", "16", "6", "5", "12"], "time": [447, 514, 614, 865, 21648, 21678, 22061, 22110, 23310, 23576, 23726, 23843, 25008, 25277, 25326, 25390, 25809, 32186]}, "edge": {"target": [], "time": []}}}, "displayed_time": "35.34", "trialTime": 36972, "trial_type": "mouselab-mdp", "trial_index": 24, "time_elapsed": 936410, "internal_node_id": "0.0-4.0-1.0-9.0"}}, {"uniqueid": "w98012153:a46320833", "current_trial": 25, "dateTime": 1691143054097, "trialdata": {"revealed_states": [], "clicked_states": ["7", "10", "22", "17"], "num_clicks_accrued": [0, 0, 0, 0, 0, 0, 0, 0, 0, 0, 0, 0, 0], "stateRewards": ["", -2, 1, -7, -8, -37, -76, -87, 11, 30, -63, 80, -1, 4, 2, -1, 42, 17, 52, -3, -75, -80, -68, 2, -3, -5, -15, -48, 82, 24, -7, 5, -22, -71], "withholdReward": false, "trial_id": "mdp_trial_11", "block": "test", "trialIndex": 14, "score": 52.4, "costs": -8.6, "simulationMode": [null, null, null, null, null, null], "rewards": [2, -3, -5, -15, 82], "path": ["0", "0", "23", "24", "25", "26", "28"], "rt": [13436, 2853, 318, 232, 302, 96], "actions": ["right", "left", "left", "left", "up", "right"], "actionTimes": [15296, 18152, 18980, 19726, 20546, 21157], "queries": {"click": {"state": {"target": ["7", "10", "22", "17"], "time": [3352, 6522, 10151, 14195]}, "edge": {"target": [], "time": []}}, "mouseover": {"state": {"target": ["7", "7", "2", "10", "2", "18", "19", "22", "13", "13", "19", "22", "21", "21", "20", "17"], "time": [2593, 3110, 4009, 4158, 7240, 7272, 7854, 8554, 8922, 9186, 9370, 9638, 10801, 11235, 12017, 13951]}, "edge": {"target": [], "time": []}}, "mouseout": {"state": {"target": ["0", "7", "7", "2", "10", "2", "18", "19", "22", "13", "13", "19", "22", "21", "21", "20", "17"], "time": [1530, 2727, 3975, 4041, 7238, 7255, 7305, 8521, 8886, 9053, 9236, 9572, 10735, 10968, 11734, 13636, 15097]}, "edge": {"target": [], "time": []}}}, "displayed_time": "21.68", "trialTime": 23002, "trial_type": "mouselab-mdp", "trial_index": 25, "time_elapsed": 959625, "internal_node_id": "0.0-4.0-1.0-10.0"}}, {"uniqueid": "w98012153:a46320833", "current_trial": 26, "dateTime": 1691143073483, "trialdata": {"revealed_states": [], "clicked_states": ["7", "31", "29"], "num_clicks_accrued": [0, 0, 0, 0, 0, 0, 0, 0, 0, 0, 0, 0, 0], "stateRewards": ["", 1, 1, 5, 6, -29, -7, 3, -16, 9, -46, 65, -1, 4, -1, -16, -63, -77, -87, 8, 80, -50, 43, -1, -1, -5, 5, -38, -71, -62, 9, 81, -50, -52], "withholdReward": false, "trial_id": "mdp_trial_12", "block": "test", "trialIndex": 15, "score": 76.55, "costs": -6.449999999999999, "simulationMode": [null, null, null, null, null, null], "rewards": [-1, -1, -5, 9, 81], "path": ["0", "0", "23", "24", "25", "30", "31"], "rt": [7233, 4098, 191, 124, 232, 84], "actions": ["left", "left", "left", "left", "down", "right"], "actionTimes": [10565, 14666, 15388, 16019, 16759, 17360], "queries": {"click": {"state": {"target": ["7", "31", "29"], "time": [4586, 9837, 12501]}, "edge": {"target": [], "time": []}}, "mouseover": {"state": {"target": ["6", "4", "7", "2", "24", "25", "30", "31", "25", "29", "26", "24"], "time": [3989, 4189, 4320, 5152, 5235, 5286, 5735, 5954, 11846, 11979, 13545, 13694]}, "edge": {"target": [], "time": []}}, "mouseout": {"state": {"target": ["17", "2", "22", "18", "0", "0", "6", "4", "7", "2", "24", "25", "30", "31", "25", "29", "26", "24"], "time": [2038, 2122, 2339, 2439, 2623, 2955, 4088, 4239, 5119, 5169, 5269, 5635, 5801, 10006, 11897, 13445, 13628, 13711]}, "edge": {"target": [], "time": []}}}, "displayed_time": "17.88", "trialTime": 19174, "trial_type": "mouselab-mdp", "trial_index": 26, "time_elapsed": 979011, "internal_node_id": "0.0-4.0-1.0-11.0"}}, {"uniqueid": "w98012153:a46320833", "current_trial": 27, "dateTime": 1691143100089, "trialdata": {"revealed_states": [], "clicked_states": ["22", "11"], "num_clicks_accrued": [0, 0, 0, 0, 0, 0, 0, 0, 0, 0, 0, 0, 0], "stateRewards": ["", -1, 4, 3, 12, -27, 34, -33, 3, -63, 1, 6, 2, 2, -6, -11, -77, -85, 68, -6, 51, 81, -60, -2, -2, 1, 15, 20, 15, 68, -10, -14, 6, -4], "withholdReward": false, "trial_id": "mdp_trial_13", "block": "test", "trialIndex": 16, "score": 27.7, "costs": -4.3, "simulationMode": [null, null, null, null, null], "rewards": [-2, -2, 1, 15, 20], "path": ["0", "0", "23", "24", "25", "26", "27"], "rt": [13249, 554, 252, 36, 7], "actions": ["left", "left", "left", "up", "up"], "actionTimes": [21114, 22184, 22948, 23497, 24034], "queries": {"click": {"state": {"target": ["22", "11"], "time": [9178, 14285]}, "edge": {"target": [], "time": []}}, "mouseover": {"state": {"target": ["12", "22", "22", "14", "15", "17", "16", "6", "4", "3", "8", "11", "8", "3", "4", "6", "6", "5", "3", "4", "2", "24", "25", "25", "24"], "time": [8556, 8724, 8959, 9873, 9908, 10256, 10955, 10990, 11025, 11321, 13405, 13718, 15119, 15234, 15350, 15801, 16200, 18231, 18484, 18665, 18883, 19251, 19535, 19798, 19979]}, "edge": {"target": [], "time": []}}, "mouseout": {"state": {"target": ["1", "24", "31", "21", "14", "13", "12", "12", "22", "22", "14", "15", "17", "16", "6", "4", "3", "8", "11", "8", "3", "4", "6", "6", "5", "3", "4", "2", "24", "25", "25"], "time": [6726, 6758, 6791, 6893, 6993, 7041, 7293, 8607, 8757, 9839, 9906, 9922, 10938, 10988, 11007, 11055, 13121, 13671, 14389, 15184, 15284, 15750, 15917, 18198, 18335, 18632, 18849, 18902, 19296, 19597, 19950]}, "edge": {"target": [], "time": []}}}, "displayed_time": "24.56", "trialTime": 26387, "trial_type": "mouselab-mdp", "trial_index": 27, "time_elapsed": 1005616, "internal_node_id": "0.0-4.0-1.0-12.0"}}, {"uniqueid": "w98012153:a46320833", "current_trial": 28, "dateTime": 1691143118308, "trialdata": {"revealed_states": [], "clicked_states": ["14", "29", "27"], "num_clicks_accrued": [0, 0, 0, 0, 0, 0, 0, 0, 0, 0, 0, 0, 0], "stateRewards": ["", 1, 2, -8, 9, 18, -83, -11, 6, -64, -48, 17, -2, -2, -5, -3, -24, -3, -86, -2, 48, -41, -22, -2, 4, 7, 8, 81, 13, -48, 10, 61, 19, 57], "withholdReward": false, "trial_id": "mdp_trial_14", "block": "test", "trialIndex": 17, "score": 92.75, "costs": -5.25, "simulationMode": [null, null, null, null, null], "rewards": [-2, 4, 7, 8, 81], "path": ["0", "0", "23", "24", "25", "26", "27"], "rt": [11743, 122, 80, 90, 71], "actions": ["left", "left", "left", "up", "up"], "actionTimes": [13260, 13892, 14483, 15093, 15673], "queries": {"click": {"state": {"target": ["14", "29", "27"], "time": [2643, 5526, 8971]}, "edge": {"target": [], "time": []}}, "mouseover": {"state": {"target": ["12", "13", "14", "15", "17", "15", "29", "29", "26", "27", "28", "1", "2", "3", "8", "11", "10"], "time": [1929, 2013, 2379, 3545, 3715, 4411, 4528, 5262, 6559, 6926, 9608, 9739, 9806, 9889, 9989, 10073, 10538]}, "edge": {"target": [], "time": []}}, "mouseout": {"state": {"target": ["24", "23", "0", "12", "13", "14", "15", "17", "15", "29", "29", "26", "27", "28", "1", "2", "3", "8", "11"], "time": [733, 763, 1913, 1980, 2346, 3362, 3628, 4410, 4444, 4545, 6143, 6692, 9589, 9640, 9773, 9823, 9939, 10038, 10372]}, "edge": {"target": [], "time": []}}}, "displayed_time": "16.18", "trialTime": 18014, "trial_type": "mouselab-mdp", "trial_index": 28, "time_elapsed": 1023835, "internal_node_id": "0.0-4.0-1.0-13.0"}}, {"uniqueid": "w98012153:a46320833", "current_trial": 29, "dateTime": 1691143137254, "trialdata": {"revealed_states": [], "clicked_states": ["27", "21", "16"], "num_clicks_accrued": [0, 0, 0, 0, 0, 0, 0, 0, 0, 0, 0, 0, 0], "stateRewards": ["", -2, 1, 6, -2, -10, -78, -69, 14, -15, 7, -1, 1, -1, -2, 13, 77, 32, 87, 5, -74, 30, -26, 1, 3, 4, 12, 39, 54, -43, 2, 10, 23, 13], "withholdReward": false, "trial_id": "mdp_trial_15", "block": "test", "trialIndex": 18, "score": 81.55, "costs": -6.449999999999999, "simulationMode": [null, null, null, null, null], "rewards": [1, -1, -2, 13, 77], "path": ["0", "0", "12", "13", "14", "15", "16"], "rt": [12239, 28, 107, 82, 198], "actions": ["right", "right", "right", "up", "up"], "actionTimes": [14392, 14940, 15552, 16143, 16858], "queries": {"click": {"state": {"target": ["27", "21", "16"], "time": [3269, 6999, 10680]}, "edge": {"target": [], "time": []}}, "mouseover": {"state": {"target": ["1", "2", "3", "8", "11", "27", "0", "22", "21", "20", "17", "15", "18", "16", "6", "4", "5", "5", "6"], "time": [2538, 2571, 2621, 2687, 2754, 2890, 3754, 4170, 4437, 7771, 8001, 8133, 8383, 8749, 11996, 12079, 12295, 12463, 13695]}, "edge": {"target": [], "time": []}}, "mouseout": {"state": {"target": ["10", "1", "12", "0", "0", "1", "2", "3", "8", "11", "27", "0", "22", "21", "20", "17", "15", "18", "16", "6", "4", "5", "5"], "time": [921, 972, 1057, 1541, 1805, 2554, 2587, 2655, 2721, 2804, 3621, 4004, 4253, 7684, 7801, 8017, 8267, 8583, 11970, 12046, 12113, 12346, 13600]}, "edge": {"target": [], "time": []}}}, "displayed_time": "17.38", "trialTime": 18736, "trial_type": "mouselab-mdp", "trial_index": 29, "time_elapsed": 1042782, "internal_node_id": "0.0-4.0-1.0-14.0"}}, {"uniqueid": "w98012153:a46320833", "current_trial": 30, "dateTime": 1691143166007, "trialdata": {"revealed_states": [], "clicked_states": ["14", "18", "6", "27", "32", "21"], "num_clicks_accrued": [0, 0, 0, 0, 0, 0, 0, 0, 0, 0, 0, 0, 0], "stateRewards": ["", 1, 2, 7, 13, 88, -71, 27, 3, 60, 5, -53, -2, 2, -6, -1, -30, 79, 47, -4, -14, 46, 68, 1, 1, 8, 10, -14, 86, 48, -11, -67, -44, 5], "withholdReward": false, "trial_id": "mdp_trial_16", "block": "test", "trialIndex": 19, "score": 24.299999999999997, "costs": -11.700000000000001, "simulationMode": [null, null, null, null, null], "rewards": [-2, 2, -6, -4, 46], "path": ["0", "0", "12", "13", "14", "19", "21"], "rt": [19831, 320, 530, 922, 201], "actions": ["right", "right", "right", "down", "down"], "actionTimes": [22484, 23322, 24364, 25805, 26518], "queries": {"click": {"state": {"target": ["14", "18", "6", "27", "32", "21"], "time": [4170, 5389, 9117, 12403, 15538, 18987]}, "edge": {"target": [], "time": []}}, "mouseover": {"state": {"target": ["12", "15", "14", "18", "16", "16", "6", "5", "4", "6", "4", "2", "27", "29", "33", "32", "33", "30", "31", "21", "20", "19", "13", "20", "20"], "time": [2968, 3052, 3737, 4634, 6016, 6383, 7231, 7281, 7565, 7681, 9629, 9679, 10462, 13127, 13908, 15041, 16024, 17572, 17672, 18156, 20686, 20752, 20836, 21319, 21585]}, "edge": {"target": [], "time": []}}, "mouseout": {"state": {"target": ["6", "4", "2", "12", "0", "12", "15", "14", "18", "16", "16", "6", "5", "4", "6", "4", "2", "27", "29", "33", "32", "33", "30", "31", "21", "21", "20", "19", "13", "20", "20", "19"], "time": [654, 687, 773, 1037, 2952, 2985, 3637, 4257, 5933, 6049, 7215, 7249, 7315, 7614, 9613, 9646, 9729, 13078, 13709, 14776, 15665, 17473, 17655, 17693, 19093, 20237, 20736, 20770, 20920, 21386, 27979, 28047]}, "edge": {"target": [], "time": []}}}, "displayed_time": "27.03", "trialTime": 28538, "trial_type": "mouselab-mdp", "trial_index": 30, "time_elapsed": 1071535, "internal_node_id": "0.0-4.0-1.0-15.0"}}, {"uniqueid": "w98012153:a46320833", "current_trial": 31, "dateTime": 1691143277502, "trialdata": {"revealed_states": [], "clicked_states": ["19", "17", "27"], "num_clicks_accrued": [0, 0, 0, 0, 0, 0, 0, 0, 0, 0, 0, 0, 0], "stateRewards": ["", -1, 3, 8, 10, -86, 61, -36, 10, 17, -60, 24, -1, -3, 3, 11, 50, 60, 33, -3, -20, 58, -6, 1, -4, -4, 13, -70, -71, 43, 14, 52, 82, -11], "withholdReward": false, "trial_id": "mdp_trial_17", "block": "test", "trialIndex": 20, "score": 64.15, "costs": -5.85, "simulationMode": [null, null, null, null, null, null], "rewards": [-1, -3, 3, 11, 60], "path": ["0", "0", "12", "13", "14", "15", "17"], "rt": [7431, 2534, 183, 64, 185, 106], "actions": ["right", "right", "right", "right", "up", "right"], "actionTimes": [103637, 106173, 106863, 107443, 108147, 108767], "queries": {"click": {"state": {"target": ["19", "17", "27"], "time": [97539, 99009, 102769]}, "edge": {"target": [], "time": []}}, "mouseover": {"state": {"target": ["12", "13", "14", "19", "20", "17", "7", "2", "10", "26", "29", "27", "1"], "time": [96420, 96837, 97005, 97222, 98203, 98402, 99652, 99687, 99735, 100285, 100419, 101150, 103383]}, "edge": {"target": [], "time": []}}, "mouseout": {"state": {"target": ["0", "23", "24", "24", "0", "1", "0", "12", "13", "14", "19", "20", "17", "7", "2", "10", "26", "29", "27", "1"], "time": [1159, 1193, 1226, 1344, 1477, 1576, 96388, 96437, 96939, 97155, 98120, 98253, 99568, 99671, 99719, 99769, 100318, 100984, 103332, 103399]}, "edge": {"target": [], "time": []}}}, "displayed_time": "110.21", "trialTime": 111266, "trial_type": "mouselab-mdp", "trial_index": 31, "time_elapsed": 1183030, "internal_node_id": "0.0-4.0-1.0-16.0"}}, {"uniqueid": "w98012153:a46320833", "current_trial": 32, "dateTime": 1691143300736, "trialdata": {"revealed_states": [], "clicked_states": ["9", "18", "22", "32"], "num_clicks_accrued": [0, 0, 0, 0, 0, 0, 0, 0, 0, 0, 0, 0, 0], "stateRewards": ["", 1, -4, -6, 11, -20, 8, -30, 1, -38, 88, 42, 2, 3, 5, -12, -8, -74, 30, -8, 67, -19, 42, 2, -1, 4, 13, 50, -68, 2, -8, -15, 87, -46], "withholdReward": false, "trial_id": "mdp_trial_18", "block": "test", "trialIndex": 21, "score": 75.4, "costs": -8.6, "simulationMode": [null, null, null, null, null], "rewards": [2, -1, 4, -8, 87], "path": ["0", "0", "23", "24", "25", "30", "32"], "rt": [15697, 130, 110, 348, 160], "actions": ["left", "left", "left", "down", "down"], "actionTimes": [18212, 18855, 19484, 20338, 21016], "queries": {"click": {"state": {"target": ["9", "18", "22", "32"], "time": [3897, 7350, 10733, 14310]}, "edge": {"target": [], "time": []}}, "mouseover": {"state": {"target": ["1", "2", "3", "8", "9", "5", "6", "16", "15", "18", "13", "22", "22", "21", "19", "30", "32", "31", "30", "33"], "time": [3004, 3070, 3155, 3405, 3622, 4420, 4522, 4620, 5036, 5103, 7917, 7966, 8283, 11397, 11713, 12196, 12363, 15526, 15609, 17493]}, "edge": {"target": [], "time": []}}, "mouseout": {"state": {"target": ["12", "0", "1", "2", "3", "8", "9", "5", "6", "16", "15", "18", "18", "13", "22", "22", "21", "19", "30", "32", "31", "30", "33"], "time": [1390, 1588, 3037, 3104, 3255, 3505, 4353, 4437, 4570, 4920, 5074, 7480, 7901, 7933, 8017, 11364, 11414, 11730, 12330, 15094, 15577, 15626, 17841]}, "edge": {"target": [], "time": []}}}, "displayed_time": "21.52", "trialTime": 23000, "trial_type": "mouselab-mdp", "trial_index": 32, "time_elapsed": 1206264, "internal_node_id": "0.0-4.0-1.0-17.0"}}, {"uniqueid": "w98012153:a46320833", "current_trial": 33, "dateTime": 1691143351329, "trialdata": {"revealed_states": [], "clicked_states": ["30", "22", "18", "16", "5", "10", "6", "33"], "num_clicks_accrued": [0, 0, 0, 0, 0, 0, 0, 0, 0, 0, 0, 0, 0], "stateRewards": ["", -1, 1, -5, -6, -78, 47, -13, 12, 48, -88, 20, 2, -3, -2, 13, -20, 37, -57, 14, -38, 30, 31, -2, -2, 8, 2, -23, 78, 28, 12, -74, -88, 8], "withholdReward": false, "trial_id": "mdp_trial_19", "block": "test", "trialIndex": 22, "score": -33.6, "costs": -16.6, "simulationMode": [null, null, null, null, null, null], "rewards": [-2, -2, 8, 2, -23], "path": ["0", "0", "23", "24", "25", "26", "27"], "rt": [27844, 1478, 135, 84, 567, 107], "actions": ["left", "left", "left", "left", "up", "up"], "actionTimes": [36297, 37778, 38419, 39017, 40100, 40722], "queries": {"click": {"state": {"target": ["30", "22", "18", "16", "5", "10", "6", "33"], "time": [10479, 12369, 15872, 19388, 22589, 26172, 30297, 34363]}, "edge": {"target": [], "time": []}}, "mouseover": {"state": {"target": ["24", "25", "30", "22", "13", "18", "18", "16", "16", "5", "8", "11", "10", "2", "7", "7", "6", "4", "2", "10", "28", "25", "33", "30", "31"], "time": [9428, 9609, 10193, 12057, 12892, 12939, 13356, 16619, 17185, 20050, 23313, 23379, 24196, 28759, 29093, 29725, 30057, 33070, 33136, 33169, 33203, 33604, 34021, 35735, 35785]}, "edge": {"target": [], "time": []}}, "mouseout": {"state": {"target": ["30", "22", "0", "0", "24", "25", "30", "22", "13", "18", "18", "16", "16", "5", "8", "11", "10", "10", "2", "7", "7", "6", "4", "2", "10", "28", "25", "33", "30", "31"], "time": [634, 1100, 2466, 8909, 9595, 9795, 11224, 12890, 12923, 12957, 16552, 16819, 19950, 23197, 23330, 23430, 26267, 28708, 28942, 29309, 29879, 33020, 33090, 33153, 33186, 33253, 33620, 34457, 35768, 35838]}, "edge": {"target": [], "time": []}}}, "displayed_time": "41.23", "trialTime": 50359, "trial_type": "mouselab-mdp", "trial_index": 33, "time_elapsed": 1256857, "internal_node_id": "0.0-4.0-1.0-18.0"}}, {"uniqueid": "w98012153:a46320833", "current_trial": 34, "dateTime": 1691143392769, "trialdata": {"revealed_states": [], "clicked_states": ["6", "20", "16", "28", "32", "33", "18", "11", "10"], "num_clicks_accrued": [0, 0, 0, 0, 0, 0, 0, 0, 0, 0, 0, 0, 0], "stateRewards": ["", 2, -2, -3, 10, -4, -1, -11, -8, -9, -36, -78, 2, 1, 7, -7, 44, -1, -31, -1, 26, 47, 83, 2, -4, -4, -6, -52, -76, -81, -1, -59, 45, 67], "withholdReward": false, "trial_id": "mdp_trial_20", "block": "test", "trialIndex": 23, "score": 18.650000000000002, "costs": -19.349999999999998, "simulationMode": [null, null, null, null, null], "rewards": [2, -4, -4, -1, 45], "path": ["0", "0", "23", "24", "25", "30", "32"], "rt": [33592, 553, 238, 262, 138], "actions": ["left", "left", "left", "down", "down"], "actionTimes": [34991, 36063, 36813, 37586, 38244], "queries": {"click": {"state": {"target": ["6", "20", "16", "28", "32", "33", "18", "11", "10"], "time": [3025, 6255, 9299, 12573, 16254, 20265, 23667, 27105, 31284]}, "edge": {"target": [], "time": []}}, "mouseover": {"state": {"target": ["1", "2", "8", "11", "10", "3", "5", "6", "18", "20", "21", "21", "19", "22", "16", "24", "29", "29", "26", "28", "27", "26", "25", "30", "32", "33", "30", "31", "12", "13", "18", "7", "2", "8", "11", "8", "8", "3", "9", "9", "3", "2", "10", "2", "7"], "time": [1773, 1790, 1855, 1888, 2107, 2155, 2390, 2806, 3721, 4803, 6934, 7267, 7550, 7800, 8716, 10265, 10631, 10914, 11098, 11297, 13961, 15045, 15095, 15145, 15213, 18724, 21005, 21040, 21171, 21604, 22220, 24985, 25024, 25351, 25401, 27849, 28448, 28864, 29713, 29968, 30482, 30762, 31096, 31978, 32028]}, "edge": {"target": [], "time": []}}, "mouseout": {"state": {"target": ["1", "2", "8", "11", "10", "3", "5", "6", "6", "18", "20", "21", "21", "19", "22", "16", "24", "29", "29", "26", "28", "27", "26", "25", "30", "32", "33", "30", "31", "12", "13", "18", "7", "2", "8", "11", "8", "8", "3", "9", "9", "3", "2", "10", "2", "7"], "time": [1788, 1822, 1871, 1939, 2125, 2188, 2656, 3128, 3571, 3771, 6868, 6951, 7501, 7584, 8233, 10166, 10299, 10681, 10931, 11148, 13795, 15011, 15093, 15127, 15197, 18524, 20988, 21038, 21055, 21505, 22088, 24934, 25005, 25052, 25367, 27832, 27883, 28697, 29347, 29830, 29981, 30613, 31014, 31945, 32010, 32062]}, "edge": {"target": [], "time": []}}}, "displayed_time": "38.76", "trialTime": 41186, "trial_type": "mouselab-mdp", "trial_index": 34, "time_elapsed": 1298297, "internal_node_id": "0.0-4.0-1.0-19.0"}}, {"uniqueid": "w98012153:a46320833", "current_trial": 35, "dateTime": 1691143411265, "trialdata": {"revealed_states": [], "clicked_states": ["21", "11"], "num_clicks_accrued": [0, 0, 0, 0, 0, 0, 0, 0, 0, 0, 0, 0, 0], "stateRewards": ["", 2, -1, 8, -2, -16, 69, -39, -7, -13, -27, -86, 2, -2, 2, 13, -34, -16, -20, -5, 19, 81, 32, -2, -1, 2, -14, 20, 80, 58, 4, 70, 12, 73], "withholdReward": false, "trial_id": "mdp_trial_21", "block": "test", "trialIndex": 24, "score": 73.7, "costs": -4.3, "simulationMode": [null, null, null, null, null, null], "rewards": [2, -2, 2, -5, 81], "path": ["0", "0", "12", "13", "14", "19", "21"], "rt": [6832, 590, 334, 81, 171, 193], "actions": ["right", "right", "right", "right", "down", "down"], "actionTimes": [9726, 10320, 11187, 11803, 12504, 13208], "queries": {"click": {"state": {"target": ["21", "11"], "time": [5214, 9500]}, "edge": {"target": [], "time": []}}, "mouseover": {"state": {"target": ["12", "13", "21", "20", "17", "16", "17", "16", "6", "4", "3", "8", "8", "9", "11"], "time": [3690, 3789, 4305, 6303, 6503, 6637, 7102, 7469, 7503, 7556, 7603, 7638, 8035, 8469, 8771]}, "edge": {"target": [], "time": []}}, "mouseout": {"state": {"target": ["17", "19", "21", "17", "7", "2", "1", "0", "0", "12", "13", "21", "20", "17", "16", "17", "16", "6", "4", "3", "8", "8", "9"], "time": [1091, 1192, 1224, 1774, 1841, 1891, 2174, 2224, 3573, 3755, 3823, 6204, 6321, 6554, 6959, 7420, 7486, 7537, 7586, 7622, 7669, 8052, 8535]}, "edge": {"target": [], "time": []}}}, "displayed_time": "16.89", "trialTime": 18256, "trial_type": "mouselab-mdp", "trial_index": 35, "time_elapsed": 1316793, "internal_node_id": "0.0-4.0-1.0-20.0"}}, {"uniqueid": "w98012153:a46320833", "current_trial": 36, "dateTime": 1691143591080, "trialdata": {"revealed_states": [], "clicked_states": ["29", "20", "27", "6", "9", "16"], "num_clicks_accrued": [0, 0, 0, 0, 0, 0, 0, 0, 0, 0, 0, 0, 0], "stateRewards": ["", 1, -2, -8, -13, 4, 34, -84, -4, -49, 88, -70, -1, 3, -4, 10, -77, 13, -34, 15, -21, -16, 27, 1, -2, 8, -8, -6, 38, -26, 6, -15, 66, -3], "withholdReward": false, "trial_id": "mdp_trial_22", "block": "test", "trialIndex": 25, "score": -15.9, "costs": -12.9, "simulationMode": [null, null, null, null, null], "rewards": [-1, 3, -4, 15, -16], "path": ["0", "0", "12", "13", "14", "19", "21"], "rt": [21289, 12, 32, 150, 122], "actions": ["right", "right", "right", "down", "down"], "actionTimes": [173797, 174324, 174876, 175560, 176198], "queries": {"click": {"state": {"target": ["29", "20", "27", "6", "9", "16"], "time": [153491, 156734, 159873, 163173, 166833, 170237]}, "edge": {"target": [], "time": []}}, "mouseover": {"state": {"target": ["23", "24", "25", "29", "26", "28", "1", "18", "15", "15", "20", "19", "32", "25", "27", "28", "23", "1", "2", "3", "6", "4", "9", "9", "16"], "time": [152701, 152746, 152814, 153182, 153904, 153923, 153946, 153998, 154046, 154279, 154512, 157276, 157859, 158525, 158658, 160390, 160460, 161472, 161491, 161788, 162188, 163672, 163753, 164587, 168249]}, "edge": {"target": [], "time": []}}, "mouseout": {"state": {"target": ["11", "0", "23", "31", "31", "0", "0", "23", "24", "25", "29", "26", "28", "1", "18", "15", "15", "20", "19", "32", "25", "27", "28", "23", "1", "2", "3", "6", "4", "9", "9"], "time": [805, 149616, 149666, 149767, 149816, 151630, 152181, 152729, 152799, 152982, 153879, 153921, 153933, 153963, 154016, 154063, 154313, 157259, 157295, 158198, 158560, 160358, 160423, 160474, 161489, 161772, 161822, 163670, 163691, 163787, 166916]}, "edge": {"target": [], "time": []}}}, "displayed_time": "176.71", "trialTime": 179585, "trial_type": "mouselab-mdp", "trial_index": 36, "time_elapsed": 1496607, "internal_node_id": "0.0-4.0-1.0-21.0"}}, {"uniqueid": "w98012153:a46320833", "current_trial": 37, "dateTime": 1691143609794, "trialdata": {"revealed_states": [], "clicked_states": ["29", "10", "32"], "num_clicks_accrued": [0, 0, 0, 0, 0, 0, 0, 0, 0, 0, 0, 0, 0], "stateRewards": ["", 1, 1, -3, 7, 49, 78, 26, -5, 26, 48, -43, -1, -3, 2, -5, 4, -1, -60, 10, -35, 51, 81, -2, 1, -7, -5, -39, -86, -54, 4, -3, 74, 77], "withholdReward": false, "trial_id": "mdp_trial_23", "block": "test", "trialIndex": 26, "score": 63.55, "costs": -6.449999999999999, "simulationMode": [null, null, null, null, null], "rewards": [-2, 1, -7, 4, 74], "path": ["0", "0", "23", "24", "25", "30", "32"], "rt": [12192, 110, 35, 280, 120], "actions": ["left", "left", "left", "down", "down"], "actionTimes": [13908, 14538, 15078, 15873, 16513], "queries": {"click": {"state": {"target": ["29", "10", "32"], "time": [2978, 6279, 10186]}, "edge": {"target": [], "time": []}}, "mouseover": {"state": {"target": ["27", "29", "26", "28", "1", "10", "24", "30", "32"], "time": [1924, 2339, 3338, 3403, 4002, 4385, 6750, 6817, 7069]}, "edge": {"target": [], "time": []}}, "mouseout": {"state": {"target": ["16", "18", "15", "17", "15", "18", "12", "27", "29", "26", "28", "1", "10", "24", "30", "32"], "time": [491, 673, 689, 805, 839, 872, 1205, 1939, 3336, 3370, 3737, 4053, 6700, 6783, 6950, 12281]}, "edge": {"target": [], "time": []}}}, "displayed_time": "17.02", "trialTime": 18467, "trial_type": "mouselab-mdp", "trial_index": 37, "time_elapsed": 1515322, "internal_node_id": "0.0-4.0-1.0-22.0"}}, {"uniqueid": "w98012153:a46320833", "current_trial": 38, "dateTime": 1691143647892, "trialdata": {"revealed_states": [], "clicked_states": ["4", "6", "21", "31", "27", "11"], "num_clicks_accrued": [0, 0, 0, 0, 0, 0, 0, 0, 0, 0, 0, 0, 0], "stateRewards": ["", -2, 2, -5, -6, 10, -66, -58, -10, -11, -63, -70, -1, -4, -5, 7, 66, -64, -43, -3, 45, -37, 4, -2, -2, -6, -4, -30, 33, 43, 15, -32, -65, -59], "withholdReward": false, "trial_id": "mdp_trial_24", "block": "test", "trialIndex": 27, "score": 6.699999999999999, "costs": -12.3, "simulationMode": [null, null, null, null, null], "rewards": [-2, -2, -6, -4, 33], "path": ["0", "0", "23", "24", "25", "26", "28"], "rt": [21111, 84, 317, 1245, 70], "actions": ["left", "left", "left", "up", "right"], "actionTimes": [31655, 32247, 33079, 34823, 35413], "queries": {"click": {"state": {"target": ["4", "6", "21", "31", "27", "11"], "time": [11305, 12471, 15869, 20247, 24680, 28108]}, "edge": {"target": [], "time": []}}, "mouseover": {"state": {"target": ["1", "2", "4", "6", "16", "17", "17", "15", "17", "21", "20", "14", "13", "13", "18", "23", "31", "32", "31", "32", "30", "25", "26", "27", "27", "11", "9", "28", "1"], "time": [10980, 11096, 11280, 11647, 13062, 13130, 13562, 13894, 14062, 15365, 16442, 17141, 17192, 17525, 18108, 19373, 19390, 19423, 19906, 21388, 21655, 21687, 21721, 21740, 22087, 25601, 28882, 31100, 31446]}, "edge": {"target": [], "time": []}}, "mouseout": {"state": {"target": ["19", "14", "13", "0", "13", "12", "1", "2", "4", "6", "16", "17", "17", "15", "17", "21", "20", "14", "13", "13", "18", "23", "31", "32", "31", "32", "30", "25", "26", "27", "27", "11", "9", "28"], "time": [972, 1056, 1106, 9016, 9047, 9397, 11029, 11146, 11580, 13012, 13096, 13181, 13628, 14011, 14794, 16309, 17109, 17158, 17225, 17542, 19340, 19389, 19406, 19794, 21272, 21620, 21671, 21705, 21738, 21771, 24807, 28798, 29131, 31145]}, "edge": {"target": [], "time": []}}}, "displayed_time": "35.93", "trialTime": 37850, "trial_type": "mouselab-mdp", "trial_index": 38, "time_elapsed": 1553419, "internal_node_id": "0.0-4.0-1.0-23.0"}}, {"uniqueid": "w98012153:a46320833", "current_trial": 39, "dateTime": 1691143667801, "trialdata": {"revealed_states": [], "clicked_states": [], "num_clicks_accrued": [0, 0, 0, 0, 0, 0, 0, 0, 0, 0, 0, 0, 0], "stateRewards": ["", 2, -3, -5, 5, 11, -9, -33, 6, 67, 6, -30, -1, -2, -6, 13, 55, 13, 72, -14, 75, 21, -66, -2, -4, 6, 15, -1, -35, 60, 2, 51, -73, 12], "withholdReward": false, "trial_id": "mdp_trial_25", "block": "test", "trialIndex": 28, "score": 14, "costs": 0, "simulationMode": [null, null, null, null, null], "rewards": [-2, -4, 6, 2, 12], "path": ["0", "0", "23", "24", "25", "30", "33"], "rt": [1060, 220, 359, 175, 201], "actions": ["left", "left", "left", "down", "left"], "actionTimes": [3565, 4319, 5191, 5872, 6582], "queries": {"click": {"state": {"target": [], "time": []}, "edge": {"target": [], "time": []}}, "mouseover": {"state": {"target": ["23"], "time": [3534]}, "edge": {"target": [], "time": []}}, "mouseout": {"state": {"target": ["1", "0"], "time": [402, 518]}, "edge": {"target": [], "time": []}}}, "displayed_time": "16.51", "trialTime": 19655, "trial_type": "mouselab-mdp", "trial_index": 39, "time_elapsed": 1573329, "internal_node_id": "0.0-4.0-1.0-24.0"}}, {"uniqueid": "w98012153:a46320833", "current_trial": 40, "dateTime": 1691143765783, "trialdata": {"revealed_states": [], "clicked_states": ["17", "11", "21", "27", "6", "7"], "num_clicks_accrued": [0, 0, 0, 0, 0, 0, 0, 0, 0, 0, 0, 0, 0], "stateRewards": ["", 1, 1, -2, 7, -31, -6, 76, 1, -36, -16, -53, 2, 1, 7, 13, -47, -10, 47, -7, 72, 46, -56, -2, -2, -2, 11, -80, 44, 38, 16, 67, 85, -78], "withholdReward": false, "trial_id": "mdp_trial_26", "block": "test", "trialIndex": 29, "score": 70.1, "costs": -12.9, "simulationMode": [null, null, null, null, null], "rewards": [1, 1, -2, 7, 76], "path": ["0", "0", "1", "2", "3", "4", "7"], "rt": [24537, 231, 223, 192, 494], "actions": ["up", "up", "up", "right", "down"], "actionTimes": [92461, 93211, 93952, 94654, 95655], "queries": {"click": {"state": {"target": ["17", "11", "21", "27", "6", "7"], "time": [69546, 73169, 76570, 80256, 84070, 87901]}, "edge": {"target": [], "time": []}}, "mouseover": {"state": {"target": ["18", "15", "17", "16", "6", "5", "11", "12", "22", "21", "32", "25", "26", "27", "26", "25", "23", "7", "6", "4", "7", "1"], "time": [68770, 68817, 69154, 70233, 70283, 70350, 71032, 73913, 74080, 74197, 77527, 77860, 77909, 78127, 82523, 82638, 83005, 83174, 83755, 86940, 87537, 91066]}, "edge": {"target": [], "time": []}}, "mouseout": {"state": {"target": ["23", "18", "15", "17", "16", "6", "5", "11", "12", "22", "21", "32", "25", "26", "27", "26", "25", "23", "7", "6", "4", "7", "7", "1"], "time": [65470, 68801, 68938, 69760, 70250, 70334, 70450, 73376, 73947, 74113, 77178, 77593, 77893, 77993, 82471, 82588, 82656, 83038, 83238, 84274, 87000, 88106, 90980, 91098]}, "edge": {"target": [], "time": []}}}, "displayed_time": "96.16", "trialTime": 97703, "trial_type": "mouselab-mdp", "trial_index": 40, "time_elapsed": 1671310, "internal_node_id": "0.0-4.0-1.0-25.0"}}, {"uniqueid": "w98012153:a46320833", "current_trial": 41, "dateTime": 1691143787252, "trialdata": {"revealed_states": [], "clicked_states": ["32", "21", "29"], "num_clicks_accrued": [0, 0, 0, 0, 0, 0, 0, 0, 0, 0, 0, 0, 0], "stateRewards": ["", -1, 1, 8, -8, -49, 62, -78, 16, 28, -81, 78, -2, -3, -1, -4, 67, 49, -2, -13, -16, -39, 83, 1, -4, 4, -5, -20, 7, 84, 7, -32, -59, 19], "withholdReward": false, "trial_id": "mdp_trial_27", "block": "test", "trialIndex": 30, "score": 73.55, "costs": -6.449999999999999, "simulationMode": [null, null, null, null, null], "rewards": [1, -4, 4, -5, 84], "path": ["0", "0", "23", "24", "25", "26", "29"], "rt": [13129, 174, 172, 790, 170], "actions": ["left", "left", "left", "up", "left"], "actionTimes": [15788, 16470, 17150, 18451, 19129], "queries": {"click": {"state": {"target": ["32", "21", "29"], "time": [3845, 8041, 12122]}, "edge": {"target": [], "time": []}}, "mouseover": {"state": {"target": ["23", "30", "32", "30", "29", "27", "28", "0", "22", "19", "21", "20", "19", "22", "23", "24", "25", "26", "29", "26", "28", "1", "18", "15", "18"], "time": [3073, 3122, 3455, 4804, 5370, 6335, 7152, 7219, 7269, 7302, 7670, 9866, 10166, 10333, 11299, 11332, 11431, 11632, 11748, 13929, 13963, 14063, 14429, 15310, 15528]}, "edge": {"target": [], "time": []}}, "mouseout": {"state": {"target": ["24", "25", "30", "23", "24", "25", "33", "32", "0", "0", "23", "30", "32", "30", "29", "27", "28", "0", "22", "19", "21", "20", "19", "22", "23", "24", "25", "26", "29", "26", "28", "1", "18", "15", "18"], "time": [475, 507, 610, 891, 924, 957, 990, 1175, 1890, 3044, 3092, 3155, 4061, 5054, 6120, 7121, 7169, 7235, 7285, 7319, 9717, 10133, 10200, 10933, 11317, 11382, 11616, 11664, 13914, 13946, 13996, 14179, 14562, 15497, 15577]}, "edge": {"target": [], "time": []}}}, "displayed_time": "19.64", "trialTime": 21207, "trial_type": "mouselab-mdp", "trial_index": 41, "time_elapsed": 1692779, "internal_node_id": "0.0-4.0-1.0-26.0"}}, {"uniqueid": "w98012153:a46320833", "current_trial": 42, "dateTime": 1691143869692, "trialdata": {"revealed_states": [], "clicked_states": ["27", "6", "22", "11"], "num_clicks_accrued": [0, 0, 0, 0, 0, 0, 0, 0, 0, 0, 0, 0, 0], "stateRewards": ["", -1, -3, 1, -4, -48, -63, -49, -2, -84, -19, 65, 2, -2, -2, -12, -4, 59, 9, 6, 75, 69, -13, -1, -3, -3, -2, -37, -68, -36, 13, 32, 18, -14], "withholdReward": false, "trial_id": "mdp_trial_28", "block": "test", "trialIndex": 31, "score": 51.4, "costs": -8.6, "simulationMode": [null, null, null, null, null], "rewards": [-1, -3, 1, -2, 65], "path": ["0", "0", "1", "2", "3", "8", "11"], "rt": [17510, 98, 145, 95, 107], "actions": ["up", "up", "up", "left", "left"], "actionTimes": [76688, 77299, 77960, 78593, 79221], "queries": {"click": {"state": {"target": ["27", "6", "22", "11"], "time": [61541, 65062, 68386, 72709]}, "edge": {"target": [], "time": []}}, "mouseover": {"state": {"target": ["28", "27", "10", "2", "6", "6", "18", "18", "13", "22", "12", "0", "23", "24", "26", "26", "27", "11", "27", "28"], "time": [60446, 61047, 62912, 62979, 63378, 63678, 65758, 66108, 66274, 66397, 71405, 71437, 71488, 71603, 71752, 71820, 71888, 72338, 75433, 75734]}, "edge": {"target": [], "time": []}}, "mouseout": {"state": {"target": ["18", "12", "0", "28", "27", "10", "2", "6", "6", "18", "18", "13", "22", "12", "0", "23", "24", "26", "26", "27", "11", "27"], "time": [854, 1087, 1368, 60480, 62795, 62962, 63327, 63428, 65691, 65775, 66191, 66324, 68587, 71421, 71487, 71553, 71669, 71786, 71837, 71903, 75233, 75450]}, "edge": {"target": [], "time": []}}}, "displayed_time": "79.73", "trialTime": 82195, "trial_type": "mouselab-mdp", "trial_index": 42, "time_elapsed": 1775219, "internal_node_id": "0.0-4.0-1.0-27.0"}}, {"uniqueid": "w98012153:a46320833", "current_trial": 43, "dateTime": 1691143899009, "trialdata": {"revealed_states": [], "clicked_states": ["29", "22", "17", "31", "32", "11"], "num_clicks_accrued": [0, 0, 0, 0, 0, 0, 0, 0, 0, 0, 0, 0, 0], "stateRewards": ["", -1, 1, -6, -1, 80, 23, 2, -11, 73, -81, 59, 1, 3, 5, -1, -26, 28, -3, 16, -59, -13, -50, -2, -2, 2, 15, -50, 86, 17, -4, 37, 35, 44], "withholdReward": false, "trial_id": "mdp_trial_29", "block": "test", "trialIndex": 32, "score": 29.1, "costs": -12.9, "simulationMode": [null, null, null, null, null], "rewards": [-1, 1, -6, -11, 59], "path": ["0", "0", "1", "2", "3", "8", "11"], "rt": [22706, 31, 289, 209, 185], "actions": ["up", "up", "up", "left", "left"], "actionTimes": [24361, 24908, 25711, 26432, 27125], "queries": {"click": {"state": {"target": ["29", "22", "17", "31", "32", "11"], "time": [2815, 6119, 9505, 12881, 15883, 20356]}, "edge": {"target": [], "time": []}}, "mouseover": {"state": {"target": ["23", "29", "25", "31", "22", "22", "19", "20", "17", "20", "21", "19", "31", "30", "31", "30", "32", "32", "30", "25", "26", "28", "28", "25", "33", "30", "24", "10", "11", "8", "5", "7"], "time": [2142, 2411, 3508, 3642, 3858, 4125, 6707, 6773, 7073, 10402, 10868, 11035, 11168, 11235, 11468, 14267, 14449, 15015, 16846, 16896, 16963, 17562, 17961, 19246, 19327, 19472, 19543, 19710, 20094, 22125, 22375, 23024]}, "edge": {"target": [], "time": []}}, "mouseout": {"state": {"target": ["28", "0", "23", "29", "29", "25", "31", "22", "22", "19", "20", "17", "20", "21", "19", "31", "30", "31", "30", "32", "32", "30", "25", "26", "28", "28", "25", "33", "30", "24", "10", "11", "8", "5", "7"], "time": [914, 2114, 2159, 3030, 3459, 3576, 3658, 3975, 6690, 6756, 6923, 10319, 10435, 10985, 11052, 11185, 11435, 14149, 14382, 14649, 16814, 16879, 16930, 17046, 17646, 18781, 19280, 19467, 19484, 19560, 19799, 22058, 22192, 22691, 23706]}, "edge": {"target": [], "time": []}}}, "displayed_time": "27.64", "trialTime": 29051, "trial_type": "mouselab-mdp", "trial_index": 43, "time_elapsed": 1804538, "internal_node_id": "0.0-4.0-1.0-28.0"}}, {"uniqueid": "w98012153:a46320833", "current_trial": 44, "dateTime": 1691144028308, "trialdata": {"revealed_states": [], "clicked_states": ["10", "17", "32", "27", "22", "6", "9"], "num_clicks_accrued": [0, 0, 0, 0, 0, 0, 0, 0, 0, 0, 0, 0, 0], "stateRewards": ["", 1, 2, -6, -13, -51, 22, -4, -12, -44, -12, 6, -2, -2, -2, -14, -46, -4, -77, -2, 36, -79, 41, 2, -4, 2, -6, -55, 59, 70, -5, 39, -19, 24], "withholdReward": false, "trial_id": "mdp_trial_30", "block": "test", "trialIndex": 33, "score": 17.95, "costs": -15.05, "simulationMode": [null, null, null, null, null], "rewards": [-2, -2, -2, -2, 41], "path": ["0", "0", "12", "13", "14", "19", "22"], "rt": [27724, 198, 165, 251, 258], "actions": ["right", "right", "right", "down", "left"], "actionTimes": [121541, 122244, 122926, 123696, 124469], "queries": {"click": {"state": {"target": ["10", "17", "32", "27", "22", "6", "9"], "time": [95260, 99647, 102918, 106482, 110803, 114197, 118119]}, "edge": {"target": [], "time": []}}, "mouseover": {"state": {"target": ["10", "2", "7", "16", "17", "17", "17", "19", "22", "32", "32", "30", "26", "27", "12", "22", "21", "19", "22", "13", "18", "7", "2", "3", "4", "6", "9", "9", "3", "7", "13"], "time": [94838, 95854, 95902, 95986, 96202, 96452, 99168, 100748, 100882, 101630, 101930, 103646, 103779, 103846, 107025, 107092, 107142, 107758, 107824, 111772, 111854, 112387, 112488, 112728, 112854, 113120, 115921, 116383, 119780, 119864, 120113]}, "edge": {"target": [], "time": []}}, "mouseout": {"state": {"target": ["12", "0", "10", "2", "7", "16", "17", "17", "17", "19", "22", "32", "32", "30", "26", "27", "12", "22", "21", "19", "22", "13", "18", "7", "2", "3", "4", "6", "9", "9", "3", "7", "13", "22"], "time": [791, 93372, 95852, 95886, 95919, 96019, 96302, 98834, 100565, 100815, 101103, 101665, 103129, 103678, 103796, 106942, 107058, 107125, 107191, 107791, 111737, 111827, 111888, 112437, 112504, 112804, 112954, 114410, 115984, 119763, 119813, 119914, 120213, 128106]}, "edge": {"target": [], "time": []}}}, "displayed_time": "124.98", "trialTime": 129038, "trial_type": "mouselab-mdp", "trial_index": 44, "time_elapsed": 1933836, "internal_node_id": "0.0-4.0-1.0-29.0"}}, {"uniqueid": "w98012153:a46320833", "current_trial": 45, "dateTime": 1691144054548, "trialdata": {"revealed_states": [], "clicked_states": ["11", "16", "32", "29", "20"], "num_clicks_accrued": [0, 0, 0, 0, 0, 0, 0, 0, 0, 0, 0, 0, 0], "stateRewards": ["", 1, 4, 7, -16, -84, -6, -46, -12, -7, -49, -26, -1, 2, -4, 2, 22, 37, -64, 1, 88, -13, -10, 1, -4, -2, 5, 2, -10, -34, 9, 66, 55, 38], "withholdReward": false, "trial_id": "mdp_trial_31", "block": "test", "trialIndex": 34, "score": 75.25, "costs": -10.75, "simulationMode": [null, null, null, null, null], "rewards": [-1, 2, -4, 1, 88], "path": ["0", "0", "12", "13", "14", "19", "20"], "rt": [19442, 157, 242, 486, 269], "actions": ["right", "right", "right", "down", "right"], "actionTimes": [20993, 21664, 22414, 23407, 24189], "queries": {"click": {"state": {"target": ["11", "16", "32", "29", "20"], "time": [3429, 6693, 10052, 13751, 17119]}, "edge": {"target": [], "time": []}}, "mouseover": {"state": {"target": ["3", "8", "11", "10", "3", "6", "16", "16", "18", "12", "32", "24", "29", "26", "12", "14", "17", "20", "14", "18"], "time": [2389, 2905, 3123, 4454, 4687, 5187, 5370, 5514, 7218, 7252, 7801, 10932, 11265, 14379, 14478, 14528, 14977, 15294, 17876, 18008]}, "edge": {"target": [], "time": []}}, "mouseout": {"state": {"target": ["0", "3", "8", "11", "10", "3", "6", "16", "16", "18", "12", "32", "24", "29", "26", "12", "14", "17", "20", "14", "18", "0"], "time": [1074, 2889, 2972, 4271, 4588, 4738, 5254, 5453, 7202, 7235, 7270, 10275, 10964, 14377, 14395, 14494, 14547, 15060, 17809, 17908, 25419, 25535]}, "edge": {"target": [], "time": []}}}, "displayed_time": "24.70", "trialTime": 25963, "trial_type": "mouselab-mdp", "trial_index": 45, "time_elapsed": 1960076, "internal_node_id": "0.0-4.0-1.0-30.0"}}, {"uniqueid": "w98012153:a46320833", "current_trial": 46, "dateTime": 1691144097042, "trialdata": {"revealed_states": [], "clicked_states": ["22", "27", "32"], "num_clicks_accrued": [0, 0, 0, 0, 0, 0, 0, 0, 0, 0, 0, 0, 0], "stateRewards": ["", -2, -1, -5, 10, -36, -70, 68, -9, 86, 71, -10, 2, -4, 7, -7, 66, 44, -66, -13, -69, 43, 15, -2, 2, 6, -13, 62, 57, 50, -10, -69, 42, -72], "withholdReward": false, "trial_id": "mdp_trial_32", "block": "test", "trialIndex": 35, "score": 48.55, "costs": -6.449999999999999, "simulationMode": [null, null, null, null, null], "rewards": [-2, 2, 6, -13, 62], "path": ["0", "0", "23", "24", "25", "26", "27"], "rt": [11707, 524, 327, 385, 265], "actions": ["left", "left", "left", "up", "up"], "actionTimes": [36974, 38014, 38848, 39739, 40517], "queries": {"click": {"state": {"target": ["22", "27", "32"], "time": [26771, 30119, 33522]}, "edge": {"target": [], "time": []}}, "mouseover": {"state": {"target": ["13", "19", "22", "12", "27", "26", "32", "31"], "time": [25948, 26065, 26364, 27396, 27846, 30794, 31193, 34790]}, "edge": {"target": [], "time": []}}, "mouseout": {"state": {"target": ["13", "19", "22", "12", "27", "26", "32", "31"], "time": [25997, 26081, 27379, 27430, 30777, 30810, 33746, 34840]}, "edge": {"target": [], "time": []}}}, "displayed_time": "41.03", "trialTime": 42230, "trial_type": "mouselab-mdp", "trial_index": 46, "time_elapsed": 2002570, "internal_node_id": "0.0-4.0-1.0-31.0"}}, {"uniqueid": "w98012153:a46320833", "current_trial": 47, "dateTime": 1691144130400, "trialdata": {"revealed_states": [], "clicked_states": ["16", "10", "5", "7", "6"], "num_clicks_accrued": [0, 0, 0, 0, 0, 0, 0, 0, 0, 0, 0, 0, 0], "stateRewards": ["", -2, 3, -1, 2, -72, 63, 20, -1, 62, -66, 39, -2, 3, -6, 14, 22, 47, 1, 8, -49, -1, -41, 2, 2, -6, -16, -64, -60, -34, 16, 54, 22, -7], "withholdReward": false, "trial_id": "mdp_trial_33", "block": "test", "trialIndex": 36, "score": 54.25, "costs": -10.75, "simulationMode": [null, null, null, null, null], "rewards": [-2, 3, -1, 2, 63], "path": ["0", "0", "1", "2", "3", "4", "6"], "rt": [21693, 187, 112, 117, 194], "actions": ["up", "up", "up", "right", "right"], "actionTimes": [27104, 27811, 28435, 29057, 29766], "queries": {"click": {"state": {"target": ["16", "10", "5", "7", "6"], "time": [6735, 10269, 13755, 18273, 21960]}, "edge": {"target": [], "time": []}}, "mouseover": {"state": {"target": ["7", "16", "6", "4", "9", "10", "3", "4", "5", "3", "7", "18", "14", "19", "21", "20", "19", "13", "7", "15", "15", "6", "6", "19", "21", "21"], "time": [6009, 6409, 7391, 7441, 7974, 8456, 10904, 10955, 11255, 16200, 16316, 16416, 16499, 16549, 16685, 17034, 17098, 17565, 17916, 20696, 20896, 21145, 21545, 23060, 23143, 23244]}, "edge": {"target": [], "time": []}}, "mouseout": {"state": {"target": ["0", "7", "16", "6", "4", "9", "10", "3", "4", "5", "5", "3", "7", "18", "14", "19", "21", "20", "19", "13", "7", "15", "15", "6", "6", "19", "21"], "time": [2911, 6041, 6933, 7424, 7491, 8024, 10477, 10921, 11087, 13960, 16100, 16232, 16332, 16466, 16533, 16600, 16849, 17049, 17200, 17599, 20484, 20845, 20962, 21246, 22811, 23127, 23211]}, "edge": {"target": [], "time": []}}}, "displayed_time": "30.27", "trialTime": 33070, "trial_type": "mouselab-mdp", "trial_index": 47, "time_elapsed": 2035928, "internal_node_id": "0.0-4.0-1.0-32.0"}}, {"uniqueid": "w98012153:a46320833", "current_trial": 48, "dateTime": 1691144166725, "trialdata": {"revealed_states": [], "clicked_states": ["22", "32", "11", "7", "17", "20", "27"], "num_clicks_accrued": [0, 0, 0, 0, 0, 0, 0, 0, 0, 0, 0, 0, 0], "stateRewards": ["", -2, 4, 3, 5, -61, 4, 30, 1, -47, 83, 10, 1, 4, 7, -14, 19, -74, -83, 6, -2, -2, -65, -1, -2, 4, -11, 12, -1, -68, 11, -38, -28, 66], "withholdReward": false, "trial_id": "mdp_trial_34", "block": "test", "trialIndex": 37, "score": -26.05, "costs": -15.05, "simulationMode": [null, null, null, null, null], "rewards": [-1, -2, 4, -11, -1], "path": ["0", "0", "23", "24", "25", "26", "28"], "rt": [28698, 90, 93, 264, 106], "actions": ["left", "left", "left", "up", "right"], "actionTimes": [31221, 31824, 32426, 33195, 33820], "queries": {"click": {"state": {"target": ["22", "32", "11", "7", "17", "20", "27"], "time": [4128, 7495, 11090, 15407, 19097, 23971, 27887]}, "edge": {"target": [], "time": []}}, "mouseover": {"state": {"target": ["12", "13", "19", "22", "33", "32", "30", "25", "26", "27", "11", "8", "10", "8", "8", "3", "4", "6", "6", "4", "7", "16", "18", "15", "17", "15", "13", "14", "18", "18", "13", "14", "20", "13", "12", "23", "24", "26", "27"], "time": [3391, 3475, 3591, 3842, 5156, 5439, 8470, 8537, 8603, 8770, 9370, 12099, 12450, 12750, 13282, 13348, 13416, 13932, 14214, 14314, 14865, 16512, 17096, 17878, 18194, 21642, 21775, 22058, 22260, 22658, 22939, 23290, 23522, 26621, 26654, 26754, 26970, 27136, 27403]}, "edge": {"target": [], "time": []}}, "mouseout": {"state": {"target": ["21", "22", "0", "12", "13", "19", "22", "33", "32", "30", "25", "26", "27", "11", "8", "10", "8", "11", "8", "3", "4", "6", "6", "4", "7", "7", "16", "18", "15", "17", "15", "13", "14", "18", "18", "13", "14", "20", "13", "12", "23", "24", "26", "27"], "time": [1361, 1744, 2084, 3442, 3492, 3742, 4990, 5274, 7709, 8520, 8570, 8669, 9236, 11933, 12116, 12641, 12871, 13116, 13302, 13382, 13466, 14032, 14265, 14551, 15603, 16330, 16962, 17845, 18028, 21608, 21680, 21907, 22175, 22341, 22874, 23159, 23474, 24185, 26637, 26686, 26937, 26986, 27236, 28098]}, "edge": {"target": [], "time": []}}}, "displayed_time": "34.33", "trialTime": 36056, "trial_type": "mouselab-mdp", "trial_index": 48, "time_elapsed": 2072253, "internal_node_id": "0.0-4.0-1.0-33.0"}}, {"uniqueid": "w98012153:a46320833", "current_trial": 49, "dateTime": 1691144212602, "trialdata": {"revealed_states": [], "clicked_states": ["21", "32", "20", "16"], "num_clicks_accrued": [0, 0, 0, 0, 0, 0, 0, 0, 0, 0, 0, 0, 0], "stateRewards": ["", 1, 3, 3, -10, 52, 68, 59, 12, 7, 49, 21, -2, -3, -4, -2, -2, 63, 63, -4, 44, 43, -76, -2, -3, -6, 13, 48, 36, 12, -5, -36, -33, -11], "withholdReward": false, "trial_id": "mdp_trial_35", "block": "test", "trialIndex": 38, "score": 43.4, "costs": -8.6, "simulationMode": [null, null, null, null, null], "rewards": [-2, -3, -4, -2, 63], "path": ["0", "0", "12", "13", "14", "15", "18"], "rt": [17046, 428, 192, 162, 651], "actions": ["right", "right", "right", "up", "left"], "actionTimes": [39760, 40700, 41412, 42082, 43253], "queries": {"click": {"state": {"target": ["21", "32", "20", "16"], "time": [24681, 28426, 32140, 36429]}, "edge": {"target": [], "time": []}}, "mouseover": {"state": {"target": ["22", "21", "21", "22", "12", "27", "26", "32", "32", "32", "22", "19", "20", "14", "16"], "time": [23120, 23224, 24290, 25700, 25738, 26216, 26554, 26650, 26932, 27266, 29263, 29313, 30097, 32894, 33693]}, "edge": {"target": [], "time": []}}, "mouseout": {"state": {"target": ["27", "28", "23", "0", "22", "21", "21", "22", "12", "27", "26", "32", "32", "32", "22", "19", "20", "14", "16"], "time": [757, 807, 857, 23003, 23137, 23457, 24890, 25736, 25759, 26533, 26583, 26668, 27066, 28630, 29298, 29547, 32356, 32944, 45015]}, "edge": {"target": [], "time": []}}}, "displayed_time": "43.77", "trialTime": 45614, "trial_type": "mouselab-mdp", "trial_index": 49, "time_elapsed": 2118130, "internal_node_id": "0.0-4.0-1.0-34.0"}}, {"uniqueid": "w98012153:a46320833", "current_trial": 50, "dateTime": 1691144232365, "trialdata": {"revealed_states": [], "clicked_states": ["11", "17", "22"], "num_clicks_accrued": [0, 0, 0, 0, 0, 0, 0, 0, 0, 0, 0, 0, 0], "stateRewards": ["", 2, -4, 7, 3, 23, -42, 4, 7, -81, -33, 7, -2, -4, 5, -1, 50, -57, -14, -13, -14, 44, 55, -2, -2, 5, -2, 33, 1, 57, -13, -7, 58, 87], "withholdReward": false, "trial_id": "mdp_trial_36", "block": "test", "trialIndex": 39, "score": 34.55, "costs": -6.449999999999999, "simulationMode": [null, null, null, null, null], "rewards": [-2, -4, 5, -13, 55], "path": ["0", "0", "12", "13", "14", "19", "22"], "rt": [12526, 160, 167, 505, 340], "actions": ["right", "right", "right", "down", "left"], "actionTimes": [14304, 14972, 15644, 16665, 17517], "queries": {"click": {"state": {"target": ["11", "17", "22"], "time": [2846, 7177, 10583]}, "edge": {"target": [], "time": []}}, "mouseover": {"state": {"target": ["11", "8", "4", "4", "2", "10", "2", "7", "17", "14", "22", "13", "1", "26", "28"], "time": [2355, 3820, 4203, 4856, 5085, 5285, 6234, 6317, 6734, 8549, 8732, 11416, 11497, 11613, 11829]}, "edge": {"target": [], "time": []}}, "mouseout": {"state": {"target": ["12", "23", "31", "11", "11", "8", "4", "4", "2", "10", "2", "7", "17", "14", "22", "13", "1", "26"], "time": [738, 823, 959, 3050, 3787, 3888, 4287, 4986, 5203, 6201, 6267, 6351, 8466, 8566, 11362, 11451, 11514, 11762]}, "edge": {"target": [], "time": []}}}, "displayed_time": "18.02", "trialTime": 19486, "trial_type": "mouselab-mdp", "trial_index": 50, "time_elapsed": 2137892, "internal_node_id": "0.0-4.0-1.0-35.0"}}, {"uniqueid": "w98012153:a46320833", "current_trial": 51, "dateTime": 1691144273090, "trialdata": {"revealed_states": [], "clicked_states": ["31", "22", "17", "28", "29", "11", "7"], "num_clicks_accrued": [0, 0, 0, 0, 0, 0, 0, 0, 0, 0, 0, 0, 0], "stateRewards": ["", -2, -3, 1, -14, 48, -49, 67, -1, -35, -48, 3, -2, 1, -4, -5, 86, -84, 39, 1, 48, 41, -42, -1, -4, 2, -7, 18, -86, 17, 7, -9, 57, -69], "withholdReward": false, "trial_id": "mdp_trial_37", "block": "test", "trialIndex": 40, "score": 33.95, "costs": -15.05, "simulationMode": [null, null, null, null, null], "rewards": [-2, -3, 1, -14, 67], "path": ["0", "0", "1", "2", "3", "4", "7"], "rt": [31191, 239, 114, 265, 718], "actions": ["up", "up", "up", "right", "down"], "actionTimes": [34168, 34918, 35542, 36325, 37561], "queries": {"click": {"state": {"target": ["31", "22", "17", "28", "29", "11", "7"], "time": [4244, 7610, 11920, 17068, 22062, 25557, 29592]}, "edge": {"target": [], "time": []}}, "mouseover": {"state": {"target": ["23", "24", "31", "18", "13", "22", "13", "18", "18", "17", "16", "7", "1", "1", "1", "18", "1", "28", "8", "9", "11", "11", "27", "29", "27", "11", "11", "11", "11", "3", "6", "4", "7", "2", "10", "10"], "time": [3488, 3538, 3839, 5354, 5725, 6036, 8950, 9018, 10504, 11633, 14063, 14123, 14545, 14879, 15728, 16065, 16311, 16777, 19242, 19292, 19857, 20812, 21439, 21539, 22788, 22872, 23221, 23671, 23937, 28365, 28867, 29099, 29182, 31730, 31796, 32313]}, "edge": {"target": [], "time": []}}, "mouseout": {"state": {"target": ["28", "23", "0", "23", "24", "31", "18", "13", "22", "13", "18", "18", "17", "16", "7", "1", "1", "1", "18", "1", "28", "8", "9", "11", "11", "27", "29", "27", "11", "11", "11", "11", "3", "6", "4", "7", "2", "10"], "time": [774, 874, 2290, 3506, 3555, 4452, 5673, 5804, 7816, 8985, 9118, 11032, 12120, 14080, 14149, 14597, 14945, 15744, 16229, 16360, 17282, 19258, 19375, 20308, 21406, 21472, 22271, 22806, 22906, 23488, 23737, 28050, 28516, 29050, 29132, 29807, 31780, 31963]}, "edge": {"target": [], "time": []}}}, "displayed_time": "38.08", "trialTime": 40449, "trial_type": "mouselab-mdp", "trial_index": 51, "time_elapsed": 2178618, "internal_node_id": "0.0-4.0-1.0-36.0"}}, {"uniqueid": "w98012153:a46320833", "current_trial": 52, "dateTime": 1691144304984, "trialdata": {"revealed_states": [], "clicked_states": ["10", "22", "27", "31", "29"], "num_clicks_accrued": [0, 0, 0, 0, 0, 0, 0, 0, 0, 0, 0, 0, 0], "stateRewards": ["", 2, -4, 1, -12, -59, -53, -74, 16, -88, -66, 66, 1, -2, 8, -9, -14, 22, 25, -1, -39, 47, -14, -1, -1, -2, 1, -4, 52, -26, 15, -7, 46, 43], "withholdReward": false, "trial_id": "mdp_trial_38", "block": "test", "trialIndex": 41, "score": 43.25, "costs": -10.75, "simulationMode": [null, null, null, null, null], "rewards": [-1, -1, -2, 15, 43], "path": ["0", "0", "23", "24", "25", "30", "33"], "rt": [22541, 160, 156, 289, 224], "actions": ["left", "left", "left", "down", "left"], "actionTimes": [26450, 27134, 27797, 28597, 29330], "queries": {"click": {"state": {"target": ["10", "22", "27", "31", "29"], "time": [5378, 8967, 14192, 18390, 22675]}, "edge": {"target": [], "time": []}}, "mouseover": {"state": {"target": ["1", "10", "2", "15", "20", "20", "20", "21", "20", "19", "22", "18", "13", "19", "12", "24", "24", "28", "26", "27", "26", "31", "30", "29", "25", "30", "32", "31", "24", "31", "30", "33", "29", "1"], "time": [4777, 4911, 5928, 6009, 6210, 6376, 6693, 7029, 7675, 7860, 7960, 11389, 11621, 11887, 12237, 12404, 12870, 13038, 13120, 13785, 15254, 15384, 15717, 16066, 16967, 17099, 17349, 17482, 17683, 18066, 19930, 20329, 22212, 26041]}, "edge": {"target": [], "time": []}}, "mouseout": {"state": {"target": ["10", "1", "10", "10", "2", "15", "20", "20", "20", "21", "20", "19", "22", "18", "13", "19", "12", "24", "24", "28", "26", "27", "26", "31", "30", "29", "25", "30", "32", "31", "24", "31", "30", "33", "29", "1", "12", "21"], "time": [3078, 4828, 5586, 5926, 5960, 6027, 6344, 6559, 6709, 7559, 7825, 7895, 9182, 11588, 11689, 12155, 12254, 12471, 12952, 13052, 13718, 15234, 15270, 15433, 15750, 16233, 17048, 17183, 17432, 17567, 18000, 19913, 19947, 22028, 25790, 26073, 30703, 30803]}, "edge": {"target": [], "time": []}}}, "displayed_time": "29.84", "trialTime": 31636, "trial_type": "mouselab-mdp", "trial_index": 52, "time_elapsed": 2210511, "internal_node_id": "0.0-4.0-1.0-37.0"}}, {"uniqueid": "w98012153:a46320833", "current_trial": 53, "dateTime": 1691144326956, "trialdata": {"revealed_states": [], "clicked_states": ["6", "7"], "num_clicks_accrued": [0, 0, 0, 0, 0, 0, 0, 0, 0, 0, 0, 0, 0], "stateRewards": ["", -1, -3, 3, 5, 56, 39, 50, -1, -80, 33, -46, 1, -2, -6, -8, 87, 48, 54, -11, -20, -64, -54, -2, 3, -7, -3, 12, 88, 35, -16, -46, -70, -3], "withholdReward": false, "trial_id": "mdp_trial_39", "block": "test", "trialIndex": 42, "score": 49.7, "costs": -4.3, "simulationMode": [null, null, null, null, null], "rewards": [-1, -3, 3, 5, 50], "path": ["0", "0", "1", "2", "3", "4", "7"], "rt": [8489, 172, 60, 207, 255], "actions": ["up", "up", "up", "right", "down"], "actionTimes": [11309, 11991, 12561, 13291, 14055], "queries": {"click": {"state": {"target": ["6", "7"], "time": [4309, 7966]}, "edge": {"target": [], "time": []}}, "mouseover": {"state": {"target": ["6", "6", "4", "3", "8", "11", "10", "2", "7", "7"], "time": [3642, 3958, 5375, 5408, 5541, 5756, 6022, 6388, 6440, 6739]}, "edge": {"target": [], "time": []}}, "mouseout": {"state": {"target": ["23", "0", "6", "6", "4", "3", "8", "11", "10", "2", "7"], "time": [1958, 2492, 3675, 5373, 5406, 5473, 5606, 5906, 6323, 6405, 6572]}, "edge": {"target": [], "time": []}}}, "displayed_time": "16.82", "trialTime": 21717, "trial_type": "mouselab-mdp", "trial_index": 53, "time_elapsed": 2232483, "internal_node_id": "0.0-4.0-1.0-38.0"}}, {"uniqueid": "w98012153:a46320833", "current_trial": 54, "dateTime": 1691144347209, "trialdata": {"revealed_states": [], "clicked_states": ["17", "32"], "num_clicks_accrued": [0, 0, 0, 0, 0, 0, 0, 0, 0, 0, 0, 0, 0], "stateRewards": ["", 2, -1, -1, -9, -81, -30, 55, -6, 78, 25, 62, 2, 4, -1, 9, -85, 1, -19, 1, -60, 12, -34, 1, 4, -1, -13, -24, -16, -83, -8, 16, 43, 9], "withholdReward": false, "trial_id": "mdp_trial_40", "block": "test", "trialIndex": 43, "score": 34.7, "costs": -4.3, "simulationMode": [null, null, null, null, null], "rewards": [1, 4, -1, -8, 43], "path": ["0", "0", "23", "24", "25", "30", "32"], "rt": [10179, 143, 109, 212, 210], "actions": ["left", "left", "left", "down", "down"], "actionTimes": [12556, 13207, 13825, 14558, 15289], "queries": {"click": {"state": {"target": ["17", "32"], "time": [3908, 8890]}, "edge": {"target": [], "time": []}}, "mouseover": {"state": {"target": ["12", "15", "17", "15", "18", "22", "22", "32", "22", "14", "14", "22"], "time": [2892, 3122, 3389, 5835, 5952, 6402, 7448, 8568, 10048, 10148, 10348, 10598]}, "edge": {"target": [], "time": []}}, "mouseout": {"state": {"target": ["7", "1", "0", "12", "15", "17", "15", "18", "22", "22", "32", "22", "14", "14"], "time": [1446, 1489, 2876, 2938, 3188, 4114, 5886, 6155, 6918, 8118, 9882, 10099, 10165, 10415]}, "edge": {"target": [], "time": []}}}, "displayed_time": "16.38", "trialTime": 19969, "trial_type": "mouselab-mdp", "trial_index": 54, "time_elapsed": 2252737, "internal_node_id": "0.0-4.0-1.0-39.0"}}, {"uniqueid": "w98012153:a46320833", "current_trial": 55, "dateTime": 1691144432602, "trialdata": {"rt": 85380, "response": {"Q0": "$-2 to $2", "Q1": "$-32 to $32", "Q2": "$-88 to $88", "Q3": "The cost for clicking on nodes varied between nodes.", "Q4": "Very motivated"}, "question_order": [0, 1, 2, 3, 4], "trial_id": "final_quiz_control", "trial_type": "survey-multi-choice", "trial_index": 55, "time_elapsed": 2338130, "internal_node_id": "0.0-4.0-2.0"}}, {"uniqueid": "w98012153:a46320833", "current_trial": 56, "dateTime": 1691144560933, "trialdata": {"rt": 128315, "response": {"Q0": "I tried to click only on the 5th step, to see the end result as I would imagine that would have the best outcome.", "Q1": "I didn't keep clicking to reveal the highest number, even if the number was lower (like 40 for example) I used that so that I don't lose money by continuing to reveal numbers.", "Q2": "Quite difficult - the uncertainty of the numbers makes it tricky."}, "trial_id": "self_report_control", "trial_type": "survey-text", "trial_index": 56, "time_elapsed": 2466461, "internal_node_id": "0.0-4.0-3.0"}}, {"uniqueid": "w98012153:a46320833", "current_trial": 57, "dateTime": 1691144619491, "trialdata": {"rt": 58553, "response": {"Q0": "Strongly disagree", "Q1": "Strongly disagree", "Q2": "Neither disagree nor agree", "Q3": "Neither disagree nor agree", "Q4": "Neither disagree nor agree", "Q5": "Disagree", "Q6": "Agree"}, "question_order": [0, 1, 2, 3, 4, 5, 6], "trial_id": "self_report_2", "trial_type": "survey-multi-choice", "trial_index": 57, "time_elapsed": 2525020, "internal_node_id": "0.0-4.0-4.0"}}, {"uniqueid": "w98012153:a46320833", "current_trial": 58, "dateTime": 1691144639838, "trialdata": {"rt": 20341, "response": {"gender": "female", "age": "26", "colorblind": "0", "effort": "0"}, "trial_type": "survey-html-form", "trial_index": 58, "time_elapsed": 2545367, "internal_node_id": "0.0-4.0-5.0"}}, {"uniqueid": "w98012153:a46320833", "current_trial": 59, "dateTime": 1691144664697, "trialdata": {"rt": 24851, "response": {"Q0": "N/A", "Q1": "No I never participated before.", "Q2": "N/A"}, "trial_type": "survey-text", "trial_index": 59, "time_elapsed": 2570226, "internal_node_id": "0.0-4.0-6.0"}}, {"uniqueid": "w98012153:a46320833", "current_trial": 60, "dateTime": 1691144669918, "trialdata": {"rt": 5214, "stimulus": "Press 'Finish HIT' in order to reach the completion code. Once the data has been saved, you will receive the code either in this window or in the original browser window where you started the experiment.\n", "response": 0, "trial_type": "html-button-response", "trial_index": 60, "time_elapsed": 2575446, "internal_node_id": "0.0-5.0"}}, {"uniqueid": "w98012153:a46320833", "current_trial": 61, "dateTime": 1691144670922, "trialdata": {"success": true, "trial_type": "fullscreen", "trial_index": 61, "time_elapsed": 2576451, "internal_node_id": "0.0-6.0"}}], "questiondata": {"params": {"CODE": "C6DMOQA6", "MIN_TIME": 14, "inspectCost": 1, "startTime": "Fri Aug 04 2023 11:41:32 GMT+0200 (South Africa Standard Time)", "bonusRate": 0.002, "variance": "1_2_4_8_44", "branching": "31123"}}, "eventdata": [{"eventtype": "initialized", "value": null, "timestamp": 1691142092004, "interval": 0}, {"eventtype": "window_resize", "value": [1028, 752], "timestamp": 1691142092004, "interval": 0}, {"eventtype": "window_resize", "value": [1028, 752], "timestamp": 1691142092480, "interval": 476}, {"eventtype": "window_resize", "value": [1536, 864], "timestamp": 1691142097066, "interval": 4586}, {"eventtype": "focus", "value": "off", "timestamp": 1691142677338, "interval": 580272}, {"eventtype": "focus", "value": "on", "timestamp": 1691142677339, "interval": 1}, {"eventtype": "window_resize", "value": [1028, 752], "timestamp": 1691142677554, "interval": 215}, {"eventtype": "window_resize", "value": [1536, 864], "timestamp": 1691142679716, "interval": 2162}, {"eventtype": "window_resize", "value": [1028, 752], "timestamp": 1691144670159, "interval": 1990443}], "useragent": "Mozilla/5.0 (Windows NT 10.0; Win64; x64) AppleWebKit/537.36 (KHTML, like Gecko) Chrome/115.0.0.0 Safari/537.36", "mode": "live", "id": "w98012153:a46320833", "status": "user data saved", "Beginhit": "2023-08-04 09:41:29.763832", "Beginexp": "2023-08-04 09:41:38.374558", "Endhit": "2023-08-04 10:24:32.372185", "psiturkStatus": 3, "browser": "<redacted>", "platform": "windows", "language": "en-ZA"}