{"condition": 1, "counterbalance": 0, "assignmentId": "a42915460", "workerId": "w39097077", "hitId": "h21998015", "currenttrial": 56, "bonus": 0, "data": [{"uniqueid": "w39097077:a42915460", "current_trial": 0, "dateTime": 1693580171273, "trialdata": {"success": true, "trial_type": "fullscreen", "trial_index": 0, "time_elapsed": 5559, "internal_node_id": "0.0-0.0"}}, {"uniqueid": "w39097077:a42915460", "current_trial": 1, "dateTime": 1693580190990, "trialdata": {"view_history": [{"page_index": 0, "viewing_time": 19707}], "rt": 19708, "trial_id": "exp_instructions_misaligned", "trial_type": "instructions", "trial_index": 1, "time_elapsed": 25276, "internal_node_id": "0.0-1.0"}}, {"uniqueid": "w39097077:a42915460", "current_trial": 2, "dateTime": 1693580367825, "trialdata": {"view_history": [{"page_index": 0, "viewing_time": 41546}, {"page_index": 1, "viewing_time": 64928}, {"page_index": 2, "viewing_time": 45707}, {"page_index": 3, "viewing_time": 24647}], "rt": 176829, "trial_id": "mouselab_instructions_1_misaligned", "trial_type": "instructions", "trial_index": 2, "time_elapsed": 202111, "internal_node_id": "0.0-2.0-1.0"}}, {"uniqueid": "w39097077:a42915460", "current_trial": 3, "dateTime": 1693580413041, "trialdata": {"revealed_states": [], "clicked_states": ["12", "13", "14", "15", "11", "8", "25", "24", "31", "30", "32"], "num_clicks_accrued": [0, 0, 0, 0, 0, 0, 0, 0, 0, 0, 0, 0, 0], "stateRewards": ["", 10, -10, 10, -10, -10, 10, -10, -10, -10, 10, -10, 10, -10, -10, -10, 10, 10, 10, 10, -10, 10, 10, 10, -10, 10, -10, 10, 10, -10, 10, -10, 10, -10], "withholdReward": false, "trial_id": "practice_1", "block": "test", "trialIndex": 0, "score": 28, "costs": -5.5, "simulationMode": [null, null, null, null, null], "rewards": [10, -10, 10, 10, 10], "path": ["0", "0", "23", "24", "25", "30", "32"], "rt": [33213, 394, 624, 908, 205], "actions": ["left", "left", "left", "down", "down"], "actionTimes": [36815, 37716, 38856, 40264, 40977], "queries": {"click": {"state": {"target": ["12", "13", "14", "15", "11", "8", "25", "24", "31", "30", "32"], "time": [8011, 11459, 14066, 16860, 19403, 21343, 23735, 25475, 27117, 28496, 29936]}, "edge": {"target": [], "time": []}}, "mouseover": {"state": {"target": ["1", "12", "12", "13", "14", "13", "14", "15", "7", "3", "8", "11", "8", "3", "2", "28", "25", "24", "31", "30", "32", "33", "23", "0", "23", "0"], "time": [5536, 6812, 7688, 9494, 9760, 10327, 12267, 15432, 18363, 18771, 18837, 19155, 20005, 22485, 23145, 23362, 23445, 24487, 26737, 27788, 29130, 31114, 31596, 31679, 31896, 33295]}, "edge": {"target": [], "time": []}}, "mouseout": {"state": {"target": ["0", "1", "12", "12", "13", "14", "13", "14", "15", "7", "3", "8", "11", "8", "3", "2", "28", "25", "24", "31", "30", "32", "33", "23", "0", "23", "0", "12", "13"], "time": [1536, 6494, 6826, 9443, 9627, 9977, 12185, 15296, 17058, 18396, 18805, 18938, 19559, 22030, 22817, 23296, 23397, 23894, 25970, 27670, 28961, 30713, 31429, 31629, 31854, 32112, 43679, 43729, 43779]}, "edge": {"target": [], "time": []}}}, "displayed_time": "41.47", "trialTime": 44735, "trial_type": "mouselab-mdp", "trial_index": 3, "time_elapsed": 247326, "internal_node_id": "0.0-2.0-2.0-0.0"}}, {"uniqueid": "w39097077:a42915460", "current_trial": 4, "dateTime": 1693580442170, "trialdata": {"revealed_states": [], "clicked_states": ["1", "2", "3", "4", "6", "5", "7", "8", "9"], "num_clicks_accrued": [0, 0, 0, 0, 0, 0, 0, 0, 0, 0, 0, 0, 0], "stateRewards": ["", 10, 10, 10, 10, -10, -10, -10, 10, 10, 10, -10, 10, -10, 10, -10, 10, -10, 10, -10, -10, 10, -10, -10, -10, 10, 10, 10, -10, -10, 10, 10, -10, 10], "withholdReward": false, "trial_id": "practice_2", "block": "test", "trialIndex": 1, "score": 49, "costs": -4.5, "simulationMode": [null, null, null, null, null], "rewards": [10, 10, 10, 10, 10], "path": ["0", "0", "1", "2", "3", "8", "9"], "rt": [21655, 4, 71, 308, 77], "actions": ["up", "up", "up", "left", "up"], "actionTimes": [24527, 25049, 25632, 26452, 27053], "queries": {"click": {"state": {"target": ["1", "2", "3", "4", "6", "5", "7", "8", "9"], "time": [5380, 7943, 9690, 11291, 13638, 15573, 17251, 19605, 20979]}, "edge": {"target": [], "time": []}}, "mouseover": {"state": {"target": ["1", "2", "4", "1", "2", "3", "4", "6", "5", "7", "3", "9", "8", "9", "11", "3"], "time": [3527, 3659, 4083, 5134, 6842, 9349, 11033, 13041, 15355, 16999, 18915, 19083, 19416, 19998, 22167, 22957]}, "edge": {"target": [], "time": []}}, "mouseout": {"state": {"target": ["13", "1", "2", "4", "1", "2", "3", "4", "6", "5", "7", "3", "9", "8", "9", "9", "8", "11", "3"], "time": [1274, 3591, 3741, 4767, 5545, 8086, 10982, 12991, 13805, 16131, 17397, 18963, 19382, 19753, 21071, 21715, 22100, 22740, 23108]}, "edge": {"target": [], "time": []}}}, "displayed_time": "27.58", "trialTime": 28920, "trial_type": "mouselab-mdp", "trial_index": 4, "time_elapsed": 276455, "internal_node_id": "0.0-2.0-2.0-1.0"}}, {"uniqueid": "w39097077:a42915460", "current_trial": 5, "dateTime": 1693580479319, "trialdata": {"view_history": [{"page_index": 0, "viewing_time": 30731}, {"page_index": 1, "viewing_time": 6415}], "rt": 37147, "trial_id": "mouselab_instructions_2_misaligned", "trial_type": "instructions", "trial_index": 5, "time_elapsed": 313605, "internal_node_id": "0.0-2.0-3.0"}}, {"uniqueid": "w39097077:a42915460", "current_trial": 6, "dateTime": 1693580503064, "trialdata": {"rt": 23740, "response": {"Q0": "The cost for clicking on nodes may vary between nodes.", "Q1": "The better I perform the higher my bonus will be.", "Q2": "No, the amount of cash at each node of the web may be different each time.", "Q3": "To get the highest total score.", "Q4": "Only before moving the spider.", "Q5": "3 seconds"}, "question_order": [0, 1, 2, 3, 4, 5], "correct": {"Q0": "The cost for clicking on nodes may vary between nodes.", "Q1": "The better I perform the higher my bonus will be.", "Q2": "No, the amount of cash at each node of the web may be different each time.", "Q3": "To get the highest total score.", "Q4": "Only before moving the spider.", "Q5": "3 seconds"}, "trial_id": "mouselab_quiz_misaligned", "trial_type": "survey-multi-choice", "trial_index": 6, "time_elapsed": 337350, "internal_node_id": "0.0-2.0-4.0"}}, {"uniqueid": "w39097077:a42915460", "current_trial": 7, "dateTime": 1693580511176, "trialdata": {"rt": 8107, "response": {"Q0": "No"}, "question_order": [0], "trial_id": "repeat_check", "trial_type": "survey-multi-choice", "trial_index": 7, "time_elapsed": 345461, "internal_node_id": "0.0-4.0-0.0"}}, {"uniqueid": "w39097077:a42915460", "current_trial": 8, "dateTime": 1693580518477, "trialdata": {"rt": 7294, "stimulus": "\n<h1> Get ready to start the game! </h1>\n\nThank you for reading the instructions. Get ready start with the 40 rounds of this game.\n<br><br>\nIf you need to take a break, feel free to take one after the end of a round, before continuing to the next one.\n<br><br>\nRemember, the more money the spider gets, the bigger your bonus will be!\n<br><br>\n<div style='text-align: center;'>Press <code>space</code> to begin.</div>\n\n<br><br>\n(If, at any point, the <code>space</code> key does not take you to the next page, click once on the text and try again.)", "response": " ", "trial_id": "mdp_ready", "trial_type": "html-keyboard-response", "trial_index": 8, "time_elapsed": 352763, "internal_node_id": "0.0-6.0-0.0"}}, {"uniqueid": "w39097077:a42915460", "current_trial": 9, "dateTime": 1693580541825, "trialdata": {"revealed_states": [], "clicked_states": ["1", "2", "3", "4", "12", "13", "14", "23", "24", "25", "26", "28"], "num_clicks_accrued": [0, 0, 0, 0, 0, 0, 0, 0, 0, 0, 0, 0, 0], "stateRewards": ["", -1, 2, -6, 6, 43, 78, 78, -2, 55, -29, -17, -2, -4, 1, -15, 13, 7, -79, 8, -28, -68, 36, -1, -3, 3, -16, 84, -18, 87, 10, 32, 13, -81], "withholdReward": false, "trial_id": "mdp_trial_1", "block": "test", "trialIndex": 2, "score": -32.4, "costs": -8.399999999999999, "simulationMode": [null, null, null, null, null], "rewards": [-1, 2, -6, -2, -17], "path": ["0", "0", "1", "2", "3", "8", "11"], "rt": [15935, 239, 180, 193, 137], "actions": ["up", "up", "up", "left", "left"], "actionTimes": [18172, 18906, 19582, 20285, 20929], "queries": {"click": {"state": {"target": ["1", "2", "3", "4", "12", "13", "14", "23", "24", "25", "26", "28"], "time": [3333, 4296, 5612, 7512, 8899, 9655, 10358, 11375, 12314, 13105, 14095, 14940]}, "edge": {"target": [], "time": []}}, "mouseover": {"state": {"target": ["1", "2", "3", "15", "13", "12", "4", "15", "14", "13", "12", "13", "14", "0", "23", "24", "23", "24", "25", "26", "28", "30", "31", "23"], "time": [2831, 3974, 5342, 6505, 6959, 7022, 7356, 8180, 8414, 8531, 8783, 9429, 10163, 10746, 10813, 10929, 11147, 11881, 13013, 13897, 14714, 15464, 17129, 17230]}, "edge": {"target": [], "time": []}}, "mouseout": {"state": {"target": ["6", "18", "12", "0", "1", "2", "3", "15", "13", "12", "4", "15", "14", "13", "12", "13", "14", "13", "12", "0", "23", "24", "23", "24", "25", "26", "28", "30", "31", "23"], "time": [664, 764, 1014, 2718, 3924, 5090, 6323, 6690, 7006, 7056, 7656, 8314, 8464, 8614, 9346, 10063, 10663, 10696, 10729, 10779, 10863, 11113, 11798, 12730, 13580, 14565, 15262, 17080, 17146, 17331]}, "edge": {"target": [], "time": []}}}, "displayed_time": "21.42", "trialTime": 23110, "trial_type": "mouselab-mdp", "trial_index": 9, "time_elapsed": 376110, "internal_node_id": "0.0-6.0-1.0-0.0"}}, {"uniqueid": "w39097077:a42915460", "current_trial": 10, "dateTime": 1693580559349, "trialdata": {"revealed_states": [], "clicked_states": ["1", "2", "4", "8", "6"], "num_clicks_accrued": [0, 0, 0, 0, 0, 0, 0, 0, 0, 0, 0, 0, 0], "stateRewards": ["", 2, -3, 5, 11, -79, 54, 11, -9, -78, 33, 22, -2, -1, 2, 14, 43, 34, 1, 10, 49, -65, 39, -1, 1, -1, 3, -16, -2, 11, 2, 12, 48, -65], "withholdReward": false, "trial_id": "mdp_trial_2", "block": "test", "trialIndex": 3, "score": 63.65, "costs": -5.35, "simulationMode": [null, null, null, null, null], "rewards": [2, -3, 5, 11, 54], "path": ["0", "0", "1", "2", "3", "4", "6"], "rt": [9436, 170, 314, 25, 17], "actions": ["up", "up", "up", "right", "right"], "actionTimes": [11150, 11841, 12661, 13197, 13705], "queries": {"click": {"state": {"target": ["1", "2", "4", "8", "6"], "time": [2327, 3299, 4909, 6074, 7985]}, "edge": {"target": [], "time": []}}, "mouseover": {"state": {"target": ["1", "2", "3", "4", "3", "8", "3", "6", "5", "4", "7"], "time": [1986, 3035, 4385, 4670, 5401, 5733, 6526, 7702, 8435, 9318, 9833]}, "edge": {"target": [], "time": []}}, "mouseout": {"state": {"target": ["12", "12", "0", "1", "2", "3", "4", "3", "8", "3", "6", "5", "4"], "time": [518, 785, 1936, 2835, 3934, 4586, 5351, 5668, 6209, 6593, 8122, 9100, 9584]}, "edge": {"target": [], "time": []}}}, "displayed_time": "15.72", "trialTime": 17307, "trial_type": "mouselab-mdp", "trial_index": 10, "time_elapsed": 393634, "internal_node_id": "0.0-6.0-1.0-1.0"}}, {"uniqueid": "w39097077:a42915460", "current_trial": 11, "dateTime": 1693580602448, "trialdata": {"revealed_states": [], "clicked_states": ["12", "23", "24", "25", "26", "28", "27", "29", "32", "9", "6", "7", "4", "5"], "num_clicks_accrued": [0, 0, 0, 0, 0, 0, 0, 0, 0, 0, 0, 0, 0], "stateRewards": ["", 2, -4, 4, 9, 69, 9, -75, 12, -86, 66, 25, -1, 3, 2, -13, -88, -3, 1, 4, -69, 49, -84, 2, -1, 4, 2, -18, -81, -52, -15, -69, -54, 25], "withholdReward": false, "trial_id": "mdp_trial_3", "block": "test", "trialIndex": 4, "score": 58.9, "costs": -21.1, "simulationMode": [null, null, null, null, null], "rewards": [2, -4, 4, 9, 69], "path": ["0", "0", "1", "2", "3", "4", "5"], "rt": [36159, 57, 115, 101, 85], "actions": ["up", "up", "up", "right", "up"], "actionTimes": [37835, 38409, 39050, 39661, 40244], "queries": {"click": {"state": {"target": ["12", "23", "24", "25", "26", "28", "27", "29", "32", "9", "6", "7", "4", "5"], "time": [2592, 3595, 4723, 5615, 6319, 7672, 11392, 14664, 17866, 21665, 25505, 29017, 32394, 33631]}, "edge": {"target": [], "time": []}}, "mouseover": {"state": {"target": ["12", "12", "0", "23", "24", "25", "26", "27", "28", "27", "29", "25", "30", "32", "31", "28", "9", "3", "8", "3", "6", "7", "4", "4", "3", "5", "3"], "time": [2202, 2420, 3285, 3351, 4490, 5425, 6074, 7174, 7458, 8150, 12514, 15083, 15231, 15498, 18456, 21157, 21474, 22257, 23356, 25049, 25235, 26214, 29456, 29789, 32924, 33340, 34482]}, "edge": {"target": [], "time": []}}, "mouseout": {"state": {"target": ["7", "0", "12", "12", "0", "23", "24", "25", "26", "27", "28", "27", "29", "25", "30", "32", "31", "28", "9", "3", "8", "3", "6", "6", "7", "4", "4", "3", "5"], "time": [992, 2128, 2308, 3283, 3317, 4273, 5374, 5992, 6841, 7391, 7809, 11882, 15033, 15116, 15333, 17994, 21127, 21174, 22188, 23190, 25032, 25065, 25634, 26081, 29408, 29507, 32536, 33305, 34132]}, "edge": {"target": [], "time": []}}}, "displayed_time": "40.76", "trialTime": 42872, "trial_type": "mouselab-mdp", "trial_index": 11, "time_elapsed": 436733, "internal_node_id": "0.0-6.0-1.0-2.0"}}, {"uniqueid": "w39097077:a42915460", "current_trial": 12, "dateTime": 1693580619321, "trialdata": {"revealed_states": [], "clicked_states": ["17", "16"], "num_clicks_accrued": [0, 0, 0, 0, 0, 0, 0, 0, 0, 0, 0, 0, 0], "stateRewards": ["", -2, 1, -5, 2, -68, 80, 33, 10, 67, -59, 20, -1, -3, 3, 14, 74, -2, 24, -16, 63, 80, 46, -1, 4, 6, 12, 83, -38, -43, -4, 43, 14, -79], "withholdReward": false, "trial_id": "mdp_trial_4", "block": "test", "trialIndex": 5, "score": 82.7, "costs": -4.3, "simulationMode": [null, null, null, null, null], "rewards": [-1, -3, 3, 14, 74], "path": ["0", "0", "12", "13", "14", "15", "16"], "rt": [8084, 112, 106, 153, 1], "actions": ["right", "right", "right", "up", "up"], "actionTimes": [9597, 10206, 10832, 11494, 12009], "queries": {"click": {"state": {"target": ["17", "16"], "time": [2220, 5530]}, "edge": {"target": [], "time": []}}, "mouseover": {"state": {"target": ["12", "17", "16", "18"], "time": [1774, 1907, 3307, 6030]}, "edge": {"target": [], "time": []}}, "mouseout": {"state": {"target": ["3", "0", "12", "17", "17", "16", "16"], "time": [648, 1047, 1789, 2327, 3005, 5656, 5963]}, "edge": {"target": [], "time": []}}}, "displayed_time": "15.52", "trialTime": 16654, "trial_type": "mouselab-mdp", "trial_index": 12, "time_elapsed": 453606, "internal_node_id": "0.0-6.0-1.0-3.0"}}, {"uniqueid": "w39097077:a42915460", "current_trial": 13, "dateTime": 1693580649770, "trialdata": {"revealed_states": [], "clicked_states": ["32", "31", "33", "27", "9", "10", "1", "3"], "num_clicks_accrued": [0, 0, 0, 0, 0, 0, 0, 0, 0, 0, 0, 0, 0], "stateRewards": ["", 2, 3, -1, 6, 44, -4, -59, -14, -3, 64, 16, 1, -3, 3, 6, 3, 49, 19, 3, -49, -14, -86, 1, 2, -3, -8, -33, 14, 32, -13, -77, -47, -67], "withholdReward": false, "trial_id": "mdp_trial_5", "block": "test", "trialIndex": 6, "score": 40.4, "costs": -13.6, "simulationMode": [null, null, null, null, null], "rewards": [2, 3, -1, -14, 64], "path": ["0", "0", "1", "2", "3", "8", "10"], "rt": [23860, 76, 119, 216, 3], "actions": ["up", "up", "up", "left", "down"], "actionTimes": [25818, 26401, 27030, 27760, 28281], "queries": {"click": {"state": {"target": ["32", "31", "33", "27", "9", "10", "1", "3"], "time": [2914, 6218, 9946, 13116, 16597, 19796, 23230, 24872]}, "edge": {"target": [], "time": []}}, "mouseover": {"state": {"target": ["0", "32", "31", "33", "33", "26", "27", "28", "8", "9", "10", "4", "6", "7", "2", "2", "1", "2", "3", "3"], "time": [2175, 2617, 3768, 8107, 9750, 10483, 10867, 13801, 15950, 16349, 18091, 20451, 20782, 21982, 22099, 22500, 22801, 23842, 24409, 24661]}, "edge": {"target": [], "time": []}}, "mouseout": {"state": {"target": ["18", "15", "18", "0", "32", "31", "33", "33", "26", "27", "28", "8", "9", "10", "4", "6", "7", "2", "2", "1", "2", "3", "3", "7"], "time": [883, 1011, 1066, 2200, 3467, 6906, 9498, 10419, 10517, 13532, 15666, 15983, 17125, 19907, 20581, 21866, 22015, 22265, 22732, 23365, 24157, 24424, 29499, 29715]}, "edge": {"target": [], "time": []}}}, "displayed_time": "28.81", "trialTime": 30223, "trial_type": "mouselab-mdp", "trial_index": 13, "time_elapsed": 484055, "internal_node_id": "0.0-6.0-1.0-4.0"}}, {"uniqueid": "w39097077:a42915460", "current_trial": 14, "dateTime": 1693580674391, "trialdata": {"revealed_states": [], "clicked_states": ["18", "7", "5", "3", "2", "1", "4"], "num_clicks_accrued": [0, 0, 0, 0, 0, 0, 0, 0, 0, 0, 0, 0, 0], "stateRewards": ["", -1, -4, 8, 8, -68, 47, 24, -7, -61, 49, -69, -1, -1, 8, -7, 42, 1, -45, -11, 10, -63, -6, 1, 4, 6, -16, 79, -37, -58, -12, 81, 18, -53], "withholdReward": false, "trial_id": "mdp_trial_6", "block": "test", "trialIndex": 7, "score": 25.950000000000003, "costs": -9.049999999999999, "simulationMode": [null, null, null, null, null], "rewards": [-1, -4, 8, 8, 24], "path": ["0", "0", "1", "2", "3", "4", "7"], "rt": [16771, 585, 203, 414, 310], "actions": ["up", "up", "up", "right", "down"], "actionTimes": [18878, 19984, 20704, 21631, 22457], "queries": {"click": {"state": {"target": ["18", "7", "5", "3", "2", "1", "4"], "time": [3163, 6520, 10616, 14003, 15302, 16357, 17365]}, "edge": {"target": [], "time": []}}, "mouseover": {"state": {"target": ["12", "13", "15", "16", "18", "7", "3", "9", "5", "4", "4", "3", "4", "2", "1", "4", "3", "8", "8", "3"], "time": [2377, 2421, 2522, 2789, 2922, 3788, 9831, 10080, 10397, 11162, 13047, 13536, 14929, 15099, 16129, 16962, 18099, 18131, 18247, 18313]}, "edge": {"target": [], "time": []}}, "mouseout": {"state": {"target": ["7", "2", "23", "0", "12", "13", "15", "16", "18", "7", "3", "9", "5", "5", "4", "4", "3", "4", "2", "2", "1", "4", "4", "3", "8", "8"], "time": [564, 834, 979, 2372, 2406, 2439, 2588, 2888, 3705, 7024, 9880, 10197, 10737, 11047, 11229, 13280, 14846, 14999, 15452, 16029, 16501, 17795, 18097, 18128, 18179, 18295]}, "edge": {"target": [], "time": []}}}, "displayed_time": "22.96", "trialTime": 24401, "trial_type": "mouselab-mdp", "trial_index": 14, "time_elapsed": 508676, "internal_node_id": "0.0-6.0-1.0-5.0"}}, {"uniqueid": "w39097077:a42915460", "current_trial": 15, "dateTime": 1693580691961, "trialdata": {"revealed_states": [], "clicked_states": ["31", "28", "25"], "num_clicks_accrued": [0, 0, 0, 0, 0, 0, 0, 0, 0, 0, 0, 0, 0], "stateRewards": ["", 2, 4, -6, -13, -75, -81, 30, 7, 5, 59, -65, -1, -1, 7, 14, -38, 36, -41, 1, -54, -5, 64, 2, -1, 5, 6, -19, 79, 11, 16, -33, -50, 58], "withholdReward": false, "trial_id": "mdp_trial_7", "block": "test", "trialIndex": 8, "score": 85.75, "costs": -5.25, "simulationMode": [null, null, null, null, null], "rewards": [2, -1, 5, 6, 79], "path": ["0", "0", "23", "24", "25", "26", "28"], "rt": [10714, 53, 92, 396, 70], "actions": ["left", "left", "left", "up", "right"], "actionTimes": [12688, 13261, 13870, 14774, 15362], "queries": {"click": {"state": {"target": ["31", "28", "25"], "time": [3662, 6863, 11115]}, "edge": {"target": [], "time": []}}, "mouseover": {"state": {"target": ["23", "31", "31", "24", "28", "29", "26", "25", "24"], "time": [2562, 2913, 3497, 4313, 4830, 7729, 10498, 10866, 11966]}, "edge": {"target": [], "time": []}}, "mouseout": {"state": {"target": ["3", "2", "1", "23", "31", "31", "24", "28", "29", "26", "25", "24"], "time": [686, 754, 1028, 2663, 2963, 4280, 4397, 7345, 10494, 10533, 11633, 16785]}, "edge": {"target": [], "time": []}}}, "displayed_time": "15.98", "trialTime": 17306, "trial_type": "mouselab-mdp", "trial_index": 15, "time_elapsed": 526246, "internal_node_id": "0.0-6.0-1.0-6.0"}}, {"uniqueid": "w39097077:a42915460", "current_trial": 16, "dateTime": 1693580708734, "trialdata": {"revealed_states": [], "clicked_states": ["10", "9", "8", "3", "2", "1"], "num_clicks_accrued": [0, 0, 0, 0, 0, 0, 0, 0, 0, 0, 0, 0, 0], "stateRewards": ["", -1, -2, -1, -10, -57, 73, -72, -16, 75, -14, -46, -2, -3, -7, -1, -61, -60, 76, -4, 50, 4, 14, 2, 2, -7, 12, -65, -32, 15, -8, -76, -25, -61], "withholdReward": false, "trial_id": "mdp_trial_8", "block": "test", "trialIndex": 9, "score": 48.1, "costs": -6.8999999999999995, "simulationMode": [null, null, null, null, null], "rewards": [-1, -2, -1, -16, 75], "path": ["0", "0", "1", "2", "3", "8", "9"], "rt": [11621, 26, 88, 8, 28], "actions": ["up", "up", "up", "left", "up"], "actionTimes": [13153, 13694, 14286, 14804, 15343], "queries": {"click": {"state": {"target": ["10", "9", "8", "3", "2", "1"], "time": [2543, 5721, 9711, 10537, 11254, 12209]}, "edge": {"target": [], "time": []}}, "mouseover": {"state": {"target": ["1", "2", "3", "3", "10", "8", "11", "9", "11", "8", "3", "2", "1"], "time": [1876, 1904, 1938, 2087, 2388, 3036, 3220, 4436, 7420, 9379, 10211, 10996, 11861]}, "edge": {"target": [], "time": []}}, "mouseout": {"state": {"target": ["0", "1", "2", "3", "3", "10", "8", "11", "9", "11", "8", "3", "2", "1"], "time": [1872, 1886, 1919, 1988, 2188, 2651, 3136, 4187, 7270, 9362, 10178, 10928, 11795, 12369]}, "edge": {"target": [], "time": []}}}, "displayed_time": "15.88", "trialTime": 16543, "trial_type": "mouselab-mdp", "trial_index": 16, "time_elapsed": 543019, "internal_node_id": "0.0-6.0-1.0-7.0"}}, {"uniqueid": "w39097077:a42915460", "current_trial": 17, "dateTime": 1693580725395, "trialdata": {"revealed_states": [], "clicked_states": ["6", "4", "3"], "num_clicks_accrued": [0, 0, 0, 0, 0, 0, 0, 0, 0, 0, 0, 0, 0], "stateRewards": ["", 1, 1, 1, 15, -76, 52, -32, 14, -57, 37, 49, 1, -4, -3, 6, 83, -76, 25, 9, 36, -1, -17, -1, 4, 4, -2, -22, -21, 58, -15, -57, 49, -24], "withholdReward": false, "trial_id": "mdp_trial_9", "block": "test", "trialIndex": 10, "score": 65.35, "costs": -4.65, "simulationMode": [null, null, null, null, null], "rewards": [1, 1, 1, 15, 52], "path": ["0", "0", "1", "2", "3", "4", "6"], "rt": [7048, 121, 59, 521, 109], "actions": ["up", "up", "up", "right", "right"], "actionTimes": [8360, 8999, 9561, 10606, 11227], "queries": {"click": {"state": {"target": ["6", "4", "3"], "time": [2172, 6330, 7057]}, "edge": {"target": [], "time": []}}, "mouseover": {"state": {"target": ["7", "6", "7", "4", "3", "2"], "time": [1666, 1999, 4936, 6099, 6833, 7582]}, "edge": {"target": [], "time": []}}, "mouseout": {"state": {"target": ["1", "18", "13", "0", "7", "6", "7", "4", "3"], "time": [482, 698, 765, 948, 1682, 3549, 5884, 6784, 7517]}, "edge": {"target": [], "time": []}}}, "displayed_time": "15.32", "trialTime": 16423, "trial_type": "mouselab-mdp", "trial_index": 17, "time_elapsed": 559680, "internal_node_id": "0.0-6.0-1.0-8.0"}}, {"uniqueid": "w39097077:a42915460", "current_trial": 18, "dateTime": 1693580750706, "trialdata": {"revealed_states": [], "clicked_states": ["22", "20", "21", "16", "17", "14"], "num_clicks_accrued": [0, 0, 0, 0, 0, 0, 0, 0, 0, 0, 0, 0, 0], "stateRewards": ["", -1, 1, -1, 2, 19, 85, -18, 2, -3, -26, 36, 2, 4, 7, -9, -18, 70, 72, -5, 35, -20, -28, 1, -2, -4, -3, -59, -11, -63, -2, -72, 59, -69], "withholdReward": false, "trial_id": "mdp_trial_10", "block": "test", "trialIndex": 11, "score": 62.3, "costs": -11.7, "simulationMode": [null, null, null, null, null], "rewards": [2, 4, 7, -9, 70], "path": ["0", "0", "12", "13", "14", "15", "17"], "rt": [19703, 161, 139, 48, 12], "actions": ["right", "right", "right", "up", "right"], "actionTimes": [21271, 21947, 22598, 23158, 23689], "queries": {"click": {"state": {"target": ["22", "20", "21", "16", "17", "14"], "time": [2618, 5877, 9725, 13090, 16583, 19921]}, "edge": {"target": [], "time": []}}, "mouseover": {"state": {"target": ["12", "22", "19", "21", "20", "21", "19", "14", "15", "16", "15", "17", "14", "13"], "time": [1893, 2376, 3225, 3791, 3874, 6617, 10483, 11151, 11250, 11400, 14141, 16384, 18216, 20475]}, "edge": {"target": [], "time": []}}, "mouseout": {"state": {"target": ["2", "1", "12", "22", "19", "21", "20", "21", "19", "14", "15", "16", "15", "17", "14"], "time": [691, 826, 2060, 3191, 3360, 3808, 6435, 9849, 11102, 11216, 11334, 13809, 16250, 18066, 20031]}, "edge": {"target": [], "time": []}}}, "displayed_time": "24.21", "trialTime": 25070, "trial_type": "mouselab-mdp", "trial_index": 18, "time_elapsed": 584991, "internal_node_id": "0.0-6.0-1.0-9.0"}}, {"uniqueid": "w39097077:a42915460", "current_trial": 19, "dateTime": 1693580786532, "trialdata": {"revealed_states": [], "clicked_states": ["29", "26", "25", "24", "33", "31", "32", "9", "11", "7", "3"], "num_clicks_accrued": [0, 0, 0, 0, 0, 0, 0, 0, 0, 0, 0, 0, 0], "stateRewards": ["", 2, 2, 3, -15, 23, -14, 73, -7, -32, -20, -6, 1, 1, -5, -12, 73, 6, -84, 11, -81, -57, 13, -2, -1, -4, -8, -52, -58, 49, 13, 5, -41, -41], "withholdReward": false, "trial_id": "mdp_trial_11", "block": "test", "trialIndex": 12, "score": 46.15, "costs": -18.85, "simulationMode": [null, null, null, null, null], "rewards": [2, 2, 3, -15, 73], "path": ["0", "0", "1", "2", "3", "4", "7"], "rt": [29682, 15, 83, 687, 111], "actions": ["up", "up", "up", "right", "down"], "actionTimes": [31055, 31578, 32179, 33367, 33988], "queries": {"click": {"state": {"target": ["29", "26", "25", "24", "33", "31", "32", "9", "11", "7", "3"], "time": [2192, 6217, 7270, 7936, 9239, 12483, 15703, 18892, 22436, 26066, 30013]}, "edge": {"target": [], "time": []}}, "mouseover": {"state": {"target": ["23", "24", "25", "26", "29", "28", "28", "26", "25", "24", "30", "33", "30", "31", "32", "24", "10", "8", "9", "3", "8", "11", "8", "7", "6", "4", "3"], "time": [1528, 1560, 1678, 1811, 1894, 2969, 3236, 5869, 7085, 7718, 8686, 8852, 10292, 10728, 13601, 16260, 16393, 16692, 16943, 21227, 21927, 22343, 22876, 25827, 28642, 29443, 29844]}, "edge": {"target": [], "time": []}}, "mouseout": {"state": {"target": ["13", "12", "0", "23", "24", "23", "24", "25", "26", "29", "28", "28", "26", "25", "24", "30", "33", "30", "31", "32", "24", "10", "8", "9", "3", "8", "11", "8", "7", "6", "4"], "time": [477, 527, 593, 643, 760, 1544, 1611, 1744, 1826, 2292, 3068, 5841, 6634, 7653, 8568, 8718, 9794, 10460, 13251, 15851, 16275, 16408, 16875, 20143, 21776, 22093, 22826, 22926, 26183, 29409, 29542]}, "edge": {"target": [], "time": []}}}, "displayed_time": "34.49", "trialTime": 35583, "trial_type": "mouselab-mdp", "trial_index": 19, "time_elapsed": 620817, "internal_node_id": "0.0-6.0-1.0-10.0"}}, {"uniqueid": "w39097077:a42915460", "current_trial": 20, "dateTime": 1693580820934, "trialdata": {"revealed_states": [], "clicked_states": ["6", "5", "10", "9", "11", "31", "29"], "num_clicks_accrued": [0, 0, 0, 0, 0, 0, 0, 0, 0, 0, 0, 0, 0], "stateRewards": ["", 1, -1, -7, -7, -22, 15, -13, 13, 26, -32, 38, -1, 1, -7, -4, 16, -62, 86, 12, -54, 56, 64, -2, -1, 6, 14, -57, 37, 62, -6, -25, 50, -70], "withholdReward": false, "trial_id": "mdp_trial_12", "block": "test", "trialIndex": 13, "score": 63.95, "costs": -15.05, "simulationMode": [null, null, null, null, null], "rewards": [-2, -1, 6, 14, 62], "path": ["0", "0", "23", "24", "25", "26", "29"], "rt": [26365, 24, 90, 591, 461], "actions": ["left", "left", "left", "up", "left"], "actionTimes": [29187, 29726, 30312, 31424, 32398], "queries": {"click": {"state": {"target": ["6", "5", "10", "9", "11", "31", "29"], "time": [3667, 7231, 11033, 14192, 17860, 21451, 24994]}, "edge": {"target": [], "time": []}}, "mouseover": {"state": {"target": ["7", "6", "5", "3", "10", "8", "9", "11", "31", "31", "25", "29", "26", "28"], "time": [3203, 3275, 6002, 10412, 10547, 12059, 12243, 15537, 20167, 20400, 24043, 24394, 25699, 26684]}, "edge": {"target": [], "time": []}}, "mouseout": {"state": {"target": ["3", "7", "6", "6", "5", "3", "10", "8", "9", "11", "31", "31", "25", "29", "26", "28"], "time": [944, 3219, 3782, 4336, 10362, 10460, 11994, 12160, 15253, 19316, 20250, 24010, 24076, 25600, 26067, 33575]}, "edge": {"target": [], "time": []}}}, "displayed_time": "32.92", "trialTime": 34171, "trial_type": "mouselab-mdp", "trial_index": 20, "time_elapsed": 655219, "internal_node_id": "0.0-6.0-1.0-11.0"}}, {"uniqueid": "w39097077:a42915460", "current_trial": 21, "dateTime": 1693580838797, "trialdata": {"revealed_states": [], "clicked_states": ["22", "14", "13", "19", "12"], "num_clicks_accrued": [0, 0, 0, 0, 0, 0, 0, 0, 0, 0, 0, 0, 0], "stateRewards": ["", 1, 1, 1, -3, -7, -1, -41, -10, 20, -72, -63, 1, -4, -2, 2, -66, 30, -84, -2, 49, 23, 71, -1, -4, 4, -12, 67, 5, 18, -16, 88, 56, -5], "withholdReward": false, "trial_id": "mdp_trial_13", "block": "test", "trialIndex": 14, "score": 59.25, "costs": -4.75, "simulationMode": [null, null, null, null, null], "rewards": [1, -4, -2, -2, 71], "path": ["0", "0", "12", "13", "14", "19", "22"], "rt": [9146, 323, 118, 94, 520], "actions": ["right", "right", "right", "down", "left"], "actionTimes": [10719, 11567, 12206, 12800, 13839], "queries": {"click": {"state": {"target": ["22", "14", "13", "19", "12"], "time": [2846, 7204, 8473, 9249, 10084]}, "edge": {"target": [], "time": []}}, "mouseover": {"state": {"target": ["18", "15", "19", "22", "19", "20", "13", "14", "13", "19", "12"], "time": [2035, 2102, 2401, 2619, 4604, 5318, 6740, 7019, 8243, 9042, 9825]}, "edge": {"target": [], "time": []}}, "mouseout": {"state": {"target": ["1", "0", "0", "18", "15", "19", "22", "19", "20", "13", "14", "13", "19", "13", "12"], "time": [584, 651, 1810, 2068, 2304, 2452, 3734, 4916, 6685, 6986, 8193, 8827, 9383, 9759, 10235]}, "edge": {"target": [], "time": []}}}, "displayed_time": "15.58", "trialTime": 17612, "trial_type": "mouselab-mdp", "trial_index": 21, "time_elapsed": 673083, "internal_node_id": "0.0-6.0-1.0-12.0"}}, {"uniqueid": "w39097077:a42915460", "current_trial": 22, "dateTime": 1693580868911, "trialdata": {"revealed_states": [], "clicked_states": ["16", "17", "22", "31", "29", "28"], "num_clicks_accrued": [0, 0, 0, 0, 0, 0, 0, 0, 0, 0, 0, 0, 0], "stateRewards": ["", -1, 1, -5, -6, -78, 47, -13, 12, 48, -88, 20, 2, -3, -2, 13, -20, 37, -57, 14, -38, 30, 31, -2, -2, 8, 2, -23, 78, 28, 12, -74, -88, 8], "withholdReward": false, "trial_id": "mdp_trial_14", "block": "test", "trialIndex": 15, "score": 71.1, "costs": -12.9, "simulationMode": [null, null, null, null, null], "rewards": [-2, -2, 8, 2, 78], "path": ["0", "0", "23", "24", "25", "26", "28"], "rt": [23925, 26, 37, 154, 498], "actions": ["left", "left", "left", "up", "right"], "actionTimes": [25181, 25722, 26281, 26950, 27944], "queries": {"click": {"state": {"target": ["16", "17", "22", "31", "29", "28"], "time": [3680, 6868, 10370, 13610, 16838, 21303]}, "edge": {"target": [], "time": []}}, "mouseover": {"state": {"target": ["7", "6", "16", "17", "14", "22", "31", "31", "30", "25", "29", "26", "28", "24", "28", "2", "5"], "time": [1696, 1971, 3256, 5020, 7753, 7870, 11854, 12053, 14419, 14520, 14754, 17619, 17818, 20460, 21094, 22011, 22329]}, "edge": {"target": [], "time": []}}, "mouseout": {"state": {"target": ["12", "7", "6", "16", "16", "17", "17", "14", "22", "31", "31", "30", "25", "29", "26", "28", "24", "28", "2"], "time": [486, 1746, 2203, 3787, 4737, 7062, 7670, 7804, 11071, 11904, 14385, 14486, 14542, 17586, 17703, 20444, 20845, 21944, 22044]}, "edge": {"target": [], "time": []}}}, "displayed_time": "28.45", "trialTime": 29861, "trial_type": "mouselab-mdp", "trial_index": 22, "time_elapsed": 703196, "internal_node_id": "0.0-6.0-1.0-13.0"}}, {"uniqueid": "w39097077:a42915460", "current_trial": 23, "dateTime": 1693580899557, "trialdata": {"revealed_states": [], "clicked_states": ["10", "7", "9", "6", "5", "11", "31"], "num_clicks_accrued": [0, 0, 0, 0, 0, 0, 0, 0, 0, 0, 0, 0, 0], "stateRewards": ["", -1, 3, 2, 9, 41, 4, -46, -12, -54, -87, -25, 2, 3, -1, 11, -77, 12, -33, -9, -32, 35, 72, 1, 3, -7, 4, 37, 65, -73, 6, 77, -43, 8], "withholdReward": false, "trial_id": "mdp_trial_15", "block": "test", "trialIndex": 16, "score": 64.95, "costs": -15.05, "simulationMode": [null, null, null, null, null], "rewards": [1, 3, -7, 6, 77], "path": ["0", "0", "23", "24", "25", "30", "31"], "rt": [24529, 25, 43, 7, 10], "actions": ["left", "left", "left", "down", "right"], "actionTimes": [26695, 27220, 27770, 28300, 28822], "queries": {"click": {"state": {"target": ["10", "7", "9", "6", "5", "11", "31"], "time": [2952, 6415, 9680, 12809, 16025, 19522, 22732]}, "edge": {"target": [], "time": []}}, "mouseover": {"state": {"target": ["1", "2", "10", "2", "7", "3", "9", "6", "5", "11", "23", "31", "0", "12", "13", "15", "18"], "time": [2427, 2493, 2693, 3660, 3927, 7151, 7369, 11167, 13809, 17000, 21792, 22108, 23901, 23966, 24099, 24284, 24467]}, "edge": {"target": [], "time": []}}, "mouseout": {"state": {"target": ["5", "6", "12", "0", "1", "2", "10", "2", "7", "3", "9", "6", "5", "5", "11", "23", "31", "0", "12", "13", "15", "18"], "time": [910, 1125, 1409, 1660, 2442, 2526, 3610, 3760, 7118, 7184, 10634, 12947, 16160, 16650, 21276, 21825, 23800, 23933, 24049, 24132, 24417, 26167]}, "edge": {"target": [], "time": []}}}, "displayed_time": "29.36", "trialTime": 30402, "trial_type": "mouselab-mdp", "trial_index": 23, "time_elapsed": 733843, "internal_node_id": "0.0-6.0-1.0-14.0"}}, {"uniqueid": "w39097077:a42915460", "current_trial": 24, "dateTime": 1693580924763, "trialdata": {"revealed_states": [], "clicked_states": ["6", "3", "4", "1", "2", "16", "20", "14", "13"], "num_clicks_accrued": [0, 0, 0, 0, 0, 0, 0, 0, 0, 0, 0, 0, 0], "stateRewards": ["", 1, -1, 1, -14, -10, 67, -28, -11, 72, 40, -65, -1, 1, 1, -2, 8, -55, 34, -10, 61, 33, -15, 2, -4, 7, 4, -75, 63, -21, -16, 61, 19, 21], "withholdReward": false, "trial_id": "mdp_trial_16", "block": "test", "trialIndex": 17, "score": 41.650000000000006, "costs": -10.349999999999998, "simulationMode": [null, null, null, null, null], "rewards": [-1, 1, 1, -10, 61], "path": ["0", "0", "12", "13", "14", "19", "20"], "rt": [19116, 543, 150, 301, 32], "actions": ["right", "right", "right", "down", "right"], "actionTimes": [20448, 21507, 22171, 22970, 23508], "queries": {"click": {"state": {"target": ["6", "3", "4", "1", "2", "16", "20", "14", "13"], "time": [2458, 6424, 7596, 9572, 10291, 11309, 14572, 18586, 19448]}, "edge": {"target": [], "time": []}}, "mouseover": {"state": {"target": ["1", "7", "6", "7", "2", "18", "18", "4", "3", "4", "7", "1", "1", "2", "7", "16", "20", "22", "14", "13"], "time": [1804, 1886, 2186, 3768, 4234, 4450, 4684, 6059, 6294, 7077, 8859, 8993, 9319, 10184, 10735, 10951, 13185, 16476, 18259, 19276]}, "edge": {"target": [], "time": []}}, "mouseout": {"state": {"target": ["1", "7", "6", "7", "2", "18", "18", "4", "3", "4", "7", "1", "1", "2", "7", "16", "20", "22", "14", "14"], "time": [1852, 1918, 3286, 4068, 4317, 4484, 5979, 6126, 6567, 8810, 8926, 9109, 9951, 10701, 10784, 11934, 15909, 18210, 18713, 19159]}, "edge": {"target": [], "time": []}}}, "displayed_time": "24.03", "trialTime": 24942, "trial_type": "mouselab-mdp", "trial_index": 24, "time_elapsed": 759048, "internal_node_id": "0.0-6.0-1.0-15.0"}}, {"uniqueid": "w39097077:a42915460", "current_trial": 25, "dateTime": 1693580942693, "trialdata": {"revealed_states": [], "clicked_states": ["10", "27", "32"], "num_clicks_accrued": [0, 0, 0, 0, 0, 0, 0, 0, 0, 0, 0, 0, 0], "stateRewards": ["", -2, 3, 3, -14, 62, 36, 49, 16, 11, 17, -84, 2, -1, 6, 2, -82, -73, 49, -6, -87, 48, 50, -1, -2, -1, -16, -11, 37, -44, 4, 55, 73, -10], "withholdReward": false, "trial_id": "mdp_trial_17", "block": "test", "trialIndex": 18, "score": 66.55, "costs": -6.449999999999999, "simulationMode": [null, null, null, null, null], "rewards": [-1, -2, -1, 4, 73], "path": ["0", "0", "23", "24", "25", "30", "32"], "rt": [11534, 43, 34, 506, 70], "actions": ["left", "left", "left", "down", "down"], "actionTimes": [13042, 13595, 14166, 15206, 15778], "queries": {"click": {"state": {"target": ["10", "27", "32"], "time": [2501, 5780, 9007]}, "edge": {"target": [], "time": []}}, "mouseover": {"state": {"target": ["1", "10", "27", "24", "31", "32", "32", "33"], "time": [1874, 2195, 3372, 6338, 6371, 6638, 7322, 9539]}, "edge": {"target": [], "time": []}}, "mouseout": {"state": {"target": ["13", "12", "1", "10", "27", "24", "31", "32", "32"], "time": [559, 597, 1889, 3239, 6306, 6356, 6405, 6789, 9227]}, "edge": {"target": [], "time": []}}}, "displayed_time": "16.29", "trialTime": 17681, "trial_type": "mouselab-mdp", "trial_index": 25, "time_elapsed": 776978, "internal_node_id": "0.0-6.0-1.0-16.0"}}, {"uniqueid": "w39097077:a42915460", "current_trial": 26, "dateTime": 1693580967212, "trialdata": {"revealed_states": [], "clicked_states": ["28", "24", "23", "26", "25", "14", "17", "10"], "num_clicks_accrued": [0, 0, 0, 0, 0, 0, 0, 0, 0, 0, 0, 0, 0], "stateRewards": ["", -2, -1, 3, -3, 71, -58, -21, 7, -10, -75, -37, 2, 4, -1, -12, -79, -29, -48, 3, -41, -10, -30, -1, -2, 1, -15, 13, 66, 22, -1, -42, -86, -55], "withholdReward": false, "trial_id": "mdp_trial_18", "block": "test", "trialIndex": 19, "score": 39, "costs": -10, "simulationMode": [null, null, null, null, null], "rewards": [-1, -2, 1, -15, 66], "path": ["0", "0", "23", "24", "25", "26", "28"], "rt": [18465, 20, 88, 206, 34], "actions": ["left", "left", "left", "up", "right"], "actionTimes": [19867, 20400, 21004, 21723, 22249], "queries": {"click": {"state": {"target": ["28", "24", "23", "26", "25", "14", "17", "10"], "time": [2449, 6522, 7419, 8437, 9323, 11099, 12483, 16766]}, "edge": {"target": [], "time": []}}, "mouseover": {"state": {"target": ["23", "28", "31", "24", "23", "26", "25", "12", "13", "14", "15", "17", "15", "18", "1", "28", "10", "1", "1", "7", "2", "10"], "time": [1799, 1881, 3464, 6280, 7249, 8063, 8914, 10247, 10447, 10764, 11812, 12180, 13179, 13246, 13329, 13429, 13612, 13729, 13980, 16272, 16471, 16571]}, "edge": {"target": [], "time": []}}, "mouseout": {"state": {"target": ["33", "30", "24", "23", "23", "28", "31", "24", "23", "24", "26", "26", "25", "12", "13", "14", "15", "17", "15", "18", "1", "28", "10", "1", "1", "7", "2", "10"], "time": [491, 589, 739, 805, 1812, 3130, 6064, 7164, 7779, 7846, 8587, 8881, 9797, 10330, 10597, 11285, 11947, 13147, 13212, 13262, 13345, 13579, 13663, 13913, 15822, 16322, 16505, 23913]}, "edge": {"target": [], "time": []}}}, "displayed_time": "22.75", "trialTime": 24274, "trial_type": "mouselab-mdp", "trial_index": 26, "time_elapsed": 801497, "internal_node_id": "0.0-6.0-1.0-17.0"}}, {"uniqueid": "w39097077:a42915460", "current_trial": 27, "dateTime": 1693580984661, "trialdata": {"revealed_states": [], "clicked_states": ["10", "5", "3"], "num_clicks_accrued": [0, 0, 0, 0, 0, 0, 0, 0, 0, 0, 0, 0, 0], "stateRewards": ["", -2, -3, 7, -13, 60, 9, 37, -6, 37, 20, 1, 2, -2, -8, 6, -80, -31, -10, -7, 70, -65, -44, -1, 1, 7, 6, -11, 73, -85, 16, -21, 47, 34], "withholdReward": false, "trial_id": "mdp_trial_19", "block": "test", "trialIndex": 20, "score": 43.75, "costs": -5.25, "simulationMode": [null, null, null, null, null], "rewards": [-2, -3, 7, -13, 60], "path": ["0", "0", "1", "2", "3", "4", "5"], "rt": [9585, 9, 78, 220, 129], "actions": ["up", "up", "up", "right", "up"], "actionTimes": [11764, 12276, 12877, 13618, 14259], "queries": {"click": {"state": {"target": ["10", "5", "3"], "time": [3157, 6515, 10511]}, "edge": {"target": [], "time": []}}, "mouseover": {"state": {"target": ["1", "10", "3", "5", "2", "23", "31", "31", "23", "2", "3", "2"], "time": [2606, 2955, 3872, 4106, 8144, 8228, 8278, 8662, 9955, 10021, 10371, 11104]}, "edge": {"target": [], "time": []}}, "mouseout": {"state": {"target": ["2", "1", "12", "0", "1", "10", "3", "5", "2", "23", "31", "31", "23", "2", "3", "2", "10"], "time": [479, 921, 1020, 2590, 2824, 3805, 3938, 8113, 8178, 8246, 8296, 9938, 9970, 10038, 11021, 16804, 16871]}, "edge": {"target": [], "time": []}}}, "displayed_time": "16.19", "trialTime": 17183, "trial_type": "mouselab-mdp", "trial_index": 27, "time_elapsed": 818946, "internal_node_id": "0.0-6.0-1.0-18.0"}}, {"uniqueid": "w39097077:a42915460", "current_trial": 28, "dateTime": 1693581020405, "trialdata": {"revealed_states": [], "clicked_states": ["21", "22", "17", "7", "9", "11", "32", "29", "24", "25", "23"], "num_clicks_accrued": [0, 0, 0, 0, 0, 0, 0, 0, 0, 0, 0, 0, 0], "stateRewards": ["", -2, 2, -5, -6, 10, -66, -58, -10, -11, -63, -70, -1, -4, -5, 7, 66, -64, -43, -3, 45, -37, 4, -2, -2, -6, -4, -30, 33, 43, 15, -32, -65, -59], "withholdReward": false, "trial_id": "mdp_trial_20", "block": "test", "trialIndex": 21, "score": 10.75, "costs": -18.25, "simulationMode": [null, null, null, null, null], "rewards": [-2, -2, -6, -4, 43], "path": ["0", "0", "23", "24", "25", "26", "29"], "rt": [29995, 458, 137, 290, 69], "actions": ["left", "left", "left", "up", "left"], "actionTimes": [31149, 32124, 32770, 33565, 34134], "queries": {"click": {"state": {"target": ["21", "22", "17", "7", "9", "11", "32", "29", "24", "25", "23"], "time": [2061, 5292, 8549, 11765, 14958, 18140, 21273, 24474, 28484, 29397, 30191]}, "edge": {"target": [], "time": []}}, "mouseover": {"state": {"target": ["12", "19", "21", "22", "22", "14", "17", "15", "18", "7", "8", "9", "8", "10", "28", "10", "11", "31", "30", "32", "30", "29", "26", "28", "28", "24", "25", "23"], "time": [1416, 1548, 1815, 3030, 3363, 5880, 5998, 9172, 9355, 10039, 12497, 12797, 15605, 15672, 16071, 16354, 16521, 19221, 19320, 19454, 21962, 22445, 25712, 27663, 27946, 28326, 29246, 29996]}, "edge": {"target": [], "time": []}}, "mouseout": {"state": {"target": ["10", "2", "1", "12", "19", "21", "22", "22", "14", "17", "15", "18", "7", "8", "9", "8", "10", "28", "10", "11", "31", "30", "32", "30", "29", "26", "28", "28", "24", "25", "24", "23"], "time": [521, 632, 680, 1446, 1714, 2997, 3063, 5815, 5914, 9139, 9290, 9989, 12380, 12531, 15572, 15638, 15704, 16256, 16455, 18788, 19288, 19353, 21947, 21980, 25396, 26645, 27796, 28065, 28638, 29845, 29946, 30662]}, "edge": {"target": [], "time": []}}}, "displayed_time": "34.63", "trialTime": 35480, "trial_type": "mouselab-mdp", "trial_index": 28, "time_elapsed": 854691, "internal_node_id": "0.0-6.0-1.0-19.0"}}, {"uniqueid": "w39097077:a42915460", "current_trial": 29, "dateTime": 1693581073963, "trialdata": {"revealed_states": [], "clicked_states": ["20", "18", "14", "13", "15", "12", "7", "11", "10", "6", "33", "27", "28", "29", "31", "32"], "num_clicks_accrued": [0, 0, 0, 0, 0, 0, 0, 0, 0, 0, 0, 0, 0], "stateRewards": ["", -1, 3, 8, 9, -53, 20, -84, 2, -28, -62, -31, -1, -2, -7, 2, 51, 58, 45, -4, -17, -41, 36, 2, -2, -7, -15, 29, -54, -37, -16, -43, 65, -17], "withholdReward": false, "trial_id": "mdp_trial_21", "block": "test", "trialIndex": 22, "score": 13.600000000000009, "costs": -28.39999999999999, "simulationMode": [null, null, null, null, null], "rewards": [2, -2, -7, -16, 65], "path": ["0", "0", "23", "24", "25", "30", "32"], "rt": [47145, 378, 137, 53, 79], "actions": ["left", "left", "left", "down", "down"], "actionTimes": [49119, 50004, 50657, 51202, 51797], "queries": {"click": {"state": {"target": ["20", "18", "14", "13", "15", "12", "7", "11", "10", "6", "33", "27", "28", "29", "31", "32"], "time": [2913, 6276, 10567, 11434, 12169, 13033, 14712, 17897, 21017, 24265, 27457, 30673, 34519, 38284, 41534, 45307]}, "edge": {"target": [], "time": []}}, "mouseover": {"state": {"target": ["12", "13", "19", "20", "14", "18", "13", "21", "21", "19", "14", "13", "15", "12", "2", "7", "2", "8", "9", "11", "10", "3", "4", "6", "2", "33", "33", "29", "26", "27", "28", "24", "31", "28", "28", "26", "26", "29", "25", "31", "32"], "time": [2262, 2311, 2462, 2679, 5186, 5304, 7036, 7138, 7453, 9954, 10303, 11202, 11901, 12852, 14253, 14487, 15269, 15536, 15819, 16435, 18759, 21527, 21579, 22211, 25099, 25216, 25715, 29182, 29416, 29533, 31158, 31407, 31691, 33958, 34282, 35849, 37834, 38183, 38698, 38799, 45124]}, "edge": {"target": [], "time": []}}, "mouseout": {"state": {"target": ["0", "12", "13", "19", "20", "14", "18", "13", "21", "21", "19", "14", "13", "15", "12", "2", "7", "2", "8", "9", "11", "10", "3", "4", "6", "6", "2", "33", "33", "29", "26", "27", "28", "24", "31", "28", "28", "26", "26", "29", "25", "31", "32"], "time": [2246, 2295, 2362, 2495, 5103, 5221, 7003, 7070, 7203, 9920, 10121, 11168, 11599, 12618, 13175, 14453, 15252, 15302, 15619, 16135, 18543, 21479, 21544, 21630, 24432, 25049, 25115, 25248, 29049, 29350, 29432, 31073, 31240, 31573, 33925, 33974, 35649, 36283, 37866, 38631, 38732, 44725, 45436]}, "edge": {"target": [], "time": []}}}, "displayed_time": "52.30", "trialTime": 53303, "trial_type": "mouselab-mdp", "trial_index": 29, "time_elapsed": 908248, "internal_node_id": "0.0-6.0-1.0-20.0"}}, {"uniqueid": "w39097077:a42915460", "current_trial": 30, "dateTime": 1693581110920, "trialdata": {"revealed_states": [], "clicked_states": ["9", "7", "6", "17", "22", "21", "20", "29", "24"], "num_clicks_accrued": [0, 0, 0, 0, 0, 0, 0, 0, 0, 0, 0, 0, 0], "stateRewards": ["", 2, -3, -4, -1, 25, -16, 16, 10, -71, -20, -55, 1, 3, -4, -9, 1, 32, 11, -6, 32, -50, -41, -1, 4, 4, -8, 7, -81, 70, 2, -52, 45, -10], "withholdReward": false, "trial_id": "mdp_trial_22", "block": "test", "trialIndex": 23, "score": 51.45, "costs": -17.55, "simulationMode": [null, null, null, null, null], "rewards": [-1, 4, 4, -8, 70], "path": ["0", "0", "23", "24", "25", "26", "29"], "rt": [30605, 11, 33, 241, 913], "actions": ["left", "left", "left", "up", "left"], "actionTimes": [31628, 32147, 32699, 33476, 34895], "queries": {"click": {"state": {"target": ["9", "7", "6", "17", "22", "21", "20", "29", "24"], "time": [2688, 5926, 9477, 12658, 16061, 19669, 22866, 26540, 30865]}, "edge": {"target": [], "time": []}}, "mouseover": {"state": {"target": ["0", "23", "3", "9", "6", "4", "7", "6", "16", "17", "14", "22", "19", "21", "20", "19", "0", "23", "24", "25", "29", "26", "28", "0", "13", "12", "23", "24"], "time": [1509, 1643, 2030, 2443, 3526, 4811, 5226, 7684, 10051, 10334, 13338, 13535, 16790, 19434, 21024, 23452, 23516, 23534, 23565, 23585, 24132, 27183, 27233, 27332, 27716, 29813, 30174, 30626]}, "edge": {"target": [], "time": []}}, "mouseout": {"state": {"target": ["0", "0", "23", "3", "9", "6", "4", "7", "6", "16", "17", "14", "22", "19", "21", "20", "19", "0", "23", "24", "25", "29", "26", "28", "0", "13", "12", "23"], "time": [1258, 1593, 1709, 2210, 3360, 3626, 4976, 7450, 10002, 10066, 13268, 13352, 16624, 19385, 19784, 23449, 23482, 23532, 23550, 23582, 23615, 26718, 27216, 27266, 27349, 29809, 29823, 30608]}, "edge": {"target": [], "time": []}}}, "displayed_time": "35.41", "trialTime": 36688, "trial_type": "mouselab-mdp", "trial_index": 30, "time_elapsed": 945205, "internal_node_id": "0.0-6.0-1.0-21.0"}}, {"uniqueid": "w39097077:a42915460", "current_trial": 31, "dateTime": 1693581143697, "trialdata": {"revealed_states": [], "clicked_states": ["31", "10", "17", "13"], "num_clicks_accrued": [0, 0, 0, 0, 0, 0, 0, 0, 0, 0, 0, 0, 0], "stateRewards": ["", 1, -1, 8, 4, 76, -33, -17, -3, -1, -54, -74, -2, 2, -5, 13, -51, 63, 83, 1, 84, 29, -36, 2, -1, 7, -12, -10, -44, -43, -14, 8, -69, 19], "withholdReward": false, "trial_id": "mdp_trial_23", "block": "test", "trialIndex": 24, "score": 64.2, "costs": -6.799999999999999, "simulationMode": [null, null, null, null, null], "rewards": [-2, 2, -5, 13, 63], "path": ["0", "0", "12", "13", "14", "15", "17"], "rt": [12546, 53, 211, 255, 80], "actions": ["right", "right", "right", "up", "right"], "actionTimes": [28477, 29040, 29780, 30550, 31140], "queries": {"click": {"state": {"target": ["31", "10", "17", "13"], "time": [16810, 20107, 23219, 27235]}, "edge": {"target": [], "time": []}}, "mouseover": {"state": {"target": ["0", "31", "24", "10", "10", "3", "16", "17", "19", "22", "13", "14"], "time": [16184, 16567, 18116, 18184, 18584, 20635, 21084, 21266, 23825, 24159, 26976, 27857]}, "edge": {"target": [], "time": []}}, "mouseout": {"state": {"target": ["24", "23", "0", "31", "24", "10", "10", "3", "16", "17", "19", "22", "13"], "time": [653, 693, 16200, 16945, 18137, 18233, 20600, 20649, 21118, 23725, 23841, 26766, 27381]}, "edge": {"target": [], "time": []}}}, "displayed_time": "31.66", "trialTime": 32485, "trial_type": "mouselab-mdp", "trial_index": 31, "time_elapsed": 977982, "internal_node_id": "0.0-6.0-1.0-22.0"}}, {"uniqueid": "w39097077:a42915460", "current_trial": 32, "dateTime": 1693581160123, "trialdata": {"revealed_states": [], "clicked_states": ["31", "25"], "num_clicks_accrued": [0, 0, 0, 0, 0, 0, 0, 0, 0, 0, 0, 0, 0], "stateRewards": ["", 2, -1, -3, 16, -3, -16, -62, -1, 13, -26, 43, -1, 4, 3, -9, -54, -37, -3, -12, -71, -68, -57, 1, -3, 2, -9, 2, -2, -9, -11, 84, -52, 55], "withholdReward": false, "trial_id": "mdp_trial_24", "block": "test", "trialIndex": 25, "score": 69.9, "costs": -3.0999999999999996, "simulationMode": [null, null, null, null, null], "rewards": [1, -3, 2, -11, 84], "path": ["0", "0", "23", "24", "25", "30", "31"], "rt": [6552, 560, 485, 195, 80], "actions": ["left", "left", "left", "down", "right"], "actionTimes": [7714, 8789, 9779, 10476, 11070], "queries": {"click": {"state": {"target": ["31", "25"], "time": [2222, 6429]}, "edge": {"target": [], "time": []}}, "mouseover": {"state": {"target": ["23", "31", "31", "24", "10", "2", "7", "1", "23", "30", "25"], "time": [1569, 1720, 2002, 3017, 3335, 3435, 3707, 5567, 5610, 5782, 6260]}, "edge": {"target": [], "time": []}}, "mouseout": {"state": {"target": ["14", "13", "0", "23", "31", "31", "24", "10", "2", "7", "1", "23", "31", "30", "25", "24", "23"], "time": [413, 460, 1552, 1603, 1752, 3002, 3036, 3367, 3670, 5559, 5592, 5625, 5660, 5944, 7077, 12836, 13334]}, "edge": {"target": [], "time": []}}}, "displayed_time": "15.16", "trialTime": 16113, "trial_type": "mouselab-mdp", "trial_index": 32, "time_elapsed": 994408, "internal_node_id": "0.0-6.0-1.0-23.0"}}, {"uniqueid": "w39097077:a42915460", "current_trial": 33, "dateTime": 1693581178993, "trialdata": {"revealed_states": [], "clicked_states": ["6", "21", "29", "24"], "num_clicks_accrued": [0, 0, 0, 0, 0, 0, 0, 0, 0, 0, 0, 0, 0], "stateRewards": ["", 1, -2, 4, 7, -43, -83, -60, -5, -86, -80, 83, -1, -2, 6, 11, -15, 21, 13, 9, 29, -49, 11, -1, 4, -6, -11, 87, 40, 63, -8, -39, -11, 62], "withholdReward": false, "trial_id": "mdp_trial_25", "block": "test", "trialIndex": 26, "score": 42.2, "costs": -6.799999999999999, "simulationMode": [null, null, null, null, null], "rewards": [-1, 4, -6, -11, 63], "path": ["0", "0", "23", "24", "25", "26", "29"], "rt": [12799, 104, 160, 488, 25], "actions": ["left", "left", "left", "up", "left"], "actionTimes": [14183, 14805, 15481, 16473, 17004], "queries": {"click": {"state": {"target": ["6", "21", "29", "24"], "time": [2359, 5555, 8793, 13064]}, "edge": {"target": [], "time": []}}, "mouseover": {"state": {"target": ["1", "7", "6", "7", "22", "21", "23", "28", "29", "30", "32", "32", "30", "25", "24"], "time": [1769, 1881, 2096, 3195, 3496, 3896, 6135, 6167, 7118, 9419, 9484, 9818, 12217, 12266, 12668]}, "edge": {"target": [], "time": []}}, "mouseout": {"state": {"target": ["1", "7", "6", "7", "22", "21", "23", "28", "29", "30", "32", "32", "30", "25"], "time": [1797, 1948, 3113, 3263, 3512, 6052, 6150, 6835, 9317, 9451, 9518, 12186, 12250, 12437]}, "edge": {"target": [], "time": []}}}, "displayed_time": "17.51", "trialTime": 18571, "trial_type": "mouselab-mdp", "trial_index": 33, "time_elapsed": 1013278, "internal_node_id": "0.0-6.0-1.0-24.0"}}, {"uniqueid": "w39097077:a42915460", "current_trial": 34, "dateTime": 1693581199470, "trialdata": {"revealed_states": [], "clicked_states": ["6", "10", "33", "20"], "num_clicks_accrued": [0, 0, 0, 0, 0, 0, 0, 0, 0, 0, 0, 0, 0], "stateRewards": ["", 1, 2, -5, 14, 54, -14, -25, 16, -5, -87, 78, -1, 1, 3, -3, 52, 53, 53, -10, 73, -69, -48, 2, 3, 1, 8, -62, -7, 85, 7, 82, 52, -28], "withholdReward": false, "trial_id": "mdp_trial_26", "block": "test", "trialIndex": 27, "score": 57.4, "costs": -8.6, "simulationMode": [null, null, null, null, null], "rewards": [-1, 1, 3, -10, 73], "path": ["0", "0", "12", "13", "14", "19", "20"], "rt": [14502, 153, 90, 156, 408], "actions": ["right", "right", "right", "down", "right"], "actionTimes": [15956, 16631, 17234, 17882, 18803], "queries": {"click": {"state": {"target": ["6", "10", "33", "20"], "time": [2193, 5513, 8659, 11838]}, "edge": {"target": [], "time": []}}, "mouseover": {"state": {"target": ["7", "6", "2", "10", "28", "25", "33", "30", "19", "20", "20", "19", "12", "0", "23", "28", "28", "1"], "time": [1786, 2055, 2750, 2833, 6467, 6651, 6851, 9202, 9319, 9354, 9801, 12501, 12584, 12885, 12903, 12933, 13400, 15218]}, "edge": {"target": [], "time": []}}, "mouseout": {"state": {"target": ["24", "23", "7", "6", "2", "10", "10", "28", "25", "33", "30", "19", "20", "20", "19", "12", "0", "23", "28", "28", "1"], "time": [468, 552, 1839, 2668, 2783, 6235, 6301, 6518, 6768, 9167, 9218, 9352, 9436, 12435, 12518, 12601, 12901, 12918, 12967, 15172, 15235]}, "edge": {"target": [], "time": []}}}, "displayed_time": "19.31", "trialTime": 20191, "trial_type": "mouselab-mdp", "trial_index": 34, "time_elapsed": 1033755, "internal_node_id": "0.0-6.0-1.0-25.0"}}, {"uniqueid": "w39097077:a42915460", "current_trial": 35, "dateTime": 1693581224032, "trialdata": {"revealed_states": [], "clicked_states": ["31", "28", "33", "9", "6"], "num_clicks_accrued": [0, 0, 0, 0, 0, 0, 0, 0, 0, 0, 0, 0, 0], "stateRewards": ["", 1, -3, -6, -5, 47, 80, -29, 11, -71, 10, -29, -2, 3, -6, 12, 2, -78, -6, 8, 34, -16, -5, -1, 3, 3, -13, 84, -36, -62, -3, -27, 66, 15], "withholdReward": false, "trial_id": "mdp_trial_27", "block": "test", "trialIndex": 28, "score": 56.25, "costs": -10.75, "simulationMode": [null, null, null, null, null], "rewards": [1, -3, -6, -5, 80], "path": ["0", "0", "1", "2", "3", "4", "6"], "rt": [18499, 67, 119, 582, 73], "actions": ["up", "up", "up", "right", "right"], "actionTimes": [19753, 20323, 20959, 22039, 22620], "queries": {"click": {"state": {"target": ["31", "28", "33", "9", "6"], "time": [2121, 5326, 8712, 12059, 15385]}, "edge": {"target": [], "time": []}}, "mouseover": {"state": {"target": ["23", "24", "31", "24", "28", "10", "28", "25", "33", "25", "26", "8", "9", "9", "6", "2", "10", "2", "7", "2", "8", "11", "8", "3"], "time": [1739, 1805, 1938, 3121, 3188, 3788, 4155, 6078, 6261, 9295, 9314, 9395, 9528, 9845, 14845, 16069, 16221, 16521, 16603, 17253, 17387, 17753, 18915, 18996]}, "edge": {"target": [], "time": []}}, "mouseout": {"state": {"target": ["13", "12", "0", "23", "24", "31", "24", "28", "10", "28", "25", "33", "25", "26", "8", "9", "9", "9", "6", "2", "10", "2", "7", "2", "8", "11", "8"], "time": [529, 579, 995, 1790, 1838, 3038, 3139, 3572, 4087, 5995, 6129, 9262, 9311, 9329, 9413, 9595, 12169, 14152, 15985, 16086, 16503, 16570, 17203, 17287, 17519, 18879, 18962]}, "edge": {"target": [], "time": []}}}, "displayed_time": "23.13", "trialTime": 24290, "trial_type": "mouselab-mdp", "trial_index": 35, "time_elapsed": 1058318, "internal_node_id": "0.0-6.0-1.0-26.0"}}, {"uniqueid": "w39097077:a42915460", "current_trial": 36, "dateTime": 1693581248993, "trialdata": {"revealed_states": [], "clicked_states": ["20", "22", "9", "7"], "num_clicks_accrued": [0, 0, 0, 0, 0, 0, 0, 0, 0, 0, 0, 0, 0], "stateRewards": ["", 1, 3, 3, -10, 52, 68, 59, 12, 7, 49, 21, -2, -3, -4, -2, -2, 63, 63, -4, 44, 43, -76, -2, -3, -6, 13, 48, 36, 12, -5, -36, -33, -11], "withholdReward": false, "trial_id": "mdp_trial_28", "block": "test", "trialIndex": 29, "score": 47.4, "costs": -8.6, "simulationMode": [null, null, null, null, null], "rewards": [1, 3, 3, -10, 59], "path": ["0", "0", "1", "2", "3", "4", "7"], "rt": [16894, 28, 132, 276, 91], "actions": ["up", "up", "up", "right", "down"], "actionTimes": [18699, 19242, 19894, 20680, 21283], "queries": {"click": {"state": {"target": ["20", "22", "9", "7"], "time": [3178, 6740, 11463, 14768]}, "edge": {"target": [], "time": []}}, "mouseover": {"state": {"target": ["12", "20", "19", "22", "13", "15", "16", "21", "3", "9", "3", "7", "7"], "time": [2212, 2963, 4028, 4212, 7620, 7769, 8470, 10480, 10699, 11239, 13952, 14070, 14462]}, "edge": {"target": [], "time": []}}, "mouseout": {"state": {"target": ["3", "2", "1", "0", "12", "20", "20", "19", "22", "13", "15", "16", "21", "3", "9", "3", "7", "7", "7", "18"], "time": [587, 773, 870, 2197, 2262, 3318, 4012, 4149, 7503, 7687, 7853, 10095, 10579, 10729, 13753, 14003, 14170, 16927, 22545, 22662]}, "edge": {"target": [], "time": []}}}, "displayed_time": "21.80", "trialTime": 24671, "trial_type": "mouselab-mdp", "trial_index": 36, "time_elapsed": 1083278, "internal_node_id": "0.0-6.0-1.0-27.0"}}, {"uniqueid": "w39097077:a42915460", "current_trial": 37, "dateTime": 1693581275399, "trialdata": {"revealed_states": [], "clicked_states": ["32", "5", "17", "29"], "num_clicks_accrued": [0, 0, 0, 0, 0, 0, 0, 0, 0, 0, 0, 0, 0], "stateRewards": ["", 2, -3, -5, 5, 11, -9, -33, 6, 67, 6, -30, -1, -2, -6, 13, 55, 13, 72, -14, 75, 21, -66, -2, -4, 6, 15, -1, -35, 60, 2, 51, -73, 12], "withholdReward": false, "trial_id": "mdp_trial_29", "block": "test", "trialIndex": 30, "score": 66.4, "costs": -8.6, "simulationMode": [null, null, null, null, null], "rewards": [-2, -4, 6, 15, 60], "path": ["0", "0", "23", "24", "25", "26", "29"], "rt": [15345, 115, 88, 277, 508], "actions": ["left", "left", "left", "up", "left"], "actionTimes": [21529, 22154, 22753, 23526, 24548], "queries": {"click": {"state": {"target": ["32", "5", "17", "29"], "time": [7114, 10313, 14029, 17294]}, "edge": {"target": [], "time": []}}, "mouseover": {"state": {"target": ["32", "31", "7", "6", "5", "17", "15", "1", "29", "27", "28"], "time": [6887, 7768, 7837, 7854, 8319, 13820, 15237, 15269, 15609, 18161, 19394]}, "edge": {"target": [], "time": []}}, "mouseout": {"state": {"target": ["0", "32", "31", "7", "6", "5", "17", "15", "1", "29", "27", "28", "28"], "time": [6588, 7250, 7786, 7852, 7869, 11437, 14161, 15253, 15286, 17895, 18979, 20648, 25595]}, "edge": {"target": [], "time": []}}}, "displayed_time": "25.05", "trialTime": 26120, "trial_type": "mouselab-mdp", "trial_index": 37, "time_elapsed": 1109684, "internal_node_id": "0.0-6.0-1.0-28.0"}}, {"uniqueid": "w39097077:a42915460", "current_trial": 38, "dateTime": 1693581293276, "trialdata": {"revealed_states": [], "clicked_states": ["10", "18"], "num_clicks_accrued": [0, 0, 0, 0, 0, 0, 0, 0, 0, 0, 0, 0, 0], "stateRewards": ["", 1, -1, 4, -2, -75, -75, 84, -9, -60, -79, 59, 2, -4, 8, 9, -17, -82, 80, 14, -4, 49, 49, -1, 3, 6, -11, -33, 34, 55, 9, -57, 5, 59], "withholdReward": false, "trial_id": "mdp_trial_30", "block": "test", "trialIndex": 31, "score": 90.7, "costs": -4.3, "simulationMode": [null, null, null, null, null], "rewards": [2, -4, 8, 9, 80], "path": ["0", "0", "12", "13", "14", "15", "18"], "rt": [8302, 136, 225, 244, 78], "actions": ["right", "right", "right", "up", "left"], "actionTimes": [9666, 10312, 11039, 11780, 12371], "queries": {"click": {"state": {"target": ["10", "18"], "time": [2283, 5557]}, "edge": {"target": [], "time": []}}, "mouseover": {"state": {"target": ["1", "10", "2", "18", "14", "20"], "time": [1809, 2131, 3415, 3931, 6455, 6905]}, "edge": {"target": [], "time": []}}, "mouseout": {"state": {"target": ["1", "1", "10", "2", "18", "14", "20"], "time": [556, 1965, 3383, 3465, 6388, 6471, 13565]}, "edge": {"target": [], "time": []}}}, "displayed_time": "15.37", "trialTime": 17567, "trial_type": "mouselab-mdp", "trial_index": 38, "time_elapsed": 1127561, "internal_node_id": "0.0-6.0-1.0-29.0"}}, {"uniqueid": "w39097077:a42915460", "current_trial": 39, "dateTime": 1693581315169, "trialdata": {"revealed_states": [], "clicked_states": ["31", "9", "17", "22"], "num_clicks_accrued": [0, 0, 0, 0, 0, 0, 0, 0, 0, 0, 0, 0, 0], "stateRewards": ["", 2, -2, -3, 10, -4, -1, -11, -8, -9, -36, -78, 2, 1, 7, -7, 44, -1, -31, -1, 26, 47, 83, 2, -4, -4, -6, -52, -76, -81, -1, -59, 45, 67], "withholdReward": false, "trial_id": "mdp_trial_31", "block": "test", "trialIndex": 32, "score": 83.4, "costs": -8.6, "simulationMode": [null, null, null, null, null], "rewards": [2, 1, 7, -1, 83], "path": ["0", "0", "12", "13", "14", "19", "22"], "rt": [15660, 86, 179, 203, 520], "actions": ["right", "right", "right", "down", "left"], "actionTimes": [17076, 17663, 18336, 19053, 20086], "queries": {"click": {"state": {"target": ["31", "9", "17", "22"], "time": [3063, 6410, 9948, 13141]}, "edge": {"target": [], "time": []}}, "mouseover": {"state": {"target": ["23", "31", "31", "0", "10", "8", "9", "5", "17", "20", "22", "13", "7", "16"], "time": [2007, 2192, 2809, 5264, 5348, 5396, 5894, 7131, 9650, 11130, 11913, 14371, 14438, 16581]}, "edge": {"target": [], "time": []}}, "mouseout": {"state": {"target": ["0", "23", "31", "31", "0", "10", "8", "9", "5", "17", "20", "22", "13", "7", "16"], "time": [931, 2041, 2273, 3914, 5280, 5380, 5681, 7081, 7147, 10564, 11230, 14089, 14388, 16548, 16631]}, "edge": {"target": [], "time": []}}}, "displayed_time": "20.60", "trialTime": 21586, "trial_type": "mouselab-mdp", "trial_index": 39, "time_elapsed": 1149455, "internal_node_id": "0.0-6.0-1.0-30.0"}}, {"uniqueid": "w39097077:a42915460", "current_trial": 40, "dateTime": 1693581336758, "trialdata": {"revealed_states": [], "clicked_states": ["7", "16", "32", "29"], "num_clicks_accrued": [0, 0, 0, 0, 0, 0, 0, 0, 0, 0, 0, 0, 0], "stateRewards": ["", -1, -4, -1, -11, 43, 69, 39, 4, 17, -20, -82, -2, -1, 4, 8, -79, 24, -79, 11, 36, 64, 41, 2, 4, -1, 11, -79, -47, 75, -3, 63, -36, -19], "withholdReward": false, "trial_id": "mdp_trial_32", "block": "test", "trialIndex": 33, "score": 82.4, "costs": -8.6, "simulationMode": [null, null, null, null, null], "rewards": [2, 4, -1, 11, 75], "path": ["0", "0", "23", "24", "25", "26", "29"], "rt": [15171, 420, 139, 116, 23], "actions": ["left", "left", "left", "up", "left"], "actionTimes": [16987, 17918, 18563, 19178, 19721], "queries": {"click": {"state": {"target": ["7", "16", "32", "29"], "time": [2683, 6229, 10145, 13333]}, "edge": {"target": [], "time": []}}, "mouseover": {"state": {"target": ["1", "2", "7", "16", "20", "21", "21", "22", "32", "29", "13", "14", "20", "20"], "time": [2311, 2361, 2445, 3929, 7802, 7950, 8068, 8269, 9953, 12289, 14552, 14572, 14836, 14969]}, "edge": {"target": [], "time": []}}, "mouseout": {"state": {"target": ["16", "12", "0", "1", "2", "7", "16", "20", "21", "21", "22", "32", "29", "13", "14", "20"], "time": [544, 811, 2293, 2344, 2395, 3529, 7137, 7836, 7964, 8104, 9525, 12103, 13852, 14570, 14590, 14869]}, "edge": {"target": [], "time": []}}}, "displayed_time": "20.21", "trialTime": 21305, "trial_type": "mouselab-mdp", "trial_index": 40, "time_elapsed": 1171043, "internal_node_id": "0.0-6.0-1.0-31.0"}}, {"uniqueid": "w39097077:a42915460", "current_trial": 41, "dateTime": 1693581353896, "trialdata": {"revealed_states": [], "clicked_states": ["7", "22", "33"], "num_clicks_accrued": [0, 0, 0, 0, 0, 0, 0, 0, 0, 0, 0, 0, 0], "stateRewards": ["", -2, -4, 6, 14, -34, 49, 36, -8, -3, 32, -4, 1, -2, 1, -8, -20, -71, -57, -7, -86, -62, -16, -2, -3, -5, 11, 23, -21, 53, 5, -5, 85, 73], "withholdReward": false, "trial_id": "mdp_trial_33", "block": "test", "trialIndex": 34, "score": 61.55, "costs": -6.449999999999999, "simulationMode": [null, null, null, null, null], "rewards": [-2, -3, -5, 5, 73], "path": ["0", "0", "23", "24", "25", "30", "33"], "rt": [11510, 40, 143, 101, 103], "actions": ["left", "left", "left", "down", "left"], "actionTimes": [13123, 13667, 14322, 14944, 15566], "queries": {"click": {"state": {"target": ["7", "22", "33"], "time": [2814, 6113, 9349]}, "edge": {"target": [], "time": []}}, "mouseover": {"state": {"target": ["12", "13", "18", "7", "17", "19", "22", "22", "25", "29", "27", "26", "25", "30", "33", "30", "31"], "time": [1961, 2110, 2227, 2526, 4609, 4926, 5159, 5542, 6734, 7166, 7401, 7568, 7600, 7683, 7867, 10901, 11383]}, "edge": {"target": [], "time": []}}, "mouseout": {"state": {"target": ["20", "22", "12", "12", "13", "18", "7", "17", "19", "22", "22", "25", "29", "27", "26", "25", "30", "33", "30"], "time": [366, 501, 734, 2076, 2195, 2259, 4143, 4758, 4942, 5193, 6635, 6768, 7384, 7550, 7583, 7633, 7784, 9423, 11000]}, "edge": {"target": [], "time": []}}}, "displayed_time": "16.06", "trialTime": 16835, "trial_type": "mouselab-mdp", "trial_index": 41, "time_elapsed": 1188181, "internal_node_id": "0.0-6.0-1.0-32.0"}}, {"uniqueid": "w39097077:a42915460", "current_trial": 42, "dateTime": 1693581374748, "trialdata": {"revealed_states": [], "clicked_states": ["10", "20", "22", "13", "19"], "num_clicks_accrued": [0, 0, 0, 0, 0, 0, 0, 0, 0, 0, 0, 0, 0], "stateRewards": ["", -2, -4, -6, 12, -58, -70, -80, 2, 16, -88, -62, 1, 2, -5, 11, 77, -35, -44, -5, 18, -83, 87, 1, -3, -5, 13, -44, -21, -86, 10, -52, 8, 29], "withholdReward": false, "trial_id": "mdp_trial_34", "block": "test", "trialIndex": 35, "score": 71.65, "costs": -8.35, "simulationMode": [null, null, null, null, null], "rewards": [1, 2, -5, -5, 87], "path": ["0", "0", "12", "13", "14", "19", "22"], "rt": [15070, 80, 138, 40, 575], "actions": ["right", "right", "right", "down", "left"], "actionTimes": [16460, 17071, 17712, 18248, 19336], "queries": {"click": {"state": {"target": ["10", "20", "22", "13", "19"], "time": [2930, 6110, 9584, 13945, 15546]}, "edge": {"target": [], "time": []}}, "mouseover": {"state": {"target": ["23", "28", "2", "10", "3", "5", "6", "17", "20", "20", "19", "22", "31", "32", "20", "19", "13", "14", "14", "19"], "time": [1917, 1982, 2483, 2750, 3982, 4282, 5051, 5131, 5298, 5665, 9290, 9357, 10306, 10823, 13007, 13257, 13874, 14924, 15177, 15291]}, "edge": {"target": [], "time": []}}, "mouseout": {"state": {"target": ["31", "0", "23", "28", "2", "10", "3", "5", "6", "17", "20", "20", "19", "22", "31", "32", "22", "20", "19", "13", "14", "14"], "time": [648, 1048, 1932, 2050, 2666, 3849, 4015, 5048, 5065, 5149, 5482, 9241, 9323, 10190, 10339, 12891, 12974, 13125, 13290, 14790, 15008, 15241]}, "edge": {"target": [], "time": []}}}, "displayed_time": "19.85", "trialTime": 20551, "trial_type": "mouselab-mdp", "trial_index": 42, "time_elapsed": 1209033, "internal_node_id": "0.0-6.0-1.0-33.0"}}, {"uniqueid": "w39097077:a42915460", "current_trial": 43, "dateTime": 1693581391006, "trialdata": {"revealed_states": [], "clicked_states": ["9", "10"], "num_clicks_accrued": [0, 0, 0, 0, 0, 0, 0, 0, 0, 0, 0, 0, 0], "stateRewards": ["", 1, -4, -6, 11, -20, 8, -30, 1, -38, 88, 42, 2, 3, 5, -12, -8, -74, 30, -8, 67, -19, 42, 2, -1, 4, 13, 50, -68, 2, -8, -15, 87, -46], "withholdReward": false, "trial_id": "mdp_trial_35", "block": "test", "trialIndex": 36, "score": 75.7, "costs": -4.3, "simulationMode": [null, null, null, null, null], "rewards": [1, -4, -6, 1, 88], "path": ["0", "0", "1", "2", "3", "8", "10"], "rt": [8818, 79, 96, 119, 129], "actions": ["up", "up", "up", "left", "down"], "actionTimes": [10047, 10637, 11253, 11893, 12530], "queries": {"click": {"state": {"target": ["9", "10"], "time": [2819, 5960]}, "edge": {"target": [], "time": []}}, "mouseover": {"state": {"target": ["1", "8", "9", "4", "16", "6", "7", "2", "10", "11"], "time": [2060, 2323, 2389, 3705, 3806, 4322, 4555, 5289, 5340, 6522]}, "edge": {"target": [], "time": []}}, "mouseout": {"state": {"target": ["19", "22", "0", "1", "8", "9", "4", "16", "6", "7", "2", "10", "11"], "time": [423, 471, 889, 2088, 2338, 3572, 3738, 3890, 4438, 5271, 5305, 6454, 14374]}, "edge": {"target": [], "time": []}}}, "displayed_time": "15.24", "trialTime": 15976, "trial_type": "mouselab-mdp", "trial_index": 43, "time_elapsed": 1225291, "internal_node_id": "0.0-6.0-1.0-34.0"}}, {"uniqueid": "w39097077:a42915460", "current_trial": 44, "dateTime": 1693581417551, "trialdata": {"revealed_states": [], "clicked_states": ["31", "33", "32", "18", "20"], "num_clicks_accrued": [0, 0, 0, 0, 0, 0, 0, 0, 0, 0, 0, 0, 0], "stateRewards": ["", -2, 4, -7, -3, -76, 39, -28, 10, 14, 12, 60, 2, -3, 6, -10, 88, -34, -41, -3, 72, -13, -56, 1, 3, 2, 8, -51, 23, -57, 1, 14, -46, -16], "withholdReward": false, "trial_id": "mdp_trial_36", "block": "test", "trialIndex": 37, "score": 63.25, "costs": -10.75, "simulationMode": [null, null, null, null, null], "rewards": [2, -3, 6, -3, 72], "path": ["0", "0", "12", "13", "14", "19", "20"], "rt": [17513, 202, 331, 617, 159], "actions": ["right", "right", "right", "down", "right"], "actionTimes": [19044, 19763, 20609, 21745, 22422], "queries": {"click": {"state": {"target": ["31", "33", "32", "18", "20"], "time": [2458, 5746, 8920, 12040, 15190]}, "edge": {"target": [], "time": []}}, "mouseover": {"state": {"target": ["23", "31", "32", "33", "32", "30", "25", "28", "7", "16", "17", "15", "18", "14", "20"], "time": [1989, 2306, 3138, 3422, 6622, 9366, 9413, 9797, 9980, 10030, 10430, 10648, 10814, 12737, 12821]}, "edge": {"target": [], "time": []}}, "mouseout": {"state": {"target": ["10", "1", "0", "23", "31", "32", "33", "32", "30", "25", "28", "7", "16", "17", "15", "18", "14"], "time": [573, 639, 847, 2005, 3072, 3172, 6572, 9364, 9397, 9464, 9913, 9996, 10080, 10596, 10720, 12721, 12779]}, "edge": {"target": [], "time": []}}}, "displayed_time": "22.93", "trialTime": 26272, "trial_type": "mouselab-mdp", "trial_index": 44, "time_elapsed": 1251836, "internal_node_id": "0.0-6.0-1.0-35.0"}}, {"uniqueid": "w39097077:a42915460", "current_trial": 45, "dateTime": 1693581464512, "trialdata": {"revealed_states": [], "clicked_states": ["22", "5", "33", "28", "16", "11", "18", "7", "6", "31", "29"], "num_clicks_accrued": [0, 0, 0, 0, 0, 0, 0, 0, 0, 0, 0, 0, 0], "stateRewards": ["", 1, 4, -8, -5, -15, -7, 21, 13, -30, 40, -65, 1, 1, 5, -14, 35, 27, -38, -11, 36, -58, -47, -2, 4, -3, 13, -16, -49, 22, 15, -56, -44, -10], "withholdReward": false, "trial_id": "mdp_trial_37", "block": "test", "trialIndex": 38, "score": 10.350000000000005, "costs": -23.649999999999995, "simulationMode": [null, null, null, null, null], "rewards": [-2, 4, -3, 13, 22], "path": ["0", "0", "23", "24", "25", "26", "29"], "rt": [38798, 4, 115, 272, 310], "actions": ["left", "left", "left", "up", "left"], "actionTimes": [41395, 41896, 42520, 43296, 44109], "queries": {"click": {"state": {"target": ["22", "5", "33", "28", "16", "11", "18", "7", "6", "31", "29"], "time": [3669, 6868, 10021, 13153, 16321, 19616, 23843, 27136, 30529, 34210, 37541]}, "edge": {"target": [], "time": []}}, "mouseover": {"state": {"target": ["0", "13", "22", "7", "4", "5", "4", "2", "24", "28", "24", "31", "30", "33", "25", "28", "1", "18", "15", "16", "7", "2", "11", "7", "14", "18", "7", "6", "1", "23", "31", "25", "29", "29"], "time": [2865, 2948, 3333, 4367, 4432, 4514, 7389, 7474, 7805, 8064, 8239, 8271, 8304, 8472, 10741, 10889, 13638, 13755, 13822, 14005, 17130, 17150, 17214, 22890, 23056, 23439, 26379, 28965, 31231, 31280, 31680, 35238, 35704, 35839]}, "edge": {"target": [], "time": []}}, "mouseout": {"state": {"target": ["20", "12", "1", "2", "1", "0", "13", "22", "7", "4", "5", "4", "2", "24", "28", "24", "31", "30", "33", "25", "28", "1", "18", "15", "16", "7", "2", "11", "7", "14", "18", "7", "6", "7", "1", "23", "31", "25", "29"], "time": [455, 520, 589, 788, 824, 2881, 3032, 4130, 4399, 4482, 7372, 7422, 7555, 8022, 8221, 8257, 8289, 8321, 10706, 10788, 13589, 13671, 13788, 13955, 17063, 17148, 17163, 22356, 22905, 23173, 26113, 28779, 31163, 31197, 31246, 31314, 35155, 35539, 35722]}, "edge": {"target": [], "time": []}}}, "displayed_time": "44.61", "trialTime": 46515, "trial_type": "mouselab-mdp", "trial_index": 45, "time_elapsed": 1298797, "internal_node_id": "0.0-6.0-1.0-36.0"}}, {"uniqueid": "w39097077:a42915460", "current_trial": 46, "dateTime": 1693581483153, "trialdata": {"revealed_states": [], "clicked_states": ["20", "7"], "num_clicks_accrued": [0, 0, 0, 0, 0, 0, 0, 0, 0, 0, 0, 0, 0], "stateRewards": ["", -1, -3, -6, 14, 41, 18, 63, -14, 80, 21, 17, -2, -4, -2, -5, 13, 70, 8, -4, -64, -10, -20, 2, -1, 4, -1, -17, -55, 42, -7, 47, 54, 15], "withholdReward": false, "trial_id": "mdp_trial_38", "block": "test", "trialIndex": 39, "score": 62.7, "costs": -4.3, "simulationMode": [null, null, null, null, null], "rewards": [-1, -3, -6, 14, 63], "path": ["0", "0", "1", "2", "3", "4", "7"], "rt": [8329, 100, 130, 217, 4], "actions": ["up", "up", "up", "right", "down"], "actionTimes": [10123, 10739, 11369, 12097, 12610], "queries": {"click": {"state": {"target": ["20", "7"], "time": [2739, 6166]}, "edge": {"target": [], "time": []}}, "mouseover": {"state": {"target": ["12", "14", "20", "13", "7", "24", "31", "32"], "time": [2164, 2214, 2597, 4179, 4613, 7046, 7079, 7280]}, "edge": {"target": [], "time": []}}, "mouseout": {"state": {"target": ["29", "26", "28", "1", "0", "0", "12", "14", "20", "13", "7", "24", "31"], "time": [576, 587, 622, 755, 1021, 1254, 2179, 2264, 4129, 4195, 6863, 7064, 7113]}, "edge": {"target": [], "time": []}}}, "displayed_time": "15.80", "trialTime": 18344, "trial_type": "mouselab-mdp", "trial_index": 46, "time_elapsed": 1317439, "internal_node_id": "0.0-6.0-1.0-37.0"}}, {"uniqueid": "w39097077:a42915460", "current_trial": 47, "dateTime": 1693581499767, "trialdata": {"revealed_states": [], "clicked_states": ["10"], "num_clicks_accrued": [0, 0, 0, 0, 0, 0, 0, 0, 0, 0, 0, 0, 0], "stateRewards": ["", -1, -1, 4, -16, -75, 81, -51, -7, -84, 73, -30, -2, 1, -3, -16, -77, 33, 14, 1, 45, 87, -66, 2, 2, -5, -7, -19, -17, 79, -3, 8, 49, 47], "withholdReward": false, "trial_id": "mdp_trial_39", "block": "test", "trialIndex": 40, "score": 65.85, "costs": -2.15, "simulationMode": [null, null, null, null, null], "rewards": [-1, -1, 4, -7, 73], "path": ["0", "0", "1", "2", "3", "8", "10"], "rt": [5832, 27, 429, 60, 110], "actions": ["up", "up", "up", "left", "down"], "actionTimes": [7271, 7815, 8784, 9355, 9974], "queries": {"click": {"state": {"target": ["10"], "time": [3508]}, "edge": {"target": [], "time": []}}, "mouseover": {"state": {"target": ["10", "2", "7", "17"], "time": [3045, 4220, 4269, 4685]}, "edge": {"target": [], "time": []}}, "mouseout": {"state": {"target": ["32", "31", "0", "10", "2", "7"], "time": [502, 535, 2811, 4186, 4236, 4302]}, "edge": {"target": [], "time": []}}}, "displayed_time": "15.45", "trialTime": 16289, "trial_type": "mouselab-mdp", "trial_index": 47, "time_elapsed": 1334052, "internal_node_id": "0.0-6.0-1.0-38.0"}}, {"uniqueid": "w39097077:a42915460", "current_trial": 48, "dateTime": 1693581523023, "trialdata": {"revealed_states": [], "clicked_states": ["22", "27", "7", "10", "24", "26"], "num_clicks_accrued": [0, 0, 0, 0, 0, 0, 0, 0, 0, 0, 0, 0, 0], "stateRewards": ["", -1, -3, -6, -2, -7, 80, -45, -3, -38, -72, 76, 2, 1, 7, 4, -62, 14, -74, 14, -87, -21, -88, -2, 1, -7, -10, 66, 56, -76, 10, -29, -72, -70], "withholdReward": false, "trial_id": "mdp_trial_40", "block": "test", "trialIndex": 41, "score": 37.5, "costs": -10.5, "simulationMode": [null, null, null, null, null], "rewards": [-2, 1, -7, -10, 66], "path": ["0", "0", "23", "24", "25", "26", "27"], "rt": [16669, 419, 95, 500, 91], "actions": ["left", "left", "left", "up", "up"], "actionTimes": [18284, 19230, 19840, 20843, 21446], "queries": {"click": {"state": {"target": ["22", "27", "7", "10", "24", "26"], "time": [2847, 6058, 9407, 13329, 16455, 17402]}, "edge": {"target": [], "time": []}}, "mouseover": {"state": {"target": ["12", "13", "19", "22", "22", "23", "27", "10", "16", "7", "2", "10", "24", "25", "24", "24", "26"], "time": [2012, 2064, 2109, 2383, 2662, 3843, 4443, 6693, 6976, 7093, 12614, 12896, 14427, 14777, 15161, 15428, 17193]}, "edge": {"target": [], "time": []}}, "mouseout": {"state": {"target": ["17", "14", "22", "0", "12", "13", "19", "22", "22", "23", "27", "10", "16", "7", "2", "10", "24", "25", "24", "24", "26"], "time": [661, 711, 759, 1078, 2061, 2077, 2211, 2428, 3711, 3861, 6659, 6710, 6994, 11478, 12661, 14243, 14493, 15127, 15179, 16610, 22702]}, "edge": {"target": [], "time": []}}}, "displayed_time": "21.94", "trialTime": 22930, "trial_type": "mouselab-mdp", "trial_index": 48, "time_elapsed": 1357308, "internal_node_id": "0.0-6.0-1.0-39.0"}}, {"uniqueid": "w39097077:a42915460", "current_trial": 49, "dateTime": 1693581584749, "trialdata": {"rt": 61716, "response": {"Q0": "$-2 to $2", "Q1": "$-32 to $32", "Q2": "$-88 to $88", "Q3": "The cost for clicking on nodes varied between nodes.", "Q4": "Very motivated"}, "question_order": [0, 1, 2, 3, 4], "trial_id": "final_quiz_control", "trial_type": "survey-multi-choice", "trial_index": 49, "time_elapsed": 1419034, "internal_node_id": "0.0-6.0-2.0"}}, {"uniqueid": "w39097077:a42915460", "current_trial": 50, "dateTime": 1693581742979, "trialdata": {"rt": 158217, "response": {"Q0": "I clicked on outside nodes until I found a high value then depending on how many nodes i'd already clicked i'd either head straight to the node or check a few more nodes that were on the way.", "Q1": "yes as I got more used to the general rules such as outside nodes having higher values I focused on randomly checking the outside nodes.", "Q2": "It was quite difficult as it seemed mostly based on the luck of clicking a high node early on in the round. It was also difficult trying to remember nodes with high values that I'd already clicked."}, "trial_id": "self_report_control", "trial_type": "survey-text", "trial_index": 50, "time_elapsed": 1577265, "internal_node_id": "0.0-6.0-3.0"}}, {"uniqueid": "w39097077:a42915460", "current_trial": 51, "dateTime": 1693581780540, "trialdata": {"rt": 37554, "response": {"Q0": "Strongly disagree", "Q1": "Strongly disagree", "Q2": "Strongly agree", "Q3": "Strongly agree", "Q4": "Strongly disagree", "Q5": "Agree", "Q6": "Disagree"}, "question_order": [0, 1, 2, 3, 4, 5, 6], "trial_id": "self_report_2", "trial_type": "survey-multi-choice", "trial_index": 51, "time_elapsed": 1614826, "internal_node_id": "0.0-6.0-4.0"}}, {"uniqueid": "w39097077:a42915460", "current_trial": 52, "dateTime": 1693581798954, "trialdata": {"rt": 18406, "response": {"gender": "female", "age": "21", "colorblind": "0", "effort": "0"}, "trial_type": "survey-html-form", "trial_index": 52, "time_elapsed": 1633240, "internal_node_id": "0.0-6.0-5.0"}}, {"uniqueid": "w39097077:a42915460", "current_trial": 53, "dateTime": 1693581834428, "trialdata": {"rt": 35467, "response": {"Q0": "I was a bit confused when first reading the rules but the practice rounds helped.", "Q1": "No.", "Q2": ""}, "trial_type": "survey-text", "trial_index": 53, "time_elapsed": 1668714, "internal_node_id": "0.0-6.0-6.0"}}, {"uniqueid": "w39097077:a42915460", "current_trial": 54, "dateTime": 1693581855703, "trialdata": {"rt": 21266, "stimulus": "<h1>Completion Code Instructions (1/2)</h1>\n<br><br><br><br>\nYou have reached the end of the experiment! The completion code consists of two parts: (1) a code with 2 characters (2) a code with 6 characters. On this page, you will receive the second part of the code. The first part of the completion code will be on the next page.\n<br><br>\nThe second part of your completion code is: <b>EWEK22</b>\n<br><br>\nPlease note this down. Then, press 'Next' in order to find the first part of your completion code. Once the data has been saved, you will receive this code either in this window or in the original browser window where you started the experiment.\n <br><br>\n<h2 style='color: red;'>Note: this is <strong>NOT</strong> the full completion code. Copy this down and click 'Next' to get the full completion code on the next page.</h2>", "response": 0, "trial_type": "html-button-response", "trial_index": 54, "time_elapsed": 1689989, "internal_node_id": "0.0-6.0-7.0"}}, {"uniqueid": "w39097077:a42915460", "current_trial": 55, "dateTime": 1693581856722, "trialdata": {"success": true, "trial_type": "fullscreen", "trial_index": 55, "time_elapsed": 1691008, "internal_node_id": "0.0-7.0"}}], "questiondata": {"params": {"CODE": "C6DMOQA6", "MIN_TIME": 14, "inspectCost": 1, "startTime": "Fri Sep 01 2023 15:56:04 GMT+0100 (British Summer Time)", "bonusRate": 0.002, "variance": "1_2_4_8_44", "branching": "31123"}, "final_score": 2181.65}, "eventdata": [{"eventtype": "initialized", "value": null, "timestamp": 1693580164442, "interval": 0}, {"eventtype": "window_resize", "value": [1536, 806], "timestamp": 1693580164442, "interval": 0}, {"eventtype": "window_resize", "value": [1536, 806], "timestamp": 1693580164887, "interval": 445}, {"eventtype": "window_resize", "value": [1536, 864], "timestamp": 1693580170522, "interval": 5635}, {"eventtype": "window_resize", "value": [1536, 806], "timestamp": 1693581855952, "interval": 1685430}], "useragent": "Mozilla/5.0 (Windows NT 10.0; Win64; x64) AppleWebKit/537.36 (KHTML, like Gecko) Chrome/116.0.0.0 Safari/537.36", "mode": "live", "id": "w39097077:a42915460", "status": "user data saved", "Beginhit": "2023-09-01 14:56:04.851845", "Beginexp": "2023-09-01 14:56:13.119985", "Endhit": "2023-09-01 15:24:19.036331", "psiturkStatus": 3, "browser": "<redacted>", "platform": "windows", "language": "en-GB"}