{"condition": 1, "counterbalance": 0, "assignmentId": "a59814147", "workerId": "w90627961", "hitId": "h98365131", "currenttrial": 28, "bonus": 0, "data": [{"uniqueid": "w90627961:a59814147", "current_trial": 0, "dateTime": 1693482118641, "trialdata": {"success": true, "trial_type": "fullscreen", "trial_index": 0, "time_elapsed": 56015, "internal_node_id": "0.0-0.0"}}, {"uniqueid": "w90627961:a59814147", "current_trial": 1, "dateTime": 1693482126615, "trialdata": {"view_history": [{"page_index": 0, "viewing_time": 7963}], "rt": 7963, "trial_id": "exp_instructions_misaligned", "trial_type": "instructions", "trial_index": 1, "time_elapsed": 63989, "internal_node_id": "0.0-1.0"}}, {"uniqueid": "w90627961:a59814147", "current_trial": 2, "dateTime": 1693482158598, "trialdata": {"view_history": [{"page_index": 0, "viewing_time": 14894}, {"page_index": 1, "viewing_time": 8520}, {"page_index": 2, "viewing_time": 3648}, {"page_index": 3, "viewing_time": 4920}], "rt": 31982, "trial_id": "mouselab_instructions_1_misaligned", "trial_type": "instructions", "trial_index": 2, "time_elapsed": 95972, "internal_node_id": "0.0-2.0-1.0"}}, {"uniqueid": "w90627961:a59814147", "current_trial": 3, "dateTime": 1693482252276, "trialdata": {"revealed_states": [], "clicked_states": ["23", "12", "1", "13", "5", "25", "14"], "num_clicks_accrued": [0, 0, 0, 0, 0, 0, 0, 0, 0, 0, 0, 0, 0], "stateRewards": ["", -10, -10, 10, -10, -10, -10, -10, -10, -10, 10, -10, 10, 10, 10, 10, 10, -10, 10, 10, -10, -10, 10, -10, 10, -10, 10, 10, -10, 10, 10, 10, 10, -10], "withholdReward": false, "trial_id": "practice_1", "block": "test", "trialIndex": 0, "score": -30, "costs": -3.5, "simulationMode": [null, null, null, null, null], "rewards": [-10, -10, 10, -10, -10], "path": ["0", "0", "1", "2", "3", "8", "11"], "rt": [69394, 4679, 700, 5928, 557], "actions": ["up", "up", "up", "left", "left"], "actionTimes": [71196, 76385, 77593, 84041, 85106], "queries": {"click": {"state": {"target": ["23", "12", "1", "13", "5", "25", "14"], "time": [3344, 7722, 18115, 23857, 32419, 38409, 43513]}, "edge": {"target": [], "time": []}}, "mouseover": {"state": {"target": ["0", "23", "24", "24", "23", "0", "12", "0", "12", "0", "12", "0", "1", "23", "24", "25", "24", "23", "0", "12", "13", "0", "1", "2", "3", "4", "5", "4", "7", "32", "31", "24", "25", "30", "14", "19", "14", "15", "18", "1", "2", "1", "1", "2", "1", "0", "0", "1", "2", "4", "18", "14", "14", "15"], "time": [2524, 2613, 2700, 2943, 3055, 4234, 4553, 6444, 6865, 9865, 12600, 15130, 16241, 21271, 21458, 21959, 23146, 23191, 23237, 23381, 23503, 30317, 30725, 30909, 31740, 31815, 32081, 33566, 33892, 37240, 37596, 37800, 38142, 40380, 43177, 46724, 49097, 49553, 50480, 52005, 52693, 53181, 53662, 54474, 57053, 57235, 59989, 65395, 66458, 67709, 68444, 68647, 69099, 69299]}, "edge": {"target": [], "time": []}}, "mouseout": {"state": {"target": ["12", "0", "0", "23", "24", "24", "23", "0", "12", "23", "0", "12", "0", "12", "12", "0", "1", "23", "24", "25", "24", "23", "0", "12", "13", "13", "0", "1", "2", "3", "4", "5", "4", "7", "32", "31", "24", "25", "30", "14", "14", "19", "14", "15", "18", "1", "2", "1", "1", "2", "1", "0", "0", "1", "2", "4", "18", "14", "14", "15", "14", "13", "12", "1", "2", "1", "0", "14", "17", "16", "7", "3", "3"], "time": [1130, 1426, 2581, 2675, 2753, 3006, 4158, 4474, 6053, 6271, 6647, 9352, 11147, 12037, 14818, 15599, 20823, 21348, 21896, 23005, 23185, 23218, 23251, 23443, 25224, 28381, 30520, 30802, 31631, 31781, 31876, 33328, 33830, 33971, 37521, 37678, 38083, 40224, 40475, 45960, 46505, 48909, 49411, 50442, 50514, 52615, 53147, 53459, 54209, 56709, 57159, 57255, 64881, 65474, 67162, 68350, 68482, 68724, 69223, 70475, 72365, 72490, 72536, 73036, 73819, 74005, 80491, 80538, 80678, 80741, 80865, 81084, 82069]}, "edge": {"target": [], "time": []}}}, "displayed_time": "85.61", "trialTime": 93178, "trial_type": "mouselab-mdp", "trial_index": 3, "time_elapsed": 189649, "internal_node_id": "0.0-2.0-2.0-0.0"}}, {"uniqueid": "w90627961:a59814147", "current_trial": 4, "dateTime": 1693482333732, "trialdata": {"revealed_states": [], "clicked_states": ["12"], "num_clicks_accrued": [0, 0, 0, 0, 0, 0, 0, 0, 0, 0, 0, 0, 0], "stateRewards": ["", 10, -10, 10, -10, -10, -10, 10, -10, -10, 10, -10, 10, -10, -10, -10, -10, -10, 10, -10, 10, -10, 10, -10, -10, 10, 10, -10, 10, 10, 10, 10, -10, -10], "withholdReward": false, "trial_id": "practice_2", "block": "test", "trialIndex": 1, "score": -7, "costs": -0.5, "simulationMode": [null, null, null, null, null], "rewards": [-10, -10, 10, 10, -10], "path": ["0", "0", "23", "24", "25", "26", "27"], "rt": [9201, 37053, 6530, 1076, 458], "actions": ["left", "left", "left", "up", "up"], "actionTimes": [30669, 68242, 75282, 76874, 77850], "queries": {"click": {"state": {"target": ["12"], "time": [24124]}, "edge": {"target": [], "time": []}}, "mouseover": {"state": {"target": ["0", "0", "12", "0", "23", "0", "21"], "time": [21631, 23729, 23927, 28394, 28819, 29469, 29833]}, "edge": {"target": [], "time": []}}, "mouseout": {"state": {"target": ["1", "32", "28", "10", "3", "3", "2", "0", "0", "0", "12", "12", "0", "23", "0", "21", "17", "13", "12", "23", "0", "12", "0", "12", "0", "16", "4", "2", "28", "0", "12", "13", "14", "0", "23", "23", "10", "9", "8", "10", "23", "1", "0", "24", "24", "31", "13", "7", "26", "25"], "time": [1691, 16145, 16238, 16269, 16289, 18019, 18066, 21065, 22020, 23801, 25286, 28225, 28534, 29425, 29500, 29869, 32926, 33036, 33115, 35302, 35377, 35662, 36458, 37739, 44427, 44646, 44705, 44767, 44896, 45068, 46366, 48177, 48217, 48458, 48614, 51519, 55911, 56271, 56330, 56377, 56505, 58052, 58661, 58818, 60130, 60189, 63021, 71771, 80237, 80425]}, "edge": {"target": [], "time": []}}}, "displayed_time": "78.36", "trialTime": 81210, "trial_type": "mouselab-mdp", "trial_index": 4, "time_elapsed": 271104, "internal_node_id": "0.0-2.0-2.0-1.0"}}, {"uniqueid": "w90627961:a59814147", "current_trial": 5, "dateTime": 1693482350710, "trialdata": {"view_history": [{"page_index": 0, "viewing_time": 14955}, {"page_index": 1, "viewing_time": 2016}], "rt": 16971, "trial_id": "mouselab_instructions_2_misaligned", "trial_type": "instructions", "trial_index": 5, "time_elapsed": 288084, "internal_node_id": "0.0-2.0-3.0"}}, {"uniqueid": "w90627961:a59814147", "current_trial": 6, "dateTime": 1693482423775, "trialdata": {"rt": 73060, "response": {"Q0": "The cost for clicking on nodes may vary between nodes.", "Q1": "The better I perform the higher my bonus will be.", "Q2": "No, the amount of cash at each node of the web may be different each time.", "Q3": "To get the highest total score.", "Q4": "Only before moving the spider.", "Q5": "10 seconds"}, "question_order": [0, 1, 2, 3, 4, 5], "correct": {"Q0": "The cost for clicking on nodes may vary between nodes.", "Q1": "The better I perform the higher my bonus will be.", "Q2": "No, the amount of cash at each node of the web may be different each time.", "Q3": "To get the highest total score.", "Q4": "Only before moving the spider.", "Q5": "3 seconds"}, "trial_id": "mouselab_quiz_misaligned", "trial_type": "survey-multi-choice", "trial_index": 6, "time_elapsed": 361149, "internal_node_id": "0.0-2.0-4.0"}}, {"uniqueid": "w90627961:a59814147", "current_trial": 7, "dateTime": 1693482435296, "trialdata": {"success": true, "trial_type": "fullscreen", "trial_index": 7, "time_elapsed": 372670, "internal_node_id": "0.0-2.1-0.1-0.1"}}, {"uniqueid": "w90627961:a59814147", "current_trial": 8, "dateTime": 1693482472821, "trialdata": {"view_history": [{"page_index": 0, "viewing_time": 14841}, {"page_index": 1, "viewing_time": 14432}, {"page_index": 2, "viewing_time": 5360}, {"page_index": 3, "viewing_time": 2888}], "rt": 37521, "trial_id": "mouselab_instructions_1_misaligned", "trial_type": "instructions", "trial_index": 8, "time_elapsed": 410195, "internal_node_id": "0.0-2.1-1.1"}}, {"uniqueid": "w90627961:a59814147", "current_trial": 9, "dateTime": 1693482576523, "trialdata": {"revealed_states": [], "clicked_states": ["24", "26", "31", "33", "8", "2", "13", "12", "17", "21", "1", "11", "25", "23"], "num_clicks_accrued": [0, 0, 0, 0, 0, 0, 0, 0, 0, 0, 0, 0, 0], "stateRewards": ["", -10, -10, 10, -10, -10, -10, -10, -10, -10, 10, -10, 10, 10, 10, 10, 10, -10, 10, 10, -10, -10, 10, -10, 10, -10, 10, 10, -10, 10, 10, 10, 10, -10], "withholdReward": false, "trial_id": "practice_1", "block": "test", "trialIndex": 2, "score": -33.5, "costs": -7, "simulationMode": [null, null, null, null, null], "rewards": [-10, -10, 10, -10, -10], "path": ["0", "0", "1", "2", "3", "8", "11"], "rt": [74528, 6416, 2662, 1258, 8188], "actions": ["up", "up", "up", "left", "left"], "actionTimes": [77007, 83932, 87100, 88868, 97564], "queries": {"click": {"state": {"target": ["24", "26", "31", "33", "8", "2", "13", "12", "17", "21", "1", "11", "25", "23"], "time": [3806, 7724, 16125, 21436, 26260, 30724, 35332, 41596, 48259, 52530, 58036, 62532, 67829, 71291]}, "edge": {"target": [], "time": []}}, "mouseover": {"state": {"target": ["23", "24", "26", "25", "30", "30", "23", "0", "12", "1", "1", "24", "31", "32", "31", "32", "33", "30", "25", "28", "10", "8", "8", "2", "2", "1", "12", "13", "13", "12", "12", "12", "18", "16", "17", "17", "21", "21", "19", "14", "13", "12", "0", "1", "7", "4", "3", "8", "8", "11", "27", "26", "25", "24", "23", "23"], "time": [3332, 3438, 5845, 10613, 11144, 11566, 11941, 11981, 12019, 12332, 15128, 15300, 15355, 15504, 15894, 18034, 20956, 23347, 25266, 25420, 25514, 25592, 25880, 29207, 29551, 31560, 31845, 32832, 33457, 36233, 36863, 38840, 45376, 45529, 47615, 48050, 50018, 50883, 55441, 56255, 56344, 56600, 56925, 57691, 59641, 59969, 61092, 61128, 61538, 62192, 65892, 66520, 66591, 68765, 69864, 70285]}, "edge": {"target": [], "time": []}}, "mouseout": {"state": {"target": ["12", "0", "23", "24", "26", "25", "30", "30", "23", "0", "12", "1", "1", "24", "31", "32", "31", "32", "33", "30", "25", "28", "10", "8", "8", "2", "2", "1", "12", "13", "13", "12", "12", "13", "12", "18", "16", "17", "17", "21", "21", "19", "14", "13", "12", "0", "1", "1", "7", "4", "3", "8", "8", "11", "11", "11", "27", "26", "25", "24", "23", "23", "23", "0", "16", "7", "8", "3", "3", "4"], "time": [845, 3223, 3376, 5442, 10394, 10942, 11347, 11607, 11976, 12003, 12145, 14269, 15169, 15334, 15442, 15676, 17379, 20801, 23160, 25207, 25362, 25438, 25545, 25607, 28942, 29248, 31529, 31576, 32567, 32907, 36217, 36280, 36936, 38800, 45317, 45408, 47364, 47648, 49311, 50676, 55176, 55691, 56296, 56535, 56618, 57598, 58070, 59582, 59909, 61052, 61124, 61160, 61644, 63311, 63437, 64191, 66442, 66587, 68749, 68780, 69902, 75895, 78536, 89816, 90114, 90178, 92083, 92254, 93052, 93176]}, "edge": {"target": [], "time": []}}}, "displayed_time": "98.08", "trialTime": 103516, "trial_type": "mouselab-mdp", "trial_index": 9, "time_elapsed": 513896, "internal_node_id": "0.0-2.1-2.1-0.1"}}, {"uniqueid": "w90627961:a59814147", "current_trial": 10, "dateTime": 1693482630914, "trialdata": {"revealed_states": [], "clicked_states": ["12", "13", "26", "24", "31"], "num_clicks_accrued": [0, 0, 0, 0, 0, 0, 0, 0, 0, 0, 0, 0, 0], "stateRewards": ["", 10, -10, 10, -10, -10, -10, 10, -10, -10, 10, -10, 10, -10, -10, -10, -10, -10, 10, -10, 10, -10, 10, -10, -10, 10, 10, -10, 10, 10, 10, 10, -10, -10], "withholdReward": false, "trial_id": "practice_2", "block": "test", "trialIndex": 3, "score": 11, "costs": -2.5, "simulationMode": [null, null, null, null, null], "rewards": [-10, -10, 10, 10, 10], "path": ["0", "0", "23", "24", "25", "26", "29"], "rt": [27740, 328, 357, 281, 16811], "actions": ["left", "left", "left", "up", "left"], "actionTimes": [31245, 32083, 32955, 33755, 51083], "queries": {"click": {"state": {"target": ["12", "13", "26", "24", "31"], "time": [4901, 9148, 15347, 21763, 25587]}, "edge": {"target": [], "time": []}}, "mouseover": {"state": {"target": ["0", "12", "12", "0", "13", "12", "0", "23", "24", "25", "26", "25", "24", "23", "12", "0", "23", "24", "23", "31", "22", "19"], "time": [3993, 4226, 4349, 7133, 7899, 11354, 11915, 12103, 13087, 13413, 14446, 17443, 19836, 19882, 20212, 20464, 20538, 20737, 23791, 24961, 29975, 30033]}, "edge": {"target": [], "time": []}}, "mouseout": {"state": {"target": ["4", "7", "1", "23", "23", "0", "12", "12", "0", "12", "13", "12", "0", "23", "24", "25", "26", "25", "26", "24", "23", "12", "0", "23", "24", "23", "31", "22", "19", "31", "24", "26", "26", "23", "0", "22"], "time": [2585, 2633, 2692, 2725, 2929, 4165, 4287, 6787, 7633, 7837, 11040, 11852, 11975, 12930, 13286, 14192, 17209, 18243, 19650, 19877, 19974, 20430, 20506, 20598, 23681, 24697, 29678, 30006, 34696, 34945, 35006, 35286, 40962, 41019, 41035, 41081]}, "edge": {"target": [], "time": []}}}, "displayed_time": "51.60", "trialTime": 54131, "trial_type": "mouselab-mdp", "trial_index": 10, "time_elapsed": 568287, "internal_node_id": "0.0-2.1-2.1-1.1"}}, {"uniqueid": "w90627961:a59814147", "current_trial": 11, "dateTime": 1693482638605, "trialdata": {"view_history": [{"page_index": 0, "viewing_time": 6052}, {"page_index": 1, "viewing_time": 1632}], "rt": 7684, "trial_id": "mouselab_instructions_2_misaligned", "trial_type": "instructions", "trial_index": 11, "time_elapsed": 575979, "internal_node_id": "0.0-2.1-3.1"}}, {"uniqueid": "w90627961:a59814147", "current_trial": 12, "dateTime": 1693482681493, "trialdata": {"rt": 42887, "response": {"Q0": "The cost for clicking on nodes may vary between nodes.", "Q1": "The better I perform the higher my bonus will be.", "Q2": "No, the amount of cash at each node of the web may be different each time.", "Q3": "To get the highest total score.", "Q4": "Any time during the round.", "Q5": "10 seconds"}, "question_order": [0, 1, 2, 3, 4, 5], "correct": {"Q0": "The cost for clicking on nodes may vary between nodes.", "Q1": "The better I perform the higher my bonus will be.", "Q2": "No, the amount of cash at each node of the web may be different each time.", "Q3": "To get the highest total score.", "Q4": "Only before moving the spider.", "Q5": "3 seconds"}, "trial_id": "mouselab_quiz_misaligned", "trial_type": "survey-multi-choice", "trial_index": 12, "time_elapsed": 618867, "internal_node_id": "0.0-2.1-4.1"}}, {"uniqueid": "w90627961:a59814147", "current_trial": 13, "dateTime": 1693482692718, "trialdata": {"success": true, "trial_type": "fullscreen", "trial_index": 13, "time_elapsed": 630091, "internal_node_id": "0.0-2.2-0.2-0.2"}}, {"uniqueid": "w90627961:a59814147", "current_trial": 14, "dateTime": 1693482851380, "trialdata": {"view_history": [{"page_index": 0, "viewing_time": 39834}, {"page_index": 1, "viewing_time": 8376}, {"page_index": 0, "viewing_time": 25240}, {"page_index": 1, "viewing_time": 21960}, {"page_index": 2, "viewing_time": 5736}, {"page_index": 3, "viewing_time": 57512}], "rt": 158657, "trial_id": "mouselab_instructions_1_misaligned", "trial_type": "instructions", "trial_index": 14, "time_elapsed": 788754, "internal_node_id": "0.0-2.2-1.2"}}, {"uniqueid": "w90627961:a59814147", "current_trial": 15, "dateTime": 1693482920512, "trialdata": {"revealed_states": [], "clicked_states": ["23", "26", "24", "31"], "num_clicks_accrued": [0, 0, 0, 0, 0, 0, 0, 0, 0, 0, 0, 0, 0], "stateRewards": ["", -10, -10, 10, -10, -10, -10, -10, -10, -10, 10, -10, 10, 10, 10, 10, 10, -10, 10, 10, -10, -10, 10, -10, 10, -10, 10, 10, -10, 10, 10, 10, 10, -10], "withholdReward": false, "trial_id": "practice_1", "block": "test", "trialIndex": 4, "score": -8.5, "costs": -2, "simulationMode": [null, null, null, null, null], "rewards": [-10, 10, -10, 10, -10], "path": ["0", "0", "23", "24", "25", "26", "28"], "rt": [12800, 533, 7471, 445, 41868], "actions": ["left", "left", "left", "up", "right"], "actionTimes": [14039, 15076, 23061, 24021, 66396], "queries": {"click": {"state": {"target": ["23", "26", "24", "31"], "time": [2934, 5692, 8213, 10349]}, "edge": {"target": [], "time": []}}, "mouseover": {"state": {"target": ["23", "24", "25", "26", "24", "31"], "time": [1887, 4621, 5201, 5451, 7719, 9826]}, "edge": {"target": [], "time": []}}, "mouseout": {"state": {"target": ["12", "0", "23", "24", "25", "26", "24", "31", "24", "26", "31", "24", "25", "24", "1", "18", "5", "2", "28", "24", "31", "24", "31", "24", "28", "30", "25", "26"], "time": [104, 1746, 4578, 4766, 5341, 7236, 9658, 26454, 26625, 28984, 30938, 31095, 33815, 34469, 34579, 34762, 40814, 41345, 41515, 41783, 50904, 57611, 59370, 60891, 60933, 61436, 61798, 63281]}, "edge": {"target": [], "time": []}}}, "displayed_time": "66.90", "trialTime": 68940, "trial_type": "mouselab-mdp", "trial_index": 15, "time_elapsed": 857885, "internal_node_id": "0.0-2.2-2.2-0.2"}}, {"uniqueid": "w90627961:a59814147", "current_trial": 16, "dateTime": 1693482944544, "trialdata": {"revealed_states": [], "clicked_states": ["24", "31", "26", "13", "12", "23"], "num_clicks_accrued": [0, 0, 0, 0, 0, 0, 0, 0, 0, 0, 0, 0, 0], "stateRewards": ["", 10, -10, 10, -10, -10, -10, 10, -10, -10, 10, -10, 10, -10, -10, -10, -10, -10, 10, -10, 10, -10, 10, -10, -10, 10, 10, -10, 10, 10, 10, 10, -10, -10], "withholdReward": false, "trial_id": "practice_2", "block": "test", "trialIndex": 5, "score": 10.5, "costs": -3, "simulationMode": [null, null, null, null, null], "rewards": [-10, -10, 10, 10, 10], "path": ["0", "0", "23", "24", "25", "30", "31"], "rt": [15160, 209, 227, 643, 752], "actions": ["left", "left", "left", "down", "right"], "actionTimes": [17373, 18090, 18826, 19978, 21242], "queries": {"click": {"state": {"target": ["24", "31", "26", "13", "12", "23"], "time": [3412, 5034, 7073, 9595, 11466, 13106]}, "edge": {"target": [], "time": []}}, "mouseover": {"state": {"target": ["23", "24", "31", "25", "26", "23", "0", "13", "13", "12", "0", "23", "1", "1"], "time": [2790, 2896, 4727, 6539, 6838, 8320, 8384, 8616, 9297, 11225, 12286, 12584, 15369, 15705]}, "edge": {"target": [], "time": []}}, "mouseout": {"state": {"target": ["31", "0", "23", "24", "31", "25", "26", "23", "0", "13", "13", "12", "0", "23", "1", "1", "24", "31"], "time": [1256, 2667, 2851, 4585, 6479, 6571, 8093, 8364, 8445, 8807, 11182, 12239, 12349, 14130, 15554, 22791, 22978, 23119]}, "edge": {"target": [], "time": []}}}, "displayed_time": "21.76", "trialTime": 23794, "trial_type": "mouselab-mdp", "trial_index": 16, "time_elapsed": 881917, "internal_node_id": "0.0-2.2-2.2-1.2"}}, {"uniqueid": "w90627961:a59814147", "current_trial": 17, "dateTime": 1693482949627, "trialdata": {"view_history": [{"page_index": 0, "viewing_time": 3628}, {"page_index": 1, "viewing_time": 1448}], "rt": 5076, "trial_id": "mouselab_instructions_2_misaligned", "trial_type": "instructions", "trial_index": 17, "time_elapsed": 887001, "internal_node_id": "0.0-2.2-3.2"}}, {"uniqueid": "w90627961:a59814147", "current_trial": 18, "dateTime": 1693483022724, "trialdata": {"rt": 73094, "response": {"Q0": "The cost for clicking on nodes may vary between nodes.", "Q1": "The better I perform the higher my bonus will be.", "Q2": "Yes.", "Q3": "To get the highest total score.", "Q4": "Only before moving the spider.", "Q5": "3 seconds"}, "question_order": [0, 1, 2, 3, 4, 5], "correct": {"Q0": "The cost for clicking on nodes may vary between nodes.", "Q1": "The better I perform the higher my bonus will be.", "Q2": "No, the amount of cash at each node of the web may be different each time.", "Q3": "To get the highest total score.", "Q4": "Only before moving the spider.", "Q5": "3 seconds"}, "trial_id": "mouselab_quiz_misaligned", "trial_type": "survey-multi-choice", "trial_index": 18, "time_elapsed": 960098, "internal_node_id": "0.0-2.2-4.2"}}, {"uniqueid": "w90627961:a59814147", "current_trial": 19, "dateTime": 1693483035788, "trialdata": {"success": true, "trial_type": "fullscreen", "trial_index": 19, "time_elapsed": 973162, "internal_node_id": "0.0-2.3-0.3-0.3"}}, {"uniqueid": "w90627961:a59814147", "current_trial": 20, "dateTime": 1693483065051, "trialdata": {"view_history": [{"page_index": 0, "viewing_time": 6820}, {"page_index": 1, "viewing_time": 4416}, {"page_index": 2, "viewing_time": 16912}, {"page_index": 3, "viewing_time": 1112}], "rt": 29260, "trial_id": "mouselab_instructions_1_misaligned", "trial_type": "instructions", "trial_index": 20, "time_elapsed": 1002425, "internal_node_id": "0.0-2.3-1.3"}}, {"uniqueid": "w90627961:a59814147", "current_trial": 21, "dateTime": 1693483090624, "trialdata": {"revealed_states": [], "clicked_states": ["23", "31", "26", "24"], "num_clicks_accrued": [0, 0, 0, 0, 0, 0, 0, 0, 0, 0, 0, 0, 0], "stateRewards": ["", -10, -10, 10, -10, -10, -10, -10, -10, -10, 10, -10, 10, 10, 10, 10, 10, -10, 10, 10, -10, -10, 10, -10, 10, -10, 10, 10, -10, 10, 10, 10, 10, -10], "withholdReward": false, "trial_id": "practice_1", "block": "test", "trialIndex": 6, "score": 11.5, "costs": -2, "simulationMode": [null, null, null, null, null], "rewards": [-10, 10, -10, 10, 10], "path": ["0", "0", "23", "24", "25", "26", "27"], "rt": [8447, 431, 2175, 216, 7890], "actions": ["left", "left", "left", "up", "up"], "actionTimes": [9571, 10484, 13180, 13908, 22316], "queries": {"click": {"state": {"target": ["23", "31", "26", "24"], "time": [2613, 4499, 5528, 7180]}, "edge": {"target": [], "time": []}}, "mouseover": {"state": {"target": ["23", "24", "23", "24", "31", "25", "26", "25", "24"], "time": [1548, 1790, 1990, 3128, 4177, 5081, 5253, 6363, 6961]}, "edge": {"target": [], "time": []}}, "mouseout": {"state": {"target": ["12", "0", "23", "24", "23", "24", "31", "25", "26", "25", "24", "25", "31", "31"], "time": [319, 1508, 1597, 1946, 3050, 4118, 4862, 5112, 6146, 6916, 8161, 18370, 19071, 20304]}, "edge": {"target": [], "time": []}}}, "displayed_time": "22.83", "trialTime": 25372, "trial_type": "mouselab-mdp", "trial_index": 21, "time_elapsed": 1027997, "internal_node_id": "0.0-2.3-2.3-0.3"}}, {"uniqueid": "w90627961:a59814147", "current_trial": 22, "dateTime": 1693483106575, "trialdata": {"revealed_states": [], "clicked_states": ["31", "26", "24"], "num_clicks_accrued": [0, 0, 0, 0, 0, 0, 0, 0, 0, 0, 0, 0, 0], "stateRewards": ["", 10, -10, 10, -10, -10, -10, 10, -10, -10, 10, -10, 10, -10, -10, -10, -10, -10, 10, -10, 10, -10, 10, -10, -10, 10, 10, -10, 10, 10, 10, 10, -10, -10], "withholdReward": false, "trial_id": "practice_2", "block": "test", "trialIndex": 7, "score": 12, "costs": -1.5, "simulationMode": [null, null, null, null, null], "rewards": [-10, -10, 10, 10, 10], "path": ["0", "0", "23", "24", "25", "30", "31"], "rt": [8278, 245, 271, 619, 670], "actions": ["left", "left", "left", "down", "right"], "actionTimes": [9823, 10589, 11381, 12509, 13685], "queries": {"click": {"state": {"target": ["31", "26", "24"], "time": [3592, 5165, 7053]}, "edge": {"target": [], "time": []}}, "mouseover": {"state": {"target": ["0", "23", "31", "25", "26", "24"], "time": [2020, 2191, 3206, 4279, 4717, 5967]}, "edge": {"target": [], "time": []}}, "mouseout": {"state": {"target": ["25", "24", "23", "0", "23", "31", "25", "26", "24"], "time": [705, 803, 1112, 2113, 2300, 4091, 4654, 5576, 8424]}, "edge": {"target": [], "time": []}}}, "displayed_time": "14.20", "trialTime": 15709, "trial_type": "mouselab-mdp", "trial_index": 22, "time_elapsed": 1043948, "internal_node_id": "0.0-2.3-2.3-1.3"}}, {"uniqueid": "w90627961:a59814147", "current_trial": 23, "dateTime": 1693483128314, "trialdata": {"view_history": [{"page_index": 0, "viewing_time": 20099}, {"page_index": 1, "viewing_time": 1632}], "rt": 21732, "trial_id": "mouselab_instructions_2_misaligned", "trial_type": "instructions", "trial_index": 23, "time_elapsed": 1065688, "internal_node_id": "0.0-2.3-3.3"}}, {"uniqueid": "w90627961:a59814147", "current_trial": 24, "dateTime": 1693483163660, "trialdata": {"rt": 35342, "response": {"Q0": "The cost for clicking on nodes may vary between nodes.", "Q1": "The better I perform the higher my bonus will be.", "Q2": "No, the amount of cash at each node of the web may be different each time.", "Q3": "To get the highest total score.", "Q4": "Any time during the round.", "Q5": "3 seconds"}, "question_order": [0, 1, 2, 3, 4, 5], "correct": {"Q0": "The cost for clicking on nodes may vary between nodes.", "Q1": "The better I perform the higher my bonus will be.", "Q2": "No, the amount of cash at each node of the web may be different each time.", "Q3": "To get the highest total score.", "Q4": "Only before moving the spider.", "Q5": "3 seconds"}, "trial_id": "mouselab_quiz_misaligned", "trial_type": "survey-multi-choice", "trial_index": 24, "time_elapsed": 1101034, "internal_node_id": "0.0-2.3-4.3"}}, {"uniqueid": "w90627961:a59814147", "current_trial": 25, "dateTime": 1693483178044, "trialdata": {"rt": 14376, "response": {"Q0": "", "Q1": "26", "Q2": "male", "Q3": "no", "Q4": ""}, "trial_id": "finish_fail", "trial_type": "survey-text", "trial_index": 25, "time_elapsed": 1115417, "internal_node_id": "0.0-3.0-0.0"}}, {"uniqueid": "w90627961:a59814147", "current_trial": 26, "dateTime": 1693483183692, "trialdata": {"rt": 5645, "stimulus": "<h1>Completion Code Instructions (1/2)</h1>\n<br><br><br><br>\nYou have reached the end of the experiment! The completion code consists of two parts: (1) a code with 2 characters (2) a code with 6 characters. On this page, you will receive the second part of the code. The first part of the completion code will be on the next page.\n<br><br>\nThe second part of your completion code is: <b>AYIWIP</b>\n<br><br>\nPlease note this down. Then, press 'Finish HIT' in order to find the first part of your completion code. Once the data has been saved, you will receive this code either in this window or in the original browser window where you started the experiment.\n", "response": 0, "trial_type": "html-button-response", "trial_index": 26, "time_elapsed": 1121066, "internal_node_id": "0.0-3.0-1.0"}}, {"uniqueid": "w90627961:a59814147", "current_trial": 27, "dateTime": 1693483184695, "trialdata": {"success": true, "trial_type": "fullscreen", "trial_index": 27, "time_elapsed": 1122069, "internal_node_id": "0.0-7.0"}}], "questiondata": {"params": {"CODE": "C6DMOQA6", "MIN_TIME": 14, "inspectCost": 1, "startTime": "Thu Aug 31 2023 13:41:01 GMT+0200 (South Africa Standard Time)", "bonusRate": 0.002, "variance": "1_2_4_8_44", "branching": "31123"}, "final_score": 0}, "eventdata": [{"eventtype": "initialized", "value": null, "timestamp": 1693482060588, "interval": 0}, {"eventtype": "window_resize", "value": [1024, 767], "timestamp": 1693482060588, "interval": 0}, {"eventtype": "window_resize", "value": [1024, 767], "timestamp": 1693482061061, "interval": 473}, {"eventtype": "window_resize", "value": [1920, 1080], "timestamp": 1693482117868, "interval": 56807}, {"eventtype": "window_resize", "value": [1024, 767], "timestamp": 1693482259120, "interval": 141252}, {"eventtype": "focus", "value": "off", "timestamp": 1693482260505, "interval": 1385}, {"eventtype": "focus", "value": "on", "timestamp": 1693482268101, "interval": 7596}, {"eventtype": "window_resize", "value": [1920, 982], "timestamp": 1693482270029, "interval": 1928}, {"eventtype": "window_resize", "value": [1024, 767], "timestamp": 1693482369787, "interval": 99758}, {"eventtype": "focus", "value": "off", "timestamp": 1693482370816, "interval": 1029}, {"eventtype": "focus", "value": "on", "timestamp": 1693482384006, "interval": 13190}, {"eventtype": "window_resize", "value": [1920, 982], "timestamp": 1693482398546, "interval": 14540}, {"eventtype": "focus", "value": "off", "timestamp": 1693482432255, "interval": 33709}, {"eventtype": "focus", "value": "on", "timestamp": 1693482432255, "interval": 0}, {"eventtype": "window_resize", "value": [1920, 1080], "timestamp": 1693482434513, "interval": 2258}, {"eventtype": "focus", "value": "off", "timestamp": 1693482689543, "interval": 255030}, {"eventtype": "focus", "value": "on", "timestamp": 1693482689543, "interval": 0}, {"eventtype": "window_resize", "value": [1920, 982], "timestamp": 1693482689750, "interval": 207}, {"eventtype": "window_resize", "value": [1920, 1080], "timestamp": 1693482691935, "interval": 2185}, {"eventtype": "focus", "value": "off", "timestamp": 1693483033567, "interval": 341632}, {"eventtype": "focus", "value": "on", "timestamp": 1693483033568, "interval": 1}, {"eventtype": "window_resize", "value": [1920, 982], "timestamp": 1693483033775, "interval": 207}, {"eventtype": "window_resize", "value": [1920, 1080], "timestamp": 1693483035004, "interval": 1229}, {"eventtype": "window_resize", "value": [1920, 982], "timestamp": 1693483183922, "interval": 148918}], "useragent": "Mozilla/5.0 (Windows NT 10.0; Win64; x64) AppleWebKit/537.36 (KHTML, like Gecko) Chrome/116.0.0.0 Safari/537.36", "mode": "live", "id": "w90627961:a59814147", "status": "user data saved", "Beginhit": "2023-08-31 11:40:58.212238", "Beginexp": "2023-08-31 11:41:58.937381", "Endhit": "2023-08-31 11:59:45.882537", "psiturkStatus": 3, "browser": "<redacted>", "platform": "windows", "language": "en-US", "excludeReason": "quizfail"}