{"condition": 1, "counterbalance": 0, "assignmentId": "a88924728", "workerId": "w54708705", "hitId": "h41427175", "currenttrial": 74, "bonus": 0, "data": [{"uniqueid": "w54708705:a88924728", "current_trial": 0, "dateTime": 1693480996056, "trialdata": {"success": true, "trial_type": "fullscreen", "trial_index": 0, "time_elapsed": 3330, "internal_node_id": "0.0-0.0"}}, {"uniqueid": "w54708705:a88924728", "current_trial": 1, "dateTime": 1693481018571, "trialdata": {"view_history": [{"page_index": 0, "viewing_time": 22510}], "rt": 22510, "trial_id": "exp_instructions_misaligned", "trial_type": "instructions", "trial_index": 1, "time_elapsed": 25845, "internal_node_id": "0.0-1.0"}}, {"uniqueid": "w54708705:a88924728", "current_trial": 2, "dateTime": 1693481110403, "trialdata": {"view_history": [{"page_index": 0, "viewing_time": 56302}, {"page_index": 1, "viewing_time": 18961}, {"page_index": 2, "viewing_time": 13751}, {"page_index": 3, "viewing_time": 2817}], "rt": 91831, "trial_id": "mouselab_instructions_1_misaligned", "trial_type": "instructions", "trial_index": 2, "time_elapsed": 117677, "internal_node_id": "0.0-2.0-1.0"}}, {"uniqueid": "w54708705:a88924728", "current_trial": 3, "dateTime": 1693481206999, "trialdata": {"revealed_states": [], "clicked_states": ["25", "27", "30", "31", "32", "33", "13", "15", "17", "2", "8", "9", "5", "4", "6", "7", "1", "12", "14", "19", "21", "20", "22", "23", "24", "28", "29", "26", "11", "3", "10", "16", "18"], "num_clicks_accrued": [0, 0, 0, 0, 0, 0, 0, 0, 0, 0, 0, 0, 0], "stateRewards": ["", -10, -10, -10, -10, 10, 10, 10, 10, 10, -10, 10, 10, 10, -10, -10, -10, -10, -10, 10, 10, 10, 10, -10, 10, -10, -10, -10, -10, -10, 10, -10, -10, -10], "withholdReward": false, "trial_id": "practice_1", "block": "test", "trialIndex": 0, "score": -23, "costs": -16.5, "simulationMode": [null, null, null, null, null], "rewards": [10, 10, -10, -10, -10], "path": ["0", "0", "12", "13", "14", "15", "16"], "rt": [84086, 1064, 243, 245, 358], "actions": ["right", "right", "right", "up", "up"], "actionTimes": [87476, 89033, 89777, 90530, 91409], "queries": {"click": {"state": {"target": ["25", "27", "30", "31", "32", "33", "13", "15", "17", "2", "8", "9", "5", "4", "6", "7", "1", "12", "14", "19", "21", "20", "22", "23", "24", "28", "29", "26", "11", "3", "10", "16", "18"], "time": [5577, 7525, 11016, 13521, 15831, 17583, 18760, 20447, 22985, 26024, 28430, 29521, 35077, 36973, 38097, 39136, 41014, 42639, 45158, 46650, 48909, 51276, 53887, 56831, 58499, 61455, 63559, 64800, 66016, 67431, 68712, 70022, 71146]}, "edge": {"target": [], "time": []}}, "mouseover": {"state": {"target": ["0", "24", "25", "24", "26", "27", "24", "31", "30", "32", "31", "32", "30", "33", "13", "15", "14", "17", "16", "1", "2", "3", "8", "8", "9", "1", "0", "0", "1", "8", "5", "4", "6", "7", "1", "0", "12", "13", "14", "14", "19", "21", "20", "19", "22", "13", "13", "0", "23", "24", "28", "29", "26", "11", "8", "3", "10", "18", "16", "18", "13", "0", "0", "1", "1", "2", "2", "1", "0", "21", "21", "21"], "time": [4143, 4985, 5052, 6668, 6968, 7135, 9618, 10235, 10735, 11816, 12135, 15185, 16833, 17185, 18516, 19732, 21535, 22469, 24152, 25485, 25668, 26816, 27935, 28181, 29083, 31352, 31668, 32135, 32567, 32719, 33406, 36151, 37801, 38733, 40585, 41833, 42049, 42934, 44533, 44851, 45599, 47731, 49799, 52066, 52838, 55068, 55501, 56301, 56434, 57549, 59281, 62835, 64082, 65498, 66616, 66915, 67998, 69381, 69549, 70866, 71599, 72450, 73406, 74330, 76068, 76233, 76968, 77085, 77168, 81102, 82034, 85084]}, "edge": {"target": [], "time": []}}, "mouseout": {"state": {"target": ["12", "0", "23", "23", "0", "24", "25", "24", "26", "27", "24", "31", "30", "32", "31", "32", "30", "33", "13", "15", "14", "17", "16", "1", "2", "3", "8", "8", "9", "8", "1", "0", "0", "1", "8", "9", "5", "4", "6", "7", "1", "1", "0", "12", "13", "14", "14", "19", "21", "20", "19", "22", "13", "13", "0", "23", "23", "24", "28", "29", "26", "11", "8", "3", "10", "18", "16", "18", "13", "0", "0", "1", "1", "2", "2", "1", "0", "21", "21", "21"], "time": [1201, 1884, 1951, 2751, 4302, 5000, 6598, 6785, 7068, 8533, 10135, 10285, 11582, 12017, 14768, 16682, 17002, 17643, 19449, 21466, 22302, 23850, 24935, 25602, 26550, 27868, 28030, 28883, 30932, 31131, 31534, 31718, 32352, 32602, 32733, 33035, 36099, 37567, 38500, 40352, 41138, 41767, 41866, 42899, 44519, 44568, 45533, 47515, 49036, 52033, 52514, 55018, 55101, 55784, 56368, 56947, 57316, 58642, 62399, 63949, 65265, 66131, 66848, 67766, 69149, 69415, 70500, 71581, 71615, 72645, 74084, 75715, 76118, 76334, 77001, 77118, 77184, 81334, 82284, 85099]}, "edge": {"target": [], "time": []}}}, "displayed_time": "91.90", "trialTime": 95875, "trial_type": "mouselab-mdp", "trial_index": 3, "time_elapsed": 214272, "internal_node_id": "0.0-2.0-2.0-0.0"}}, {"uniqueid": "w54708705:a88924728", "current_trial": 4, "dateTime": 1693481272229, "trialdata": {"revealed_states": [], "clicked_states": ["1", "12", "13", "14", "19", "21", "20", "22", "15", "16", "18", "17", "2", "3", "4", "5", "6", "7", "23"], "num_clicks_accrued": [0, 0, 0, 0, 0, 0, 0, 0, 0, 0, 0, 0, 0], "stateRewards": ["", -10, 10, -10, 10, -10, 10, 10, 10, -10, 10, -10, 10, 10, 10, -10, 10, 10, 10, 10, -10, 10, 10, 10, 10, 10, 10, 10, 10, -10, -10, 10, -10, -10], "withholdReward": false, "trial_id": "practice_2", "block": "test", "trialIndex": 1, "score": 44, "costs": -9.5, "simulationMode": [null, null, null, null, null], "rewards": [10, 10, 10, 10, 10], "path": ["0", "0", "12", "13", "14", "19", "21"], "rt": [52998, 611, 310, 101, 693], "actions": ["right", "right", "right", "down", "down"], "actionTimes": [56457, 57561, 58377, 58984, 60177], "queries": {"click": {"state": {"target": ["1", "12", "13", "14", "19", "21", "20", "22", "15", "16", "18", "17", "2", "3", "4", "5", "6", "7", "23"], "time": [5472, 8091, 9125, 11138, 13415, 16455, 19517, 22480, 25479, 27379, 30168, 32438, 35435, 37470, 39449, 42238, 44258, 46006, 51007]}, "edge": {"target": [], "time": []}}, "mouseover": {"state": {"target": ["1", "2", "12", "12", "13", "22", "14", "19", "20", "21", "20", "19", "22", "14", "15", "16", "18", "15", "17", "12", "1", "2", "3", "4", "5", "4", "6", "7", "13", "21", "23", "10", "0", "0"], "time": [5184, 6382, 7634, 7817, 8731, 10097, 10733, 12550, 15383, 16016, 19046, 20882, 21838, 24782, 25116, 26916, 28878, 31733, 31750, 34531, 34666, 35250, 36783, 39150, 40533, 43746, 43866, 44931, 47483, 47750, 50765, 51298, 52734, 54965]}, "edge": {"target": [], "time": []}}, "mouseout": {"state": {"target": ["0", "1", "2", "12", "12", "13", "22", "14", "19", "20", "21", "21", "20", "19", "22", "14", "15", "16", "18", "15", "17", "12", "1", "2", "3", "4", "5", "4", "6", "7", "13", "21", "23", "10", "0", "0"], "time": [3151, 5563, 7584, 7648, 8532, 10048, 10516, 12400, 15151, 15833, 17332, 18862, 20114, 20916, 24633, 24900, 26849, 28314, 31702, 31747, 33348, 34583, 35046, 36499, 38902, 40131, 43516, 43799, 44698, 47281, 47498, 48268, 51084, 52532, 52750, 55616]}, "edge": {"target": [], "time": []}}}, "displayed_time": "60.70", "trialTime": 65138, "trial_type": "mouselab-mdp", "trial_index": 4, "time_elapsed": 279502, "internal_node_id": "0.0-2.0-2.0-1.0"}}, {"uniqueid": "w54708705:a88924728", "current_trial": 5, "dateTime": 1693481309281, "trialdata": {"view_history": [{"page_index": 0, "viewing_time": 34009}, {"page_index": 1, "viewing_time": 3040}], "rt": 37049, "trial_id": "mouselab_instructions_2_misaligned", "trial_type": "instructions", "trial_index": 5, "time_elapsed": 316555, "internal_node_id": "0.0-2.0-3.0"}}, {"uniqueid": "w54708705:a88924728", "current_trial": 6, "dateTime": 1693481367226, "trialdata": {"rt": 57941, "response": {"Q0": "There is no cost for clicking on nodes.", "Q1": "No.", "Q2": "No, the amount of cash at each node of the web may be different each time.", "Q3": "To get the highest total score.", "Q4": "Any time during the round.", "Q5": "10 seconds"}, "question_order": [0, 1, 2, 3, 4, 5], "correct": {"Q0": "The cost for clicking on nodes may vary between nodes.", "Q1": "The better I perform the higher my bonus will be.", "Q2": "No, the amount of cash at each node of the web may be different each time.", "Q3": "To get the highest total score.", "Q4": "Only before moving the spider.", "Q5": "3 seconds"}, "trial_id": "mouselab_quiz_misaligned", "trial_type": "survey-multi-choice", "trial_index": 6, "time_elapsed": 374500, "internal_node_id": "0.0-2.0-4.0"}}, {"uniqueid": "w54708705:a88924728", "current_trial": 7, "dateTime": 1693481375826, "trialdata": {"success": true, "trial_type": "fullscreen", "trial_index": 7, "time_elapsed": 383100, "internal_node_id": "0.0-2.1-0.1-0.1"}}, {"uniqueid": "w54708705:a88924728", "current_trial": 8, "dateTime": 1693481504864, "trialdata": {"view_history": [{"page_index": 0, "viewing_time": 54828}, {"page_index": 1, "viewing_time": 42304}, {"page_index": 2, "viewing_time": 3336}, {"page_index": 3, "viewing_time": 28568}], "rt": 129037, "trial_id": "mouselab_instructions_1_misaligned", "trial_type": "instructions", "trial_index": 8, "time_elapsed": 512138, "internal_node_id": "0.0-2.1-1.1"}}, {"uniqueid": "w54708705:a88924728", "current_trial": 9, "dateTime": 1693481532395, "trialdata": {"revealed_states": [], "clicked_states": ["12", "13", "14", "19", "21", "15", "16", "17"], "num_clicks_accrued": [0, 0, 0, 0, 0, 0, 0, 0, 0, 0, 0, 0, 0], "stateRewards": ["", -10, -10, -10, -10, 10, 10, 10, 10, 10, -10, 10, 10, 10, -10, -10, -10, -10, -10, 10, 10, 10, 10, -10, 10, -10, -10, -10, -10, -10, 10, -10, -10, -10], "withholdReward": false, "trial_id": "practice_1", "block": "test", "trialIndex": 2, "score": 29.5, "costs": -4, "simulationMode": [null, null, null, null, null], "rewards": [10, 10, -10, 10, 10], "path": ["0", "0", "12", "13", "14", "19", "21"], "rt": [17309, 580, 512, 1096, 543], "actions": ["right", "right", "right", "down", "down"], "actionTimes": [19359, 20448, 21477, 23062, 24126], "queries": {"click": {"state": {"target": ["12", "13", "14", "19", "21", "15", "16", "17"], "time": [3470, 4727, 7611, 9202, 11501, 13834, 15341, 17019]}, "edge": {"target": [], "time": []}}, "mouseover": {"state": {"target": ["12", "13", "14", "19", "15", "21", "15", "16", "17"], "time": [3284, 3832, 5214, 8248, 10480, 11100, 12567, 14749, 16065]}, "edge": {"target": [], "time": []}}, "mouseout": {"state": {"target": ["0", "12", "13", "14", "19", "14", "15", "14", "19", "21", "19", "15", "16", "17", "15"], "time": [1300, 3799, 5184, 8000, 9999, 10082, 10847, 10918, 11051, 11607, 12114, 14665, 15732, 17432, 17548]}, "edge": {"target": [], "time": []}}}, "displayed_time": "24.62", "trialTime": 27422, "trial_type": "mouselab-mdp", "trial_index": 9, "time_elapsed": 539668, "internal_node_id": "0.0-2.1-2.1-0.1"}}, {"uniqueid": "w54708705:a88924728", "current_trial": 10, "dateTime": 1693481551464, "trialdata": {"revealed_states": [], "clicked_states": ["23", "24", "25", "26", "27"], "num_clicks_accrued": [0, 0, 0, 0, 0, 0, 0, 0, 0, 0, 0, 0, 0], "stateRewards": ["", -10, 10, -10, 10, -10, 10, 10, 10, -10, 10, -10, 10, 10, 10, -10, 10, 10, 10, 10, -10, 10, 10, 10, 10, 10, 10, 10, 10, -10, -10, 10, -10, -10], "withholdReward": false, "trial_id": "practice_2", "block": "test", "trialIndex": 3, "score": 51, "costs": -2.5, "simulationMode": [null, null, null, null, null], "rewards": [10, 10, 10, 10, 10], "path": ["0", "0", "23", "24", "25", "26", "27"], "rt": [10538, 581, 481, 371, 207], "actions": ["left", "left", "left", "up", "up"], "actionTimes": [12603, 13675, 14659, 15533, 16235], "queries": {"click": {"state": {"target": ["23", "24", "25", "26", "27"], "time": [3972, 5267, 7032, 9211, 10692]}, "edge": {"target": [], "time": []}}, "mouseover": {"state": {"target": ["12", "12", "0", "23", "23", "24", "25", "30", "26", "27", "1"], "time": [2841, 3127, 3541, 3575, 3708, 4541, 5875, 8057, 8961, 10208, 12040]}, "edge": {"target": [], "time": []}}, "mouseout": {"state": {"target": ["12", "12", "0", "23", "23", "24", "25", "30", "25", "26", "27", "1"], "time": [2890, 3527, 3558, 3591, 4492, 5759, 7775, 8809, 8890, 9924, 11924, 12057]}, "edge": {"target": [], "time": []}}}, "displayed_time": "16.74", "trialTime": 18970, "trial_type": "mouselab-mdp", "trial_index": 10, "time_elapsed": 558738, "internal_node_id": "0.0-2.1-2.1-1.1"}}, {"uniqueid": "w54708705:a88924728", "current_trial": 11, "dateTime": 1693481575064, "trialdata": {"view_history": [{"page_index": 0, "viewing_time": 21158}, {"page_index": 1, "viewing_time": 2440}], "rt": 23598, "trial_id": "mouselab_instructions_2_misaligned", "trial_type": "instructions", "trial_index": 11, "time_elapsed": 582338, "internal_node_id": "0.0-2.1-3.1"}}, {"uniqueid": "w54708705:a88924728", "current_trial": 12, "dateTime": 1693481612729, "trialdata": {"rt": 37662, "response": {"Q0": "The cost for clicking on nodes may vary between nodes.", "Q1": "The better I perform the higher my bonus will be.", "Q2": "No, the amount of cash at each node of the web may be different each time.", "Q3": "To get the highest total score.", "Q4": "Only after moving the spider.", "Q5": "3 seconds"}, "question_order": [0, 1, 2, 3, 4, 5], "correct": {"Q0": "The cost for clicking on nodes may vary between nodes.", "Q1": "The better I perform the higher my bonus will be.", "Q2": "No, the amount of cash at each node of the web may be different each time.", "Q3": "To get the highest total score.", "Q4": "Only before moving the spider.", "Q5": "3 seconds"}, "trial_id": "mouselab_quiz_misaligned", "trial_type": "survey-multi-choice", "trial_index": 12, "time_elapsed": 620003, "internal_node_id": "0.0-2.1-4.1"}}, {"uniqueid": "w54708705:a88924728", "current_trial": 13, "dateTime": 1693481619394, "trialdata": {"success": true, "trial_type": "fullscreen", "trial_index": 13, "time_elapsed": 626668, "internal_node_id": "0.0-2.2-0.2-0.2"}}, {"uniqueid": "w54708705:a88924728", "current_trial": 14, "dateTime": 1693481640766, "trialdata": {"view_history": [{"page_index": 0, "viewing_time": 5154}, {"page_index": 1, "viewing_time": 2752}, {"page_index": 2, "viewing_time": 1784}, {"page_index": 3, "viewing_time": 11680}], "rt": 21371, "trial_id": "mouselab_instructions_1_misaligned", "trial_type": "instructions", "trial_index": 14, "time_elapsed": 648040, "internal_node_id": "0.0-2.2-1.2"}}, {"uniqueid": "w54708705:a88924728", "current_trial": 15, "dateTime": 1693481661666, "trialdata": {"revealed_states": [], "clicked_states": ["12", "13", "14", "15", "16", "19", "21"], "num_clicks_accrued": [0, 0, 0, 0, 0, 0, 0, 0, 0, 0, 0, 0, 0], "stateRewards": ["", -10, -10, -10, -10, 10, 10, 10, 10, 10, -10, 10, 10, 10, -10, -10, -10, -10, -10, 10, 10, 10, 10, -10, 10, -10, -10, -10, -10, -10, 10, -10, -10, -10], "withholdReward": false, "trial_id": "practice_1", "block": "test", "trialIndex": 4, "score": 30, "costs": -3.5, "simulationMode": [null, null, null, null, null], "rewards": [10, 10, -10, 10, 10], "path": ["0", "0", "12", "13", "14", "19", "21"], "rt": [12646, 546, 510, 220, 473], "actions": ["right", "right", "right", "down", "down"], "actionTimes": [14712, 15758, 16790, 17533, 18518], "queries": {"click": {"state": {"target": ["12", "13", "14", "15", "16", "19", "21"], "time": [2909, 4238, 5561, 8091, 9635, 11127, 12562]}, "edge": {"target": [], "time": []}}, "mouseover": {"state": {"target": ["12", "12", "13", "14", "19", "15", "16", "14", "19", "21"], "time": [2495, 2647, 3379, 5077, 6245, 7476, 9061, 10178, 10244, 11695]}, "edge": {"target": [], "time": []}}, "mouseout": {"state": {"target": ["0", "0", "12", "12", "13", "14", "19", "14", "15", "16", "16", "15", "14", "19", "21"], "time": [1445, 2463, 2511, 3161, 4811, 6078, 7380, 7413, 8994, 9735, 10011, 10144, 10211, 11544, 13228]}, "edge": {"target": [], "time": []}}}, "displayed_time": "19.01", "trialTime": 20790, "trial_type": "mouselab-mdp", "trial_index": 15, "time_elapsed": 668939, "internal_node_id": "0.0-2.2-2.2-0.2"}}, {"uniqueid": "w54708705:a88924728", "current_trial": 16, "dateTime": 1693481694892, "trialdata": {"revealed_states": [], "clicked_states": ["12", "13", "14", "15", "16", "17", "18", "23", "24", "25", "26", "27"], "num_clicks_accrued": [0, 0, 0, 0, 0, 0, 0, 0, 0, 0, 0, 0, 0], "stateRewards": ["", -10, 10, -10, 10, -10, 10, 10, 10, -10, 10, -10, 10, 10, 10, -10, 10, 10, 10, 10, -10, 10, 10, 10, 10, 10, 10, 10, 10, -10, -10, 10, -10, -10], "withholdReward": false, "trial_id": "practice_2", "block": "test", "trialIndex": 5, "score": 47.5, "costs": -6, "simulationMode": [null, null, null, null, null], "rewards": [10, 10, 10, 10, 10], "path": ["0", "0", "23", "24", "25", "26", "27"], "rt": [23234, 589, 995, 198, 516], "actions": ["left", "left", "left", "up", "up"], "actionTimes": [25088, 26181, 27686, 28423, 29439], "queries": {"click": {"state": {"target": ["12", "13", "14", "15", "16", "17", "18", "23", "24", "25", "26", "27"], "time": [2947, 5096, 6441, 7812, 10661, 12076, 13572, 17724, 19048, 20508, 22105, 23636]}, "edge": {"target": [], "time": []}}, "mouseover": {"state": {"target": ["12", "12", "13", "0", "23", "0", "13", "14", "15", "16", "18", "16", "17", "15", "18", "14", "19", "28", "26", "33", "32", "31", "23", "24", "25", "26", "27"], "time": [2455, 2722, 3507, 4008, 4205, 4725, 4773, 5390, 6840, 8608, 9509, 10223, 11357, 12541, 13073, 14223, 16898, 16959, 16991, 17040, 17092, 17242, 17475, 18340, 20192, 21722, 23455]}, "edge": {"target": [], "time": []}}, "mouseout": {"state": {"target": ["21", "0", "12", "12", "13", "12", "0", "23", "0", "12", "13", "14", "15", "16", "18", "16", "17", "15", "18", "14", "19", "28", "26", "33", "32", "31", "23", "24", "25", "26", "27"], "time": [807, 2439, 2507, 3474, 3907, 3992, 4175, 4708, 4740, 4757, 5357, 6790, 8441, 9293, 10092, 11191, 12524, 12590, 14091, 14240, 16905, 16974, 17007, 17055, 17159, 17292, 18023, 19557, 21441, 23057, 24007]}, "edge": {"target": [], "time": []}}}, "displayed_time": "29.96", "trialTime": 33112, "trial_type": "mouselab-mdp", "trial_index": 16, "time_elapsed": 702165, "internal_node_id": "0.0-2.2-2.2-1.2"}}, {"uniqueid": "w54708705:a88924728", "current_trial": 17, "dateTime": 1693481709405, "trialdata": {"view_history": [{"page_index": 0, "viewing_time": 12752}, {"page_index": 1, "viewing_time": 1760}], "rt": 14512, "trial_id": "mouselab_instructions_2_misaligned", "trial_type": "instructions", "trial_index": 17, "time_elapsed": 716679, "internal_node_id": "0.0-2.2-3.2"}}, {"uniqueid": "w54708705:a88924728", "current_trial": 18, "dateTime": 1693481754214, "trialdata": {"rt": 44806, "response": {"Q0": "The cost for clicking on nodes may vary between nodes.", "Q1": "The better I perform the higher my bonus will be.", "Q2": "No, the structure of the web will be different each time.", "Q3": "To get the highest total score.", "Q4": "Only before moving the spider.", "Q5": "3 seconds"}, "question_order": [0, 1, 2, 3, 4, 5], "correct": {"Q0": "The cost for clicking on nodes may vary between nodes.", "Q1": "The better I perform the higher my bonus will be.", "Q2": "No, the amount of cash at each node of the web may be different each time.", "Q3": "To get the highest total score.", "Q4": "Only before moving the spider.", "Q5": "3 seconds"}, "trial_id": "mouselab_quiz_misaligned", "trial_type": "survey-multi-choice", "trial_index": 18, "time_elapsed": 761488, "internal_node_id": "0.0-2.2-4.2"}}, {"uniqueid": "w54708705:a88924728", "current_trial": 19, "dateTime": 1693481760773, "trialdata": {"success": true, "trial_type": "fullscreen", "trial_index": 19, "time_elapsed": 768047, "internal_node_id": "0.0-2.3-0.3-0.3"}}, {"uniqueid": "w54708705:a88924728", "current_trial": 20, "dateTime": 1693481770091, "trialdata": {"view_history": [{"page_index": 0, "viewing_time": 3307}, {"page_index": 1, "viewing_time": 2576}, {"page_index": 2, "viewing_time": 2160}, {"page_index": 3, "viewing_time": 1272}], "rt": 9315, "trial_id": "mouselab_instructions_1_misaligned", "trial_type": "instructions", "trial_index": 20, "time_elapsed": 777365, "internal_node_id": "0.0-2.3-1.3"}}, {"uniqueid": "w54708705:a88924728", "current_trial": 21, "dateTime": 1693481798375, "trialdata": {"revealed_states": [], "clicked_states": ["1", "2", "10", "23", "24", "25", "30", "32", "12", "13", "14", "19", "21"], "num_clicks_accrued": [0, 0, 0, 0, 0, 0, 0, 0, 0, 0, 0, 0, 0], "stateRewards": ["", -10, -10, -10, -10, 10, 10, 10, 10, 10, -10, 10, 10, 10, -10, -10, -10, -10, -10, 10, 10, 10, 10, -10, 10, -10, -10, -10, -10, -10, 10, -10, -10, -10], "withholdReward": false, "trial_id": "practice_1", "block": "test", "trialIndex": 6, "score": 27, "costs": -6.5, "simulationMode": [null, null, null, null, null], "rewards": [10, 10, -10, 10, 10], "path": ["0", "0", "12", "13", "14", "19", "21"], "rt": [21123, 612, 437, 266, 331], "actions": ["right", "right", "right", "down", "down"], "actionTimes": [22541, 23643, 24603, 25363, 26197], "queries": {"click": {"state": {"target": ["1", "2", "10", "23", "24", "25", "30", "32", "12", "13", "14", "19", "21"], "time": [2778, 4062, 5577, 6671, 8073, 9445, 10769, 12115, 14392, 15718, 17288, 18850, 20302]}, "edge": {"target": [], "time": []}}, "mouseover": {"state": {"target": ["1", "12", "12", "1", "2", "10", "10", "23", "24", "25", "30", "32", "0", "12", "12", "12", "13", "13", "14", "19", "21", "20"], "time": [1899, 2066, 2248, 2565, 3129, 4698, 5215, 5997, 7430, 8814, 10247, 11113, 12763, 12864, 13716, 14215, 14747, 15181, 16314, 18064, 19746, 21131]}, "edge": {"target": [], "time": []}}, "mouseout": {"state": {"target": ["1", "12", "12", "1", "2", "10", "10", "23", "24", "25", "24", "30", "32", "0", "12", "12", "12", "13", "13", "14", "19", "21"], "time": [2032, 2080, 2448, 3013, 4683, 4731, 5881, 7014, 8430, 9830, 10147, 11081, 12514, 12814, 12930, 13749, 14731, 14780, 16280, 17947, 19498, 20897]}, "edge": {"target": [], "time": []}}}, "displayed_time": "26.70", "trialTime": 28171, "trial_type": "mouselab-mdp", "trial_index": 21, "time_elapsed": 805648, "internal_node_id": "0.0-2.3-2.3-0.3"}}, {"uniqueid": "w54708705:a88924728", "current_trial": 22, "dateTime": 1693481815476, "trialdata": {"revealed_states": [], "clicked_states": ["12", "13", "14", "15", "16"], "num_clicks_accrued": [0, 0, 0, 0, 0, 0, 0, 0, 0, 0, 0, 0, 0], "stateRewards": ["", -10, 10, -10, 10, -10, 10, 10, 10, -10, 10, -10, 10, 10, 10, -10, 10, 10, 10, 10, -10, 10, 10, 10, 10, 10, 10, 10, 10, -10, -10, 10, -10, -10], "withholdReward": false, "trial_id": "practice_2", "block": "test", "trialIndex": 7, "score": 31, "costs": -2.5, "simulationMode": [null, null, null, null, null], "rewards": [10, 10, 10, -10, 10], "path": ["0", "0", "12", "13", "14", "15", "16"], "rt": [9914, 444, 309, 381, 225], "actions": ["right", "right", "right", "up", "up"], "actionTimes": [11787, 12753, 13584, 14473, 15201], "queries": {"click": {"state": {"target": ["12", "13", "14", "15", "16"], "time": [2846, 4144, 5583, 7023, 9531]}, "edge": {"target": [], "time": []}}, "mouseover": {"state": {"target": ["12", "12", "13", "14", "15", "16"], "time": [2292, 2690, 3207, 4891, 6391, 8125]}, "edge": {"target": [], "time": []}}, "mouseout": {"state": {"target": ["20", "14", "0", "12", "12", "13", "14", "15", "16"], "time": [993, 1021, 1224, 2324, 3174, 4591, 6240, 7957, 11026]}, "edge": {"target": [], "time": []}}}, "displayed_time": "15.69", "trialTime": 16984, "trial_type": "mouselab-mdp", "trial_index": 22, "time_elapsed": 822750, "internal_node_id": "0.0-2.3-2.3-1.3"}}, {"uniqueid": "w54708705:a88924728", "current_trial": 23, "dateTime": 1693481820995, "trialdata": {"view_history": [{"page_index": 0, "viewing_time": 3646}, {"page_index": 1, "viewing_time": 1873}], "rt": 5519, "trial_id": "mouselab_instructions_2_misaligned", "trial_type": "instructions", "trial_index": 23, "time_elapsed": 828269, "internal_node_id": "0.0-2.3-3.3"}}, {"uniqueid": "w54708705:a88924728", "current_trial": 24, "dateTime": 1693481867610, "trialdata": {"rt": 46613, "response": {"Q0": "The cost for clicking on nodes may vary between nodes.", "Q1": "The better I perform the higher my bonus will be.", "Q2": "No, the amount of cash at each node of the web may be different each time.", "Q3": "To get the highest total score.", "Q4": "Only before moving the spider.", "Q5": "3 seconds"}, "question_order": [0, 1, 2, 3, 4, 5], "correct": {"Q0": "The cost for clicking on nodes may vary between nodes.", "Q1": "The better I perform the higher my bonus will be.", "Q2": "No, the amount of cash at each node of the web may be different each time.", "Q3": "To get the highest total score.", "Q4": "Only before moving the spider.", "Q5": "3 seconds"}, "trial_id": "mouselab_quiz_misaligned", "trial_type": "survey-multi-choice", "trial_index": 24, "time_elapsed": 874884, "internal_node_id": "0.0-2.3-4.3"}}, {"uniqueid": "w54708705:a88924728", "current_trial": 25, "dateTime": 1693481876682, "trialdata": {"rt": 9068, "response": {"Q0": "No"}, "question_order": [0], "trial_id": "repeat_check", "trial_type": "survey-multi-choice", "trial_index": 25, "time_elapsed": 883955, "internal_node_id": "0.0-4.0-0.0"}}, {"uniqueid": "w54708705:a88924728", "current_trial": 26, "dateTime": 1693481883636, "trialdata": {"rt": 6949, "stimulus": "\n<h1> Get ready to start the game! </h1>\n\nThank you for reading the instructions. Get ready start with the 40 rounds of this game.\n<br><br>\nIf you need to take a break, feel free to take one after the end of a round, before continuing to the next one.\n<br><br>\nRemember, the more money the spider gets, the bigger your bonus will be!\n<br><br>\n<div style='text-align: center;'>Press <code>space</code> to begin.</div>\n\n<br><br>\n(If, at any point, the <code>space</code> key does not take you to the next page, click once on the text and try again.)", "response": " ", "trial_id": "mdp_ready", "trial_type": "html-keyboard-response", "trial_index": 26, "time_elapsed": 890909, "internal_node_id": "0.0-6.0-0.0"}}, {"uniqueid": "w54708705:a88924728", "current_trial": 27, "dateTime": 1693481914445, "trialdata": {"revealed_states": [], "clicked_states": ["12", "13", "14", "19", "1", "2", "7", "4", "5"], "num_clicks_accrued": [0, 0, 0, 0, 0, 0, 0, 0, 0, 0, 0, 0, 0], "stateRewards": ["", 2, 3, 8, 11, 25, -80, 6, -4, -56, 84, -23, -2, -4, -3, 4, -51, -9, -61, -15, -64, 67, -35, 1, -1, -7, -6, 83, 59, -15, 12, -79, 56, 41], "withholdReward": false, "trial_id": "mdp_trial_1", "block": "test", "trialIndex": 8, "score": 40.45, "costs": -8.549999999999999, "simulationMode": [null, null, null, null, null], "rewards": [2, 3, 8, 11, 25], "path": ["0", "0", "1", "2", "3", "4", "5"], "rt": [17123, 325, 5926, 677, 238], "actions": ["up", "up", "up", "right", "up"], "actionTimes": [19296, 20143, 26558, 27726, 28455], "queries": {"click": {"state": {"target": ["12", "13", "14", "19", "1", "2", "7", "4", "5"], "time": [3426, 4333, 5256, 6116, 7717, 8469, 9588, 13713, 14803]}, "edge": {"target": [], "time": []}}, "mouseover": {"state": {"target": ["12", "13", "12", "13", "14", "19", "15", "18", "1", "1", "1", "1", "2", "7", "4", "4", "3", "10", "8", "10", "3", "4", "5", "6", "18"], "time": [2701, 2766, 3130, 4083, 4667, 5599, 6498, 6599, 6649, 6882, 7099, 7401, 8066, 9316, 10132, 10483, 10748, 11033, 11965, 12516, 13334, 13417, 14216, 18215, 18313]}, "edge": {"target": [], "time": []}}, "mouseout": {"state": {"target": ["7", "12", "0", "12", "13", "12", "13", "13", "14", "19", "14", "15", "18", "1", "1", "1", "1", "2", "7", "4", "4", "3", "10", "8", "10", "3", "4", "5", "6", "18", "2", "10", "11", "3", "7", "18", "20"], "time": [1266, 1516, 1880, 2732, 2951, 3834, 4421, 4650, 5565, 6398, 6448, 6565, 6615, 6665, 6916, 7149, 7949, 9116, 9687, 10215, 10515, 10765, 11632, 12382, 13234, 13368, 14133, 17680, 18232, 23866, 24084, 24099, 24267, 25730, 25765, 25799, 25901]}, "edge": {"target": [], "time": []}}}, "displayed_time": "28.95", "trialTime": 30695, "trial_type": "mouselab-mdp", "trial_index": 27, "time_elapsed": 921718, "internal_node_id": "0.0-6.0-1.0-0.0"}}, {"uniqueid": "w54708705:a88924728", "current_trial": 28, "dateTime": 1693481935908, "trialdata": {"revealed_states": [], "clicked_states": ["1", "2", "3", "8", "9", "11"], "num_clicks_accrued": [0, 0, 0, 0, 0, 0, 0, 0, 0, 0, 0, 0, 0], "stateRewards": ["", 1, -3, 4, 13, -72, 52, 5, 5, -58, 5, 14, 2, 1, 3, -14, -86, -4, 73, 6, -58, -50, 49, 2, -3, -4, 2, 33, -41, 42, -11, 81, 45, 53], "withholdReward": false, "trial_id": "mdp_trial_2", "block": "test", "trialIndex": 9, "score": 14.1, "costs": -6.9, "simulationMode": [null, null, null, null, null], "rewards": [1, -3, 4, 5, 14], "path": ["0", "0", "1", "2", "3", "8", "11"], "rt": [14176, 566, 184, 132, 218], "actions": ["up", "up", "up", "left", "left"], "actionTimes": [16311, 17387, 18108, 18756, 19492], "queries": {"click": {"state": {"target": ["1", "2", "3", "8", "9", "11"], "time": [2890, 3513, 5408, 6392, 7537, 11626]}, "edge": {"target": [], "time": []}}, "mouseover": {"state": {"target": ["1", "2", "7", "3", "8", "9", "8", "11", "14"], "time": [2623, 3204, 4055, 5106, 6021, 7271, 11157, 11390, 15023]}, "edge": {"target": [], "time": []}}, "mouseout": {"state": {"target": ["19", "12", "1", "2", "7", "2", "3", "3", "8", "8", "9", "8", "11", "14"], "time": [1155, 1605, 3155, 3642, 4740, 4856, 5516, 5854, 6921, 7188, 8188, 11172, 14919, 15037]}, "edge": {"target": [], "time": []}}}, "displayed_time": "20.01", "trialTime": 21348, "trial_type": "mouselab-mdp", "trial_index": 28, "time_elapsed": 943181, "internal_node_id": "0.0-6.0-1.0-1.0"}}, {"uniqueid": "w54708705:a88924728", "current_trial": 29, "dateTime": 1693481959628, "trialdata": {"revealed_states": [], "clicked_states": ["12", "13", "23", "24", "25", "30", "31", "32"], "num_clicks_accrued": [0, 0, 0, 0, 0, 0, 0, 0, 0, 0, 0, 0, 0], "stateRewards": ["", 2, -4, -8, -15, 71, -43, -41, 7, -17, 20, 67, -1, -1, -4, 6, 37, -24, -47, 9, 34, 57, 45, 1, 2, -4, -5, -23, 88, -5, 13, -40, 43, 44], "withholdReward": false, "trial_id": "mdp_trial_3", "block": "test", "trialIndex": 10, "score": 48, "costs": -7, "simulationMode": [null, null, null, null, null], "rewards": [1, 2, -4, 13, 43], "path": ["0", "0", "23", "24", "25", "30", "32"], "rt": [17120, 499, 193, 199, 248], "actions": ["left", "left", "left", "down", "down"], "actionTimes": [18971, 19964, 20674, 21364, 22114], "queries": {"click": {"state": {"target": ["12", "13", "23", "24", "25", "30", "31", "32"], "time": [3213, 4439, 5974, 7006, 7833, 9714, 10958, 14372]}, "edge": {"target": [], "time": []}}, "mouseover": {"state": {"target": ["12", "1", "12", "13", "13", "14", "23", "23", "24", "25", "30", "31", "32", "32", "30", "33"], "time": [2278, 2515, 2928, 3513, 3697, 5080, 5497, 5732, 6314, 7462, 9432, 10799, 12063, 13680, 15164, 15997]}, "edge": {"target": [], "time": []}}, "mouseout": {"state": {"target": ["19", "0", "12", "1", "12", "13", "13", "14", "13", "12", "23", "23", "24", "25", "30", "31", "32", "32", "30"], "time": [964, 1694, 2311, 2867, 3481, 3547, 5030, 5431, 5464, 5480, 5513, 6263, 7447, 8564, 10197, 11280, 13046, 15130, 15196]}, "edge": {"target": [], "time": []}}}, "displayed_time": "22.62", "trialTime": 23610, "trial_type": "mouselab-mdp", "trial_index": 29, "time_elapsed": 966901, "internal_node_id": "0.0-6.0-1.0-2.0"}}, {"uniqueid": "w54708705:a88924728", "current_trial": 30, "dateTime": 1693481980884, "trialdata": {"revealed_states": [], "clicked_states": ["12", "13", "1", "2", "3", "4", "5"], "num_clicks_accrued": [0, 0, 0, 0, 0, 0, 0, 0, 0, 0, 0, 0, 0], "stateRewards": ["", 1, 2, -8, 9, 18, -83, -11, 6, -64, -48, 17, -2, -2, -5, -3, -24, -3, -86, -2, 48, -41, -22, -2, 4, 7, 8, 81, 13, -48, 10, 61, 19, 57], "withholdReward": false, "trial_id": "mdp_trial_4", "block": "test", "trialIndex": 11, "score": 17.15, "costs": -4.85, "simulationMode": [null, null, null, null, null], "rewards": [1, 2, -8, 9, 18], "path": ["0", "0", "1", "2", "3", "4", "5"], "rt": [13311, 262, 118, 183, 250], "actions": ["up", "up", "up", "right", "up"], "actionTimes": [15894, 16677, 17300, 17980, 18748], "queries": {"click": {"state": {"target": ["12", "13", "1", "2", "3", "4", "5"], "time": [3957, 6099, 7431, 8591, 9536, 10925, 11936]}, "edge": {"target": [], "time": []}}, "mouseover": {"state": {"target": ["0", "12", "13", "1", "13", "13", "14", "14", "1", "2", "3", "4", "5", "6"], "time": [3514, 3797, 4911, 5364, 5581, 5914, 6345, 6462, 7214, 8329, 9096, 10428, 11630, 13162]}, "edge": {"target": [], "time": []}}, "mouseout": {"state": {"target": ["33", "21", "22", "12", "0", "12", "12", "12", "13", "12", "1", "13", "13", "14", "14", "1", "2", "3", "4", "5"], "time": [1697, 1879, 1946, 2213, 3564, 4428, 4744, 4878, 5081, 5130, 5530, 5614, 6329, 6380, 6596, 8128, 8701, 10078, 11329, 12396]}, "edge": {"target": [], "time": []}}}, "displayed_time": "19.25", "trialTime": 21148, "trial_type": "mouselab-mdp", "trial_index": 30, "time_elapsed": 988157, "internal_node_id": "0.0-6.0-1.0-3.0"}}, {"uniqueid": "w54708705:a88924728", "current_trial": 31, "dateTime": 1693482006987, "trialdata": {"revealed_states": [], "clicked_states": ["1", "2", "23", "24", "25", "30", "32", "26", "27"], "num_clicks_accrued": [0, 0, 0, 0, 0, 0, 0, 0, 0, 0, 0, 0, 0], "stateRewards": ["", -1, -3, -5, -14, -13, -47, 79, 8, -60, -64, 41, -1, 2, 3, 13, -46, 61, -79, -11, -64, -65, 23, 1, -2, 6, -14, 46, 32, 21, 7, 75, -66, 15], "withholdReward": false, "trial_id": "mdp_trial_5", "block": "test", "trialIndex": 12, "score": 28.450000000000003, "costs": -8.549999999999999, "simulationMode": [null, null, null, null, null], "rewards": [1, -2, 6, -14, 46], "path": ["0", "0", "23", "24", "25", "26", "27"], "rt": [19041, 403, 216, 181, 160], "actions": ["left", "left", "left", "up", "up"], "actionTimes": [21088, 22014, 22726, 23408, 24086], "queries": {"click": {"state": {"target": ["1", "2", "23", "24", "25", "30", "32", "26", "27"], "time": [3213, 4332, 6301, 7292, 8532, 9788, 10764, 15375, 16792]}, "edge": {"target": [], "time": []}}, "mouseover": {"state": {"target": ["1", "2", "3", "23", "24", "25", "25", "30", "32", "27", "26", "27", "1", "13"], "time": [2677, 4060, 5477, 6111, 7010, 7993, 8259, 9309, 10142, 14827, 15143, 16026, 18442, 18575]}, "edge": {"target": [], "time": []}}, "mouseout": {"state": {"target": ["6", "7", "1", "24", "1", "12", "0", "1", "2", "3", "2", "1", "23", "24", "25", "25", "30", "32", "27", "26", "27", "1"], "time": [1093, 1127, 1160, 1360, 1543, 1660, 2611, 3709, 4826, 5667, 5761, 5795, 6826, 7976, 8025, 9160, 10093, 11393, 14843, 15675, 18175, 18459]}, "edge": {"target": [], "time": []}}}, "displayed_time": "24.59", "trialTime": 25998, "trial_type": "mouselab-mdp", "trial_index": 31, "time_elapsed": 1014260, "internal_node_id": "0.0-6.0-1.0-4.0"}}, {"uniqueid": "w54708705:a88924728", "current_trial": 32, "dateTime": 1693482025059, "trialdata": {"revealed_states": [], "clicked_states": ["12", "13", "14", "19", "21"], "num_clicks_accrued": [0, 0, 0, 0, 0, 0, 0, 0, 0, 0, 0, 0, 0], "stateRewards": ["", 1, -1, 4, -2, -75, -75, 84, -9, -60, -79, 59, 2, -4, 8, 9, -17, -82, 80, 14, -4, 49, 49, -1, 3, 6, -11, -33, 34, 55, 9, -57, 5, 59], "withholdReward": false, "trial_id": "mdp_trial_6", "block": "test", "trialIndex": 13, "score": 64.25, "costs": -4.75, "simulationMode": [null, null, null, null, null], "rewards": [2, -4, 8, 14, 49], "path": ["0", "0", "12", "13", "14", "19", "21"], "rt": [7119, 235, 141, 188, 298], "actions": ["right", "right", "right", "down", "down"], "actionTimes": [9428, 10154, 10810, 11490, 12284], "queries": {"click": {"state": {"target": ["12", "13", "14", "19", "21"], "time": [3216, 4030, 4705, 5390, 6158]}, "edge": {"target": [], "time": []}}, "mouseover": {"state": {"target": ["12", "13", "14", "19", "21"], "time": [2785, 3617, 4401, 5000, 5684]}, "edge": {"target": [], "time": []}}, "mouseout": {"state": {"target": ["13", "12", "0", "0", "12", "13", "14", "19", "21"], "time": [1049, 1248, 1501, 2018, 3583, 4367, 4967, 5651, 6500]}, "edge": {"target": [], "time": []}}}, "displayed_time": "16.31", "trialTime": 17962, "trial_type": "mouselab-mdp", "trial_index": 32, "time_elapsed": 1032332, "internal_node_id": "0.0-6.0-1.0-5.0"}}, {"uniqueid": "w54708705:a88924728", "current_trial": 33, "dateTime": 1693482043699, "trialdata": {"revealed_states": [], "clicked_states": ["12", "13", "14", "19", "21"], "num_clicks_accrued": [0, 0, 0, 0, 0, 0, 0, 0, 0, 0, 0, 0, 0], "stateRewards": ["", -1, -1, 4, -16, -75, 81, -51, -7, -84, 73, -30, -2, 1, -3, -16, -77, 33, 14, 1, 45, 87, -66, 2, 2, -5, -7, -19, -17, 79, -3, 8, 49, 47], "withholdReward": false, "trial_id": "mdp_trial_7", "block": "test", "trialIndex": 14, "score": 79.25, "costs": -4.75, "simulationMode": [null, null, null, null, null], "rewards": [-2, 1, -3, 1, 87], "path": ["0", "0", "12", "13", "14", "19", "21"], "rt": [8308, 217, 156, 235, 276], "actions": ["right", "right", "right", "down", "down"], "actionTimes": [10985, 11702, 12374, 13102, 13878], "queries": {"click": {"state": {"target": ["12", "13", "14", "19", "21"], "time": [3557, 4284, 5388, 6154, 6837]}, "edge": {"target": [], "time": []}}, "mouseover": {"state": {"target": ["12", "13", "14", "19", "21"], "time": [3385, 4000, 5250, 5733, 6500]}, "edge": {"target": [], "time": []}}, "mouseout": {"state": {"target": ["19", "0", "12", "12", "13", "14", "19", "21", "21"], "time": [1767, 3122, 3584, 3966, 4967, 5700, 6467, 6943, 7150]}, "edge": {"target": [], "time": []}}}, "displayed_time": "16.68", "trialTime": 18518, "trial_type": "mouselab-mdp", "trial_index": 33, "time_elapsed": 1050972, "internal_node_id": "0.0-6.0-1.0-6.0"}}, {"uniqueid": "w54708705:a88924728", "current_trial": 34, "dateTime": 1693482096514, "trialdata": {"revealed_states": [], "clicked_states": ["12", "13", "14", "15", "16", "17", "18", "19", "21", "20", "22", "23", "24", "25", "26", "27", "29", "28"], "num_clicks_accrued": [0, 0, 0, 0, 0, 0, 0, 0, 0, 0, 0, 0, 0], "stateRewards": ["", -2, -4, -8, 8, 63, -50, -19, -7, -17, -31, 31, 1, 3, -5, 12, -35, -63, -29, -4, -17, -75, -79, -2, -3, -2, 8, -3, -85, 10, -2, -82, -82, 56], "withholdReward": false, "trial_id": "mdp_trial_8", "block": "test", "trialIndex": 15, "score": -15.099999999999994, "costs": -26.099999999999998, "simulationMode": [null, null, null, null, null], "rewards": [-2, -3, -2, 8, 10], "path": ["0", "0", "23", "24", "25", "26", "29"], "rt": [45149, 449, 165, 247, 96], "actions": ["left", "left", "left", "up", "left"], "actionTimes": [47726, 48676, 49358, 50124, 50740], "queries": {"click": {"state": {"target": ["12", "13", "14", "15", "16", "17", "18", "19", "21", "20", "22", "23", "24", "25", "26", "27", "29", "28"], "time": [3665, 4441, 5336, 6211, 7073, 11750, 15223, 18938, 20659, 23992, 27201, 30450, 31602, 33879, 35689, 37023, 40259, 43904]}, "edge": {"target": [], "time": []}}, "mouseover": {"state": {"target": ["0", "12", "13", "14", "15", "16", "20", "17", "17", "18", "19", "21", "20", "19", "22", "0", "23", "24", "25", "30", "26", "27", "29", "26", "28"], "time": [3177, 3424, 4375, 4909, 5925, 6576, 8542, 11361, 11510, 14542, 16174, 19390, 21341, 24524, 24891, 28174, 28425, 31191, 33323, 34574, 35426, 36407, 39943, 40741, 40974]}, "edge": {"target": [], "time": []}}, "mouseout": {"state": {"target": ["30", "31", "0", "0", "0", "12", "12", "13", "13", "14", "14", "14", "15", "16", "14", "20", "17", "17", "18", "19", "21", "20", "19", "22", "0", "23", "23", "24", "25", "30", "25", "26", "27", "26", "29", "26", "28"], "time": [1509, 1542, 1895, 2977, 3191, 3761, 4058, 4574, 4808, 5428, 5658, 5875, 6525, 7375, 8242, 8574, 11376, 12308, 15891, 19290, 20789, 24441, 24624, 28090, 28390, 30562, 30908, 32809, 34458, 35192, 35260, 36324, 37624, 37841, 40707, 40958, 44390]}, "edge": {"target": [], "time": []}}}, "displayed_time": "51.26", "trialTime": 52692, "trial_type": "mouselab-mdp", "trial_index": 34, "time_elapsed": 1103787, "internal_node_id": "0.0-6.0-1.0-7.0"}}, {"uniqueid": "w54708705:a88924728", "current_trial": 35, "dateTime": 1693482121602, "trialdata": {"revealed_states": [], "clicked_states": ["1", "2", "3", "4", "5", "8", "9"], "num_clicks_accrued": [0, 0, 0, 0, 0, 0, 0, 0, 0, 0, 0, 0, 0], "stateRewards": ["", -1, -2, -1, -10, -57, 73, -72, -16, 75, -14, -46, -2, -3, -7, -1, -61, -60, 76, -4, 50, 4, 14, 2, 2, -7, 12, -65, -32, 15, -8, -76, -25, -61], "withholdReward": false, "trial_id": "mdp_trial_9", "block": "test", "trialIndex": 16, "score": 46.55, "costs": -8.45, "simulationMode": [null, null, null, null, null], "rewards": [-1, -2, -1, -16, 75], "path": ["0", "0", "1", "2", "3", "8", "9"], "rt": [19079, 402, 46, 192, 173], "actions": ["up", "up", "up", "left", "up"], "actionTimes": [20723, 21617, 22163, 22858, 23521], "queries": {"click": {"state": {"target": ["1", "2", "3", "4", "5", "8", "9"], "time": [3568, 4584, 6232, 8302, 10071, 13316, 15979]}, "edge": {"target": [], "time": []}}, "mouseover": {"state": {"target": ["0", "0", "1", "1", "2", "2", "3", "4", "5", "8", "8", "9", "11", "10"], "time": [2031, 2266, 3016, 3367, 3848, 4081, 5949, 7181, 9263, 11197, 11597, 13848, 18563, 19881]}, "edge": {"target": [], "time": []}}, "mouseout": {"state": {"target": ["0", "0", "0", "1", "1", "2", "2", "3", "4", "5", "8", "8", "9", "11"], "time": [1448, 2083, 2499, 3115, 3798, 3897, 4738, 6848, 9164, 10997, 11281, 13680, 17564, 19848]}, "edge": {"target": [], "time": []}}}, "displayed_time": "24.02", "trialTime": 24969, "trial_type": "mouselab-mdp", "trial_index": 35, "time_elapsed": 1128875, "internal_node_id": "0.0-6.0-1.0-8.0"}}, {"uniqueid": "w54708705:a88924728", "current_trial": 36, "dateTime": 1693482138818, "trialdata": {"revealed_states": [], "clicked_states": ["12", "13", "14", "19", "20"], "num_clicks_accrued": [0, 0, 0, 0, 0, 0, 0, 0, 0, 0, 0, 0, 0], "stateRewards": ["", 1, -4, -6, 11, -20, 8, -30, 1, -38, 88, 42, 2, 3, 5, -12, -8, -74, 30, -8, 67, -19, 42, 2, -1, 4, 13, 50, -68, 2, -8, -15, 87, -46], "withholdReward": false, "trial_id": "mdp_trial_10", "block": "test", "trialIndex": 17, "score": 64.25, "costs": -4.75, "simulationMode": [null, null, null, null, null], "rewards": [2, 3, 5, -8, 67], "path": ["0", "0", "12", "13", "14", "19", "20"], "rt": [8264, 735, 155, 155, 273], "actions": ["right", "right", "right", "down", "right"], "actionTimes": [9925, 11162, 11818, 12482, 13250], "queries": {"click": {"state": {"target": ["12", "13", "14", "19", "20"], "time": [2561, 3238, 3815, 4464, 5640]}, "edge": {"target": [], "time": []}}, "mouseover": {"state": {"target": ["12", "12", "13", "14", "19", "20", "22"], "time": [1961, 2145, 2880, 3560, 4194, 5460, 6194]}, "edge": {"target": [], "time": []}}, "mouseout": {"state": {"target": ["10", "12", "12", "13", "14", "19", "20"], "time": [908, 1994, 2860, 3527, 4093, 4743, 5861]}, "edge": {"target": [], "time": []}}}, "displayed_time": "15.66", "trialTime": 17098, "trial_type": "mouselab-mdp", "trial_index": 36, "time_elapsed": 1146091, "internal_node_id": "0.0-6.0-1.0-9.0"}}, {"uniqueid": "w54708705:a88924728", "current_trial": 37, "dateTime": 1693482175363, "trialdata": {"revealed_states": [], "clicked_states": ["1", "2", "3", "4", "5", "6", "7", "8", "10", "9", "11"], "num_clicks_accrued": [0, 0, 0, 0, 0, 0, 0, 0, 0, 0, 0, 0, 0], "stateRewards": ["", -1, -3, -3, 1, -38, 2, -53, -2, -1, -81, 70, -1, 1, -5, -9, 46, 15, 35, -1, -22, 38, 59, -2, 4, -8, 13, 1, -83, -43, 4, 76, 13, 48], "withholdReward": false, "trial_id": "mdp_trial_11", "block": "test", "trialIndex": 18, "score": 43.95, "costs": -17.05, "simulationMode": [null, null, null, null, null], "rewards": [-1, -3, -3, -2, 70], "path": ["0", "0", "1", "2", "3", "8", "11"], "rt": [28885, 150, 69, 143, 140], "actions": ["up", "up", "up", "left", "left"], "actionTimes": [32081, 32735, 33303, 33943, 34575], "queries": {"click": {"state": {"target": ["1", "2", "3", "4", "5", "6", "7", "8", "10", "9", "11"], "time": [4004, 4716, 6286, 7664, 8950, 12496, 15726, 18982, 21808, 25102, 28005]}, "edge": {"target": [], "time": []}}, "mouseover": {"state": {"target": ["1", "2", "7", "8", "8", "3", "4", "5", "7", "7", "4", "6", "4", "7", "7", "8", "11", "11", "8", "10", "9", "11", "28", "23"], "time": [3815, 4265, 5582, 5833, 5934, 5983, 7368, 8767, 9965, 10816, 11065, 12218, 12983, 13132, 13899, 16882, 16900, 17050, 17499, 19533, 22516, 25899, 28949, 29099]}, "edge": {"target": [], "time": []}}, "mouseout": {"state": {"target": ["22", "12", "27", "25", "13", "23", "1", "2", "7", "8", "8", "3", "3", "4", "5", "4", "7", "7", "4", "6", "4", "7", "7", "8", "11", "11", "8", "10", "9", "11", "28"], "time": [1339, 1363, 1467, 1549, 1733, 2233, 4232, 4825, 5801, 5849, 5951, 6386, 6833, 8532, 9616, 9933, 10065, 10916, 11082, 12915, 13033, 13466, 15824, 16899, 16932, 17149, 19416, 22416, 25532, 28783, 28966]}, "edge": {"target": [], "time": []}}}, "displayed_time": "35.06", "trialTime": 36432, "trial_type": "mouselab-mdp", "trial_index": 37, "time_elapsed": 1182636, "internal_node_id": "0.0-6.0-1.0-10.0"}}, {"uniqueid": "w54708705:a88924728", "current_trial": 38, "dateTime": 1693482194265, "trialdata": {"revealed_states": [], "clicked_states": ["12", "13", "14", "15", "16", "17"], "num_clicks_accrued": [0, 0, 0, 0, 0, 0, 0, 0, 0, 0, 0, 0, 0], "stateRewards": ["", 2, 3, -6, -5, -3, 55, 40, 11, 61, 11, 51, 2, -4, -6, 9, -25, 29, -15, -6, 7, -77, -2, -2, -4, 1, 14, -43, -1, 56, -12, -54, 41, -74], "withholdReward": false, "trial_id": "mdp_trial_12", "block": "test", "trialIndex": 19, "score": 23.1, "costs": -6.9, "simulationMode": [null, null, null, null, null], "rewards": [2, -4, -6, 9, 29], "path": ["0", "0", "12", "13", "14", "15", "17"], "rt": [12287, 452, 175, 169, 110], "actions": ["right", "right", "right", "up", "right"], "actionTimes": [14217, 15174, 15862, 16542, 17150], "queries": {"click": {"state": {"target": ["12", "13", "14", "15", "16", "17"], "time": [2820, 3508, 4298, 4978, 5762, 9724]}, "edge": {"target": [], "time": []}}, "mouseover": {"state": {"target": ["12", "13", "14", "15", "16", "19", "21", "17", "15", "18", "18"], "time": [2589, 3202, 4070, 4570, 5570, 6487, 6553, 9523, 12054, 12071, 12539]}, "edge": {"target": [], "time": []}}, "mouseout": {"state": {"target": ["23", "0", "12", "13", "14", "15", "16", "15", "14", "19", "21", "17", "15", "18"], "time": [1054, 1788, 3171, 3920, 4354, 5337, 6303, 6404, 6454, 6520, 8939, 12038, 12070, 12087]}, "edge": {"target": [], "time": []}}}, "displayed_time": "17.66", "trialTime": 18790, "trial_type": "mouselab-mdp", "trial_index": 38, "time_elapsed": 1201539, "internal_node_id": "0.0-6.0-1.0-11.0"}}, {"uniqueid": "w54708705:a88924728", "current_trial": 39, "dateTime": 1693482212874, "trialdata": {"revealed_states": [], "clicked_states": ["23", "24", "25", "30", "32"], "num_clicks_accrued": [0, 0, 0, 0, 0, 0, 0, 0, 0, 0, 0, 0, 0], "stateRewards": ["", 1, 2, -5, 14, 54, -14, -25, 16, -5, -87, 78, -1, 1, 3, -3, 52, 53, 53, -10, 73, -69, -48, 2, 3, 1, 8, -62, -7, 85, 7, 82, 52, -28], "withholdReward": false, "trial_id": "mdp_trial_13", "block": "test", "trialIndex": 20, "score": 60.25, "costs": -4.75, "simulationMode": [null, null, null, null, null], "rewards": [2, 3, 1, 7, 52], "path": ["0", "0", "23", "24", "25", "30", "32"], "rt": [10263, 427, 86, 177, 332], "actions": ["left", "left", "left", "down", "down"], "actionTimes": [13331, 14250, 14842, 15515, 16338], "queries": {"click": {"state": {"target": ["23", "24", "25", "30", "32"], "time": [5437, 6803, 7549, 8311, 9479]}, "edge": {"target": [], "time": []}}, "mouseover": {"state": {"target": ["12", "12", "1", "1", "23", "24", "25", "24", "25", "30", "32", "31"], "time": [3572, 3906, 4088, 4390, 5260, 5772, 5805, 6694, 7154, 7955, 9137, 10221]}, "edge": {"target": [], "time": []}}, "mouseout": {"state": {"target": ["18", "13", "22", "12", "0", "12", "12", "1", "1", "23", "24", "25", "24", "25", "30", "30", "32"], "time": [2305, 2338, 2388, 2789, 3536, 3606, 4006, 4139, 4790, 5530, 5789, 5971, 7121, 7922, 8687, 9021, 10004]}, "edge": {"target": [], "time": []}}}, "displayed_time": "17.07", "trialTime": 18482, "trial_type": "mouselab-mdp", "trial_index": 39, "time_elapsed": 1220147, "internal_node_id": "0.0-6.0-1.0-12.0"}}, {"uniqueid": "w54708705:a88924728", "current_trial": 40, "dateTime": 1693482233890, "trialdata": {"revealed_states": [], "clicked_states": ["1", "2", "3", "8", "9", "11"], "num_clicks_accrued": [0, 0, 0, 0, 0, 0, 0, 0, 0, 0, 0, 0, 0], "stateRewards": ["", -1, 3, -5, -2, -13, -9, -34, -7, -81, 32, 35, -2, -2, 1, -14, -32, 81, 7, 4, 82, 56, -8, -1, 3, -8, 6, -24, -24, -53, 2, 38, 61, 54], "withholdReward": false, "trial_id": "mdp_trial_14", "block": "test", "trialIndex": 21, "score": 18.1, "costs": -6.9, "simulationMode": [null, null, null, null, null], "rewards": [-1, 3, -5, -7, 35], "path": ["0", "0", "1", "2", "3", "8", "11"], "rt": [13820, 443, 40, 97, 168], "actions": ["up", "up", "up", "left", "left"], "actionTimes": [16514, 17448, 17977, 18585, 19256], "queries": {"click": {"state": {"target": ["1", "2", "3", "8", "9", "11"], "time": [4945, 5644, 6540, 7853, 8715, 12429]}, "edge": {"target": [], "time": []}}, "mouseover": {"state": {"target": ["24", "23", "12", "13", "12", "1", "1", "2", "3", "8", "9", "11", "8", "3", "7"], "time": [3588, 3786, 4071, 4102, 4218, 4484, 4719, 5203, 6319, 7419, 8352, 12054, 13669, 13869, 15804]}, "edge": {"target": [], "time": []}}, "mouseout": {"state": {"target": ["31", "26", "27", "27", "23", "0", "24", "23", "12", "13", "12", "1", "1", "2", "3", "8", "9", "9", "11", "8", "3", "7"], "time": [1951, 2020, 2070, 2187, 2253, 3205, 3754, 4021, 4086, 4205, 4236, 4520, 5119, 6119, 7402, 8286, 8808, 11971, 13469, 13736, 15755, 15854]}, "edge": {"target": [], "time": []}}}, "displayed_time": "19.77", "trialTime": 20896, "trial_type": "mouselab-mdp", "trial_index": 40, "time_elapsed": 1241163, "internal_node_id": "0.0-6.0-1.0-13.0"}}, {"uniqueid": "w54708705:a88924728", "current_trial": 41, "dateTime": 1693482254881, "trialdata": {"revealed_states": [], "clicked_states": ["12", "13", "14", "15", "16", "17"], "num_clicks_accrued": [0, 0, 0, 0, 0, 0, 0, 0, 0, 0, 0, 0, 0], "stateRewards": ["", 2, 3, -1, 6, 44, -4, -59, -14, -3, 64, 16, 1, -3, 3, 6, 3, 49, 19, 3, -49, -14, -86, 1, 2, -3, -8, -33, 14, 32, -13, -77, -47, -67], "withholdReward": false, "trial_id": "mdp_trial_15", "block": "test", "trialIndex": 22, "score": 49.1, "costs": -6.9, "simulationMode": [null, null, null, null, null], "rewards": [1, -3, 3, 6, 49], "path": ["0", "0", "12", "13", "14", "15", "17"], "rt": [13267, 202, 166, 244, 358], "actions": ["right", "right", "right", "up", "right"], "actionTimes": [16112, 16815, 17495, 18239, 19103], "queries": {"click": {"state": {"target": ["12", "13", "14", "15", "16", "17"], "time": [4340, 5056, 5767, 6366, 6932, 11957]}, "edge": {"target": [], "time": []}}, "mouseover": {"state": {"target": ["12", "13", "12", "0", "12", "13", "13", "14", "15", "16", "15", "17", "15", "18"], "time": [3329, 3376, 3627, 3678, 4112, 4643, 4910, 5377, 6044, 6677, 11579, 11697, 13594, 13894]}, "edge": {"target": [], "time": []}}, "mouseout": {"state": {"target": ["0", "0", "12", "13", "12", "0", "12", "13", "13", "14", "15", "16", "16", "15", "17", "15"], "time": [2326, 3298, 3360, 3612, 3644, 3745, 4611, 4677, 5327, 5993, 6465, 7023, 7494, 11643, 13577, 13626]}, "edge": {"target": [], "time": []}}}, "displayed_time": "19.59", "trialTime": 20863, "trial_type": "mouselab-mdp", "trial_index": 41, "time_elapsed": 1262155, "internal_node_id": "0.0-6.0-1.0-14.0"}}, {"uniqueid": "w54708705:a88924728", "current_trial": 42, "dateTime": 1693482282856, "trialdata": {"revealed_states": [], "clicked_states": ["23", "24", "25", "26", "28", "29", "27", "30", "33"], "num_clicks_accrued": [0, 0, 0, 0, 0, 0, 0, 0, 0, 0, 0, 0, 0], "stateRewards": ["", 1, -1, 4, 5, -32, 18, 20, 6, -88, -74, 9, -2, 1, -2, -14, 34, -77, -38, -1, 80, -36, 73, 2, 3, -8, 10, -48, -73, -71, -11, -22, 20, 54], "withholdReward": false, "trial_id": "mdp_trial_16", "block": "test", "trialIndex": 23, "score": 27.25, "costs": -12.750000000000002, "simulationMode": [null, null, null, null, null], "rewards": [2, 3, -8, -11, 54], "path": ["0", "0", "23", "24", "25", "30", "33"], "rt": [21400, 193, 173, 170, 208], "actions": ["left", "left", "left", "down", "left"], "actionTimes": [23580, 24273, 24937, 25617, 26321], "queries": {"click": {"state": {"target": ["23", "24", "25", "26", "28", "29", "27", "30", "33"], "time": [3961, 4539, 5418, 6599, 7694, 11439, 14636, 18449, 19349]}, "edge": {"target": [], "time": []}}, "mouseover": {"state": {"target": ["12", "1", "23", "23", "24", "25", "26", "28", "33", "29", "27", "26", "30", "30", "33"], "time": [2964, 3240, 3380, 3564, 4245, 5162, 6328, 7546, 10862, 11263, 12262, 17945, 18030, 18280, 19045]}, "edge": {"target": [], "time": []}}, "mouseout": {"state": {"target": ["18", "12", "0", "12", "1", "23", "23", "24", "25", "26", "26", "28", "25", "33", "29", "27", "26", "30", "30", "33"], "time": [1429, 1513, 2630, 2996, 3347, 3414, 4212, 4879, 6278, 6673, 7045, 8195, 8295, 10896, 12096, 17929, 17961, 18080, 18994, 22494]}, "edge": {"target": [], "time": []}}}, "displayed_time": "26.81", "trialTime": 27857, "trial_type": "mouselab-mdp", "trial_index": 42, "time_elapsed": 1290129, "internal_node_id": "0.0-6.0-1.0-15.0"}}, {"uniqueid": "w54708705:a88924728", "current_trial": 43, "dateTime": 1693482302394, "trialdata": {"revealed_states": [], "clicked_states": ["12", "13", "14", "1", "2", "3", "4", "6", "7"], "num_clicks_accrued": [0, 0, 0, 0, 0, 0, 0, 0, 0, 0, 0, 0, 0], "stateRewards": ["", -1, -3, -6, 14, 41, 18, 63, -14, 80, 21, 17, -2, -4, -2, -5, 13, 70, 8, -4, -64, -10, -20, 2, -1, 4, -1, -17, -55, 42, -7, 47, 54, 15], "withholdReward": false, "trial_id": "mdp_trial_17", "block": "test", "trialIndex": 24, "score": 59.05, "costs": -7.949999999999999, "simulationMode": [null, null, null, null, null], "rewards": [-1, -3, -6, 14, 63], "path": ["0", "0", "1", "2", "3", "4", "7"], "rt": [13413, 147, 135, 182, 132], "actions": ["up", "up", "up", "right", "down"], "actionTimes": [15134, 15781, 16437, 17133, 17783], "queries": {"click": {"state": {"target": ["12", "13", "14", "1", "2", "3", "4", "6", "7"], "time": [2531, 3173, 4067, 4824, 5377, 6041, 6793, 7442, 11090]}, "edge": {"target": [], "time": []}}, "mouseover": {"state": {"target": ["12", "13", "14", "14", "1", "1", "2", "3", "4", "6", "7", "4", "5"], "time": [2268, 2967, 3424, 3799, 4334, 4616, 5150, 5866, 6666, 7167, 7932, 11481, 11815]}, "edge": {"target": [], "time": []}}, "mouseout": {"state": {"target": ["0", "12", "12", "13", "14", "14", "1", "1", "2", "3", "4", "6", "7", "4"], "time": [1434, 2622, 2917, 3400, 3466, 4255, 4350, 5049, 5699, 6449, 7133, 7849, 11448, 11519]}, "edge": {"target": [], "time": []}}}, "displayed_time": "18.30", "trialTime": 19414, "trial_type": "mouselab-mdp", "trial_index": 43, "time_elapsed": 1309667, "internal_node_id": "0.0-6.0-1.0-16.0"}}, {"uniqueid": "w54708705:a88924728", "current_trial": 44, "dateTime": 1693482323618, "trialdata": {"revealed_states": [], "clicked_states": ["2", "1", "3", "8", "9", "11", "10"], "num_clicks_accrued": [0, 0, 0, 0, 0, 0, 0, 0, 0, 0, 0, 0, 0], "stateRewards": ["", 2, 4, 4, -8, -36, -33, 38, 16, -51, 57, 57, 1, 3, 4, -6, 45, 68, 87, 1, 63, 24, -55, -2, 2, -6, -13, -63, -50, 8, 2, 80, 6, 60], "withholdReward": false, "trial_id": "mdp_trial_18", "block": "test", "trialIndex": 25, "score": 73.95, "costs": -9.05, "simulationMode": [null, null, null, null, null], "rewards": [2, 4, 4, 16, 57], "path": ["0", "0", "1", "2", "3", "8", "11"], "rt": [15076, 291, 92, 93, 173], "actions": ["up", "up", "up", "left", "left"], "actionTimes": [16589, 17387, 17972, 18572, 19236], "queries": {"click": {"state": {"target": ["2", "1", "3", "8", "9", "11", "10"], "time": [2693, 3590, 4568, 5416, 6163, 9857, 13212]}, "edge": {"target": [], "time": []}}, "mouseover": {"state": {"target": ["1", "2", "2", "1", "3", "8", "9", "11", "10", "0"], "time": [2011, 2080, 2464, 3078, 4295, 5212, 5978, 9647, 11129, 13961]}, "edge": {"target": [], "time": []}}, "mouseout": {"state": {"target": ["5", "4", "0", "1", "2", "2", "1", "3", "8", "9", "11", "10", "0"], "time": [934, 960, 1960, 2046, 2214, 3061, 3862, 5062, 5778, 9497, 10878, 13911, 13978]}, "edge": {"target": [], "time": []}}}, "displayed_time": "19.73", "trialTime": 21101, "trial_type": "mouselab-mdp", "trial_index": 44, "time_elapsed": 1330891, "internal_node_id": "0.0-6.0-1.0-17.0"}}, {"uniqueid": "w54708705:a88924728", "current_trial": 45, "dateTime": 1693482347329, "trialdata": {"revealed_states": [], "clicked_states": ["1", "2", "3", "8", "9", "11", "10"], "num_clicks_accrued": [0, 0, 0, 0, 0, 0, 0, 0, 0, 0, 0, 0, 0], "stateRewards": ["", -2, 1, -7, 9, 8, 25, 61, -7, -17, 69, -81, 1, 4, -4, -11, 16, 67, 44, 3, 6, -45, -54, -2, 3, 6, -11, -15, 32, -47, 3, -39, -6, -88], "withholdReward": false, "trial_id": "mdp_trial_19", "block": "test", "trialIndex": 26, "score": -105.05, "costs": -9.05, "simulationMode": [null, null, null, null, null], "rewards": [-2, 1, -7, -7, -81], "path": ["0", "0", "1", "2", "3", "8", "11"], "rt": [15922, 157, 523, 49, 18], "actions": ["up", "up", "up", "left", "left"], "actionTimes": [17761, 18410, 19426, 19986, 20505], "queries": {"click": {"state": {"target": ["1", "2", "3", "8", "9", "11", "10"], "time": [3154, 3664, 4541, 5294, 6149, 9460, 13607]}, "edge": {"target": [], "time": []}}, "mouseover": {"state": {"target": ["1", "1", "2", "3", "8", "9", "11", "10", "3"], "time": [2504, 2868, 3419, 4269, 5051, 5919, 8285, 13303, 16768]}, "edge": {"target": [], "time": []}}, "mouseout": {"state": {"target": ["1", "1", "2", "3", "8", "9", "11", "10", "3"], "time": [2704, 3336, 4052, 5036, 5669, 7552, 11140, 15986, 16917]}, "edge": {"target": [], "time": []}}}, "displayed_time": "21.02", "trialTime": 23586, "trial_type": "mouselab-mdp", "trial_index": 45, "time_elapsed": 1354602, "internal_node_id": "0.0-6.0-1.0-18.0"}}, {"uniqueid": "w54708705:a88924728", "current_trial": 46, "dateTime": 1693482369318, "trialdata": {"revealed_states": [], "clicked_states": ["12", "13", "14", "15", "16"], "num_clicks_accrued": [0, 0, 0, 0, 0, 0, 0, 0, 0, 0, 0, 0, 0], "stateRewards": ["", 1, 4, 7, -16, -84, -6, -46, -12, -7, -49, -26, -1, 2, -4, 2, 22, 37, -64, 1, 88, -13, -10, 1, -4, -2, 5, 2, -10, -34, 9, 66, 55, 38], "withholdReward": false, "trial_id": "mdp_trial_20", "block": "test", "trialIndex": 27, "score": 16.25, "costs": -4.75, "simulationMode": [null, null, null, null, null], "rewards": [-1, 2, -4, 2, 22], "path": ["0", "0", "12", "13", "14", "15", "16"], "rt": [8277, 300, 145, 145, 49], "actions": ["right", "right", "right", "up", "up"], "actionTimes": [9843, 10643, 11290, 11955, 12499], "queries": {"click": {"state": {"target": ["12", "13", "14", "15", "16"], "time": [2473, 3419, 4258, 4937, 5770]}, "edge": {"target": [], "time": []}}, "mouseover": {"state": {"target": ["12", "12", "13", "13", "14", "15", "16", "17"], "time": [2108, 2176, 3026, 3244, 3930, 4646, 5543, 7226]}, "edge": {"target": [], "time": []}}, "mouseout": {"state": {"target": ["0", "12", "12", "12", "13", "13", "14", "15", "16"], "time": [2075, 2157, 2593, 3014, 3061, 3914, 4598, 5393, 7093]}, "edge": {"target": [], "time": []}}}, "displayed_time": "15.57", "trialTime": 21867, "trial_type": "mouselab-mdp", "trial_index": 46, "time_elapsed": 1376592, "internal_node_id": "0.0-6.0-1.0-19.0"}}, {"uniqueid": "w54708705:a88924728", "current_trial": 47, "dateTime": 1693482394797, "trialdata": {"revealed_states": [], "clicked_states": ["1", "2", "3", "12", "13", "14", "19", "21", "20"], "num_clicks_accrued": [0, 0, 0, 0, 0, 0, 0, 0, 0, 0, 0, 0, 0], "stateRewards": ["", -1, -4, -1, -5, -28, -23, -15, -15, -38, 59, -87, 2, 2, -5, 9, -55, -39, -71, -6, 85, -85, -11, -1, -2, 5, -10, 1, 25, 41, -4, 69, -35, 86], "withholdReward": false, "trial_id": "mdp_trial_21", "block": "test", "trialIndex": 28, "score": 70.05, "costs": -7.949999999999999, "simulationMode": [null, null, null, null, null], "rewards": [2, 2, -5, -6, 85], "path": ["0", "0", "12", "13", "14", "19", "20"], "rt": [18546, 168, 101, 148, 290], "actions": ["right", "right", "right", "down", "right"], "actionTimes": [20897, 21568, 22168, 22833, 23641], "queries": {"click": {"state": {"target": ["1", "2", "3", "12", "13", "14", "19", "21", "20"], "time": [3782, 4990, 6095, 7135, 8286, 9634, 11269, 13373, 16550]}, "edge": {"target": [], "time": []}}, "mouseover": {"state": {"target": ["12", "12", "1", "2", "3", "12", "13", "14", "19", "21", "20", "19", "22"], "time": [2899, 3149, 3516, 4320, 5667, 6784, 7500, 9418, 10184, 11684, 13817, 17017, 17350]}, "edge": {"target": [], "time": []}}, "mouseout": {"state": {"target": ["17", "14", "22", "12", "0", "12", "12", "1", "2", "3", "12", "13", "14", "14", "19", "21", "20", "20", "19"], "time": [1386, 1432, 1466, 1882, 2882, 2932, 3466, 3858, 5451, 6500, 7467, 8984, 9759, 10068, 11683, 13507, 16643, 16985, 17067]}, "edge": {"target": [], "time": []}}}, "displayed_time": "24.15", "trialTime": 25304, "trial_type": "mouselab-mdp", "trial_index": 47, "time_elapsed": 1402071, "internal_node_id": "0.0-6.0-1.0-20.0"}}, {"uniqueid": "w54708705:a88924728", "current_trial": 48, "dateTime": 1693482412233, "trialdata": {"revealed_states": [], "clicked_states": ["12", "13", "14", "15", "16"], "num_clicks_accrued": [0, 0, 0, 0, 0, 0, 0, 0, 0, 0, 0, 0, 0], "stateRewards": ["", 2, -2, 7, -11, -76, -65, -23, 16, -58, 30, 81, 1, 2, 7, 14, 9, 55, -2, 6, 11, -15, 31, -1, -1, -3, 2, 15, 2, 46, 15, 18, 45, -34], "withholdReward": false, "trial_id": "mdp_trial_22", "block": "test", "trialIndex": 29, "score": 28.25, "costs": -4.75, "simulationMode": [null, null, null, null, null], "rewards": [1, 2, 7, 14, 9], "path": ["0", "0", "12", "13", "14", "15", "16"], "rt": [8745, 127, 102, 1727, 102], "actions": ["right", "right", "right", "up", "up"], "actionTimes": [10643, 11270, 11878, 14102, 14694], "queries": {"click": {"state": {"target": ["12", "13", "14", "15", "16"], "time": [3473, 4568, 5200, 5831, 6504]}, "edge": {"target": [], "time": []}}, "mouseover": {"state": {"target": ["12", "13", "14", "15", "16", "17", "15"], "time": [3246, 4240, 4991, 5574, 6324, 8708, 9989]}, "edge": {"target": [], "time": []}}, "mouseout": {"state": {"target": ["22", "0", "12", "13", "14", "15", "16", "15", "17"], "time": [1155, 2372, 3790, 4924, 5523, 6090, 7190, 8407, 9939]}, "edge": {"target": [], "time": []}}}, "displayed_time": "15.90", "trialTime": 17278, "trial_type": "mouselab-mdp", "trial_index": 48, "time_elapsed": 1419506, "internal_node_id": "0.0-6.0-1.0-21.0"}}, {"uniqueid": "w54708705:a88924728", "current_trial": 49, "dateTime": 1693482434179, "trialdata": {"revealed_states": [], "clicked_states": ["12", "13", "14", "15", "17", "18", "16"], "num_clicks_accrued": [0, 0, 0, 0, 0, 0, 0, 0, 0, 0, 0, 0, 0], "stateRewards": ["", 1, 1, -5, 10, -31, 73, 14, -8, -23, 63, -70, -1, 2, 8, 7, 25, -59, 27, -10, -40, -71, -15, -2, 3, -8, -5, -19, 77, -34, 7, 67, 63, 19], "withholdReward": false, "trial_id": "mdp_trial_23", "block": "test", "trialIndex": 30, "score": 33.95, "costs": -9.05, "simulationMode": [null, null, null, null, null], "rewards": [-1, 2, 8, 7, 27], "path": ["0", "0", "12", "13", "14", "15", "18"], "rt": [15099, 167, 56, 162, 48], "actions": ["right", "right", "right", "up", "left"], "actionTimes": [17686, 18367, 18925, 19596, 20166], "queries": {"click": {"state": {"target": ["12", "13", "14", "15", "17", "18", "16"], "time": [3354, 5315, 5849, 6420, 7139, 10435, 13721]}, "edge": {"target": [], "time": []}}, "mouseover": {"state": {"target": ["12", "13", "13", "13", "0", "0", "13", "14", "15", "17", "18", "16"], "time": [3134, 3717, 3950, 4468, 4602, 4851, 5151, 5583, 6183, 6933, 7583, 10999]}, "edge": {"target": [], "time": []}}, "mouseout": {"state": {"target": ["15", "18", "24", "29", "24", "23", "12", "13", "13", "13", "12", "0", "0", "12", "13", "14", "15", "17", "15", "18", "16"], "time": [1317, 1334, 1417, 1634, 1784, 2017, 3701, 3750, 3999, 4501, 4552, 4668, 4930, 5001, 5549, 6133, 6883, 7500, 7566, 10849, 15800]}, "edge": {"target": [], "time": []}}}, "displayed_time": "20.68", "trialTime": 21783, "trial_type": "mouselab-mdp", "trial_index": 49, "time_elapsed": 1441452, "internal_node_id": "0.0-6.0-1.0-22.0"}}, {"uniqueid": "w54708705:a88924728", "current_trial": 50, "dateTime": 1693482451649, "trialdata": {"revealed_states": [], "clicked_states": ["1", "2", "3", "4", "5"], "num_clicks_accrued": [0, 0, 0, 0, 0, 0, 0, 0, 0, 0, 0, 0, 0], "stateRewards": ["", -1, 1, -6, -1, 80, 23, 2, -11, 73, -81, 59, 1, 3, 5, -1, -26, 28, -3, 16, -59, -13, -50, -2, -2, 2, 15, -50, 86, 17, -4, 37, 35, 44], "withholdReward": false, "trial_id": "mdp_trial_24", "block": "test", "trialIndex": 31, "score": 68.25, "costs": -4.75, "simulationMode": [null, null, null, null, null], "rewards": [-1, 1, -6, -1, 80], "path": ["0", "0", "1", "2", "3", "4", "5"], "rt": [8686, 316, 194, 157, 90], "actions": ["up", "up", "up", "right", "up"], "actionTimes": [10646, 11471, 12168, 12829, 13413], "queries": {"click": {"state": {"target": ["1", "2", "3", "4", "5"], "time": [3307, 3816, 5347, 5816, 6410]}, "edge": {"target": [], "time": []}}, "mouseover": {"state": {"target": ["0", "12", "1", "2", "7", "8", "9", "3", "4", "5", "8"], "time": [2506, 2555, 3055, 3588, 4455, 4770, 4838, 5078, 5570, 6187, 6788]}, "edge": {"target": [], "time": []}}, "mouseout": {"state": {"target": ["15", "0", "0", "12", "1", "2", "7", "8", "9", "3", "4", "5"], "time": [1270, 1784, 2521, 2923, 3520, 4304, 4721, 4788, 4923, 5537, 6137, 6704]}, "edge": {"target": [], "time": []}}}, "displayed_time": "15.96", "trialTime": 17341, "trial_type": "mouselab-mdp", "trial_index": 50, "time_elapsed": 1458922, "internal_node_id": "0.0-6.0-1.0-23.0"}}, {"uniqueid": "w54708705:a88924728", "current_trial": 51, "dateTime": 1693482472889, "trialdata": {"revealed_states": [], "clicked_states": ["23", "24", "25", "26", "27", "28", "29"], "num_clicks_accrued": [0, 0, 0, 0, 0, 0, 0, 0, 0, 0, 0, 0, 0], "stateRewards": ["", -2, 2, -4, -4, -59, 88, 62, -3, 69, -15, -34, 1, -2, -5, 7, -54, -20, 78, -16, -74, -53, -21, 2, -4, 2, 13, -8, -44, 26, 9, 72, 4, 17], "withholdReward": false, "trial_id": "mdp_trial_25", "block": "test", "trialIndex": 32, "score": 29.95, "costs": -9.05, "simulationMode": [null, null, null, null, null], "rewards": [2, -4, 2, 13, 26], "path": ["0", "0", "23", "24", "25", "26", "29"], "rt": [15148, 117, 107, 116, 16], "actions": ["left", "left", "left", "up", "left"], "actionTimes": [16894, 17523, 18147, 18773, 19306], "queries": {"click": {"state": {"target": ["23", "24", "25", "26", "27", "28", "29"], "time": [2689, 3346, 4366, 4999, 5831, 9626, 12810]}, "edge": {"target": [], "time": []}}, "mouseover": {"state": {"target": ["0", "23", "23", "24", "25", "26", "27", "28", "28", "26", "29", "30"], "time": [2192, 2338, 2472, 3205, 4204, 4771, 5555, 9123, 9441, 10022, 10289, 13838]}, "edge": {"target": [], "time": []}}, "mouseout": {"state": {"target": ["8", "10", "23", "0", "0", "23", "23", "24", "25", "26", "27", "28", "28", "26", "29"], "time": [1045, 1072, 1123, 1406, 2321, 2373, 2989, 3621, 4722, 5254, 9090, 9175, 9988, 10155, 13572]}, "edge": {"target": [], "time": []}}}, "displayed_time": "19.81", "trialTime": 21099, "trial_type": "mouselab-mdp", "trial_index": 51, "time_elapsed": 1480162, "internal_node_id": "0.0-6.0-1.0-24.0"}}, {"uniqueid": "w54708705:a88924728", "current_trial": 52, "dateTime": 1693482489786, "trialdata": {"revealed_states": [], "clicked_states": ["23", "24", "25", "30", "31"], "num_clicks_accrued": [0, 0, 0, 0, 0, 0, 0, 0, 0, 0, 0, 0, 0], "stateRewards": ["", -1, 3, 8, 10, -86, 61, -36, 10, 17, -60, 24, -1, -3, 3, 11, 50, 60, 33, -3, -20, 58, -6, 1, -4, -4, 13, -70, -71, 43, 14, 52, 82, -11], "withholdReward": false, "trial_id": "mdp_trial_26", "block": "test", "trialIndex": 33, "score": 54.25, "costs": -4.75, "simulationMode": [null, null, null, null, null], "rewards": [1, -4, -4, 14, 52], "path": ["0", "0", "23", "24", "25", "30", "31"], "rt": [8496, 145, 126, 111, 231], "actions": ["left", "left", "left", "down", "right"], "actionTimes": [10167, 10806, 11437, 12038, 12759], "queries": {"click": {"state": {"target": ["23", "24", "25", "30", "31"], "time": [3245, 3873, 4633, 5194, 6035]}, "edge": {"target": [], "time": []}}, "mouseover": {"state": {"target": ["0", "23", "23", "24", "25", "25", "30", "32", "31", "32"], "time": [2263, 2546, 2829, 3610, 4110, 4393, 4928, 5510, 5677, 6527]}, "edge": {"target": [], "time": []}}, "mouseout": {"state": {"target": ["30", "31", "0", "0", "23", "23", "24", "25", "25", "30", "32", "31", "31"], "time": [928, 942, 1427, 2329, 2577, 3460, 4094, 4144, 4893, 5427, 5628, 6077, 6294]}, "edge": {"target": [], "time": []}}}, "displayed_time": "15.67", "trialTime": 16751, "trial_type": "mouselab-mdp", "trial_index": 52, "time_elapsed": 1497059, "internal_node_id": "0.0-6.0-1.0-25.0"}}, {"uniqueid": "w54708705:a88924728", "current_trial": 53, "dateTime": 1693482519179, "trialdata": {"revealed_states": [], "clicked_states": ["12", "13", "14", "15", "16", "17", "18", "19"], "num_clicks_accrued": [0, 0, 0, 0, 0, 0, 0, 0, 0, 0, 0, 0, 0], "stateRewards": ["", 2, -1, 8, -2, -16, 69, -39, -7, -13, -27, -86, 2, -2, 2, 13, -34, -16, -20, -5, 19, 81, 32, -2, -1, 2, -14, 20, 80, 58, 4, 70, 12, 73], "withholdReward": false, "trial_id": "mdp_trial_27", "block": "test", "trialIndex": 34, "score": 67.4, "costs": -10.600000000000001, "simulationMode": [null, null, null, null, null], "rewards": [2, -2, 2, -5, 81], "path": ["0", "0", "12", "13", "14", "19", "21"], "rt": [20499, 349, 836, 254, 552], "actions": ["right", "right", "right", "down", "down"], "actionTimes": [23526, 24371, 25707, 26475, 27523], "queries": {"click": {"state": {"target": ["12", "13", "14", "15", "16", "17", "18", "19"], "time": [4138, 5063, 5992, 6635, 7215, 10553, 13730, 16857]}, "edge": {"target": [], "time": []}}, "mouseover": {"state": {"target": ["12", "13", "14", "13", "14", "15", "16", "17", "15", "18", "14", "19", "21"], "time": [3753, 4554, 4586, 4803, 5787, 6236, 6936, 10319, 10819, 10869, 14336, 14469, 17653]}, "edge": {"target": [], "time": []}}, "mouseout": {"state": {"target": ["32", "0", "12", "13", "14", "13", "14", "15", "16", "15", "14", "17", "15", "18", "14", "19", "21"], "time": [2370, 3718, 4536, 4571, 4786, 5252, 6136, 6869, 8103, 8302, 9870, 10803, 10853, 14269, 14386, 17453, 21121]}, "edge": {"target": [], "time": []}}}, "displayed_time": "28.02", "trialTime": 29253, "trial_type": "mouselab-mdp", "trial_index": 53, "time_elapsed": 1526452, "internal_node_id": "0.0-6.0-1.0-26.0"}}, {"uniqueid": "w54708705:a88924728", "current_trial": 54, "dateTime": 1693482539584, "trialdata": {"revealed_states": [], "clicked_states": ["12", "13", "14", "15", "16", "18", "17"], "num_clicks_accrued": [0, 0, 0, 0, 0, 0, 0, 0, 0, 0, 0, 0, 0], "stateRewards": ["", -1, 3, 1, -7, 56, 76, 57, 3, 11, -9, 14, 1, -2, 2, 8, -77, -3, 79, -5, 88, 24, -66, -2, -1, 7, -7, -30, 14, -76, 11, -36, 28, -6], "withholdReward": false, "trial_id": "mdp_trial_28", "block": "test", "trialIndex": 35, "score": 78.95, "costs": -9.05, "simulationMode": [null, null, null, null, null, null], "rewards": [1, -2, 2, 8, 79], "path": ["0", "0", "12", "13", "14", "15", "18"], "rt": [11944, 1327, 312, 192, 244, 111], "actions": ["right", "right", "right", "right", "up", "left"], "actionTimes": [14549, 15878, 16686, 17382, 18117, 18734], "queries": {"click": {"state": {"target": ["12", "13", "14", "15", "16", "18", "17"], "time": [3570, 4548, 5066, 5584, 6167, 9348, 12648]}, "edge": {"target": [], "time": []}}, "mouseover": {"state": {"target": ["12", "13", "13", "14", "15", "16", "18", "18", "15", "17"], "time": [3321, 3939, 4290, 4840, 5356, 6006, 6456, 6705, 9689, 9756]}, "edge": {"target": [], "time": []}}, "mouseout": {"state": {"target": ["0", "12", "13", "13", "14", "15", "16", "18", "18", "15"], "time": [3074, 3889, 4023, 4790, 5272, 5806, 6422, 6472, 9673, 9722]}, "edge": {"target": [], "time": []}}}, "displayed_time": "19.22", "trialTime": 20262, "trial_type": "mouselab-mdp", "trial_index": 54, "time_elapsed": 1546857, "internal_node_id": "0.0-6.0-1.0-27.0"}}, {"uniqueid": "w54708705:a88924728", "current_trial": 55, "dateTime": 1693482558048, "trialdata": {"revealed_states": [], "clicked_states": ["1", "2", "3", "4", "6", "7"], "num_clicks_accrued": [0, 0, 0, 0, 0, 0, 0, 0, 0, 0, 0, 0, 0], "stateRewards": ["", 1, 1, -2, 7, -31, -6, 76, 1, -36, -16, -53, 2, 1, 7, 13, -47, -10, 47, -7, 72, 46, -56, -2, -2, -2, 11, -80, 44, 38, 16, 67, 85, -78], "withholdReward": false, "trial_id": "mdp_trial_29", "block": "test", "trialIndex": 36, "score": 76.1, "costs": -6.9, "simulationMode": [null, null, null, null, null], "rewards": [1, 1, -2, 7, 76], "path": ["0", "0", "1", "2", "3", "4", "7"], "rt": [11874, 88, 177, 83, 164], "actions": ["up", "up", "up", "right", "down"], "actionTimes": [14261, 14869, 15539, 16115, 16779], "queries": {"click": {"state": {"target": ["1", "2", "3", "4", "6", "7"], "time": [3936, 4620, 5369, 6296, 7019, 10162]}, "edge": {"target": [], "time": []}}, "mouseover": {"state": {"target": ["1", "12", "0", "23", "23", "1", "2", "3", "8", "4", "6", "7", "4", "5"], "time": [2814, 3145, 3347, 3379, 3597, 3664, 4230, 5245, 5895, 6062, 6846, 7462, 10446, 10712]}, "edge": {"target": [], "time": []}}, "mouseout": {"state": {"target": ["17", "15", "18", "12", "0", "1", "12", "0", "23", "23", "1", "2", "3", "8", "3", "4", "6", "7", "4"], "time": [1330, 1377, 1413, 1830, 2740, 3096, 3345, 3362, 3412, 3613, 4195, 4945, 5862, 6012, 6045, 6629, 7395, 10395, 10562]}, "edge": {"target": [], "time": []}}}, "displayed_time": "17.28", "trialTime": 18316, "trial_type": "mouselab-mdp", "trial_index": 55, "time_elapsed": 1565321, "internal_node_id": "0.0-6.0-1.0-28.0"}}, {"uniqueid": "w54708705:a88924728", "current_trial": 56, "dateTime": 1693482575137, "trialdata": {"revealed_states": [], "clicked_states": ["12", "13", "14", "15", "16", "18"], "num_clicks_accrued": [0, 0, 0, 0, 0, 0, 0, 0, 0, 0, 0, 0, 0], "stateRewards": ["", -1, 2, -2, 5, 80, -61, -27, 12, 44, -26, -75, -2, -4, 1, -16, 42, -49, -50, 4, -44, 2, 80, -2, -2, 5, -2, 59, 10, 24, 7, -48, -86, -44], "withholdReward": false, "trial_id": "mdp_trial_30", "block": "test", "trialIndex": 37, "score": 14.100000000000001, "costs": -6.9, "simulationMode": [null, null, null, null, null, null], "rewards": [-2, -4, 1, -16, 42], "path": ["0", "0", "12", "13", "14", "15", "16"], "rt": [7630, 1873, 199, 155, 127, 103], "actions": ["right", "right", "right", "right", "up", "up"], "actionTimes": [9573, 11448, 12135, 12791, 13431, 14023], "queries": {"click": {"state": {"target": ["12", "13", "14", "15", "16", "18"], "time": [2764, 3315, 3958, 4595, 5130, 8202]}, "edge": {"target": [], "time": []}}, "mouseover": {"state": {"target": ["12", "13", "14", "15", "16", "18"], "time": [2537, 3085, 3785, 4370, 4902, 5502]}, "edge": {"target": [], "time": []}}, "mouseout": {"state": {"target": ["5", "2", "0", "12", "13", "14", "15", "16"], "time": [920, 986, 2304, 3069, 3536, 4302, 4802, 5453]}, "edge": {"target": [], "time": []}}}, "displayed_time": "15.94", "trialTime": 16944, "trial_type": "mouselab-mdp", "trial_index": 56, "time_elapsed": 1582410, "internal_node_id": "0.0-6.0-1.0-29.0"}}, {"uniqueid": "w54708705:a88924728", "current_trial": 57, "dateTime": 1693482599162, "trialdata": {"revealed_states": [], "clicked_states": ["24", "25", "23", "27", "28", "29", "32"], "num_clicks_accrued": [0, 0, 0, 0, 0, 0, 0, 0, 0, 0, 0, 0, 0], "stateRewards": ["", -2, -3, 1, -14, 48, -49, 67, -1, -35, -48, 3, -2, 1, -4, -5, 86, -84, 39, 1, 48, 41, -42, -1, -4, 2, -7, 18, -86, 17, 7, -9, 57, -69], "withholdReward": false, "trial_id": "mdp_trial_31", "block": "test", "trialIndex": 38, "score": 51.35, "costs": -9.65, "simulationMode": [null, null, null, null, null], "rewards": [-1, -4, 2, 7, 57], "path": ["0", "0", "23", "24", "25", "30", "32"], "rt": [17465, 182, 9, 156, 164], "actions": ["left", "left", "left", "down", "down"], "actionTimes": [19545, 20239, 20766, 21431, 22104], "queries": {"click": {"state": {"target": ["24", "25", "23", "27", "28", "29", "32"], "time": [2900, 3714, 4462, 5348, 8925, 12037, 15298]}, "edge": {"target": [], "time": []}}, "mouseover": {"state": {"target": ["0", "23", "24", "25", "25", "23", "29", "27", "26", "28", "26", "29", "30", "32", "31"], "time": [2308, 2355, 2722, 3240, 3539, 4290, 4740, 5156, 7956, 8725, 9206, 9555, 12773, 13140, 15673]}, "edge": {"target": [], "time": []}}, "mouseout": {"state": {"target": ["18", "0", "0", "23", "24", "25", "25", "24", "23", "24", "29", "27", "27", "26", "28", "26", "29", "30", "32", "31"], "time": [1506, 1824, 2342, 2390, 3224, 3274, 3957, 4189, 4607, 4657, 4790, 5447, 5690, 8457, 9190, 9240, 12640, 12974, 15574, 18925]}, "edge": {"target": [], "time": []}}}, "displayed_time": "22.61", "trialTime": 23873, "trial_type": "mouselab-mdp", "trial_index": 57, "time_elapsed": 1606435, "internal_node_id": "0.0-6.0-1.0-30.0"}}, {"uniqueid": "w54708705:a88924728", "current_trial": 58, "dateTime": 1693482616264, "trialdata": {"revealed_states": [], "clicked_states": ["32", "33"], "num_clicks_accrued": [0, 0, 0, 0, 0, 0, 0, 0, 0, 0, 0, 0, 0], "stateRewards": ["", -2, -2, -7, -13, -10, 49, -68, -1, 84, 70, 88, 1, 4, 4, 12, -57, 25, 30, 8, -1, -77, 57, 2, 3, 2, 3, -18, -80, 23, -15, -41, 70, 11], "withholdReward": false, "trial_id": "mdp_trial_32", "block": "test", "trialIndex": 39, "score": 57.7, "costs": -4.3, "simulationMode": [null, null, null, null, null], "rewards": [2, 3, 2, -15, 70], "path": ["0", "0", "23", "24", "25", "30", "32"], "rt": [7796, 210, 88, 105, 143], "actions": ["left", "left", "left", "down", "down"], "actionTimes": [9774, 10496, 11073, 11673, 12329], "queries": {"click": {"state": {"target": ["32", "33"], "time": [2920, 6014]}, "edge": {"target": [], "time": []}}, "mouseover": {"state": {"target": ["32", "33", "30", "31", "23"], "time": [2701, 3517, 6468, 6517, 6984]}, "edge": {"target": [], "time": []}}, "mouseout": {"state": {"target": ["0", "12", "0", "0", "32", "33", "30", "31"], "time": [1165, 1385, 1468, 2387, 3117, 6467, 6501, 6551]}, "edge": {"target": [], "time": []}}}, "displayed_time": "15.98", "trialTime": 16953, "trial_type": "mouselab-mdp", "trial_index": 58, "time_elapsed": 1623537, "internal_node_id": "0.0-6.0-1.0-31.0"}}, {"uniqueid": "w54708705:a88924728", "current_trial": 59, "dateTime": 1693482634312, "trialdata": {"revealed_states": [], "clicked_states": ["12", "21", "20", "17"], "num_clicks_accrued": [0, 0, 0, 0, 0, 0, 0, 0, 0, 0, 0, 0, 0], "stateRewards": ["", -2, -4, 2, 10, -17, 18, 73, 11, -32, 23, -13, -2, -4, 7, 12, -25, 66, -23, 15, 40, -76, -9, 1, 2, -7, -5, -20, 24, 3, -5, 16, -73, 70], "withholdReward": false, "trial_id": "mdp_trial_33", "block": "test", "trialIndex": 40, "score": 72.8, "costs": -6.199999999999999, "simulationMode": [null, null, null, null, null, null], "rewards": [-2, -4, 7, 12, 66], "path": ["0", "0", "12", "13", "14", "15", "17"], "rt": [9511, 2537, 124, 75, 139, 100], "actions": ["right", "right", "right", "right", "up", "right"], "actionTimes": [11335, 13874, 14505, 15072, 15705, 16297], "queries": {"click": {"state": {"target": ["12", "21", "20", "17"], "time": [2816, 3669, 6846, 10016]}, "edge": {"target": [], "time": []}}, "mouseover": {"state": {"target": ["12", "22", "21", "20", "17"], "time": [2533, 3147, 3481, 4230, 7680]}, "edge": {"target": [], "time": []}}, "mouseout": {"state": {"target": ["23", "12", "22", "21", "20"], "time": [1248, 3097, 3197, 4147, 7347]}, "edge": {"target": [], "time": []}}}, "displayed_time": "16.80", "trialTime": 17897, "trial_type": "mouselab-mdp", "trial_index": 59, "time_elapsed": 1641585, "internal_node_id": "0.0-6.0-1.0-32.0"}}, {"uniqueid": "w54708705:a88924728", "current_trial": 60, "dateTime": 1693482651448, "trialdata": {"revealed_states": [], "clicked_states": ["16"], "num_clicks_accrued": [0, 0, 0, 0, 0, 0, 0, 0, 0, 0, 0, 0, 0], "stateRewards": ["", -1, -3, 3, 5, 56, 39, 50, -1, -80, 33, -46, 1, -2, -6, -8, 87, 48, 54, -11, -20, -64, -54, -2, 3, -7, -3, 12, 88, 35, -16, -46, -70, -3], "withholdReward": false, "trial_id": "mdp_trial_34", "block": "test", "trialIndex": 41, "score": 69.85, "costs": -2.15, "simulationMode": [null, null, null, null, null], "rewards": [1, -2, -6, -8, 87], "path": ["0", "0", "12", "13", "14", "15", "16"], "rt": [5859, 136, 134, 74, 84], "actions": ["right", "right", "right", "up", "up"], "actionTimes": [7544, 8173, 8821, 9413, 10005], "queries": {"click": {"state": {"target": ["16"], "time": [3247]}, "edge": {"target": [], "time": []}}, "mouseover": {"state": {"target": ["22", "19", "14", "16", "6"], "time": [2405, 2435, 2638, 2955, 4721]}, "edge": {"target": [], "time": []}}, "mouseout": {"state": {"target": ["17", "13", "0", "22", "19", "14", "16"], "time": [921, 954, 2121, 2420, 2605, 2671, 3721]}, "edge": {"target": [], "time": []}}}, "displayed_time": "15.69", "trialTime": 16973, "trial_type": "mouselab-mdp", "trial_index": 60, "time_elapsed": 1658721, "internal_node_id": "0.0-6.0-1.0-33.0"}}, {"uniqueid": "w54708705:a88924728", "current_trial": 61, "dateTime": 1693482684735, "trialdata": {"revealed_states": [], "clicked_states": ["5", "9", "11", "6", "27", "29", "28"], "num_clicks_accrued": [0, 0, 0, 0, 0, 0, 0, 0, 0, 0, 0, 0, 0], "stateRewards": ["", -2, 4, -3, -13, 63, -36, 62, 11, 78, 34, -51, 2, -2, 8, -6, -40, -18, 31, 9, 64, 39, 79, 1, 4, -4, 15, -12, 76, 73, -10, -77, 86, -4], "withholdReward": false, "trial_id": "mdp_trial_35", "block": "test", "trialIndex": 42, "score": 76.95, "costs": -15.05, "simulationMode": [null, null, null, null, null], "rewards": [1, 4, -4, 15, 76], "path": ["0", "0", "23", "24", "25", "26", "28"], "rt": [27097, 71, 185, 90, 85], "actions": ["left", "left", "left", "up", "right"], "actionTimes": [28977, 29551, 30247, 30854, 31447], "queries": {"click": {"state": {"target": ["5", "9", "11", "6", "27", "29", "28"], "time": [2635, 6059, 9924, 13630, 16861, 20445, 23668]}, "edge": {"target": [], "time": []}}, "mouseover": {"state": {"target": ["1", "4", "5", "9", "11", "8", "3", "4", "6", "6", "7", "28", "27", "26", "29", "26", "28"], "time": [2197, 2332, 2381, 4147, 6662, 13099, 13114, 13130, 13146, 13380, 14245, 14562, 14878, 17445, 18145, 21012, 21545]}, "edge": {"target": [], "time": []}}, "mouseout": {"state": {"target": ["6", "7", "1", "23", "0", "1", "4", "5", "9", "11", "8", "3", "4", "6", "6", "7", "28", "27", "26", "29", "26", "28"], "time": [1113, 1146, 1197, 1381, 2157, 2230, 2345, 2735, 6463, 13097, 13112, 13129, 13145, 13161, 14129, 14295, 14612, 17412, 17612, 20979, 21229, 27346]}, "edge": {"target": [], "time": []}}}, "displayed_time": "31.96", "trialTime": 33103, "trial_type": "mouselab-mdp", "trial_index": 61, "time_elapsed": 1692008, "internal_node_id": "0.0-6.0-1.0-34.0"}}, {"uniqueid": "w54708705:a88924728", "current_trial": 62, "dateTime": 1693482724478, "trialdata": {"revealed_states": [], "clicked_states": ["32", "31", "33", "29", "27", "9", "11", "5", "6"], "num_clicks_accrued": [0, 0, 0, 0, 0, 0, 0, 0, 0, 0, 0, 0, 0], "stateRewards": ["", -1, 1, -1, 2, 19, 85, -18, 2, -3, -26, 36, 2, 4, 7, -9, -18, 70, 72, -5, 35, -20, -28, 1, -2, -4, -3, -59, -11, -63, -2, -72, 59, -69], "withholdReward": false, "trial_id": "mdp_trial_36", "block": "test", "trialIndex": 43, "score": 66.65, "costs": -19.349999999999998, "simulationMode": [null, null, null, null, null], "rewards": [-1, 1, -1, 2, 85], "path": ["0", "0", "1", "2", "3", "4", "6"], "rt": [33360, 74, 115, 41, 131], "actions": ["up", "up", "up", "right", "right"], "actionTimes": [35434, 36006, 36614, 37174, 37814], "queries": {"click": {"state": {"target": ["32", "31", "33", "29", "27", "9", "11", "5", "6"], "time": [2958, 6383, 9460, 12565, 16301, 20394, 23508, 27787, 31093]}, "edge": {"target": [], "time": []}}, "mouseover": {"state": {"target": ["0", "32", "31", "30", "33", "29", "27", "11", "9", "11", "8", "5", "6", "16"], "time": [2334, 2753, 5883, 6765, 6798, 10016, 13265, 17632, 17999, 21182, 23932, 24332, 29615, 31714]}, "edge": {"target": [], "time": []}}, "mouseout": {"state": {"target": ["28", "24", "23", "0", "32", "31", "30", "33", "29", "27", "11", "9", "11", "8", "5", "6"], "time": [1314, 1514, 1616, 2349, 5817, 6749, 6782, 9783, 12639, 17449, 17732, 20866, 23899, 23949, 29049, 31497]}, "edge": {"target": [], "time": []}}}, "displayed_time": "38.33", "trialTime": 39566, "trial_type": "mouselab-mdp", "trial_index": 62, "time_elapsed": 1731751, "internal_node_id": "0.0-6.0-1.0-35.0"}}, {"uniqueid": "w54708705:a88924728", "current_trial": 63, "dateTime": 1693482742222, "trialdata": {"revealed_states": [], "clicked_states": ["21", "20", "22"], "num_clicks_accrued": [0, 0, 0, 0, 0, 0, 0, 0, 0, 0, 0, 0, 0], "stateRewards": ["", -1, -3, 1, -4, -48, -63, -49, -2, -84, -19, 65, 2, -2, -2, -12, -4, 59, 9, 6, 75, 69, -13, -1, -3, -3, -2, -37, -68, -36, 13, 32, 18, -14], "withholdReward": false, "trial_id": "mdp_trial_37", "block": "test", "trialIndex": 44, "score": 72.55, "costs": -6.449999999999999, "simulationMode": [null, null, null, null, null], "rewards": [2, -2, -2, 6, 75], "path": ["0", "0", "12", "13", "14", "19", "20"], "rt": [11643, 168, 68, 156, 229], "actions": ["right", "right", "right", "down", "right"], "actionTimes": [13350, 14021, 14605, 15277, 15998], "queries": {"click": {"state": {"target": ["21", "20", "22"], "time": [2626, 5819, 9366]}, "edge": {"target": [], "time": []}}, "mouseover": {"state": {"target": ["21", "20", "19", "22", "22"], "time": [2304, 3352, 6321, 6352, 6652]}, "edge": {"target": [], "time": []}}, "mouseout": {"state": {"target": ["16", "0", "21", "20", "19", "22"], "time": [970, 2085, 2725, 6319, 6336, 6569]}, "edge": {"target": [], "time": []}}}, "displayed_time": "16.49", "trialTime": 17565, "trial_type": "mouselab-mdp", "trial_index": 63, "time_elapsed": 1749495, "internal_node_id": "0.0-6.0-1.0-36.0"}}, {"uniqueid": "w54708705:a88924728", "current_trial": 64, "dateTime": 1693482782996, "trialdata": {"revealed_states": [], "clicked_states": ["6", "11", "9", "5", "16", "17", "18", "21", "20", "22"], "num_clicks_accrued": [0, 0, 0, 0, 0, 0, 0, 0, 0, 0, 0, 0, 0], "stateRewards": ["", 2, 3, 8, 14, 69, -27, 17, 2, -71, -65, -10, 2, -3, 7, 8, 65, -10, 65, -12, 73, -12, 13, -2, -2, 6, 10, -79, -69, -18, 10, -85, 67, 74], "withholdReward": false, "trial_id": "mdp_trial_38", "block": "test", "trialIndex": 45, "score": 45.5, "costs": -21.499999999999996, "simulationMode": [null, null, null, null, null], "rewards": [2, -3, 7, -12, 73], "path": ["0", "0", "12", "13", "14", "19", "20"], "rt": [34129, 380, 199, 171, 266], "actions": ["right", "right", "right", "down", "right"], "actionTimes": [35885, 36787, 37506, 38178, 38938], "queries": {"click": {"state": {"target": ["6", "11", "9", "5", "16", "17", "18", "21", "20", "22"], "time": [2705, 5961, 9458, 12594, 15851, 19320, 22725, 26070, 29319, 32641]}, "edge": {"target": [], "time": []}}, "mouseover": {"state": {"target": ["6", "4", "3", "8", "11", "9", "5", "4", "16", "15", "17", "15", "18", "13", "19", "21", "21", "20", "19", "22"], "time": [2575, 5389, 5422, 5627, 5672, 9240, 10623, 13122, 13428, 16490, 16822, 19856, 20138, 23205, 23272, 23339, 23672, 27005, 29906, 30156]}, "edge": {"target": [], "time": []}}, "mouseout": {"state": {"target": ["22", "0", "6", "4", "3", "8", "11", "9", "5", "4", "16", "15", "17", "17", "15", "18", "13", "19", "21", "21", "20", "19"], "time": [989, 2157, 5372, 5404, 5624, 5656, 8924, 10073, 13089, 13156, 16409, 16639, 19445, 19806, 20072, 23190, 23222, 23306, 23406, 26556, 29873, 29939]}, "edge": {"target": [], "time": []}}}, "displayed_time": "39.46", "trialTime": 40610, "trial_type": "mouselab-mdp", "trial_index": 64, "time_elapsed": 1790270, "internal_node_id": "0.0-6.0-1.0-37.0"}}, {"uniqueid": "w54708705:a88924728", "current_trial": 65, "dateTime": 1693482827195, "trialdata": {"revealed_states": [], "clicked_states": ["21", "32", "31", "33", "27", "29", "28", "9", "11", "5", "6"], "num_clicks_accrued": [0, 0, 0, 0, 0, 0, 0, 0, 0, 0, 0, 0, 0], "stateRewards": ["", 1, -4, 6, -3, 40, 76, -51, 5, -24, -63, 44, -2, -2, 8, 1, 76, -85, -58, 10, 59, 20, 11, -2, 3, -3, 3, -82, -10, 54, -7, -57, -6, -32], "withholdReward": false, "trial_id": "mdp_trial_39", "block": "test", "trialIndex": 46, "score": 52.35000000000001, "costs": -23.649999999999995, "simulationMode": [null, null, null, null, null], "rewards": [1, -4, 6, -3, 76], "path": ["0", "0", "1", "2", "3", "4", "6"], "rt": [38354, 72, 122, 72, 130], "actions": ["up", "up", "up", "right", "right"], "actionTimes": [40217, 40806, 41422, 42006, 42631], "queries": {"click": {"state": {"target": ["21", "32", "31", "33", "27", "29", "28", "9", "11", "5", "6"], "time": [3276, 6562, 9739, 12868, 16268, 19387, 22627, 25852, 29102, 32504, 35724]}, "edge": {"target": [], "time": []}}, "mouseover": {"state": {"target": ["1", "2", "3", "2", "1", "0", "22", "21", "32", "30", "31", "30", "33", "33", "27", "29", "26", "28", "9", "11", "5", "6", "16"], "time": [2216, 2250, 2435, 2484, 2566, 2731, 2831, 3001, 4017, 7000, 7249, 10216, 10250, 10716, 13932, 16849, 19966, 20732, 23833, 28802, 29833, 35150, 36533]}, "edge": {"target": [], "time": []}}, "mouseout": {"state": {"target": ["22", "0", "1", "2", "3", "2", "1", "0", "22", "21", "32", "30", "31", "30", "33", "33", "27", "29", "26", "28", "9", "11", "5", "6"], "time": [1100, 2188, 2232, 2285, 2449, 2550, 2617, 2748, 2848, 3466, 6966, 7050, 10199, 10232, 10283, 13183, 16716, 19949, 20000, 23483, 28532, 29516, 34733, 36215]}, "edge": {"target": [], "time": []}}}, "displayed_time": "43.15", "trialTime": 44038, "trial_type": "mouselab-mdp", "trial_index": 65, "time_elapsed": 1834468, "internal_node_id": "0.0-6.0-1.0-38.0"}}, {"uniqueid": "w54708705:a88924728", "current_trial": 66, "dateTime": 1693482868115, "trialdata": {"revealed_states": [], "clicked_states": ["21", "16", "5", "7", "9", "10", "11", "27", "29"], "num_clicks_accrued": [0, 0, 0, 0, 0, 0, 0, 0, 0, 0, 0, 0, 0], "stateRewards": ["", 2, -1, 4, -9, -43, 7, 54, -13, 38, -40, -83, -1, 2, -8, -10, 34, -33, 11, -14, -79, 65, 26, 1, 2, 4, 10, 21, 1, 86, 4, -53, 28, -29], "withholdReward": false, "trial_id": "mdp_trial_40", "block": "test", "trialIndex": 47, "score": 83.65, "costs": -19.349999999999998, "simulationMode": [null, null, null, null, null], "rewards": [1, 2, 4, 10, 86], "path": ["0", "0", "23", "24", "25", "26", "29"], "rt": [34175, 166, 248, 149, 81], "actions": ["left", "left", "left", "up", "left"], "actionTimes": [36503, 37158, 37924, 38574, 39173], "queries": {"click": {"state": {"target": ["21", "16", "5", "7", "9", "10", "11", "27", "29"], "time": [3284, 7074, 10925, 14352, 17838, 21182, 24424, 27758, 31805]}, "edge": {"target": [], "time": []}}, "mouseover": {"state": {"target": ["21", "19", "20", "14", "15", "16", "6", "5", "4", "7", "3", "9", "8", "10", "11", "27", "29", "29"], "time": [3027, 4026, 4409, 6595, 6745, 6844, 10294, 10693, 13826, 13977, 15142, 15524, 20475, 20710, 23842, 24992, 31243, 31577]}, "edge": {"target": [], "time": []}}, "mouseout": {"state": {"target": ["16", "18", "12", "0", "0", "21", "19", "20", "14", "15", "16", "6", "5", "4", "7", "3", "9", "8", "10", "11", "27", "29", "29"], "time": [1526, 1559, 1594, 1860, 2678, 3976, 4243, 6561, 6678, 6809, 7642, 10476, 13707, 13944, 15041, 15258, 20375, 20596, 23507, 24908, 31044, 31310, 34908]}, "edge": {"target": [], "time": []}}}, "displayed_time": "39.68", "trialTime": 40749, "trial_type": "mouselab-mdp", "trial_index": 66, "time_elapsed": 1875388, "internal_node_id": "0.0-6.0-1.0-39.0"}}, {"uniqueid": "w54708705:a88924728", "current_trial": 67, "dateTime": 1693482925431, "trialdata": {"rt": 57309, "response": {"Q0": "$-16 to 16", "Q1": "$-16 to $16", "Q2": "$-32 to $32", "Q3": "The cost for clicking on nodes varied between nodes.", "Q4": "Slightly motivated"}, "question_order": [0, 1, 2, 3, 4], "trial_id": "final_quiz_control", "trial_type": "survey-multi-choice", "trial_index": 67, "time_elapsed": 1932705, "internal_node_id": "0.0-6.0-2.0"}}, {"uniqueid": "w54708705:a88924728", "current_trial": 68, "dateTime": 1693482994807, "trialdata": {"rt": 69370, "response": {"Q0": "I clicked on the edges to see the end value", "Q1": "Yes I Clicked fewer, and opted for the first that had the highest amount.", "Q2": "It was somewhat difficult."}, "trial_id": "self_report_control", "trial_type": "survey-text", "trial_index": 68, "time_elapsed": 2002081, "internal_node_id": "0.0-6.0-3.0"}}, {"uniqueid": "w54708705:a88924728", "current_trial": 69, "dateTime": 1693483052255, "trialdata": {"rt": 57445, "response": {"Q0": "Strongly agree", "Q1": "Neither disagree nor agree", "Q2": "Neither disagree nor agree", "Q3": "Disagree", "Q4": "Neither disagree nor agree", "Q5": "Strongly agree", "Q6": "Neither disagree nor agree"}, "question_order": [0, 1, 2, 3, 4, 5, 6], "trial_id": "self_report_2", "trial_type": "survey-multi-choice", "trial_index": 69, "time_elapsed": 2059529, "internal_node_id": "0.0-6.0-4.0"}}, {"uniqueid": "w54708705:a88924728", "current_trial": 70, "dateTime": 1693483088510, "trialdata": {"rt": 36250, "response": {"gender": "female", "age": "31", "colorblind": "0", "effort": "2"}, "trial_type": "survey-html-form", "trial_index": 70, "time_elapsed": 2095784, "internal_node_id": "0.0-6.0-5.0"}}, {"uniqueid": "w54708705:a88924728", "current_trial": 71, "dateTime": 1693483137965, "trialdata": {"rt": 49451, "response": {"Q0": "No, not at all. Instructions were clear.", "Q1": "I have not.", "Q2": "Thank you for the opportunity!"}, "trial_type": "survey-text", "trial_index": 71, "time_elapsed": 2145239, "internal_node_id": "0.0-6.0-6.0"}}, {"uniqueid": "w54708705:a88924728", "current_trial": 72, "dateTime": 1693483178317, "trialdata": {"rt": 40349, "stimulus": "<h1>Completion Code Instructions (1/2)</h1>\n<br><br><br><br>\nYou have reached the end of the experiment! The completion code consists of two parts: (1) a code with 2 characters (2) a code with 6 characters. On this page, you will receive the second part of the code. The first part of the completion code will be on the next page.\n<br><br>\nThe second part of your completion code is: <b>EWEK22</b>\n<br><br>\nPlease note this down. Then, press 'Finish HIT' in order to find the first part of your completion code. Once the data has been saved, you will receive this code either in this window or in the original browser window where you started the experiment.\n", "response": 0, "trial_type": "html-button-response", "trial_index": 72, "time_elapsed": 2185591, "internal_node_id": "0.0-6.0-7.0"}}, {"uniqueid": "w54708705:a88924728", "current_trial": 73, "dateTime": 1693483179320, "trialdata": {"success": true, "trial_type": "fullscreen", "trial_index": 73, "time_elapsed": 2186594, "internal_node_id": "0.0-7.0"}}], "questiondata": {"params": {"CODE": "C6DMOQA6", "MIN_TIME": 14, "inspectCost": 1, "startTime": "Thu Aug 31 2023 13:23:10 GMT+0200 (South Africa Standard Time)", "bonusRate": 0.002, "variance": "1_2_4_8_44", "branching": "31123"}, "final_score": 1823.9}, "eventdata": [{"eventtype": "initialized", "value": null, "timestamp": 1693480990060, "interval": 0}, {"eventtype": "window_resize", "value": [1920, 986], "timestamp": 1693480990061, "interval": 1}, {"eventtype": "window_resize", "value": [1920, 986], "timestamp": 1693480990552, "interval": 491}, {"eventtype": "window_resize", "value": [1920, 1080], "timestamp": 1693480995257, "interval": 4705}, {"eventtype": "focus", "value": "off", "timestamp": 1693481090918, "interval": 95661}, {"eventtype": "focus", "value": "on", "timestamp": 1693481090921, "interval": 3}, {"eventtype": "window_resize", "value": [1920, 1080], "timestamp": 1693481091152, "interval": 231}, {"eventtype": "focus", "value": "off", "timestamp": 1693481372307, "interval": 281155}, {"eventtype": "focus", "value": "on", "timestamp": 1693481372307, "interval": 0}, {"eventtype": "window_resize", "value": [1920, 986], "timestamp": 1693481372512, "interval": 205}, {"eventtype": "window_resize", "value": [1920, 1080], "timestamp": 1693481375038, "interval": 2526}, {"eventtype": "focus", "value": "off", "timestamp": 1693481614674, "interval": 239636}, {"eventtype": "focus", "value": "on", "timestamp": 1693481614674, "interval": 0}, {"eventtype": "window_resize", "value": [1920, 986], "timestamp": 1693481614878, "interval": 204}, {"eventtype": "window_resize", "value": [1920, 1080], "timestamp": 1693481618603, "interval": 3725}, {"eventtype": "focus", "value": "off", "timestamp": 1693481756582, "interval": 137979}, {"eventtype": "focus", "value": "on", "timestamp": 1693481756582, "interval": 0}, {"eventtype": "window_resize", "value": [1920, 986], "timestamp": 1693481756787, "interval": 205}, {"eventtype": "window_resize", "value": [1920, 1080], "timestamp": 1693481759986, "interval": 3199}, {"eventtype": "focus", "value": "off", "timestamp": 1693483126840, "interval": 1366854}, {"eventtype": "focus", "value": "on", "timestamp": 1693483126851, "interval": 11}, {"eventtype": "window_resize", "value": [1920, 986], "timestamp": 1693483178537, "interval": 51686}], "useragent": "Mozilla/5.0 (Windows NT 10.0; Win64; x64) AppleWebKit/537.36 (KHTML, like Gecko) Chrome/116.0.0.0 Safari/537.36 Edg/116.0.1938.62", "mode": "live", "id": "w54708705:a88924728", "status": "user data saved", "Beginhit": "2023-08-31 11:23:07.486226", "Beginexp": "2023-08-31 11:23:16.387003", "Endhit": "2023-08-31 11:59:40.606138", "psiturkStatus": 3, "browser": "<redacted>", "platform": "windows", "language": "en-US", "excludeReason": "noeffort"}