{"condition": 1, "counterbalance": 0, "assignmentId": "a47870414", "workerId": "w22075787", "hitId": "h52059985", "currenttrial": 41, "bonus": 0, "data": [{"current_trial": 0, "dateTime": 1691159145444, "trialdata": {"internal_node_id": "0.0-0.0", "success": true, "time_elapsed": 10680, "trial_index": 0, "trial_type": "fullscreen"}, "uniqueid": "w22075787:a47870414"}, {"current_trial": 1, "dateTime": 1691159172542, "trialdata": {"internal_node_id": "0.0-1.0", "rt": 27069, "time_elapsed": 37780, "trial_id": "exp_instructions_misaligned", "trial_index": 1, "trial_type": "instructions", "view_history": [{"page_index": 0, "viewing_time": 27065}]}, "uniqueid": "w22075787:a47870414"}, {"current_trial": 2, "dateTime": 1691159181249, "trialdata": {"internal_node_id": "0.0-2.0-0.0", "success": true, "time_elapsed": 46486, "trial_index": 2, "trial_type": "fullscreen"}, "uniqueid": "w22075787:a47870414"}, {"current_trial": 3, "dateTime": 1691159458758, "trialdata": {"internal_node_id": "0.0-2.0-1.0", "rt": 277502, "time_elapsed": 323996, "trial_id": "mouselab_instructions_1_misaligned", "trial_index": 3, "trial_type": "instructions", "view_history": [{"page_index": 0, "viewing_time": 105431}, {"page_index": 1, "viewing_time": 81063}, {"page_index": 2, "viewing_time": 32375}, {"page_index": 3, "viewing_time": 58631}]}, "uniqueid": "w22075787:a47870414"}, {"current_trial": 4, "dateTime": 1691159519787, "trialdata": {"actionTimes": [47822, 49668, 50583, 51948, 52689], "actions": ["up", "up", "up", "right", "down"], "block": "test", "clicked_states": ["25", "26", "27", "28", "18", "15", "17", "16", "20", "19", "21", "22", "13", "2", "8", "11", "9", "4", "6", "5", "3"], "costs": -10.5, "displayed_time": "53.23", "internal_node_id": "0.0-2.0-2.0-0.0", "num_clicks_accrued": [0, 0, 0, 0, 0, 0, 0, 0, 0, 0, 0, 0, 0], "path": ["0", "0", "1", "2", "3", "4", "7"], "queries": {"click": {"edge": {"target": [], "time": []}, "state": {"target": ["25", "26", "27", "28", "18", "15", "17", "16", "20", "19", "21", "22", "13", "2", "8", "11", "9", "4", "6", "5", "3"], "time": [7389, 8484, 9777, 11634, 13891, 15723, 17219, 18647, 20358, 21951, 23439, 25093, 26719, 28471, 30152, 31678, 32986, 34702, 36142, 37566, 39124]}}, "mouseout": {"edge": {"target": [], "time": []}, "state": {"target": ["12", "0", "23", "24", "25", "26", "27", "28", "28", "24", "1", "18", "18", "15", "17", "16", "15", "20", "19", "21", "22", "13", "14", "12", "2", "8", "11", "9", "3", "4", "6", "5", "3", "2", "7", "2", "1", "2", "16", "19"], "time": [2937, 6113, 6337, 6753, 7584, 8544, 10156, 10645, 12042, 12818, 13090, 13985, 14122, 16017, 17421, 19038, 19240, 20786, 22371, 23639, 25442, 26799, 27671, 27899, 28669, 30536, 31807, 33367, 33781, 35005, 36357, 38146, 39506, 40037, 40460, 41248, 43198, 44009, 44794, 57723]}}, "mouseover": {"edge": {"target": [], "time": []}, "state": {"target": ["23", "24", "25", "26", "27", "28", "28", "24", "1", "18", "15", "17", "16", "20", "19", "21", "22", "13", "14", "12", "2", "8", "11", "9", "3", "4", "6", "5", "3", "2", "7", "2", "1", "2", "16"], "time": [6151, 6480, 6783, 7817, 9125, 10353, 10934, 12192, 13035, 13616, 14224, 16197, 17901, 19813, 20899, 22656, 24002, 25692, 27164, 27805, 28190, 29137, 30704, 32224, 33553, 33843, 35174, 36691, 38615, 39795, 40202, 40543, 42776, 43302, 44710]}}}, "revealed_states": [], "rewards": [10, -10, 10, 10, -10], "rt": [42192, 1308, 385, 826, 203], "score": 3, "simulationMode": [null, null, null, null, null], "stateRewards": ["", 10, -10, 10, 10, -10, 10, -10, -10, -10, 10, -10, 10, -10, -10, -10, 10, -10, -10, 10, -10, -10, -10, 10, 10, -10, 10, 10, -10, 10, -10, -10, -10, 10], "time_elapsed": 385023, "trialIndex": 0, "trialTime": 59934, "trial_id": "practice_1", "trial_index": 4, "trial_type": "mouselab-mdp", "withholdReward": false}, "uniqueid": "w22075787:a47870414"}, {"current_trial": 5, "dateTime": 1691159542280, "trialdata": {"actionTimes": [11435, 12132, 12836, 13912, 15122], "actions": ["left", "left", "left", "up", "right"], "block": "test", "clicked_states": ["27", "28", "26", "25"], "costs": -2, "displayed_time": "15.66", "internal_node_id": "0.0-2.0-2.0-1.0", "num_clicks_accrued": [0, 0, 0, 0, 0, 0, 0, 0, 0, 0, 0, 0, 0], "path": ["0", "0", "23", "24", "25", "26", "28"], "queries": {"click": {"edge": {"target": [], "time": []}, "state": {"target": ["27", "28", "26", "25"], "time": [2919, 4518, 5970, 7438]}}, "mouseout": {"edge": {"target": [], "time": []}, "state": {"target": ["0", "23", "28", "27", "28", "26", "25", "30", "24"], "time": [1075, 2162, 2325, 3187, 4909, 6326, 7810, 8827, 9453]}}, "mouseover": {"edge": {"target": [], "time": []}, "state": {"target": ["23", "28", "27", "28", "26", "25", "30", "24", "23"], "time": [2132, 2294, 2596, 3403, 5217, 6485, 7969, 9077, 9795]}}}, "revealed_states": [], "rewards": [-10, 10, 10, 10, 10], "rt": [9553, 150, 158, 548, 675], "score": 31.5, "simulationMode": [null, null, null, null, null], "stateRewards": ["", 10, -10, 10, 10, 10, -10, 10, -10, -10, 10, -10, 10, 10, 10, 10, 10, 10, 10, 10, -10, -10, 10, -10, 10, 10, 10, 10, 10, -10, -10, -10, 10, -10], "time_elapsed": 407516, "trialIndex": 1, "trialTime": 22151, "trial_id": "practice_2", "trial_index": 5, "trial_type": "mouselab-mdp", "withholdReward": false}, "uniqueid": "w22075787:a47870414"}, {"current_trial": 6, "dateTime": 1691159578581, "trialdata": {"internal_node_id": "0.0-2.0-3.0", "rt": 36288, "time_elapsed": 443819, "trial_id": "mouselab_instructions_2_misaligned", "trial_index": 6, "trial_type": "instructions", "view_history": [{"page_index": 0, "viewing_time": 23191}, {"page_index": 1, "viewing_time": 13094}]}, "uniqueid": "w22075787:a47870414"}, {"current_trial": 7, "dateTime": 1691159632460, "trialdata": {"correct": {"Q0": "The cost for clicking on nodes may vary between nodes.", "Q1": "The better I perform the higher my bonus will be.", "Q2": "No, the amount of cash at each node of the web may be different each time.", "Q3": "To get the highest total score.", "Q4": "Only before moving the spider.", "Q5": "3 seconds"}, "internal_node_id": "0.0-2.0-4.0", "question_order": [0, 1, 2, 3, 4, 5], "response": {"Q0": "The cost for clicking on nodes may vary between nodes.", "Q1": "The better I perform the higher my bonus will be.", "Q2": "No, the amount of cash at each node of the web may be different each time.", "Q3": "To get the highest total score.", "Q4": "Only before moving the spider.", "Q5": "3 seconds"}, "rt": 53856, "time_elapsed": 497698, "trial_id": "mouselab_quiz_misaligned", "trial_index": 7, "trial_type": "survey-multi-choice"}, "uniqueid": "w22075787:a47870414"}, {"current_trial": 8, "dateTime": 1691159656804, "trialdata": {"internal_node_id": "0.0-4.0-0.0", "response": " ", "rt": 24308, "stimulus": "\n<h1> Get ready to start the game! </h1>\n\nThank you for reading the instructions. Get ready start with the 40 rounds of this game.\n<br><br>\nIf you need to take a break, feel free to take one after the end of a round, before continuing to the next one.\n<br><br>\nRemember, the more money the spider gets, the bigger your bonus will be!\n<br><br>\n<div style='text-align: center;'>Press <code>space</code> to begin.</div>\n\n<br><br>\n(If, at any point, the <code>space</code> key does not take you to the next page, click once on the text and try again.)", "time_elapsed": 522042, "trial_id": "mdp_ready", "trial_index": 8, "trial_type": "html-keyboard-response"}, "uniqueid": "w22075787:a47870414"}, {"current_trial": 9, "dateTime": 1691159725853, "trialdata": {"actionTimes": [60209, 61221, 62024, 62800, 63577], "actions": ["right", "right", "right", "down", "left"], "block": "test", "clicked_states": ["27", "28", "16", "17", "20", "21", "22", "5", "6", "9", "11", "10", "7", "29", "33", "32", "31"], "costs": -36.54999999999999, "displayed_time": "64.11", "internal_node_id": "0.0-4.0-1.0-0.0", "num_clicks_accrued": [0, 0, 0, 0, 0, 0, 0, 0, 0, 0, 0, 0, 0], "path": ["0", "0", "12", "13", "14", "19", "22"], "queries": {"click": {"edge": {"target": [], "time": []}, "state": {"target": ["27", "28", "16", "17", "20", "21", "22", "5", "6", "9", "11", "10", "7", "29", "33", "32", "31"], "time": [3855, 6816, 9947, 13123, 16314, 19496, 22657, 25846, 29047, 31844, 35057, 37952, 41095, 44008, 47126, 50249, 53982]}}, "mouseout": {"edge": {"target": [], "time": []}, "state": {"target": ["1", "28", "26", "27", "26", "28", "26", "18", "16", "17", "15", "14", "20", "21", "22", "13", "6", "18", "13", "22", "13", "18", "6", "5", "6", "9", "8", "11", "10", "2", "7", "2", "10", "26", "29", "33", "32", "31"], "time": [765, 3184, 3400, 4105, 5882, 7273, 8656, 9308, 10387, 13539, 15297, 15791, 16823, 19761, 20259, 20321, 20558, 21144, 21179, 23074, 23159, 23214, 23416, 26207, 29268, 32424, 32510, 35426, 38396, 38649, 41466, 41536, 41621, 42046, 44365, 47521, 50523, 54361]}}, "mouseover": {"edge": {"target": [], "time": []}, "state": {"target": ["28", "26", "27", "26", "28", "26", "18", "16", "17", "15", "14", "20", "21", "22", "13", "6", "18", "13", "22", "13", "18", "6", "5", "6", "9", "8", "11", "10", "2", "7", "2", "26", "29", "33", "32", "31"], "time": [2974, 3317, 3500, 4231, 6074, 7403, 9193, 9510, 10707, 13663, 15317, 15976, 17107, 19984, 20274, 20465, 21112, 21149, 21222, 23137, 23184, 23367, 23782, 26317, 29866, 32476, 32679, 35548, 38524, 38829, 41506, 41926, 42186, 44815, 47698, 51280]}}}, "revealed_states": [], "rewards": [1, -4, 7, 5, 88], "rt": [57312, 470, 262, 237, 216], "score": 60.45000000000001, "simulationMode": [null, null, null, null, null], "stateRewards": ["", -1, 2, -7, -12, -62, 12, -13, 5, 77, -71, 83, 1, -4, 7, 15, -42, -87, -4, 5, -25, 44, 88, -1, 4, -5, -8, 14, 51, 8, -5, 83, -24, -19], "time_elapsed": 591089, "trialIndex": 2, "trialTime": 68653, "trial_id": "mdp_trial_1", "trial_index": 9, "trial_type": "mouselab-mdp", "withholdReward": false}, "uniqueid": "w22075787:a47870414"}, {"current_trial": 10, "dateTime": 1691159784836, "trialdata": {"actionTimes": [51665, 52229, 52807, 53506, 54129], "actions": ["right", "right", "right", "up", "right"], "block": "test", "clicked_states": ["28", "27", "29", "33", "32", "31", "22", "21", "20", "17", "16", "18", "7", "6"], "costs": -30.09999999999999, "displayed_time": "54.66", "internal_node_id": "0.0-4.0-1.0-1.0", "num_clicks_accrued": [0, 0, 0, 0, 0, 0, 0, 0, 0, 0, 0, 0, 0], "path": ["0", "0", "12", "13", "14", "15", "17"], "queries": {"click": {"edge": {"target": [], "time": []}, "state": {"target": ["28", "27", "29", "33", "32", "31", "22", "21", "20", "17", "16", "18", "7", "6"], "time": [4094, 8332, 11607, 14759, 17931, 21100, 24387, 27556, 30788, 33957, 37100, 40324, 43490, 46634]}}, "mouseout": {"edge": {"target": [], "time": []}, "state": {"target": ["0", "23", "24", "28", "27", "27", "29", "30", "33", "32", "31", "22", "21", "20", "17", "16", "18", "7", "6", "5", "4", "4", "7"], "time": [3381, 3511, 3663, 4354, 7762, 8751, 11933, 12924, 15214, 18138, 21410, 24696, 27885, 31118, 34152, 37501, 40789, 43729, 46821, 50065, 50148, 50205, 50369]}}, "mouseover": {"edge": {"target": [], "time": []}, "state": {"target": ["23", "24", "28", "27", "27", "29", "30", "33", "32", "31", "22", "21", "20", "17", "16", "18", "7", "6", "5", "4", "4", "7"], "time": [3403, 3594, 3763, 4542, 8095, 9010, 12883, 13100, 15423, 18432, 22280, 24871, 28119, 31809, 34312, 37694, 41622, 44025, 47105, 50120, 50191, 50314]}}}, "revealed_states": [], "rewards": [-1, -1, -5, 7, 69], "rt": [48524, 6, 17, 160, 90], "score": 38.900000000000006, "simulationMode": [null, null, null, null, null], "stateRewards": ["", -2, -4, 4, -11, -63, -60, -7, 2, -14, 81, -43, -1, -1, -5, 7, 10, 69, 40, 8, -83, 52, 60, 1, 2, 5, -5, 16, 64, 14, -3, 29, 7, -51], "time_elapsed": 650072, "trialIndex": 3, "trialTime": 58621, "trial_id": "mdp_trial_2", "trial_index": 10, "trial_type": "mouselab-mdp", "withholdReward": false}, "uniqueid": "w22075787:a47870414"}, {"current_trial": 11, "dateTime": 1691159828815, "trialdata": {"actionTimes": [36771, 37823, 38645, 39275, 39997], "actions": ["left", "left", "left", "down", "down"], "block": "test", "clicked_states": ["27", "28", "33", "32", "31", "21", "20", "16", "5", "9"], "costs": -21.499999999999996, "displayed_time": "40.54", "internal_node_id": "0.0-4.0-1.0-2.0", "num_clicks_accrued": [0, 0, 0, 0, 0, 0, 0, 0, 0, 0, 0, 0, 0], "path": ["0", "0", "23", "24", "25", "30", "32"], "queries": {"click": {"edge": {"target": [], "time": []}, "state": {"target": ["27", "28", "33", "32", "31", "21", "20", "16", "5", "9"], "time": [2863, 6082, 9314, 12490, 15658, 18937, 22123, 25394, 28617, 31833]}}, "mouseout": {"edge": {"target": [], "time": []}, "state": {"target": ["1", "28", "27", "28", "29", "33", "32", "32", "31", "22", "19", "20", "21", "20", "17", "16", "6", "5", "6", "9", "8", "11"], "time": [809, 2407, 3105, 6422, 7320, 9416, 10401, 12594, 15968, 16399, 16452, 17159, 19184, 22161, 22690, 25488, 25955, 29034, 29548, 32241, 32744, 42033]}}, "mouseover": {"edge": {"target": [], "time": []}, "state": {"target": ["28", "27", "28", "29", "33", "32", "32", "31", "22", "19", "20", "21", "20", "17", "16", "6", "5", "6", "9", "8", "11"], "time": [2356, 2541, 3225, 6761, 8600, 9749, 10813, 13056, 16355, 16422, 17071, 17555, 19439, 22599, 22862, 25846, 26214, 29262, 29718, 32374, 32857]}}}, "revealed_states": [], "rewards": [2, -3, -3, -5, 79], "rt": [35024, 508, 264, 81, 181], "score": 48.5, "simulationMode": [null, null, null, null, null], "stateRewards": ["", -2, 2, -5, 1, 42, -63, -58, -6, 2, 16, 81, -2, 4, 7, -10, 33, 3, -33, -2, -52, -84, -27, 2, -3, -3, 15, -74, -14, -5, -5, -84, 79, -31], "time_elapsed": 694050, "trialIndex": 4, "trialTime": 43618, "trial_id": "mdp_trial_3", "trial_index": 11, "trial_type": "mouselab-mdp", "withholdReward": false}, "uniqueid": "w22075787:a47870414"}, {"current_trial": 12, "dateTime": 1691159859753, "trialdata": {"actionTimes": [22251, 22792, 23884, 24920, 25478], "actions": ["up", "up", "up", "left", "up"], "block": "test", "clicked_states": ["9", "11", "20", "21", "22"], "costs": -10.75, "displayed_time": "26.02", "internal_node_id": "0.0-4.0-1.0-3.0", "num_clicks_accrued": [0, 0, 0, 0, 0, 0, 0, 0, 0, 0, 0, 0, 0], "path": ["0", "0", "1", "2", "3", "8", "9"], "queries": {"click": {"edge": {"target": [], "time": []}, "state": {"target": ["9", "11", "20", "21", "22"], "time": [3421, 6682, 10473, 13916, 17160]}}, "mouseout": {"edge": {"target": [], "time": []}, "state": {"target": ["8", "10", "0", "8", "9", "9", "11", "8", "7", "15", "20", "21", "22"], "time": [833, 928, 2282, 2849, 3810, 4170, 7029, 7255, 7776, 8226, 10888, 14178, 17732]}}, "mouseover": {"edge": {"target": [], "time": []}, "state": {"target": ["8", "9", "11", "8", "7", "15", "20", "21", "22", "31"], "time": [2633, 2998, 4418, 7109, 7687, 8172, 9981, 11198, 14384, 18133]}}}, "revealed_states": [], "rewards": [2, 1, -3, 16, 71], "rt": [20115, 8, 532, 489, 30], "score": 76.25, "simulationMode": [null, null, null, null, null], "stateRewards": ["", 2, 1, -3, 7, 46, 11, -36, 16, 71, 5, 1, 2, -2, -8, -3, -4, 6, 55, 7, 68, -54, 2, 1, 1, 6, -6, 42, -4, -84, -11, -65, 63, 25], "time_elapsed": 724989, "trialIndex": 5, "trialTime": 30575, "trial_id": "mdp_trial_4", "trial_index": 12, "trial_type": "mouselab-mdp", "withholdReward": false}, "uniqueid": "w22075787:a47870414"}, {"current_trial": 13, "dateTime": 1691159908363, "trialdata": {"actionTimes": [41530, 42614, 43213, 44488, 45114], "actions": ["up", "up", "up", "right", "right"], "block": "test", "clicked_states": ["9", "11", "10", "5", "6", "7", "16", "17", "20", "21", "22"], "costs": -23.649999999999995, "displayed_time": "45.65", "internal_node_id": "0.0-4.0-1.0-4.0", "num_clicks_accrued": [0, 0, 0, 0, 0, 0, 0, 0, 0, 0, 0, 0, 0], "path": ["0", "0", "1", "2", "3", "4", "6"], "queries": {"click": {"edge": {"target": [], "time": []}, "state": {"target": ["9", "11", "10", "5", "6", "7", "16", "17", "20", "21", "22"], "time": [3963, 7188, 10482, 13813, 16962, 20209, 23540, 26753, 29980, 33233, 36827]}}, "mouseout": {"edge": {"target": [], "time": []}, "state": {"target": ["31", "0", "10", "8", "9", "11", "10", "2", "7", "6", "5", "6", "7", "16", "17", "20", "21", "22"], "time": [938, 3074, 3184, 3540, 4267, 7448, 10752, 10919, 11112, 11351, 14153, 17292, 20578, 23912, 27091, 30285, 33538, 37431]}}, "mouseover": {"edge": {"target": [], "time": []}, "state": {"target": ["10", "8", "9", "11", "10", "2", "7", "6", "5", "6", "7", "16", "17", "20", "21", "22"], "time": [3165, 3322, 3704, 4539, 7648, 10848, 10960, 11319, 11553, 14330, 17555, 20914, 24074, 27660, 30441, 33776]}}}, "revealed_states": [], "rewards": [2, -3, 5, 11, 54], "rt": [38943, 532, 52, 705, 83], "score": 45.35000000000001, "simulationMode": [null, null, null, null, null], "stateRewards": ["", 2, -3, 5, 11, -79, 54, 11, -9, -78, 33, 22, -2, -1, 2, 14, 43, 34, 1, 10, 49, -65, 39, -1, 1, -1, 3, -16, -2, 11, 2, 12, 48, -65], "time_elapsed": 773598, "trialIndex": 6, "trialTime": 48251, "trial_id": "mdp_trial_5", "trial_index": 13, "trial_type": "mouselab-mdp", "withholdReward": false}, "uniqueid": "w22075787:a47870414"}, {"current_trial": 14, "dateTime": 1691159943408, "trialdata": {"actionTimes": [28049, 28969, 29640, 31017, 31683], "actions": ["right", "right", "right", "up", "right"], "block": "test", "clicked_states": ["33", "32", "31", "22", "21", "20", "17"], "costs": -15.05, "displayed_time": "32.22", "internal_node_id": "0.0-4.0-1.0-5.0", "num_clicks_accrued": [0, 0, 0, 0, 0, 0, 0, 0, 0, 0, 0, 0, 0], "path": ["0", "0", "12", "13", "14", "15", "17"], "queries": {"click": {"edge": {"target": [], "time": []}, "state": {"target": ["33", "32", "31", "22", "21", "20", "17"], "time": [3587, 6820, 10108, 13426, 16637, 19864, 23122]}}, "mouseout": {"edge": {"target": [], "time": []}, "state": {"target": ["0", "1", "10", "28", "24", "30", "33", "32", "31", "22", "21", "20", "17"], "time": [1837, 2007, 2181, 2612, 2711, 2955, 3932, 7097, 10373, 13738, 16841, 20030, 23320]}}, "mouseover": {"edge": {"target": [], "time": []}, "state": {"target": ["1", "10", "28", "24", "30", "33", "32", "31", "22", "21", "20", "17", "16"], "time": [1956, 2075, 2571, 2673, 2764, 3243, 4153, 7380, 10798, 13954, 17126, 20490, 23532]}}}, "revealed_states": [], "rewards": [1, 2, 7, 14, 55], "rt": [26477, 366, 105, 836, 134], "score": 63.95, "simulationMode": [null, null, null, null, null], "stateRewards": ["", 2, -2, 7, -11, -76, -65, -23, 16, -58, 30, 81, 1, 2, 7, 14, 9, 55, -2, 6, 11, -15, 31, -1, -1, -3, 2, 15, 2, 46, 15, 18, 45, -34], "time_elapsed": 808644, "trialIndex": 7, "trialTime": 34628, "trial_id": "mdp_trial_6", "trial_index": 14, "trial_type": "mouselab-mdp", "withholdReward": false}, "uniqueid": "w22075787:a47870414"}, {"current_trial": 15, "dateTime": 1691159964717, "trialdata": {"actionTimes": [14034, 15018, 15652, 16277, 17036], "actions": ["left", "left", "left", "down", "right"], "block": "test", "clicked_states": [], "costs": 0, "displayed_time": "17.57", "internal_node_id": "0.0-4.0-1.0-6.0", "num_clicks_accrued": [0, 0, 0, 0, 0, 0, 0, 0, 0, 0, 0, 0, 0], "path": ["0", "0", "23", "24", "25", "30", "31"], "queries": {"click": {"edge": {"target": [], "time": []}, "state": {"target": [], "time": []}}, "mouseout": {"edge": {"target": [], "time": []}, "state": {"target": ["16", "12", "0", "23", "24", "25", "30", "33", "32", "33"], "time": [1153, 1568, 4070, 4828, 4964, 5204, 5311, 6105, 7005, 10444]}}, "mouseover": {"edge": {"target": [], "time": []}, "state": {"target": ["0", "23", "24", "25", "30", "33", "32", "33"], "time": [3603, 4438, 4932, 5064, 5256, 5454, 6370, 10147]}}}, "revealed_states": [], "rewards": [-2, 2, 6, -10, -69], "rt": [11317, 451, 101, 98, 213], "score": -73, "simulationMode": [null, null, null, null, null], "stateRewards": ["", -2, -1, -5, 10, -36, -70, 68, -9, 86, 71, -10, 2, -4, 7, -7, 66, 44, -66, -13, -69, 43, 15, -2, 2, 6, -13, 62, 57, 50, -10, -69, 42, -72], "time_elapsed": 829953, "trialIndex": 8, "trialTime": 20915, "trial_id": "mdp_trial_7", "trial_index": 15, "trial_type": "mouselab-mdp", "withholdReward": false}, "uniqueid": "w22075787:a47870414"}, {"current_trial": 16, "dateTime": 1691160004047, "trialdata": {"actionTimes": [33579, 34129, 34716, 35358, 36052], "actions": ["left", "left", "left", "down", "left"], "block": "test", "clicked_states": ["32", "31", "33", "27", "29", "28", "9", "5", "6"], "costs": -19.349999999999998, "displayed_time": "36.59", "internal_node_id": "0.0-4.0-1.0-7.0", "num_clicks_accrued": [0, 0, 0, 0, 0, 0, 0, 0, 0, 0, 0, 0, 0], "path": ["0", "0", "23", "24", "25", "30", "33"], "queries": {"click": {"edge": {"target": [], "time": []}, "state": {"target": ["32", "31", "33", "27", "29", "28", "9", "5", "6"], "time": [3020, 6200, 9458, 12603, 15841, 19074, 22224, 25618, 28872]}}, "mouseout": {"edge": {"target": [], "time": []}, "state": {"target": ["23", "0", "23", "31", "32", "31", "30", "33", "26", "27", "27", "29", "26", "28", "8", "9", "5", "6", "16"], "time": [867, 2093, 2209, 2484, 3110, 6466, 6649, 9740, 10222, 10588, 12966, 16223, 16436, 19383, 19753, 22546, 26102, 29438, 29867]}}, "mouseover": {"edge": {"target": [], "time": []}, "state": {"target": ["23", "31", "32", "31", "30", "33", "26", "27", "27", "29", "26", "28", "8", "9", "5", "6", "16"], "time": [2183, 2383, 2749, 3578, 6512, 6842, 10047, 10306, 10827, 13152, 16307, 16602, 19717, 19916, 22926, 26264, 29688]}}}, "revealed_states": [], "rewards": [-1, 3, 3, -8, 69], "rt": [31556, 13, 38, 97, 171], "score": 46.650000000000006, "simulationMode": [null, null, null, null, null], "stateRewards": ["", 1, -3, -2, 14, 49, -40, -39, 2, 26, -61, 73, 1, -4, -8, 12, 79, 29, -65, -13, 55, -26, 27, -1, 3, 3, 9, -17, -60, -18, -8, 35, -88, 69], "time_elapsed": 869282, "trialIndex": 9, "trialTime": 38916, "trial_id": "mdp_trial_8", "trial_index": 16, "trial_type": "mouselab-mdp", "withholdReward": false}, "uniqueid": "w22075787:a47870414"}, {"current_trial": 17, "dateTime": 1691160047322, "trialdata": {"actionTimes": [37739, 38836, 39505, 40173, 40852], "actions": ["left", "left", "left", "down", "down"], "block": "test", "clicked_states": ["33", "32", "31", "29", "27", "9", "5", "6", "11", "10"], "costs": -21.499999999999996, "displayed_time": "41.40", "internal_node_id": "0.0-4.0-1.0-8.0", "num_clicks_accrued": [0, 0, 0, 0, 0, 0, 0, 0, 0, 0, 0, 0, 0], "path": ["0", "0", "23", "24", "25", "30", "32"], "queries": {"click": {"edge": {"target": [], "time": []}, "state": {"target": ["33", "32", "31", "29", "27", "9", "5", "6", "11", "10"], "time": [3344, 6632, 9854, 13348, 16616, 19887, 23101, 26331, 29636, 32910]}}, "mouseout": {"edge": {"target": [], "time": []}, "state": {"target": ["18", "12", "0", "23", "24", "25", "33", "32", "31", "24", "28", "26", "29", "26", "27", "9", "5", "6", "4", "3", "8", "11", "10", "2"], "time": [1102, 1304, 2519, 2598, 2692, 2775, 3722, 6672, 10177, 10402, 10626, 11969, 13607, 13738, 16890, 20200, 23398, 26710, 26841, 26971, 27148, 30086, 33354, 33724]}}, "mouseover": {"edge": {"target": [], "time": []}, "state": {"target": ["23", "24", "25", "33", "32", "31", "24", "28", "26", "29", "26", "27", "9", "5", "6", "4", "3", "8", "11", "10", "2", "7"], "time": [2535, 2634, 2756, 3069, 3934, 7177, 10286, 10587, 11272, 12166, 13709, 15399, 17458, 20484, 23638, 26757, 26886, 27004, 27351, 30248, 33523, 33855]}}}, "revealed_states": [], "rewards": [2, 3, 5, 7, 59], "rt": [35231, 539, 120, 122, 131], "score": 54.5, "simulationMode": [null, null, null, null, null], "stateRewards": ["", -2, 1, -8, 12, -65, -79, 16, 7, -80, -17, -45, -2, 2, -5, -2, -85, 23, -4, -7, 48, 27, -76, 2, 3, 5, 2, 43, 71, -13, 7, -49, 59, -31], "time_elapsed": 912557, "trialIndex": 10, "trialTime": 42894, "trial_id": "mdp_trial_9", "trial_index": 17, "trial_type": "mouselab-mdp", "withholdReward": false}, "uniqueid": "w22075787:a47870414"}, {"current_trial": 18, "dateTime": 1691160083528, "trialdata": {"actionTimes": [29631, 30184, 30907, 32699, 33314], "actions": ["right", "right", "right", "up", "up"], "block": "test", "clicked_states": ["32", "31", "22", "21", "20", "17", "16"], "costs": -15.05, "displayed_time": "33.84", "internal_node_id": "0.0-4.0-1.0-9.0", "num_clicks_accrued": [0, 0, 0, 0, 0, 0, 0, 0, 0, 0, 0, 0, 0], "path": ["0", "0", "12", "13", "14", "15", "16"], "queries": {"click": {"edge": {"target": [], "time": []}, "state": {"target": ["32", "31", "22", "21", "20", "17", "16"], "time": [3943, 7415, 10807, 13968, 17271, 20542, 23943]}}, "mouseout": {"edge": {"target": [], "time": []}, "state": {"target": ["7", "0", "23", "31", "32", "31", "22", "22", "21", "20", "17", "16", "18"], "time": [1043, 3165, 3254, 3338, 4507, 8295, 8833, 11114, 14229, 17546, 20633, 24395, 27433]}}, "mouseover": {"edge": {"target": [], "time": []}, "state": {"target": ["23", "31", "32", "31", "22", "22", "21", "20", "17", "16", "18"], "time": [3199, 3302, 3662, 4803, 8732, 9170, 11330, 14481, 17983, 20958, 24566]}}}, "revealed_states": [], "rewards": [-2, -3, 4, -5, 57], "rt": [26731, 6, 155, 1246, 84], "score": 35.95, "simulationMode": [null, null, null, null, null], "stateRewards": ["", 1, 1, -7, -9, -44, 24, -83, -15, 44, -24, 72, -2, -3, 4, -5, 57, 55, 29, -11, 22, 12, -25, -1, 2, 7, 12, 33, -8, 47, -4, 8, 50, -4], "time_elapsed": 948763, "trialIndex": 11, "trialTime": 35767, "trial_id": "mdp_trial_10", "trial_index": 18, "trial_type": "mouselab-mdp", "withholdReward": false}, "uniqueid": "w22075787:a47870414"}, {"current_trial": 19, "dateTime": 1691160136069, "trialdata": {"actionTimes": [46383, 47506, 48128, 49381, 49998], "actions": ["up", "up", "up", "right", "right"], "block": "test", "clicked_states": ["9", "11", "5", "6", "7", "16", "17", "20", "21", "22", "32", "33"], "costs": -25.799999999999994, "displayed_time": "50.54", "internal_node_id": "0.0-4.0-1.0-10.0", "num_clicks_accrued": [0, 0, 0, 0, 0, 0, 0, 0, 0, 0, 0, 0, 0], "path": ["0", "0", "1", "2", "3", "4", "6"], "queries": {"click": {"edge": {"target": [], "time": []}, "state": {"target": ["9", "11", "5", "6", "7", "16", "17", "20", "21", "22", "32", "33"], "time": [3896, 7076, 10379, 13578, 16901, 20361, 23593, 26776, 30017, 33304, 37456, 40793]}}, "mouseout": {"edge": {"target": [], "time": []}, "state": {"target": ["7", "2", "10", "23", "0", "1", "8", "9", "11", "8", "3", "5", "6", "7", "15", "16", "17", "20", "21", "22", "32", "32", "33", "30"], "time": [602, 630, 658, 851, 2938, 3079, 3333, 4233, 7414, 7461, 7554, 10750, 13852, 17293, 18127, 20717, 23849, 27077, 30281, 34096, 36802, 37687, 41190, 41235]}}, "mouseover": {"edge": {"target": [], "time": []}, "state": {"target": ["1", "8", "9", "11", "8", "3", "5", "6", "7", "15", "16", "17", "20", "21", "22", "32", "32", "33", "30"], "time": [3014, 3196, 3470, 4366, 7430, 7525, 7771, 10997, 14601, 18027, 18498, 20922, 24199, 27209, 30457, 36376, 37045, 37928, 41213]}}}, "revealed_states": [], "rewards": [1, 1, -5, 8, 45], "rt": [44055, 569, 91, 709, 63], "score": 24.200000000000006, "simulationMode": [null, null, null, null, null], "stateRewards": ["", 1, 1, -5, 8, -6, 45, 16, -6, -7, -22, -38, -1, -4, 8, -11, -16, 21, -45, -15, -59, -32, 42, -1, 3, 6, 11, -7, 34, -27, -8, 85, 43, -9], "time_elapsed": 1001304, "trialIndex": 12, "trialTime": 52128, "trial_id": "mdp_trial_11", "trial_index": 19, "trial_type": "mouselab-mdp", "withholdReward": false}, "uniqueid": "w22075787:a47870414"}, {"current_trial": 20, "dateTime": 1691160192233, "trialdata": {"actionTimes": [50554, 51674, 52272, 53256, 53849], "actions": ["up", "up", "up", "left", "down"], "block": "test", "clicked_states": ["32", "33", "31", "5", "6", "16", "17", "20", "21", "22", "9", "11", "10"], "costs": -27.949999999999992, "displayed_time": "54.39", "internal_node_id": "0.0-4.0-1.0-11.0", "num_clicks_accrued": [0, 0, 0, 0, 0, 0, 0, 0, 0, 0, 0, 0, 0], "path": ["0", "0", "1", "2", "3", "8", "10"], "queries": {"click": {"edge": {"target": [], "time": []}, "state": {"target": ["32", "33", "31", "5", "6", "16", "17", "20", "21", "22", "9", "11", "10"], "time": [4096, 7401, 10634, 13842, 17128, 20321, 23593, 26880, 30104, 33365, 38023, 41622, 45617]}}, "mouseout": {"edge": {"target": [], "time": []}, "state": {"target": ["0", "24", "32", "33", "30", "31", "5", "6", "16", "16", "17", "20", "21", "22", "3", "3", "9", "9", "11", "10", "10"], "time": [3455, 3596, 4424, 7785, 7942, 10671, 14237, 17448, 17846, 20663, 23961, 27213, 30311, 36025, 36862, 37063, 37248, 38524, 42485, 45681, 46613]}}, "mouseover": {"edge": {"target": [], "time": []}, "state": {"target": ["24", "32", "33", "30", "31", "5", "6", "16", "16", "17", "20", "21", "22", "3", "3", "9", "9", "11", "10"], "time": [3496, 3837, 4654, 7817, 8096, 12475, 14473, 17810, 17911, 20913, 24336, 27391, 30719, 36777, 36925, 37215, 37412, 38811, 45175]}}}, "revealed_states": [], "rewards": [1, 4, -8, 13, 40], "rt": [47630, 573, 61, 424, 60], "score": 22.050000000000008, "simulationMode": [null, null, null, null, null], "stateRewards": ["", 1, 4, -8, -5, -15, -7, 21, 13, -30, 40, -65, 1, 1, 5, -14, 35, 27, -38, -11, 36, -58, -47, -2, 4, -3, 13, -16, -49, 22, 15, -56, -44, -10], "time_elapsed": 1057469, "trialIndex": 13, "trialTime": 55758, "trial_id": "mdp_trial_12", "trial_index": 20, "trial_type": "mouselab-mdp", "withholdReward": false}, "uniqueid": "w22075787:a47870414"}, {"current_trial": 21, "dateTime": 1691160217227, "trialdata": {"actionTimes": [18649, 19643, 20225, 20846, 21560], "actions": ["left", "left", "left", "down", "left"], "block": "test", "clicked_states": ["32", "33", "22", "20"], "costs": -8.6, "displayed_time": "22.11", "internal_node_id": "0.0-4.0-1.0-12.0", "num_clicks_accrued": [0, 0, 0, 0, 0, 0, 0, 0, 0, 0, 0, 0, 0], "path": ["0", "0", "23", "24", "25", "30", "33"], "queries": {"click": {"edge": {"target": [], "time": []}, "state": {"target": ["32", "33", "22", "20"], "time": [3492, 6775, 10548, 13957]}}, "mouseout": {"edge": {"target": [], "time": []}, "state": {"target": ["0", "23", "32", "33", "30", "31", "22", "19", "20"], "time": [2697, 2747, 3807, 7019, 7231, 7352, 10843, 11116, 14839]}}, "mouseover": {"edge": {"target": [], "time": []}, "state": {"target": ["23", "32", "33", "30", "31", "22", "19", "20"], "time": [2730, 2913, 3904, 7181, 7305, 7945, 10943, 11239]}}}, "revealed_states": [], "rewards": [1, 2, -1, -1, 45], "rt": [16299, 438, 36, 75, 179], "score": 37.4, "simulationMode": [null, null, null, null, null], "stateRewards": ["", 1, 3, -2, 15, 51, 15, -19, 11, 67, -45, -73, 2, 4, -2, -13, 36, 9, -28, 10, -30, 31, 16, 1, 2, -1, -16, 14, -22, 36, -1, 88, -5, 45], "time_elapsed": 1082463, "trialIndex": 14, "trialTime": 24562, "trial_id": "mdp_trial_13", "trial_index": 21, "trial_type": "mouselab-mdp", "withholdReward": false}, "uniqueid": "w22075787:a47870414"}, {"current_trial": 22, "dateTime": 1691160245325, "trialdata": {"actionTimes": [21143, 22150, 22726, 24210, 25007], "actions": ["up", "up", "up", "right", "right"], "block": "test", "clicked_states": ["32", "33", "5", "6", "7"], "costs": -10.75, "displayed_time": "25.55", "internal_node_id": "0.0-4.0-1.0-13.0", "num_clicks_accrued": [0, 0, 0, 0, 0, 0, 0, 0, 0, 0, 0, 0, 0], "path": ["0", "0", "1", "2", "3", "4", "6"], "queries": {"click": {"edge": {"target": [], "time": []}, "state": {"target": ["32", "33", "5", "6", "7"], "time": [4006, 7307, 10541, 13803, 17053]}}, "mouseout": {"edge": {"target": [], "time": []}, "state": {"target": ["0", "23", "31", "32", "33", "30", "31", "24", "2", "4", "5", "6", "7"], "time": [3087, 3150, 3386, 4403, 7698, 7932, 8048, 8122, 8279, 8435, 10843, 14115, 17761]}}, "mouseover": {"edge": {"target": [], "time": []}, "state": {"target": ["23", "31", "32", "33", "30", "31", "24", "2", "4", "5", "6", "7"], "time": [3101, 3271, 3541, 4685, 7782, 8016, 8088, 8247, 8415, 8480, 10867, 14300]}}}, "revealed_states": [], "rewards": [1, 2, -3, 6, 74], "rt": [18654, 472, 25, 942, 261], "score": 69.25, "simulationMode": [null, null, null, null, null], "stateRewards": ["", 1, 2, -3, 6, -88, 74, -45, 7, -46, 40, -77, 1, -4, 4, 3, 22, -25, -59, 8, -83, 19, -60, -1, -1, -1, -8, 26, -29, 64, -7, -88, -51, -55], "time_elapsed": 1110560, "trialIndex": 15, "trialTime": 27672, "trial_id": "mdp_trial_14", "trial_index": 22, "trial_type": "mouselab-mdp", "withholdReward": false}, "uniqueid": "w22075787:a47870414"}, {"current_trial": 23, "dateTime": 1691160289609, "trialdata": {"actionTimes": [37526, 38405, 39038, 40339, 41356], "actions": ["left", "left", "left", "up", "left"], "block": "test", "clicked_states": ["32", "33", "5", "6", "20", "21", "22", "27", "29"], "costs": -19.349999999999998, "displayed_time": "41.91", "internal_node_id": "0.0-4.0-1.0-14.0", "num_clicks_accrued": [0, 0, 0, 0, 0, 0, 0, 0, 0, 0, 0, 0, 0], "path": ["0", "0", "23", "24", "25", "26", "29"], "queries": {"click": {"edge": {"target": [], "time": []}, "state": {"target": ["32", "33", "5", "6", "20", "21", "22", "27", "29"], "time": [4930, 8335, 11912, 15317, 18715, 22060, 25371, 28938, 32345]}}, "mouseout": {"edge": {"target": [], "time": []}, "state": {"target": ["28", "23", "0", "23", "24", "25", "30", "32", "33", "33", "30", "31", "23", "3", "5", "6", "7", "18", "14", "19", "20", "21", "22", "0", "23", "28", "27", "29"], "time": [946, 1111, 4014, 4071, 4123, 4223, 4500, 4958, 8600, 8682, 8886, 9477, 9927, 10353, 12185, 15647, 16954, 17036, 17255, 17431, 18977, 22354, 27277, 27919, 27984, 28179, 29272, 33037]}}, "mouseover": {"edge": {"target": [], "time": []}, "state": {"target": ["23", "24", "25", "30", "32", "33", "30", "31", "23", "3", "5", "6", "7", "18", "14", "19", "20", "21", "22", "0", "23", "28", "27", "29"], "time": [4058, 4088, 4205, 4274, 4647, 5560, 8741, 8939, 9822, 10175, 10518, 12360, 15809, 16991, 17158, 17404, 17590, 19277, 22589, 27904, 27934, 28123, 28480, 29587]}}}, "revealed_states": [], "rewards": [2, -3, -6, 4, 54], "rt": [34042, 332, 100, 768, 472], "score": 31.650000000000002, "simulationMode": [null, null, null, null, null], "stateRewards": ["", -1, 4, -5, 9, 29, -75, -42, -16, 24, -28, -41, 2, -3, 1, 10, 60, 47, 55, -1, -53, 22, -40, 2, -3, -6, 4, -26, 44, 54, 15, -76, 42, 14], "time_elapsed": 1154799, "trialIndex": 16, "trialTime": 43732, "trial_id": "mdp_trial_15", "trial_index": 23, "trial_type": "mouselab-mdp", "withholdReward": false}, "uniqueid": "w22075787:a47870414"}, {"current_trial": 24, "dateTime": 1691160320065, "trialdata": {"actionTimes": [14122, 16993, 19810, 21602, 23006], "actions": ["up", "up", "up", "right", "up"], "block": "test", "clicked_states": ["5"], "costs": -2.15, "displayed_time": "23.58", "internal_node_id": "0.0-4.0-1.0-15.0", "num_clicks_accrued": [0, 0, 0, 0, 0, 0, 0, 0, 0, 0, 0, 0, 0], "path": ["0", "0", "1", "2", "3", "4", "5"], "queries": {"click": {"edge": {"target": [], "time": []}, "state": {"target": ["5"], "time": [5411]}}, "mouseout": {"edge": {"target": [], "time": []}, "state": {"target": ["25", "24", "23", "0", "5"], "time": [712, 746, 829, 4342, 5888]}}, "mouseover": {"edge": {"target": [], "time": []}, "state": {"target": ["5", "6"], "time": [5191, 6200]}}}, "revealed_states": [], "rewards": [-1, 2, -2, 5, 80], "rt": [10084, 1976, 1388, 1258, 865], "score": 81.85, "simulationMode": [null, null, null, null, null], "stateRewards": ["", -1, 2, -2, 5, 80, -61, -27, 12, 44, -26, -75, -2, -4, 1, -16, 42, -49, -50, 4, -44, 2, 80, -2, -2, 5, -2, 59, 10, 24, 7, -48, -86, -44], "time_elapsed": 1185263, "trialIndex": 17, "trialTime": 29126, "trial_id": "mdp_trial_16", "trial_index": 24, "trial_type": "mouselab-mdp", "withholdReward": false}, "uniqueid": "w22075787:a47870414"}, {"current_trial": 25, "dateTime": 1691160518863, "trialdata": {"actionTimes": [105752, 106692, 108652, 109856, 110594], "actions": ["right", "right", "right", "up", "right"], "block": "test", "clicked_states": ["33"], "costs": -2.15, "displayed_time": "111.13", "internal_node_id": "0.0-4.0-1.0-16.0", "num_clicks_accrued": [0, 0, 0, 0, 0, 0, 0, 0, 0, 0, 0, 0, 0], "path": ["0", "0", "12", "13", "14", "15", "17"], "queries": {"click": {"edge": {"target": [], "time": []}, "state": {"target": ["33"], "time": [95075]}}, "mouseout": {"edge": {"target": [], "time": []}, "state": {"target": ["17", "13", "18", "13", "18", "13", "18", "12", "0", "0", "0", "14", "17", "13", "12", "0", "23", "0", "12", "1", "12", "14", "13", "12", "0", "0", "31", "30", "33", "33", "25", "24", "22", "19", "20"], "time": [65338, 67179, 68430, 69302, 71408, 72845, 73540, 73669, 73835, 74139, 74556, 74968, 75972, 76039, 76064, 76149, 76356, 76705, 76856, 77892, 78189, 87847, 87914, 88064, 89481, 93543, 93630, 93646, 93662, 98266, 98918, 99085, 99920, 99965, 100061]}}, "mouseover": {"edge": {"target": [], "time": []}, "state": {"target": ["31", "30", "33", "33", "25", "24", "22", "19", "20"], "time": [93612, 93636, 93648, 94202, 98834, 98963, 99886, 99935, 99998]}}}, "revealed_states": [], "rewards": [-2, 1, -2, -14, -77], "rt": [13968, 410, 1440, 644, 216], "score": -96.15, "simulationMode": [null, null, null, null, null], "stateRewards": ["", 1, -1, 4, 5, -32, 18, 20, 6, -88, -74, 9, -2, 1, -2, -14, 34, -77, -38, -1, 80, -36, 73, 2, 3, -8, 10, -48, -73, -71, -11, -22, 20, 54], "time_elapsed": 1384099, "trialIndex": 18, "trialTime": 114612, "trial_id": "mdp_trial_17", "trial_index": 25, "trial_type": "mouselab-mdp", "withholdReward": false}, "uniqueid": "w22075787:a47870414"}, {"current_trial": 26, "dateTime": 1691160539918, "trialdata": {"actionTimes": [12256, 12884, 13539, 14550, 15170], "actions": ["right", "right", "right", "up", "up"], "block": "test", "clicked_states": ["17", "16"], "costs": -4.3, "displayed_time": "17.38", "internal_node_id": "0.0-4.0-1.0-17.0", "num_clicks_accrued": [0, 0, 0, 0, 0, 0, 0, 0, 0, 0, 0, 0, 0], "path": ["0", "0", "12", "13", "14", "15", "16"], "queries": {"click": {"edge": {"target": [], "time": []}, "state": {"target": ["17", "16"], "time": [4400, 7655]}}, "mouseout": {"edge": {"target": [], "time": []}, "state": {"target": ["14", "13", "12", "12", "0", "12", "13", "14", "17", "16", "6"], "time": [1616, 1682, 1804, 1971, 3692, 3770, 3818, 3891, 4901, 7945, 8112]}}, "mouseover": {"edge": {"target": [], "time": []}, "state": {"target": ["12", "13", "14", "17", "16", "6", "6"], "time": [3734, 3784, 3835, 4104, 5089, 8092, 8385]}}}, "revealed_states": [], "rewards": [1, 1, -5, -12, 73], "rt": [8878, 106, 126, 488, 85], "score": 53.7, "simulationMode": [null, null, null, null, null], "stateRewards": ["", 2, 2, 3, -15, 23, -14, 73, -7, -32, -20, -6, 1, 1, -5, -12, 73, 6, -84, 11, -81, -57, 13, -2, -1, -4, -8, -52, -58, 49, 13, 5, -41, -41], "time_elapsed": 1405154, "trialIndex": 19, "trialTime": 19741, "trial_id": "mdp_trial_18", "trial_index": 26, "trial_type": "mouselab-mdp", "withholdReward": false}, "uniqueid": "w22075787:a47870414"}, {"current_trial": 27, "dateTime": 1691160567993, "trialdata": {"actionTimes": [21740, 22321, 22910, 24074, 24805], "actions": ["up", "up", "up", "left", "up"], "block": "test", "clicked_states": ["17", "16", "5", "9", "11"], "costs": -10.75, "displayed_time": "25.34", "internal_node_id": "0.0-4.0-1.0-18.0", "num_clicks_accrued": [0, 0, 0, 0, 0, 0, 0, 0, 0, 0, 0, 0, 0], "path": ["0", "0", "1", "2", "3", "8", "9"], "queries": {"click": {"edge": {"target": [], "time": []}, "state": {"target": ["17", "16", "5", "9", "11"], "time": [4315, 7675, 10845, 14076, 17352]}}, "mouseout": {"edge": {"target": [], "time": []}, "state": {"target": ["6", "12", "0", "13", "17", "17", "16", "6", "5", "9", "11", "27"], "time": [674, 1072, 3643, 3707, 3803, 4722, 8003, 8177, 11102, 14516, 17791, 18784]}}, "mouseover": {"edge": {"target": [], "time": []}, "state": {"target": ["13", "17", "17", "16", "6", "5", "9", "11", "27"], "time": [3689, 3762, 4009, 4992, 8076, 8300, 11259, 14610, 17989]}}}, "revealed_states": [], "rewards": [-2, 2, -4, -3, 69], "rt": [18634, 49, 45, 614, 200], "score": 51.25, "simulationMode": [null, null, null, null, null], "stateRewards": ["", -2, 2, -4, -4, -59, 88, 62, -3, 69, -15, -34, 1, -2, -5, 7, -54, -20, 78, -16, -74, -53, -21, 2, -4, 2, 13, -8, -44, 26, 9, 72, 4, 17], "time_elapsed": 1433229, "trialIndex": 20, "trialTime": 27596, "trial_id": "mdp_trial_19", "trial_index": 27, "trial_type": "mouselab-mdp", "withholdReward": false}, "uniqueid": "w22075787:a47870414"}, {"current_trial": 28, "dateTime": 1691160598732, "trialdata": {"actionTimes": [22260, 22932, 23511, 24145, 24844], "actions": ["left", "left", "left", "down", "left"], "block": "test", "clicked_states": ["6", "5", "27", "29", "33"], "costs": -10.75, "displayed_time": "25.36", "internal_node_id": "0.0-4.0-1.0-19.0", "num_clicks_accrued": [0, 0, 0, 0, 0, 0, 0, 0, 0, 0, 0, 0, 0], "path": ["0", "0", "23", "24", "25", "30", "33"], "queries": {"click": {"edge": {"target": [], "time": []}, "state": {"target": ["6", "5", "27", "29", "33"], "time": [3936, 7210, 10408, 13731, 17642]}}, "mouseout": {"edge": {"target": [], "time": []}, "state": {"target": ["0", "6", "5", "9", "11", "27", "29", "33", "32"], "time": [3133, 4238, 7508, 8477, 8558, 10748, 14164, 17909, 21044]}}, "mouseover": {"edge": {"target": [], "time": []}, "state": {"target": ["6", "5", "9", "11", "27", "29", "33", "32"], "time": [3616, 4463, 7702, 8528, 8919, 10901, 17131, 20845]}}}, "revealed_states": [], "rewards": [-1, -2, 5, -4, 86], "rt": [19733, 155, 19, 116, 180], "score": 73.25, "simulationMode": [null, null, null, null, null], "stateRewards": ["", -1, -4, -1, -5, -28, -23, -15, -15, -38, 59, -87, 2, 2, -5, 9, -55, -39, -71, -6, 85, -85, -11, -1, -2, 5, -10, 1, 25, 41, -4, 69, -35, 86], "time_elapsed": 1463968, "trialIndex": 21, "trialTime": 30300, "trial_id": "mdp_trial_20", "trial_index": 28, "trial_type": "mouselab-mdp", "withholdReward": false}, "uniqueid": "w22075787:a47870414"}, {"current_trial": 29, "dateTime": 1691160619664, "trialdata": {"actionTimes": [15847, 16443, 17037, 18124, 18828], "actions": ["up", "up", "up", "right", "up"], "block": "test", "clicked_states": ["17", "16", "5"], "costs": -6.449999999999999, "displayed_time": "19.36", "internal_node_id": "0.0-4.0-1.0-20.0", "num_clicks_accrued": [0, 0, 0, 0, 0, 0, 0, 0, 0, 0, 0, 0, 0], "path": ["0", "0", "1", "2", "3", "4", "5"], "queries": {"click": {"edge": {"target": [], "time": []}, "state": {"target": ["17", "16", "5"], "time": [4697, 7840, 11035]}}, "mouseout": {"edge": {"target": [], "time": []}, "state": {"target": ["25", "24", "23", "0", "15", "17", "16", "6", "5", "9"], "time": [855, 1187, 1314, 3730, 4142, 4904, 8122, 8283, 11321, 11985]}}, "mouseover": {"edge": {"target": [], "time": []}, "state": {"target": ["15", "17", "16", "6", "5", "9", "9"], "time": [4073, 4373, 5242, 8246, 8659, 11621, 12163]}}}, "revealed_states": [], "rewards": [-2, 2, 3, -7, 76], "rt": [12292, 54, 59, 565, 170], "score": 65.55, "simulationMode": [null, null, null, null, null], "stateRewards": ["", -2, 2, 3, -7, 76, 63, 21, 15, 35, -8, -44, 1, 1, -2, -12, 23, 24, 76, -9, 46, 66, -49, -2, -1, 7, 12, 40, -71, -45, -6, 38, -49, 46], "time_elapsed": 1484900, "trialIndex": 22, "trialTime": 20498, "trial_id": "mdp_trial_21", "trial_index": 29, "trial_type": "mouselab-mdp", "withholdReward": false}, "uniqueid": "w22075787:a47870414"}, {"current_trial": 30, "dateTime": 1691160652306, "trialdata": {"actionTimes": [27473, 28084, 28757, 29738, 30341], "actions": ["up", "up", "up", "left", "left"], "block": "test", "clicked_states": ["17", "18", "28", "29", "27", "11", "9"], "costs": -15.05, "displayed_time": "30.87", "internal_node_id": "0.0-4.0-1.0-21.0", "num_clicks_accrued": [0, 0, 0, 0, 0, 0, 0, 0, 0, 0, 0, 0, 0], "path": ["0", "0", "1", "2", "3", "8", "11"], "queries": {"click": {"edge": {"target": [], "time": []}, "state": {"target": ["17", "18", "28", "29", "27", "11", "9"], "time": [3503, 6773, 9941, 13151, 16408, 19623, 22924]}}, "mouseout": {"edge": {"target": [], "time": []}, "state": {"target": ["9", "8", "10", "23", "0", "12", "13", "15", "17", "15", "18", "28", "26", "29", "27", "11", "9", "5", "6"], "time": [706, 835, 917, 1133, 2603, 2669, 2771, 2948, 3937, 4059, 7117, 10289, 10522, 13518, 16846, 19731, 23318, 23593, 24839]}}, "mouseover": {"edge": {"target": [], "time": []}, "state": {"target": ["12", "13", "15", "17", "15", "18", "28", "26", "29", "27", "11", "9", "5", "6"], "time": [2641, 2682, 2931, 3069, 3966, 4131, 7709, 10407, 10675, 13753, 17604, 20158, 23513, 24527]}}}, "revealed_states": [], "rewards": [2, -3, 5, -11, 68], "rt": [25244, 86, 138, 451, 68], "score": 45.95, "simulationMode": [null, null, null, null, null], "stateRewards": ["", 2, -3, 5, -14, -63, -9, -24, -11, -54, -43, 68, 2, -2, -4, 7, -64, 30, 47, 12, -74, 11, 86, 1, -3, 3, 10, -71, -42, -52, -1, -29, -16, 69], "time_elapsed": 1517543, "trialIndex": 23, "trialTime": 32196, "trial_id": "mdp_trial_22", "trial_index": 30, "trial_type": "mouselab-mdp", "withholdReward": false}, "uniqueid": "w22075787:a47870414"}, {"current_trial": 31, "dateTime": 1691160698545, "trialdata": {"actionTimes": [40093, 40773, 41420, 42096, 42786], "actions": ["left", "left", "left", "down", "left"], "block": "test", "clicked_states": ["20", "21", "22", "31", "33", "32", "29", "27", "11", "6"], "costs": -21.499999999999996, "displayed_time": "43.31", "internal_node_id": "0.0-4.0-1.0-22.0", "num_clicks_accrued": [0, 0, 0, 0, 0, 0, 0, 0, 0, 0, 0, 0, 0], "path": ["0", "0", "23", "24", "25", "30", "33"], "queries": {"click": {"edge": {"target": [], "time": []}, "state": {"target": ["20", "21", "22", "31", "33", "32", "29", "27", "11", "6"], "time": [3896, 7408, 10664, 14178, 17387, 20895, 24154, 27416, 30940, 35293]}}, "mouseout": {"edge": {"target": [], "time": []}, "state": {"target": ["16", "18", "13", "12", "0", "12", "13", "14", "20", "21", "22", "32", "31", "30", "33", "32", "30", "25", "26", "29", "27", "11", "9", "3", "5", "6"], "time": [942, 997, 1078, 1361, 2392, 2612, 2699, 3183, 4015, 7701, 11008, 11576, 14428, 14604, 17733, 21292, 21391, 21499, 21657, 24407, 27823, 31005, 34456, 34756, 34847, 35800]}}, "mouseover": {"edge": {"target": [], "time": []}, "state": {"target": ["12", "13", "14", "20", "21", "22", "32", "31", "30", "33", "32", "30", "25", "26", "29", "27", "11", "9", "3", "5", "6"], "time": [2496, 2642, 2734, 3580, 6542, 7997, 11552, 11712, 14492, 14702, 17968, 21329, 21425, 21543, 21884, 24629, 28020, 31566, 34496, 34830, 34940]}}}, "revealed_states": [], "rewards": [-1, -2, 4, 11, 66], "rt": [37762, 139, 115, 160, 165], "score": 56.5, "simulationMode": [null, null, null, null, null], "stateRewards": ["", -2, 4, 3, 5, -61, 4, 30, 1, -47, 83, 10, 1, 4, 7, -14, 19, -74, -83, 6, -2, -2, -65, -1, -2, 4, -11, 12, -1, -68, 11, -38, -28, 66], "time_elapsed": 1563781, "trialIndex": 24, "trialTime": 45802, "trial_id": "mdp_trial_23", "trial_index": 31, "trial_type": "mouselab-mdp", "withholdReward": false}, "uniqueid": "w22075787:a47870414"}, {"current_trial": 32, "dateTime": 1691160724352, "trialdata": {"actionTimes": [19663, 20235, 20822, 21843, 22422], "actions": ["up", "up", "up", "right", "up"], "block": "test", "clicked_states": ["17", "16", "6", "5", "9"], "costs": -10.75, "displayed_time": "22.95", "internal_node_id": "0.0-4.0-1.0-23.0", "num_clicks_accrued": [0, 0, 0, 0, 0, 0, 0, 0, 0, 0, 0, 0, 0], "path": ["0", "0", "1", "2", "3", "4", "5"], "queries": {"click": {"edge": {"target": [], "time": []}, "state": {"target": ["17", "16", "6", "5", "9"], "time": [3525, 6721, 9948, 13095, 16267]}}, "mouseout": {"edge": {"target": [], "time": []}, "state": {"target": ["23", "0", "0", "12", "18", "15", "17", "16", "6", "5", "9"], "time": [1112, 1260, 2187, 2363, 2413, 2477, 3955, 7124, 9991, 13386, 16868]}}, "mouseover": {"edge": {"target": [], "time": []}, "state": {"target": ["12", "18", "15", "17", "16", "6", "5", "9"], "time": [2320, 2378, 2429, 2747, 4222, 7444, 10371, 13540]}}}, "revealed_states": [], "rewards": [2, -4, -8, -15, 71], "rt": [17681, 48, 53, 488, 54], "score": 35.25, "simulationMode": [null, null, null, null, null], "stateRewards": ["", 2, -4, -8, -15, 71, -43, -41, 7, -17, 20, 67, -1, -1, -4, 6, 37, -24, -47, 9, 34, 57, 45, 1, 2, -4, -5, -23, 88, -5, 13, -40, 43, 44], "time_elapsed": 1589588, "trialIndex": 25, "trialTime": 25343, "trial_id": "mdp_trial_24", "trial_index": 32, "trial_type": "mouselab-mdp", "withholdReward": false}, "uniqueid": "w22075787:a47870414"}, {"current_trial": 33, "dateTime": 1691160755124, "trialdata": {"actionTimes": [25390, 26057, 26676, 27204, 27931], "actions": ["right", "right", "right", "down", "left"], "block": "test", "clicked_states": ["27", "29", "33", "32", "31", "22"], "costs": -12.9, "displayed_time": "28.46", "internal_node_id": "0.0-4.0-1.0-24.0", "num_clicks_accrued": [0, 0, 0, 0, 0, 0, 0, 0, 0, 0, 0, 0, 0], "path": ["0", "0", "12", "13", "14", "19", "22"], "queries": {"click": {"edge": {"target": [], "time": []}, "state": {"target": ["27", "29", "33", "32", "31", "22"], "time": [3357, 6679, 10127, 13676, 16889, 20382]}}, "mouseout": {"edge": {"target": [], "time": []}, "state": {"target": ["11", "10", "1", "12", "0", "23", "24", "25", "26", "27", "29", "33", "32", "32", "31", "22", "21", "21"], "time": [455, 521, 555, 721, 2257, 2311, 2422, 2698, 2824, 3812, 7083, 10476, 14548, 15006, 17186, 20702, 23786, 23983]}}, "mouseover": {"edge": {"target": [], "time": []}, "state": {"target": ["23", "24", "25", "26", "27", "29", "33", "32", "31", "22", "21", "21"], "time": [2273, 2339, 2455, 2712, 2981, 3880, 9599, 10684, 15380, 17835, 20800, 23969]}}}, "revealed_states": [], "rewards": [-1, -1, 7, 1, 64], "rt": [23167, 138, 91, 4, 193], "score": 57.1, "simulationMode": [null, null, null, null, null], "stateRewards": ["", 2, 4, -6, -13, -75, -81, 30, 7, 5, 59, -65, -1, -1, 7, 14, -38, 36, -41, 1, -54, -5, 64, 2, -1, 5, 6, -19, 79, 11, 16, -33, -50, 58], "time_elapsed": 1620360, "trialIndex": 26, "trialTime": 30286, "trial_id": "mdp_trial_25", "trial_index": 33, "trial_type": "mouselab-mdp", "withholdReward": false}, "uniqueid": "w22075787:a47870414"}, {"current_trial": 34, "dateTime": 1691160796137, "trialdata": {"actionTimes": [34658, 35271, 35859, 37088, 37708], "actions": ["right", "right", "right", "up", "up"], "block": "test", "clicked_states": ["29", "27", "11", "9", "10", "5", "6", "7", "16"], "costs": -19.349999999999998, "displayed_time": "38.24", "internal_node_id": "0.0-4.0-1.0-25.0", "num_clicks_accrued": [0, 0, 0, 0, 0, 0, 0, 0, 0, 0, 0, 0, 0], "path": ["0", "0", "12", "13", "14", "15", "16"], "queries": {"click": {"edge": {"target": [], "time": []}, "state": {"target": ["29", "27", "11", "9", "10", "5", "6", "7", "16"], "time": [3592, 6905, 10218, 13519, 16834, 20232, 23459, 26705, 29979]}}, "mouseout": {"edge": {"target": [], "time": []}, "state": {"target": ["0", "23", "26", "29", "27", "11", "9", "8", "10", "2", "4", "5", "6", "7", "16"], "time": [3033, 3066, 3167, 4013, 7280, 10498, 13834, 13917, 17259, 17367, 17709, 20559, 23773, 27077, 30285]}}, "mouseover": {"edge": {"target": [], "time": []}, "state": {"target": ["23", "26", "29", "27", "11", "9", "8", "10", "2", "4", "5", "6", "7", "16", "17"], "time": [3037, 3150, 3200, 4205, 7357, 10721, 13881, 13998, 17314, 17606, 17916, 20686, 23940, 27287, 30522]}}}, "revealed_states": [], "rewards": [-1, 2, -7, 3, 83], "rt": [32251, 80, 63, 699, 87], "score": 60.650000000000006, "simulationMode": [null, null, null, null, null], "stateRewards": ["", -2, -4, -2, 10, -8, -15, -47, 7, -84, 53, 5, -1, 2, -7, 3, 83, 31, 47, -1, 30, -8, 69, 2, -4, -1, 8, -7, 12, -8, -8, -13, 30, -84], "time_elapsed": 1661373, "trialIndex": 27, "trialTime": 40552, "trial_id": "mdp_trial_26", "trial_index": 34, "trial_type": "mouselab-mdp", "withholdReward": false}, "uniqueid": "w22075787:a47870414"}, {"current_trial": 35, "dateTime": 1691160825082, "trialdata": {"actionTimes": [23053, 23639, 24240, 24776, 25473], "actions": ["right", "right", "right", "down", "down"], "block": "test", "clicked_states": ["17", "16", "18", "20", "21", "22"], "costs": -12.9, "displayed_time": "25.99", "internal_node_id": "0.0-4.0-1.0-26.0", "num_clicks_accrued": [0, 0, 0, 0, 0, 0, 0, 0, 0, 0, 0, 0, 0], "path": ["0", "0", "12", "13", "14", "19", "21"], "queries": {"click": {"edge": {"target": [], "time": []}, "state": {"target": ["17", "16", "18", "20", "21", "22"], "time": [3178, 6587, 9812, 13138, 16422, 19658]}}, "mouseout": {"edge": {"target": [], "time": []}, "state": {"target": ["17", "15", "13", "0", "12", "13", "14", "17", "17", "16", "18", "14", "20", "21", "22"], "time": [713, 844, 908, 1378, 2499, 2591, 2644, 3541, 4451, 6886, 10146, 10249, 13470, 16665, 20085]}}, "mouseover": {"edge": {"target": [], "time": []}, "state": {"target": ["12", "13", "14", "17", "16", "18", "14", "20", "21", "22"], "time": [2417, 2567, 2604, 2860, 5587, 7249, 10208, 10406, 13616, 16823]}}}, "revealed_states": [], "rewards": [-2, -1, 5, 10, 75], "rt": [20823, 52, 68, 8, 154], "score": 74.1, "simulationMode": [null, null, null, null, null], "stateRewards": ["", -2, -3, -7, 7, -54, -69, -4, -14, -77, 22, 40, -2, -1, 5, 6, -35, 50, -60, 10, -28, 75, 57, 1, -4, -2, 2, 68, 34, -18, 12, 3, -21, -43], "time_elapsed": 1690318, "trialIndex": 28, "trialTime": 28484, "trial_id": "mdp_trial_27", "trial_index": 35, "trial_type": "mouselab-mdp", "withholdReward": false}, "uniqueid": "w22075787:a47870414"}, {"current_trial": 36, "dateTime": 1691160852121, "trialdata": {"actionTimes": [20806, 21374, 21940, 22570, 23241], "actions": ["left", "left", "left", "down", "left"], "block": "test", "clicked_states": ["29", "27", "28", "33"], "costs": -8.6, "displayed_time": "23.78", "internal_node_id": "0.0-4.0-1.0-27.0", "num_clicks_accrued": [0, 0, 0, 0, 0, 0, 0, 0, 0, 0, 0, 0, 0], "path": ["0", "0", "23", "24", "25", "30", "33"], "queries": {"click": {"edge": {"target": [], "time": []}, "state": {"target": ["29", "27", "28", "33"], "time": [5784, 9114, 12880, 16121]}}, "mouseout": {"edge": {"target": [], "time": []}, "state": {"target": ["12", "0", "0", "23", "24", "25", "29", "27", "26", "25", "25", "28", "24", "24", "28", "28", "25", "33", "32"], "time": [685, 4236, 4717, 4802, 4906, 5320, 6172, 9476, 9544, 9944, 10426, 12093, 12273, 12418, 12952, 13376, 13482, 16435, 19622]}}, "mouseover": {"edge": {"target": [], "time": []}, "state": {"target": ["0", "23", "24", "25", "29", "27", "26", "25", "25", "28", "24", "24", "28", "25", "33", "32"], "time": [4702, 4733, 4835, 4920, 5487, 6465, 9510, 9575, 10128, 10626, 12107, 12330, 12519, 13438, 13692, 16519]}}}, "revealed_states": [], "rewards": [-1, 3, -2, 13, 78], "rt": [16592, 46, 4, 86, 141], "score": 82.4, "simulationMode": [null, null, null, null, null], "stateRewards": ["", 2, -3, -8, 14, -7, -51, 73, 2, 36, 36, -43, -1, 3, -4, 1, 6, 87, -65, 15, 61, -42, -83, -1, 3, -2, -7, 30, -48, 35, 13, 26, 60, 78], "time_elapsed": 1717357, "trialIndex": 29, "trialTime": 25991, "trial_id": "mdp_trial_28", "trial_index": 36, "trial_type": "mouselab-mdp", "withholdReward": false}, "uniqueid": "w22075787:a47870414"}, {"current_trial": 37, "dateTime": 1691160885105, "trialdata": {"actionTimes": [27544, 28122, 28682, 29260, 29941], "actions": ["left", "left", "left", "down", "left"], "block": "test", "clicked_states": ["16", "17", "20", "21", "22", "31", "33"], "costs": -15.05, "displayed_time": "30.47", "internal_node_id": "0.0-4.0-1.0-28.0", "num_clicks_accrued": [0, 0, 0, 0, 0, 0, 0, 0, 0, 0, 0, 0, 0], "path": ["0", "0", "23", "24", "25", "30", "33"], "queries": {"click": {"edge": {"target": [], "time": []}, "state": {"target": ["16", "17", "20", "21", "22", "31", "33"], "time": [3022, 6293, 9914, 13143, 16385, 19727, 22982]}}, "mouseout": {"edge": {"target": [], "time": []}, "state": {"target": ["23", "0", "18", "16", "17", "20", "20", "21", "22", "31", "30", "33"], "time": [844, 2212, 2432, 3703, 6710, 7900, 10335, 13397, 16678, 20061, 20211, 23387]}}, "mouseover": {"edge": {"target": [], "time": []}, "state": {"target": ["18", "16", "17", "20", "20", "21", "22", "31", "30", "33", "32"], "time": [2396, 2679, 4380, 7342, 9190, 10460, 13627, 17099, 20091, 20344, 23660]}}}, "revealed_states": [], "rewards": [-2, -3, 4, -1, 84], "rt": [25627, 42, 21, 49, 130], "score": 66.95, "simulationMode": [null, null, null, null, null], "stateRewards": ["", 1, 2, 3, 16, 63, -25, 16, -4, -14, 82, -66, -1, -3, -3, -11, -14, 19, 46, 3, -34, -82, 66, -2, -3, 4, -5, -63, 77, -37, -1, -45, -41, 84], "time_elapsed": 1750340, "trialIndex": 30, "trialTime": 32502, "trial_id": "mdp_trial_29", "trial_index": 37, "trial_type": "mouselab-mdp", "withholdReward": false}, "uniqueid": "w22075787:a47870414"}, {"current_trial": 38, "dateTime": 1691160906695, "trialdata": {"actionTimes": [14959, 15568, 16146, 17048, 18221], "actions": ["right", "right", "right", "up", "left"], "block": "test", "clicked_states": ["17", "16", "18"], "costs": -6.449999999999999, "displayed_time": "18.75", "internal_node_id": "0.0-4.0-1.0-29.0", "num_clicks_accrued": [0, 0, 0, 0, 0, 0, 0, 0, 0, 0, 0, 0, 0], "path": ["0", "0", "12", "13", "14", "15", "18"], "queries": {"click": {"edge": {"target": [], "time": []}, "state": {"target": ["17", "16", "18"], "time": [3786, 7073, 10282]}}, "mouseout": {"edge": {"target": [], "time": []}, "state": {"target": ["0", "0", "15", "17", "16", "18"], "time": [1295, 3045, 3307, 4219, 7413, 10679]}}, "mouseover": {"edge": {"target": [], "time": []}, "state": {"target": ["15", "17", "16", "18", "6"], "time": [3247, 3369, 4376, 7552, 10914]}}}, "revealed_states": [], "rewards": [-1, 1, -7, -4, 86], "rt": [12360, 74, 37, 357, 647], "score": 68.55, "simulationMode": [null, null, null, null, null], "stateRewards": ["", 1, -1, -7, -7, -22, 15, -13, 13, 26, -32, 38, -1, 1, -7, -4, 16, -62, 86, 12, -54, 56, 64, -2, -1, 6, 14, -57, 37, 62, -6, -25, 50, -70], "time_elapsed": 1771931, "trialIndex": 31, "trialTime": 21065, "trial_id": "mdp_trial_30", "trial_index": 38, "trial_type": "mouselab-mdp", "withholdReward": false}, "uniqueid": "w22075787:a47870414"}, {"current_trial": 39, "dateTime": 1691160946969, "trialdata": {"actionTimes": [34383, 34993, 35553, 36684, 37372], "actions": ["up", "up", "up", "left", "down"], "block": "test", "clicked_states": ["5", "9", "11", "10", "27", "29", "33", "32", "31"], "costs": -19.349999999999998, "displayed_time": "37.94", "internal_node_id": "0.0-4.0-1.0-30.0", "num_clicks_accrued": [0, 0, 0, 0, 0, 0, 0, 0, 0, 0, 0, 0, 0], "path": ["0", "0", "1", "2", "3", "8", "10"], "queries": {"click": {"edge": {"target": [], "time": []}, "state": {"target": ["5", "9", "11", "10", "27", "29", "33", "32", "31"], "time": [3244, 6539, 9795, 13034, 16660, 19898, 23228, 26443, 29696]}}, "mouseout": {"edge": {"target": [], "time": []}, "state": {"target": ["6", "0", "4", "5", "9", "11", "10", "27", "29", "33", "33", "33", "32", "31"], "time": [223, 2392, 2810, 4027, 6961, 10124, 13543, 17039, 20235, 20665, 21799, 23557, 26735, 30101]}}, "mouseover": {"edge": {"target": [], "time": []}, "state": {"target": ["4", "5", "9", "11", "10", "27", "29", "33", "33", "33", "32", "31"], "time": [2742, 2919, 4427, 7139, 10308, 13858, 17147, 20572, 21496, 22137, 23652, 27056]}}}, "revealed_states": [], "rewards": [-2, 1, -7, -7, 69], "rt": [32322, 86, 26, 575, 147], "score": 34.650000000000006, "simulationMode": [null, null, null, null, null], "stateRewards": ["", -2, 1, -7, 9, 8, 25, 61, -7, -17, 69, -81, 1, 4, -4, -11, 16, 67, 44, 3, 6, -45, -54, -2, 3, 6, -11, -15, 32, -47, 3, -39, -6, -88], "time_elapsed": 1812205, "trialIndex": 32, "trialTime": 39743, "trial_id": "mdp_trial_31", "trial_index": 39, "trial_type": "mouselab-mdp", "withholdReward": false}, "uniqueid": "w22075787:a47870414"}, {"current_trial": 40, "dateTime": 1691160966559, "trialdata": {"actionTimes": [11539, 12237, 12960, 14279, 17118], "actions": ["right", "right", "right", "up", "right"], "block": "test", "clicked_states": ["16", "17"], "costs": -4.3, "displayed_time": "17.65", "internal_node_id": "0.0-4.0-1.0-31.0", "num_clicks_accrued": [0, 0, 0, 0, 0, 0, 0, 0, 0, 0, 0, 0, 0], "path": ["0", "0", "12", "13", "14", "15", "17"], "queries": {"click": {"edge": {"target": [], "time": []}, "state": {"target": ["16", "17"], "time": [3262, 6809]}}, "mouseout": {"edge": {"target": [], "time": []}, "state": {"target": ["0", "15", "16", "17", "16", "16", "14", "20"], "time": [2145, 2436, 3497, 7454, 7593, 7992, 8357, 8449]}}, "mouseover": {"edge": {"target": [], "time": []}, "state": {"target": ["15", "16", "17", "14", "20", "20"], "time": [2410, 2725, 3715, 8273, 8427, 9278]}}}, "revealed_states": [], "rewards": [-2, 2, -6, -1, 79], "rt": [9765, 175, 167, 781, 2306], "score": 67.7, "simulationMode": [null, null, null, null, null], "stateRewards": ["", 1, 2, 7, 13, 88, -71, 27, 3, 60, 5, -53, -2, 2, -6, -1, -30, 79, 47, -4, -14, 46, 68, 1, 1, 8, 10, -14, 86, 48, -11, -67, -44, 5], "time_elapsed": 1831795, "trialIndex": 33, "trialTime": 19113, "trial_id": "mdp_trial_32", "trial_index": 40, "trial_type": "mouselab-mdp", "withholdReward": false}, "uniqueid": "w22075787:a47870414"}], "questiondata": {"params": {"CODE": "C6DMOQA6", "MIN_TIME": 14, "inspectCost": 1, "startTime": "Fri Aug 04 2023 17:05:12 GMT+0200 (South Africa Standard Time)", "bonusRate": 0.002, "variance": "1_2_4_8_44", "branching": "31123"}}, "eventdata": [{"eventtype": "initialized", "interval": 0, "timestamp": 1691159131235, "value": null}, {"eventtype": "window_resize", "interval": 1, "timestamp": 1691159131236, "value": [1024, 674]}, {"eventtype": "window_resize", "interval": 577, "timestamp": 1691159131813, "value": [1024, 674]}, {"eventtype": "focus", "interval": 6708, "timestamp": 1691159138521, "value": "off"}, {"eventtype": "focus", "interval": 5785, "timestamp": 1691159144306, "value": "on"}, {"eventtype": "window_resize", "interval": 454, "timestamp": 1691159144760, "value": [1366, 768]}, {"eventtype": "focus", "interval": 1301100, "timestamp": 1691160445860, "value": "off"}, {"eventtype": "focus", "interval": 2464, "timestamp": 1691160448324, "value": "on"}, {"eventtype": "window_resize", "interval": 7684, "timestamp": 1691160456008, "value": [1024, 674]}, {"eventtype": "window_resize", "interval": 8378, "timestamp": 1691160464386, "value": [1364, 674]}, {"eventtype": "window_resize", "interval": 238, "timestamp": 1691160464624, "value": [1366, 679]}, {"eventtype": "window_resize", "value": [1366, 679], "timestamp": 1691161511722, "interval": 1047098}], "useragent": "Mozilla/5.0 (X11; Linux x86_64) AppleWebKit/537.36 (KHTML, like Gecko) Chrome/114.0.0.0 Safari/537.36", "mode": "live", "id": "w22075787:a47870414", "status": "user data saved", "Beginhit": "2023-08-04 14:25:28.150598", "Beginexp": "2023-08-04 14:25:45.612353", "Endhit": null, "psiturkStatus": 2, "browser": "<redacted>", "platform": "linux", "language": "en-US", "excludeReason": "dataincomplete"}