{"condition": 1, "counterbalance": 0, "assignmentId": "a51483120", "workerId": "w33270074", "hitId": "h36752143", "currenttrial": 56, "bonus": 0, "data": [{"uniqueid": "w33270074:a51483120", "current_trial": 0, "dateTime": 1693480740272, "trialdata": {"success": true, "trial_type": "fullscreen", "trial_index": 0, "time_elapsed": 13097, "internal_node_id": "0.0-0.0"}}, {"uniqueid": "w33270074:a51483120", "current_trial": 1, "dateTime": 1693480767630, "trialdata": {"view_history": [{"page_index": 0, "viewing_time": 27350}], "rt": 27351, "trial_id": "exp_instructions_misaligned", "trial_type": "instructions", "trial_index": 1, "time_elapsed": 40455, "internal_node_id": "0.0-1.0"}}, {"uniqueid": "w33270074:a51483120", "current_trial": 2, "dateTime": 1693481058417, "trialdata": {"view_history": [{"page_index": 0, "viewing_time": 112283}, {"page_index": 1, "viewing_time": 98721}, {"page_index": 2, "viewing_time": 24079}, {"page_index": 3, "viewing_time": 55702}], "rt": 290784, "trial_id": "mouselab_instructions_1_misaligned", "trial_type": "instructions", "trial_index": 2, "time_elapsed": 331242, "internal_node_id": "0.0-2.0-1.0"}}, {"uniqueid": "w33270074:a51483120", "current_trial": 3, "dateTime": 1693481168034, "trialdata": {"revealed_states": [], "clicked_states": ["1", "2", "3", "4", "5", "6", "7", "8", "11", "9", "10", "23", "24", "30", "32", "27", "29", "18", "13", "19", "21", "20", "15", "17", "14", "22", "12", "16", "28", "25", "33", "31", "26"], "num_clicks_accrued": [0, 0, 0, 0, 0, 0, 0, 0, 0, 0, 0, 0, 0], "stateRewards": ["", -10, -10, 10, 10, -10, -10, 10, -10, 10, -10, 10, -10, 10, 10, -10, 10, 10, 10, -10, 10, 10, 10, 10, 10, -10, 10, -10, -10, -10, 10, 10, 10, -10], "withholdReward": false, "trial_id": "practice_1", "block": "test", "trialIndex": 0, "score": -3, "costs": -16.5, "simulationMode": [null, null, null, null, null], "rewards": [-10, 10, 10, -10, 10], "path": ["0", "0", "12", "13", "14", "19", "21"], "rt": [91136, 645, 1074, 1135, 749], "actions": ["right", "right", "right", "down", "down"], "actionTimes": [97808, 98950, 100530, 102175, 103424], "queries": {"click": {"state": {"target": ["1", "2", "3", "4", "5", "6", "7", "8", "11", "9", "10", "23", "24", "30", "32", "27", "29", "18", "13", "19", "21", "20", "15", "17", "14", "22", "12", "16", "28", "25", "33", "31", "26"], "time": [10255, 12374, 14366, 20357, 21983, 27251, 28936, 31709, 33707, 35412, 36649, 40659, 42054, 44124, 46039, 49205, 50457, 53265, 54289, 56280, 58968, 61172, 62594, 64013, 65542, 66851, 68288, 69752, 71317, 72817, 74202, 75323, 76610]}, "edge": {"target": [], "time": []}}, "mouseover": {"state": {"target": ["1", "1", "2", "3", "4", "6", "4", "5", "6", "7", "7", "7", "6", "7", "7", "8", "11", "9", "8", "10", "28", "23", "23", "1", "1", "23", "24", "25", "30", "32", "32", "30", "25", "26", "27", "29", "26", "28", "18", "17", "15", "18", "13", "13", "14", "19", "21", "20", "15", "17", "14", "22", "13", "13", "12", "18", "16", "7", "24", "28", "25", "30", "33", "31", "31", "26", "0", "0", "2", "3", "5", "18", "22", "0", "0", "12"], "time": [9499, 9813, 12068, 14051, 17613, 17731, 18134, 21549, 23564, 24664, 26351, 26648, 26932, 28132, 28366, 31213, 33266, 34933, 36256, 36324, 38464, 39467, 39719, 39865, 40104, 40297, 41377, 42623, 43868, 45448, 45669, 48199, 48247, 48335, 48901, 50177, 51247, 51397, 52237, 52501, 52666, 52903, 53831, 54107, 54741, 54875, 56850, 59712, 62236, 63076, 65186, 66549, 67268, 67986, 68048, 69337, 69417, 70355, 70552, 70778, 72285, 73486, 73938, 74541, 74917, 76279, 78503, 83737, 84554, 84576, 85535, 86671, 88772, 92457, 92704, 95952]}, "edge": {"target": [], "time": []}}, "mouseout": {"state": {"target": ["0", "1", "1", "2", "3", "4", "6", "4", "5", "6", "7", "7", "7", "6", "7", "7", "7", "8", "11", "9", "8", "10", "28", "23", "23", "1", "1", "23", "23", "24", "25", "30", "32", "32", "30", "25", "26", "27", "27", "29", "26", "28", "18", "17", "15", "18", "13", "13", "14", "19", "21", "20", "15", "17", "17", "14", "22", "13", "13", "12", "18", "16", "7", "24", "28", "25", "30", "33", "31", "31", "26", "0", "0", "2", "3", "5", "18", "22", "0", "0"], "time": [5778, 9564, 10328, 13998, 17066, 17636, 18015, 21484, 23314, 24615, 26232, 26499, 26881, 28077, 28167, 30515, 31149, 31797, 34850, 36216, 36279, 37741, 39416, 39487, 39800, 39899, 40234, 40746, 41275, 42568, 43836, 45234, 45567, 48117, 48222, 48282, 48769, 49301, 50109, 51210, 51308, 52201, 52254, 52617, 52735, 53776, 53848, 54669, 54795, 56784, 59432, 62152, 63026, 64124, 65086, 66409, 67168, 67951, 68003, 69070, 69352, 70336, 70377, 70570, 72185, 73416, 73902, 74498, 74614, 75984, 77100, 78519, 83760, 84573, 84600, 86602, 86692, 89404, 92553, 93453]}, "edge": {"target": [], "time": []}}}, "displayed_time": "103.92", "trialTime": 108641, "trial_type": "mouselab-mdp", "trial_index": 3, "time_elapsed": 440853, "internal_node_id": "0.0-2.0-2.0-0.0"}}, {"uniqueid": "w33270074:a51483120", "current_trial": 4, "dateTime": 1693481255626, "trialdata": {"revealed_states": [], "clicked_states": ["13", "19", "21", "5", "9", "11", "6", "20", "32", "33", "31", "30", "29", "28", "27", "25", "24", "17", "7", "10", "16", "3"], "num_clicks_accrued": [0, 0, 0, 0, 0, 0, 0, 0, 0, 0, 0, 0, 0], "stateRewards": ["", 10, -10, -10, -10, 10, -10, -10, 10, 10, 10, -10, 10, 10, -10, -10, 10, 10, -10, 10, 10, 10, -10, -10, -10, -10, -10, -10, -10, 10, -10, -10, -10, -10], "withholdReward": false, "trial_id": "practice_2", "block": "test", "trialIndex": 1, "score": 22.5, "costs": -11, "simulationMode": [null, null, null, null, null], "rewards": [10, 10, -10, 10, 10], "path": ["0", "0", "12", "13", "14", "19", "21"], "rt": [74594, 611, 441, 586, 450], "actions": ["right", "right", "right", "down", "down"], "actionTimes": [78556, 79684, 80631, 81724, 82687], "queries": {"click": {"state": {"target": ["13", "19", "21", "5", "9", "11", "6", "20", "32", "33", "31", "30", "29", "28", "27", "25", "24", "17", "7", "10", "16", "3"], "time": [7201, 9284, 11461, 14995, 17560, 19774, 21858, 25433, 27993, 29835, 31513, 33532, 35584, 37103, 38584, 40550, 42055, 45853, 49090, 51200, 56603, 65036]}, "edge": {"target": [], "time": []}}, "mouseover": {"state": {"target": ["12", "13", "14", "19", "21", "4", "5", "4", "4", "4", "3", "8", "9", "11", "8", "4", "6", "6", "7", "24", "20", "32", "33", "30", "31", "30", "25", "26", "29", "26", "28", "28", "27", "27", "26", "25", "26", "24", "24", "23", "23", "2", "18", "17", "17", "6", "11", "8", "3", "7", "2", "10", "1", "23", "23", "0", "13", "16", "7", "1", "2", "3", "2", "1", "2", "3", "1", "0"], "time": [6407, 6757, 8492, 8924, 9934, 14041, 14256, 15659, 16824, 16908, 17014, 17085, 17305, 19767, 21191, 21241, 21262, 21642, 24193, 24709, 25225, 27793, 29572, 30788, 31274, 33227, 33996, 34057, 35340, 36043, 36068, 36343, 37736, 37986, 39064, 39557, 40903, 41485, 41742, 42457, 42760, 43725, 43775, 44059, 45476, 46352, 47995, 48057, 48461, 48778, 50728, 50895, 54246, 54873, 55194, 55344, 55977, 56178, 57019, 61211, 62725, 62781, 63534, 63560, 64564, 64620, 70293, 70527]}, "edge": {"target": [], "time": []}}, "mouseout": {"state": {"target": ["12", "12", "13", "14", "19", "21", "21", "4", "5", "4", "4", "4", "3", "8", "9", "11", "8", "4", "6", "6", "7", "24", "20", "32", "33", "30", "31", "30", "25", "26", "29", "26", "28", "28", "27", "27", "26", "25", "26", "24", "24", "23", "23", "2", "18", "17", "17", "6", "11", "8", "3", "7", "2", "10", "1", "23", "23", "0", "13", "16", "7", "1", "2", "3", "2", "1", "2", "3", "1", "0"], "time": [3304, 6438, 7291, 8854, 9854, 11889, 13559, 14139, 15604, 16660, 16846, 16991, 17057, 17104, 19764, 21174, 21209, 21259, 21280, 24139, 24216, 24944, 25938, 29509, 30765, 30825, 33139, 33950, 34022, 34368, 36041, 36065, 36098, 37702, 37791, 39026, 39179, 40824, 41427, 41506, 42436, 42498, 43292, 43742, 44024, 44080, 46291, 46372, 48027, 48112, 48526, 49554, 50776, 54111, 54361, 54961, 55308, 55364, 56059, 56978, 57038, 61276, 62761, 63512, 63558, 64543, 64595, 65585, 70317, 70760]}, "edge": {"target": [], "time": []}}}, "displayed_time": "83.19", "trialTime": 86840, "trial_type": "mouselab-mdp", "trial_index": 4, "time_elapsed": 528450, "internal_node_id": "0.0-2.0-2.0-1.0"}}, {"uniqueid": "w33270074:a51483120", "current_trial": 5, "dateTime": 1693481315163, "trialdata": {"view_history": [{"page_index": 0, "viewing_time": 45562}, {"page_index": 1, "viewing_time": 13971}], "rt": 59533, "trial_id": "mouselab_instructions_2_misaligned", "trial_type": "instructions", "trial_index": 5, "time_elapsed": 587988, "internal_node_id": "0.0-2.0-3.0"}}, {"uniqueid": "w33270074:a51483120", "current_trial": 6, "dateTime": 1693481383147, "trialdata": {"rt": 67961, "response": {"Q0": "The cost for clicking on nodes may vary between nodes.", "Q1": "The better I perform the higher my bonus will be.", "Q2": "No, the amount of cash at each node of the web may be different each time.", "Q3": "To get the highest total score.", "Q4": "Only before moving the spider.", "Q5": "3 seconds"}, "question_order": [0, 1, 2, 3, 4, 5], "correct": {"Q0": "The cost for clicking on nodes may vary between nodes.", "Q1": "The better I perform the higher my bonus will be.", "Q2": "No, the amount of cash at each node of the web may be different each time.", "Q3": "To get the highest total score.", "Q4": "Only before moving the spider.", "Q5": "3 seconds"}, "trial_id": "mouselab_quiz_misaligned", "trial_type": "survey-multi-choice", "trial_index": 6, "time_elapsed": 655972, "internal_node_id": "0.0-2.0-4.0"}}, {"uniqueid": "w33270074:a51483120", "current_trial": 7, "dateTime": 1693481392155, "trialdata": {"rt": 8995, "response": {"Q0": "No"}, "question_order": [0], "trial_id": "repeat_check", "trial_type": "survey-multi-choice", "trial_index": 7, "time_elapsed": 664980, "internal_node_id": "0.0-4.0-0.0"}}, {"uniqueid": "w33270074:a51483120", "current_trial": 8, "dateTime": 1693481406205, "trialdata": {"rt": 14042, "stimulus": "\n<h1> Get ready to start the game! </h1>\n\nThank you for reading the instructions. Get ready start with the 40 rounds of this game.\n<br><br>\nIf you need to take a break, feel free to take one after the end of a round, before continuing to the next one.\n<br><br>\nRemember, the more money the spider gets, the bigger your bonus will be!\n<br><br>\n<div style='text-align: center;'>Press <code>space</code> to begin.</div>\n\n<br><br>\n(If, at any point, the <code>space</code> key does not take you to the next page, click once on the text and try again.)", "response": " ", "trial_id": "mdp_ready", "trial_type": "html-keyboard-response", "trial_index": 8, "time_elapsed": 679030, "internal_node_id": "0.0-6.0-0.0"}}, {"uniqueid": "w33270074:a51483120", "current_trial": 9, "dateTime": 1693481474200, "trialdata": {"revealed_states": [], "clicked_states": ["2", "16", "17", "21", "33", "32", "31", "27", "29", "28", "9", "10", "11", "6"], "num_clicks_accrued": [0, 0, 0, 0, 0, 0, 0, 0, 0, 0, 0, 0, 0], "stateRewards": ["", -1, -3, 3, 5, 56, 39, 50, -1, -80, 33, -46, 1, -2, -6, -8, 87, 48, 54, -11, -20, -64, -54, -2, 3, -7, -3, 12, 88, 35, -16, -46, -70, -3], "withholdReward": false, "trial_id": "mdp_trial_1", "block": "test", "trialIndex": 2, "score": 50.7, "costs": -28.299999999999994, "simulationMode": [null, null, null, null, null], "rewards": [-2, 3, -7, -3, 88], "path": ["0", "0", "23", "24", "25", "26", "28"], "rt": [55181, 506, 161, 829, 209], "actions": ["left", "left", "left", "up", "right"], "actionTimes": [58935, 59945, 60627, 61960, 62664], "queries": {"click": {"state": {"target": ["2", "16", "17", "21", "33", "32", "31", "27", "29", "28", "9", "10", "11", "6"], "time": [5469, 6912, 10527, 13874, 17842, 21170, 24769, 28835, 32201, 35786, 39164, 43495, 47457, 50728]}, "edge": {"target": [], "time": []}}, "mouseover": {"state": {"target": ["1", "2", "7", "16", "17", "19", "21", "33", "32", "31", "27", "27", "29", "26", "28", "10", "8", "9", "9", "3", "10", "11", "6", "6", "6", "7", "1", "0", "23", "28"], "time": [4433, 5201, 6215, 6567, 7580, 11195, 11273, 17530, 18479, 24383, 28183, 28587, 31173, 32658, 34656, 36373, 36416, 36438, 36864, 42867, 43133, 47218, 47886, 48679, 48884, 54339, 54386, 54454, 56068, 56437]}, "edge": {"target": [], "time": []}}, "mouseout": {"state": {"target": ["0", "1", "2", "7", "16", "17", "19", "21", "33", "33", "32", "31", "27", "27", "27", "29", "26", "28", "10", "8", "9", "9", "3", "10", "11", "6", "6", "6", "7", "1", "0", "23", "28", "0"], "time": [1467, 4682, 6194, 6237, 7337, 11083, 11224, 17152, 17930, 18293, 21701, 28120, 28200, 28901, 30421, 32655, 32679, 36315, 36412, 36436, 36461, 39251, 42900, 47001, 47836, 47907, 48719, 54303, 54356, 54420, 54471, 56119, 56619, 66588]}, "edge": {"target": [], "time": []}}}, "displayed_time": "63.18", "trialTime": 67182, "trial_type": "mouselab-mdp", "trial_index": 9, "time_elapsed": 747016, "internal_node_id": "0.0-6.0-1.0-0.0"}}, {"uniqueid": "w33270074:a51483120", "current_trial": 10, "dateTime": 1693481555608, "trialdata": {"revealed_states": [], "clicked_states": ["3", "6", "5", "7", "21", "17", "29", "28", "27", "32", "33", "31", "16", "18", "11", "9", "10", "22", "20"], "num_clicks_accrued": [0, 0, 0, 0, 0, 0, 0, 0, 0, 0, 0, 0, 0], "stateRewards": ["", 2, -3, 5, 11, -79, 54, 11, -9, -78, 33, 22, -2, -1, 2, 14, 43, 34, 1, 10, 49, -65, 39, -1, 1, -1, 3, -16, -2, 11, 2, 12, 48, -65], "withholdReward": false, "trial_id": "mdp_trial_2", "block": "test", "trialIndex": 3, "score": -103.64999999999998, "costs": -39.649999999999984, "simulationMode": [null, null, null, null, null], "rewards": [2, -3, 5, 11, -79], "path": ["0", "0", "1", "2", "3", "4", "5"], "rt": [70885, 940, 419, 183, 769], "actions": ["up", "up", "up", "right", "up"], "actionTimes": [72447, 73895, 74813, 75505, 76774], "queries": {"click": {"state": {"target": ["3", "6", "5", "7", "21", "17", "29", "28", "27", "32", "33", "31", "16", "18", "11", "9", "10", "22", "20"], "time": [3109, 4491, 7654, 11585, 14894, 18672, 22880, 26229, 29758, 32935, 36206, 39364, 42543, 45969, 50140, 53456, 57149, 61712, 64917]}, "edge": {"target": [], "time": []}}, "mouseover": {"state": {"target": ["1", "2", "3", "3", "4", "6", "5", "4", "7", "22", "21", "21", "20", "17", "15", "2", "29", "29", "26", "23", "28", "27", "26", "28", "27", "26", "32", "32", "33", "31", "16", "18", "2", "8", "11", "9", "8", "10", "2", "22", "20", "20", "0", "0"], "time": [2202, 2347, 2523, 2801, 3513, 3573, 5159, 11198, 11281, 12142, 12431, 12659, 18184, 18452, 22100, 22134, 22170, 22734, 23279, 23299, 23741, 23782, 24257, 24442, 29483, 30230, 30567, 30955, 33510, 37001, 40802, 43492, 49336, 49388, 49985, 50664, 56667, 56933, 60751, 61504, 62112, 62488, 69553, 69653]}, "edge": {"target": [], "time": []}}, "mouseout": {"state": {"target": ["1", "2", "3", "3", "4", "6", "5", "5", "4", "7", "22", "21", "21", "20", "17", "15", "2", "29", "29", "26", "23", "28", "27", "26", "28", "27", "27", "26", "32", "32", "33", "31", "16", "16", "18", "2", "8", "11", "9", "8", "10", "2", "22", "20", "20", "0", "0"], "time": [2298, 2499, 2549, 3490, 3531, 5067, 7813, 8556, 11248, 12031, 12164, 12474, 15282, 18201, 19208, 22117, 22150, 22203, 23276, 23297, 23701, 23760, 24184, 24296, 29435, 29845, 30209, 30248, 30587, 33416, 36593, 39829, 42631, 43005, 46403, 49355, 49485, 50611, 54380, 56716, 57834, 60783, 61781, 62148, 65486, 69604, 69805]}, "edge": {"target": [], "time": []}}}, "displayed_time": "77.27", "trialTime": 80635, "trial_type": "mouselab-mdp", "trial_index": 10, "time_elapsed": 828424, "internal_node_id": "0.0-6.0-1.0-1.0"}}, {"uniqueid": "w33270074:a51483120", "current_trial": 11, "dateTime": 1693481604568, "trialdata": {"revealed_states": [], "clicked_states": ["1", "3", "5", "7", "17", "18", "29", "28", "14"], "num_clicks_accrued": [0, 0, 0, 0, 0, 0, 0, 0, 0, 0, 0, 0, 0], "stateRewards": ["", 1, 1, 7, -11, 80, -20, -53, -14, 3, 31, 27, 2, -1, -8, -10, 33, 41, 86, 9, 78, -37, -13, -1, -2, -6, -8, -80, 75, 4, -16, -49, -74, 24], "withholdReward": false, "trial_id": "mdp_trial_3", "block": "test", "trialIndex": 4, "score": 54.45, "costs": -14.55, "simulationMode": [null, null, null, null, null], "rewards": [2, -1, -8, -10, 86], "path": ["0", "0", "12", "13", "14", "15", "18"], "rt": [39260, 407, 214, 529, 199], "actions": ["right", "right", "right", "up", "left"], "actionTimes": [40836, 41764, 42487, 43527, 44246], "queries": {"click": {"state": {"target": ["1", "3", "5", "7", "17", "18", "29", "28", "14"], "time": [3572, 4937, 5984, 9970, 14110, 17364, 20712, 24145, 28475]}, "edge": {"target": [], "time": []}}, "mouseover": {"state": {"target": ["1", "2", "3", "4", "5", "4", "6", "7", "18", "14", "17", "15", "18", "1", "26", "29", "26", "28", "14", "14", "13", "12", "0", "12"], "time": [3378, 4429, 4528, 5314, 5588, 6539, 9592, 9726, 13446, 13627, 13775, 14546, 15051, 17756, 17818, 18133, 23418, 23497, 27626, 27928, 31997, 35745, 36679, 39650]}, "edge": {"target": [], "time": []}}, "mouseout": {"state": {"target": ["0", "1", "2", "3", "4", "5", "5", "4", "6", "7", "18", "14", "17", "17", "15", "18", "1", "26", "29", "26", "28", "14", "14", "13", "12", "0"], "time": [704, 4388, 4480, 5270, 5355, 6076, 6514, 9511, 9610, 13293, 13469, 13678, 14215, 14543, 14571, 17732, 17776, 18110, 23372, 23458, 27211, 27662, 31910, 34948, 36562, 36761]}, "edge": {"target": [], "time": []}}}, "displayed_time": "44.76", "trialTime": 48183, "trial_type": "mouselab-mdp", "trial_index": 11, "time_elapsed": 877384, "internal_node_id": "0.0-6.0-1.0-2.0"}}, {"uniqueid": "w33270074:a51483120", "current_trial": 12, "dateTime": 1693481643646, "trialdata": {"revealed_states": [], "clicked_states": ["1", "3", "5", "9", "11", "29", "28", "14"], "num_clicks_accrued": [0, 0, 0, 0, 0, 0, 0, 0, 0, 0, 0, 0, 0], "stateRewards": ["", 2, -3, -8, 14, -7, -51, 73, 2, 36, 36, -43, -1, 3, -4, 1, 6, 87, -65, 15, 61, -42, -83, -1, 3, -2, -7, 30, -48, 35, 13, 26, 60, 78], "withholdReward": false, "trial_id": "mdp_trial_4", "block": "test", "trialIndex": 5, "score": 60.6, "costs": -12.4, "simulationMode": [null, null, null, null, null], "rewards": [-1, 3, -2, 13, 60], "path": ["0", "0", "23", "24", "25", "30", "32"], "rt": [30009, 838, 217, 398, 656], "actions": ["left", "left", "left", "down", "down"], "actionTimes": [31822, 33177, 33905, 34831, 36003], "queries": {"click": {"state": {"target": ["1", "3", "5", "9", "11", "29", "28", "14"], "time": [3344, 4590, 5939, 9246, 12452, 15660, 19719, 22945]}, "edge": {"target": [], "time": []}}, "mouseover": {"state": {"target": ["1", "1", "2", "3", "3", "5", "9", "11", "27", "29", "23", "24", "28", "1", "14", "17", "13", "12", "0", "0"], "time": [3045, 3223, 3988, 4102, 4393, 5507, 8444, 10613, 14431, 14561, 19141, 19342, 19542, 21107, 21699, 23525, 27411, 27493, 28294, 28577]}, "edge": {"target": [], "time": []}}, "mouseout": {"state": {"target": ["12", "0", "1", "1", "2", "3", "3", "5", "9", "11", "27", "29", "23", "24", "28", "1", "14", "17", "13", "12", "0", "0"], "time": [926, 2509, 3094, 3436, 4041, 4158, 5407, 7835, 9652, 12821, 14455, 16111, 19292, 19376, 21069, 21128, 23072, 27345, 27444, 28243, 28326, 28627]}, "edge": {"target": [], "time": []}}}, "displayed_time": "36.51", "trialTime": 38224, "trial_type": "mouselab-mdp", "trial_index": 12, "time_elapsed": 916462, "internal_node_id": "0.0-6.0-1.0-3.0"}}, {"uniqueid": "w33270074:a51483120", "current_trial": 13, "dateTime": 1693481710104, "trialdata": {"revealed_states": [], "clicked_states": ["8", "9", "11", "6", "21", "32", "33", "31", "24", "27", "29", "28", "17", "16", "20"], "num_clicks_accrued": [0, 0, 0, 0, 0, 0, 0, 0, 0, 0, 0, 0, 0], "stateRewards": ["", 1, 2, 3, 16, 63, -25, 16, -4, -14, 82, -66, -1, -3, -3, -11, -14, 19, 46, 3, -34, -82, 66, -2, -3, 4, -5, -63, 77, -37, -1, -45, -41, 84], "withholdReward": false, "trial_id": "mdp_trial_5", "block": "test", "trialIndex": 6, "score": 52.150000000000006, "costs": -29.849999999999994, "simulationMode": [null, null, null, null, null], "rewards": [-2, -3, 4, -1, 84], "path": ["0", "0", "23", "24", "25", "30", "33"], "rt": [55863, 555, 287, 589, 2673], "actions": ["left", "left", "left", "down", "left"], "actionTimes": [57188, 58250, 59042, 60145, 63317], "queries": {"click": {"state": {"target": ["8", "9", "11", "6", "21", "32", "33", "31", "24", "27", "29", "28", "17", "16", "20"], "time": [2638, 3777, 6956, 10525, 14568, 18204, 21996, 25321, 28897, 31358, 35086, 38273, 42204, 45612, 49982]}, "edge": {"target": [], "time": []}}, "mouseover": {"state": {"target": ["1", "2", "3", "8", "9", "9", "11", "4", "6", "21", "21", "32", "32", "33", "33", "30", "31", "31", "24", "25", "26", "27", "29", "26", "28", "28", "1", "17", "15", "18", "18", "18", "16", "15", "18", "13", "19", "20", "19", "24", "30"], "time": [1771, 2156, 2245, 2322, 3174, 3504, 4660, 10073, 10323, 14007, 14358, 17590, 18074, 21442, 21757, 22446, 22482, 22912, 28655, 29871, 30762, 30989, 34811, 35977, 36003, 36982, 41729, 41794, 43974, 44019, 44259, 44583, 45161, 48779, 48845, 49343, 49409, 49728, 50342, 54409, 56041]}, "edge": {"target": [], "time": []}}, "mouseout": {"state": {"target": ["0", "1", "2", "3", "8", "9", "9", "9", "11", "4", "6", "21", "21", "32", "32", "33", "33", "30", "31", "31", "24", "25", "26", "27", "27", "29", "26", "28", "28", "1", "17", "15", "18", "18", "18", "16", "15", "18", "13", "19", "20", "19", "24", "30"], "time": [379, 1923, 2223, 2274, 3151, 3216, 3840, 4568, 7385, 10092, 10891, 14092, 17222, 17954, 21393, 21464, 22443, 22479, 22516, 28575, 29847, 30741, 30928, 31471, 34758, 35600, 36001, 36025, 38731, 41747, 43970, 43996, 44059, 44357, 45128, 48742, 48809, 48877, 49367, 49694, 50320, 50365, 55229, 56065]}, "edge": {"target": [], "time": []}}}, "displayed_time": "63.81", "trialTime": 65594, "trial_type": "mouselab-mdp", "trial_index": 13, "time_elapsed": 982921, "internal_node_id": "0.0-6.0-1.0-4.0"}}, {"uniqueid": "w33270074:a51483120", "current_trial": 14, "dateTime": 1693481767905, "trialdata": {"revealed_states": [], "clicked_states": ["3", "6", "5", "11", "9", "29", "28", "32", "21", "17", "16", "14", "12", "15", "18"], "num_clicks_accrued": [0, 0, 0, 0, 0, 0, 0, 0, 0, 0, 0, 0, 0], "stateRewards": ["", 1, 3, 3, -10, 52, 68, 59, 12, 7, 49, 21, -2, -3, -4, -2, -2, 63, 63, -4, 44, 43, -76, -2, -3, -6, 13, 48, 36, 12, -5, -36, -33, -11], "withholdReward": false, "trial_id": "mdp_trial_6", "block": "test", "trialIndex": 7, "score": 25.150000000000006, "costs": -26.849999999999994, "simulationMode": [null, null, null, null, null], "rewards": [-2, -3, -4, -2, 63], "path": ["0", "0", "12", "13", "14", "15", "17"], "rt": [50579, 100, 322, 271, 20], "actions": ["right", "right", "right", "up", "right"], "actionTimes": [52282, 52883, 53712, 54488, 55013], "queries": {"click": {"state": {"target": ["3", "6", "5", "11", "9", "29", "28", "32", "21", "17", "16", "14", "12", "15", "18"], "time": [3221, 4330, 7622, 11408, 14619, 17785, 21372, 25393, 28560, 32941, 36241, 39890, 41779, 43504, 45388]}, "edge": {"target": [], "time": []}}, "mouseover": {"state": {"target": ["1", "1", "2", "3", "4", "6", "16", "5", "5", "8", "11", "9", "26", "29", "28", "30", "32", "21", "14", "17", "17", "16", "15", "14", "13", "12", "15", "18", "0"], "time": [2394, 2578, 2819, 3080, 3750, 4101, 4959, 5819, 6073, 11048, 11091, 13577, 15467, 15690, 21031, 24814, 24945, 26309, 32179, 32459, 32747, 34024, 39468, 39730, 40370, 40486, 42947, 45115, 48996]}, "edge": {"target": [], "time": []}}, "mouseout": {"state": {"target": ["33", "30", "31", "0", "1", "1", "2", "3", "4", "6", "16", "6", "5", "5", "8", "11", "9", "9", "26", "29", "28", "30", "32", "21", "14", "17", "17", "16", "15", "14", "13", "12", "15", "15", "18", "0"], "time": [827, 877, 898, 1192, 2418, 2795, 2881, 3727, 3959, 4933, 5793, 5817, 5840, 8168, 11068, 13555, 14693, 15014, 15646, 18275, 24631, 24833, 25977, 29064, 32435, 32482, 33966, 39448, 39533, 40367, 40409, 42864, 43564, 45045, 48881, 49582]}, "edge": {"target": [], "time": []}}}, "displayed_time": "55.52", "trialTime": 56969, "trial_type": "mouselab-mdp", "trial_index": 14, "time_elapsed": 1040729, "internal_node_id": "0.0-6.0-1.0-5.0"}}, {"uniqueid": "w33270074:a51483120", "current_trial": 15, "dateTime": 1693481799137, "trialdata": {"revealed_states": [], "clicked_states": ["1", "17", "16", "21", "29", "9"], "num_clicks_accrued": [0, 0, 0, 0, 0, 0, 0, 0, 0, 0, 0, 0, 0], "stateRewards": ["", -2, 1, 6, -2, -10, -78, -69, 14, -15, 7, -1, 1, -1, -2, 13, 77, 32, 87, 5, -74, 30, -26, 1, 3, 4, 12, 39, 54, -43, 2, 10, 23, 13], "withholdReward": false, "trial_id": "mdp_trial_7", "block": "test", "trialIndex": 8, "score": 77.5, "costs": -10.5, "simulationMode": [null, null, null, null, null], "rewards": [1, -1, -2, 13, 77], "path": ["0", "0", "12", "13", "14", "15", "16"], "rt": [23278, 31, 358, 281, 60], "actions": ["right", "right", "right", "up", "up"], "actionTimes": [25051, 25595, 26462, 27264, 27851], "queries": {"click": {"state": {"target": ["1", "17", "16", "21", "29", "9"], "time": [3044, 4372, 7469, 10691, 13979, 17848]}, "edge": {"target": [], "time": []}}, "mouseover": {"state": {"target": ["1", "2", "3", "2", "1", "15", "17", "17", "16", "16", "18", "7", "19", "21", "21", "31", "33", "25", "29", "24", "10", "8", "9", "9", "3", "2", "1", "12", "19", "20"], "time": [2550, 2578, 2607, 2697, 2843, 3923, 4052, 4168, 5630, 5883, 8037, 8163, 8344, 8429, 8626, 11896, 11945, 12280, 12717, 14448, 17236, 17256, 17584, 17666, 18298, 21484, 21649, 24285, 24486, 24534]}, "edge": {"target": [], "time": []}}, "mouseout": {"state": {"target": ["0", "1", "2", "3", "2", "1", "15", "17", "17", "16", "16", "18", "7", "19", "21", "21", "31", "33", "25", "29", "24", "10", "8", "9", "9", "3", "2", "1", "12", "19"], "time": [1115, 2575, 2604, 2665, 2818, 3881, 3984, 4087, 5492, 5680, 7890, 8064, 8255, 8400, 8567, 11368, 11921, 12202, 12590, 14405, 17184, 17254, 17278, 17608, 18255, 21269, 21568, 21673, 24310, 24510]}, "edge": {"target": [], "time": []}}}, "displayed_time": "28.36", "trialTime": 30301, "trial_type": "mouselab-mdp", "trial_index": 15, "time_elapsed": 1071943, "internal_node_id": "0.0-6.0-1.0-6.0"}}, {"uniqueid": "w33270074:a51483120", "current_trial": 16, "dateTime": 1693481829905, "trialdata": {"revealed_states": [], "clicked_states": ["2", "5", "7", "17", "21", "20"], "num_clicks_accrued": [0, 0, 0, 0, 0, 0, 0, 0, 0, 0, 0, 0, 0], "stateRewards": ["", 2, -1, 8, -2, -16, 69, -39, -7, -13, -27, -86, 2, -2, 2, 13, -34, -16, -20, -5, 19, 81, 32, -2, -1, 2, -14, 20, 80, 58, 4, 70, 12, 73], "withholdReward": false, "trial_id": "mdp_trial_8", "block": "test", "trialIndex": 9, "score": 66.9, "costs": -11.100000000000001, "simulationMode": [null, null, null, null, null], "rewards": [2, -2, 2, -5, 81], "path": ["0", "0", "12", "13", "14", "19", "21"], "rt": [21362, 108, 305, 319, 90], "actions": ["right", "right", "right", "down", "down"], "actionTimes": [23443, 24067, 24878, 25707, 26314], "queries": {"click": {"state": {"target": ["2", "5", "7", "17", "21", "20"], "time": [3392, 4613, 7873, 11095, 14242, 17739]}, "edge": {"target": [], "time": []}}, "mouseover": {"state": {"target": ["1", "2", "4", "5", "4", "7", "18", "14", "14", "17", "21", "20"], "time": [2527, 3127, 3789, 4012, 5134, 7545, 8219, 8353, 8580, 8678, 12388, 17480]}, "edge": {"target": [], "time": []}}, "mouseout": {"state": {"target": ["20", "19", "13", "12", "12", "0", "1", "2", "4", "5", "4", "7", "18", "14", "14", "17", "21", "20"], "time": [794, 845, 926, 960, 1078, 2476, 2961, 3492, 3812, 5093, 7201, 8197, 8266, 8519, 8606, 11612, 14624, 19187]}, "edge": {"target": [], "time": []}}}, "displayed_time": "26.82", "trialTime": 29879, "trial_type": "mouselab-mdp", "trial_index": 16, "time_elapsed": 1102711, "internal_node_id": "0.0-6.0-1.0-7.0"}}, {"uniqueid": "w33270074:a51483120", "current_trial": 17, "dateTime": 1693481862405, "trialdata": {"revealed_states": [], "clicked_states": ["29", "9", "5", "21", "20", "17", "16"], "num_clicks_accrued": [0, 0, 0, 0, 0, 0, 0, 0, 0, 0, 0, 0, 0], "stateRewards": ["", -1, -3, 4, -10, -5, 79, -87, -2, 53, 29, -20, -2, -1, -5, 10, 27, 86, 46, -16, -29, 40, 3, 2, 4, -1, -6, 37, 79, -29, 7, 86, -62, 29], "withholdReward": false, "trial_id": "mdp_trial_9", "block": "test", "trialIndex": 10, "score": 72.95, "costs": -15.05, "simulationMode": [null, null, null, null, null], "rewards": [-2, -1, -5, 10, 86], "path": ["0", "0", "12", "13", "14", "15", "17"], "rt": [23987, 18, 333, 247, 12], "actions": ["right", "right", "right", "up", "right"], "actionTimes": [26098, 26610, 27468, 28232, 28754], "queries": {"click": {"state": {"target": ["29", "9", "5", "21", "20", "17", "16"], "time": [3188, 6321, 9556, 12771, 15999, 19182, 22396]}, "edge": {"target": [], "time": []}}, "mouseover": {"state": {"target": ["29", "27", "9", "5", "20", "21", "20", "17", "17", "16", "15", "14", "14", "14", "13", "12", "13"], "time": [3037, 4038, 4520, 6950, 10200, 10524, 14045, 16421, 16687, 19803, 23777, 23817, 24133, 24240, 24286, 24331, 24905]}, "edge": {"target": [], "time": []}}, "mouseout": {"state": {"target": ["19", "14", "18", "0", "29", "27", "9", "5", "20", "21", "20", "17", "17", "16", "16", "15", "14", "14", "14", "13", "12"], "time": [54, 884, 971, 2640, 3894, 4439, 6683, 9940, 10220, 13157, 16379, 16445, 19741, 22505, 23456, 23815, 23867, 24219, 24264, 24308, 24840]}, "edge": {"target": [], "time": []}}}, "displayed_time": "29.29", "trialTime": 31568, "trial_type": "mouselab-mdp", "trial_index": 17, "time_elapsed": 1135210, "internal_node_id": "0.0-6.0-1.0-8.0"}}, {"uniqueid": "w33270074:a51483120", "current_trial": 18, "dateTime": 1693481884416, "trialdata": {"revealed_states": [], "clicked_states": ["25", "14", "21", "20"], "num_clicks_accrued": [0, 0, 0, 0, 0, 0, 0, 0, 0, 0, 0, 0, 0], "stateRewards": ["", -1, -4, -1, -5, -28, -23, -15, -15, -38, 59, -87, 2, 2, -5, 9, -55, -39, -71, -6, 85, -85, -11, -1, -2, 5, -10, 1, 25, 41, -4, 69, -35, 86], "withholdReward": false, "trial_id": "mdp_trial_10", "block": "test", "trialIndex": 11, "score": 71.8, "costs": -6.199999999999999, "simulationMode": [null, null, null, null, null], "rewards": [2, 2, -5, -6, 85], "path": ["0", "0", "12", "13", "14", "19", "20"], "rt": [13795, 16, 277, 516, 35], "actions": ["right", "right", "right", "down", "right"], "actionTimes": [15942, 16475, 17278, 18291, 18826], "queries": {"click": {"state": {"target": ["25", "14", "21", "20"], "time": [3048, 4499, 6670, 9833]}, "edge": {"target": [], "time": []}}, "mouseover": {"state": {"target": ["23", "24", "25", "14", "20", "21", "20", "20", "17", "17"], "time": [2639, 2667, 2698, 4014, 5303, 5619, 7313, 7569, 10449, 10666]}, "edge": {"target": [], "time": []}}, "mouseout": {"state": {"target": ["13", "12", "28", "23", "24", "25", "14", "20", "21", "20", "20", "17", "17"], "time": [951, 990, 1288, 2664, 2695, 3463, 5298, 5339, 7270, 7354, 10175, 10592, 13604]}, "edge": {"target": [], "time": []}}}, "displayed_time": "19.32", "trialTime": 21095, "trial_type": "mouselab-mdp", "trial_index": 18, "time_elapsed": 1157222, "internal_node_id": "0.0-6.0-1.0-9.0"}}, {"uniqueid": "w33270074:a51483120", "current_trial": 19, "dateTime": 1693481933496, "trialdata": {"revealed_states": [], "clicked_states": ["3", "5", "7", "17", "18", "21", "20", "33", "27", "32", "9", "11"], "num_clicks_accrued": [0, 0, 0, 0, 0, 0, 0, 0, 0, 0, 0, 0, 0], "stateRewards": ["", 1, 1, -7, -9, -44, 24, -83, -15, 44, -24, 72, -2, -3, 4, -5, 57, 55, 29, -11, 22, 12, -25, -1, 2, 7, 12, 33, -8, 47, -4, 8, 50, -4], "withholdReward": false, "trial_id": "mdp_trial_11", "block": "test", "trialIndex": 12, "score": 27.400000000000006, "costs": -24.599999999999994, "simulationMode": [null, null, null, null, null], "rewards": [1, 1, -7, -15, 72], "path": ["0", "0", "1", "2", "3", "8", "11"], "rt": [41903, 85, 292, 395, 27], "actions": ["up", "up", "up", "left", "left"], "actionTimes": [43594, 44188, 45007, 45914, 46450], "queries": {"click": {"state": {"target": ["3", "5", "7", "17", "18", "21", "20", "33", "27", "32", "9", "11"], "time": [2931, 4334, 7533, 10881, 14185, 17428, 20660, 23805, 27454, 30719, 34967, 38359]}, "edge": {"target": [], "time": []}}, "mouseover": {"state": {"target": ["1", "2", "3", "5", "4", "7", "7", "16", "17", "15", "18", "14", "19", "21", "20", "25", "30", "33", "27", "26", "32", "32", "28", "9", "9", "11"], "time": [2150, 2256, 2779, 3362, 4850, 4942, 5225, 9849, 10699, 11495, 11822, 14625, 14779, 14835, 18140, 21770, 22098, 22308, 27284, 28007, 28221, 28378, 34149, 34452, 34771, 36490]}, "edge": {"target": [], "time": []}}, "mouseout": {"state": {"target": ["1", "2", "3", "5", "4", "7", "7", "16", "17", "15", "18", "14", "19", "21", "20", "25", "30", "33", "27", "27", "26", "32", "32", "28", "9", "9", "11"], "time": [2231, 2464, 3026, 4846, 4876, 5103, 8318, 9871, 11473, 11519, 14561, 14669, 14808, 17841, 21120, 22077, 22121, 24258, 27532, 28004, 28044, 28265, 31048, 34172, 34516, 35474, 42136]}, "edge": {"target": [], "time": []}}}, "displayed_time": "46.95", "trialTime": 48176, "trial_type": "mouselab-mdp", "trial_index": 19, "time_elapsed": 1206314, "internal_node_id": "0.0-6.0-1.0-10.0"}}, {"uniqueid": "w33270074:a51483120", "current_trial": 20, "dateTime": 1693481952162, "trialdata": {"revealed_states": [], "clicked_states": ["17", "29"], "num_clicks_accrued": [0, 0, 0, 0, 0, 0, 0, 0, 0, 0, 0, 0, 0], "stateRewards": ["", 1, 2, 2, -15, -84, 28, -26, 13, 31, 86, 30, -2, 1, -1, -8, 66, -40, -1, -10, -32, 57, -17, 1, 2, -2, 9, -23, 77, 85, 12, -32, -62, -35], "withholdReward": false, "trial_id": "mdp_trial_12", "block": "test", "trialIndex": 13, "score": 90.7, "costs": -4.3, "simulationMode": [null, null, null, null, null], "rewards": [1, 2, -2, 9, 85], "path": ["0", "0", "23", "24", "25", "26", "29"], "rt": [10519, 107, 71, 777, 52], "actions": ["left", "left", "left", "up", "left"], "actionTimes": [12040, 12653, 13230, 14530, 15077], "queries": {"click": {"state": {"target": ["17", "29"], "time": [2653, 5831]}, "edge": {"target": [], "time": []}}, "mouseover": {"state": {"target": ["15", "17", "17", "7", "29", "9", "8", "23", "0"], "time": [2140, 2197, 2525, 3024, 3494, 6537, 9614, 9655, 9906]}, "edge": {"target": [], "time": []}}, "mouseout": {"state": {"target": ["28", "23", "15", "17", "17", "7", "29", "9", "8", "23", "0"], "time": [607, 656, 2165, 2292, 2982, 3052, 6201, 9609, 9632, 9675, 9928]}, "edge": {"target": [], "time": []}}}, "displayed_time": "15.60", "trialTime": 17735, "trial_type": "mouselab-mdp", "trial_index": 20, "time_elapsed": 1224986, "internal_node_id": "0.0-6.0-1.0-11.0"}}, {"uniqueid": "w33270074:a51483120", "current_trial": 21, "dateTime": 1693481993625, "trialdata": {"revealed_states": [], "clicked_states": ["32", "21", "20", "17", "16", "9", "5", "29", "27"], "num_clicks_accrued": [0, 0, 0, 0, 0, 0, 0, 0, 0, 0, 0, 0, 0], "stateRewards": ["", -2, -2, -3, -6, -15, -11, 41, -12, -63, -76, 2, -2, -3, 8, 9, -36, -2, -18, -16, -32, -85, -17, -2, 1, 5, -16, 82, 35, -88, -1, 80, -82, -20], "withholdReward": false, "trial_id": "mdp_trial_13", "block": "test", "trialIndex": 14, "score": 50.650000000000006, "costs": -19.349999999999998, "simulationMode": [null, null, null, null, null], "rewards": [-2, 1, 5, -16, 82], "path": ["0", "0", "23", "24", "25", "26", "27"], "rt": [32176, 310, 308, 439, 751], "actions": ["left", "left", "left", "up", "up"], "actionTimes": [33777, 34587, 35399, 36347, 37602], "queries": {"click": {"state": {"target": ["32", "21", "20", "17", "16", "9", "5", "29", "27"], "time": [2640, 5837, 9030, 12258, 15487, 18810, 21955, 25178, 28792]}, "edge": {"target": [], "time": []}}, "mouseover": {"state": {"target": ["0", "31", "30", "32", "21", "20", "17", "17", "16", "6", "4", "9", "5", "8", "11", "29", "29", "27", "27", "10"], "time": [2139, 2286, 2314, 2367, 3256, 6242, 9756, 9950, 12690, 15983, 16010, 16345, 19583, 22386, 22409, 22520, 22801, 28341, 28608, 32091]}, "edge": {"target": [], "time": []}}, "mouseout": {"state": {"target": ["0", "0", "0", "31", "30", "32", "21", "20", "17", "17", "16", "6", "4", "9", "5", "8", "11", "29", "29", "27", "27", "27", "10"], "time": [377, 1085, 2165, 2311, 2340, 3157, 5914, 9305, 9849, 12607, 15959, 16007, 16036, 18900, 22365, 22407, 22433, 22591, 28308, 28364, 28887, 31992, 32557]}, "edge": {"target": [], "time": []}}}, "displayed_time": "38.11", "trialTime": 40403, "trial_type": "mouselab-mdp", "trial_index": 21, "time_elapsed": 1266442, "internal_node_id": "0.0-6.0-1.0-12.0"}}, {"uniqueid": "w33270074:a51483120", "current_trial": 22, "dateTime": 1693482022811, "trialdata": {"revealed_states": [], "clicked_states": ["3", "5", "21", "20", "16", "29"], "num_clicks_accrued": [0, 0, 0, 0, 0, 0, 0, 0, 0, 0, 0, 0, 0], "stateRewards": ["", -2, 2, -2, -7, -50, -62, -45, 7, 36, -24, -72, -1, -1, 8, -1, -67, 20, -52, 2, 35, -50, 80, -1, 1, 6, -6, -70, 6, 88, 8, -47, 74, -19], "withholdReward": false, "trial_id": "mdp_trial_14", "block": "test", "trialIndex": 15, "score": 76.3, "costs": -11.700000000000001, "simulationMode": [null, null, null, null, null], "rewards": [-1, 1, 6, -6, 88], "path": ["0", "0", "23", "24", "25", "26", "29"], "rt": [21214, 466, 164, 393, 555], "actions": ["left", "left", "left", "up", "left"], "actionTimes": [22973, 23936, 24610, 25513, 26575], "queries": {"click": {"state": {"target": ["3", "5", "21", "20", "16", "29"], "time": [2666, 4597, 8242, 11374, 14617, 17738]}, "edge": {"target": [], "time": []}}, "mouseover": {"state": {"target": ["1", "2", "3", "5", "14", "19", "21", "20", "20", "17", "16", "7", "26", "29", "11", "28", "31", "0"], "time": [2229, 2288, 2358, 3114, 6461, 6486, 7865, 8729, 8949, 11769, 12067, 15116, 15164, 15191, 18733, 21374, 21424, 21738]}, "edge": {"target": [], "time": []}}, "mouseout": {"state": {"target": ["1", "0", "1", "2", "3", "5", "14", "19", "21", "20", "20", "17", "16", "7", "26", "29", "11", "28", "31", "0"], "time": [999, 2201, 2265, 2335, 2763, 6051, 6484, 6509, 8333, 8749, 11710, 11814, 15114, 15138, 15188, 18173, 21351, 21400, 21453, 21770]}, "edge": {"target": [], "time": []}}}, "displayed_time": "27.07", "trialTime": 28230, "trial_type": "mouselab-mdp", "trial_index": 22, "time_elapsed": 1295627, "internal_node_id": "0.0-6.0-1.0-13.0"}}, {"uniqueid": "w33270074:a51483120", "current_trial": 23, "dateTime": 1693482041939, "trialdata": {"revealed_states": [], "clicked_states": ["5", "21"], "num_clicks_accrued": [0, 0, 0, 0, 0, 0, 0, 0, 0, 0, 0, 0, 0], "stateRewards": ["", 2, -1, 5, 8, 75, -35, -77, 1, -9, -81, -58, 1, 2, -7, 5, 77, -16, 19, 16, -10, -18, 40, -2, 3, 7, -5, 64, 1, -62, 10, 27, 10, 65], "withholdReward": false, "trial_id": "mdp_trial_15", "block": "test", "trialIndex": 16, "score": 84.7, "costs": -4.3, "simulationMode": [null, null, null, null, null], "rewards": [2, -1, 5, 8, 75], "path": ["0", "0", "1", "2", "3", "4", "5"], "rt": [9208, 85, 76, 305, 996], "actions": ["up", "up", "up", "right", "up"], "actionTimes": [10707, 11302, 11900, 12715, 14208], "queries": {"click": {"state": {"target": ["5", "21"], "time": [2664, 6363]}, "edge": {"target": [], "time": []}}, "mouseover": {"state": {"target": ["1", "2", "3", "5", "20", "21", "21"], "time": [1996, 2035, 2063, 2430, 3302, 3409, 3659]}, "edge": {"target": [], "time": []}}, "mouseout": {"state": {"target": ["0", "1", "2", "3", "5", "20", "21"], "time": [917, 2032, 2061, 2261, 3161, 3330, 3511]}, "edge": {"target": [], "time": []}}}, "displayed_time": "15.51", "trialTime": 18163, "trial_type": "mouselab-mdp", "trial_index": 23, "time_elapsed": 1314754, "internal_node_id": "0.0-6.0-1.0-14.0"}}, {"uniqueid": "w33270074:a51483120", "current_trial": 24, "dateTime": 1693482098815, "trialdata": {"revealed_states": [], "clicked_states": ["32", "27", "5", "9", "10", "21", "20", "22", "16", "17", "18", "29", "28", "33"], "num_clicks_accrued": [0, 0, 0, 0, 0, 0, 0, 0, 0, 0, 0, 0, 0], "stateRewards": ["", -1, 1, -5, -6, -78, 47, -13, 12, 48, -88, 20, 2, -3, -2, 13, -20, 37, -57, 14, -38, 30, 31, -2, -2, 8, 2, -23, 78, 28, 12, -74, -88, 8], "withholdReward": false, "trial_id": "mdp_trial_16", "block": "test", "trialIndex": 17, "score": 53.900000000000006, "costs": -30.09999999999999, "simulationMode": [null, null, null, null, null], "rewards": [-2, -2, 8, 2, 78], "path": ["0", "0", "23", "24", "25", "26", "28"], "rt": [47441, 133, 30, 417, 41], "actions": ["left", "left", "left", "up", "right"], "actionTimes": [49373, 50013, 50553, 51463, 52004], "queries": {"click": {"state": {"target": ["32", "27", "5", "9", "10", "21", "20", "22", "16", "17", "18", "29", "28", "33"], "time": [2741, 6441, 9625, 12807, 16097, 19259, 22482, 25676, 28895, 32334, 35884, 39102, 42252, 45528]}, "edge": {"target": [], "time": []}}, "mouseover": {"state": {"target": ["32", "30", "27", "27", "11", "5", "5", "9", "8", "10", "10", "14", "19", "21", "20", "20", "19", "22", "22", "13", "15", "17", "16", "17", "17", "15", "18", "28", "29", "29", "28", "28", "33"], "time": [2556, 4453, 4503, 6239, 6819, 6884, 7217, 10638, 13286, 13336, 13704, 16481, 16587, 17024, 19557, 19832, 22893, 22984, 23175, 26024, 26053, 26105, 26432, 29297, 29544, 35039, 35067, 36333, 36359, 36708, 39570, 39778, 43385]}, "edge": {"target": [], "time": []}}, "mouseout": {"state": {"target": ["21", "0", "32", "30", "27", "27", "11", "5", "5", "9", "9", "8", "10", "10", "14", "19", "21", "20", "20", "19", "22", "22", "13", "15", "17", "16", "17", "17", "15", "18", "28", "29", "29", "28", "28"], "time": [1039, 1293, 4430, 4476, 4524, 6796, 6841, 6933, 10412, 12891, 13259, 13310, 13464, 16381, 16508, 16684, 19508, 19583, 22869, 22920, 23033, 26022, 26051, 26079, 26128, 29272, 29323, 35015, 35063, 36287, 36357, 36384, 39519, 39598, 43087]}, "edge": {"target": [], "time": []}}}, "displayed_time": "52.51", "trialTime": 55902, "trial_type": "mouselab-mdp", "trial_index": 24, "time_elapsed": 1371630, "internal_node_id": "0.0-6.0-1.0-15.0"}}, {"uniqueid": "w33270074:a51483120", "current_trial": 25, "dateTime": 1693482130565, "trialdata": {"revealed_states": [], "clicked_states": ["5", "9", "29", "27", "28", "32", "33"], "num_clicks_accrued": [0, 0, 0, 0, 0, 0, 0, 0, 0, 0, 0, 0, 0], "stateRewards": ["", 1, 1, 6, -14, -40, 37, 16, -13, 33, -68, 49, 2, 4, 3, 6, 55, 27, 32, 10, -65, 20, -87, 2, 1, -6, -5, -42, 12, 29, -8, 16, 76, -33], "withholdReward": false, "trial_id": "mdp_trial_17", "block": "test", "trialIndex": 18, "score": 49.95, "costs": -15.05, "simulationMode": [null, null, null, null, null], "rewards": [2, 1, -6, -8, 76], "path": ["0", "0", "23", "24", "25", "30", "32"], "rt": [24046, 130, 174, 306, 331], "actions": ["left", "left", "left", "down", "down"], "actionTimes": [25747, 26400, 27074, 27887, 28730], "queries": {"click": {"state": {"target": ["5", "9", "29", "27", "28", "32", "33"], "time": [3099, 6286, 9465, 12659, 15851, 18965, 22184]}, "edge": {"target": [], "time": []}}, "mouseover": {"state": {"target": ["1", "2", "3", "5", "5", "9", "26", "29", "29", "26", "27", "26", "28", "30", "32", "33"], "time": [2261, 2362, 2500, 2578, 2880, 3580, 6732, 6822, 7121, 9922, 10190, 13146, 13434, 16359, 16477, 19845]}, "edge": {"target": [], "time": []}}, "mouseout": {"state": {"target": ["33", "30", "23", "0", "1", "2", "3", "5", "5", "5", "9", "26", "29", "29", "26", "27", "26", "28", "30", "32", "33", "30"], "time": [642, 676, 943, 2207, 2293, 2494, 2525, 2744, 3174, 3476, 6682, 6774, 6873, 9893, 9951, 13124, 13211, 16290, 16452, 19422, 30284, 30331]}, "edge": {"target": [], "time": []}}}, "displayed_time": "29.24", "trialTime": 30785, "trial_type": "mouselab-mdp", "trial_index": 25, "time_elapsed": 1403382, "internal_node_id": "0.0-6.0-1.0-16.0"}}, {"uniqueid": "w33270074:a51483120", "current_trial": 26, "dateTime": 1693482164727, "trialdata": {"revealed_states": [], "clicked_states": ["5", "21", "17", "18", "29", "28", "33"], "num_clicks_accrued": [0, 0, 0, 0, 0, 0, 0, 0, 0, 0, 0, 0, 0], "stateRewards": ["", 1, 1, -3, 7, 49, 78, 26, -5, 26, 48, -43, -1, -3, 2, -5, 4, -1, -60, 10, -35, 51, 81, -2, 1, -7, -5, -39, -86, -54, 4, -3, 74, 77], "withholdReward": false, "trial_id": "mdp_trial_18", "block": "test", "trialIndex": 19, "score": 57.95, "costs": -15.05, "simulationMode": [null, null, null, null, null], "rewards": [-2, 1, -7, 4, 77], "path": ["0", "0", "23", "24", "25", "30", "33"], "rt": [26014, 50, 335, 178, 331], "actions": ["left", "left", "left", "down", "left"], "actionTimes": [27596, 28164, 29019, 29691, 30544], "queries": {"click": {"state": {"target": ["5", "21", "17", "18", "29", "28", "33"], "time": [2790, 6036, 9309, 12474, 16361, 19575, 23079]}, "edge": {"target": [], "time": []}}, "mouseover": {"state": {"target": ["1", "4", "5", "5", "4", "22", "21", "20", "20", "16", "17", "15", "18", "1", "28", "26", "29", "28", "25", "33", "32"], "time": [2126, 2180, 2212, 2526, 3141, 3217, 3594, 6385, 6513, 6578, 6941, 9840, 9885, 15880, 15904, 15929, 16178, 17164, 22476, 22812, 23576]}, "edge": {"target": [], "time": []}}, "mouseout": {"state": {"target": ["24", "23", "0", "1", "4", "5", "5", "4", "22", "21", "20", "20", "16", "17", "15", "18", "1", "28", "26", "29", "28", "25", "33"], "time": [575, 625, 678, 2153, 2211, 2243, 3136, 3166, 3326, 6305, 6481, 6546, 6611, 9779, 9883, 15845, 15903, 15927, 15956, 16755, 22381, 22612, 23496]}, "edge": {"target": [], "time": []}}}, "displayed_time": "31.07", "trialTime": 33141, "trial_type": "mouselab-mdp", "trial_index": 26, "time_elapsed": 1437543, "internal_node_id": "0.0-6.0-1.0-17.0"}}, {"uniqueid": "w33270074:a51483120", "current_trial": 27, "dateTime": 1693482183992, "trialdata": {"revealed_states": [], "clicked_states": ["21", "16"], "num_clicks_accrued": [0, 0, 0, 0, 0, 0, 0, 0, 0, 0, 0, 0, 0], "stateRewards": ["", -2, -4, -2, 10, -8, -15, -47, 7, -84, 53, 5, -1, 2, -7, 3, 83, 31, 47, -1, 30, -8, 69, 2, -4, -1, 8, -7, 12, -8, -8, -13, 30, -84], "withholdReward": false, "trial_id": "mdp_trial_19", "block": "test", "trialIndex": 20, "score": 75.7, "costs": -4.3, "simulationMode": [null, null, null, null, null], "rewards": [-1, 2, -7, 3, 83], "path": ["0", "0", "12", "13", "14", "15", "16"], "rt": [8229, 84, 46, 296, 312], "actions": ["right", "right", "right", "up", "up"], "actionTimes": [9733, 10325, 10890, 11707, 12524], "queries": {"click": {"state": {"target": ["21", "16"], "time": [2235, 5439]}, "edge": {"target": [], "time": []}}, "mouseover": {"state": {"target": ["21", "15", "16", "5", "5", "31"], "time": [1992, 2624, 2870, 5862, 6039, 9259]}, "edge": {"target": [], "time": []}}, "mouseout": {"state": {"target": ["12", "0", "21", "15", "16", "5", "5", "31", "23"], "time": [628, 1536, 2569, 2653, 5793, 5887, 9190, 9282, 17878]}, "edge": {"target": [], "time": []}}}, "displayed_time": "15.51", "trialTime": 18204, "trial_type": "mouselab-mdp", "trial_index": 27, "time_elapsed": 1456810, "internal_node_id": "0.0-6.0-1.0-18.0"}}, {"uniqueid": "w33270074:a51483120", "current_trial": 28, "dateTime": 1693482230796, "trialdata": {"revealed_states": [], "clicked_states": ["5"], "num_clicks_accrued": [0, 0, 0, 0, 0, 0, 0, 0, 0, 0, 0, 0, 0], "stateRewards": ["", 1, -1, 8, 4, 76, -33, -17, -3, -1, -54, -74, -2, 2, -5, 13, -51, 63, 83, 1, 84, 29, -36, 2, -1, 7, -12, -10, -44, -43, -14, 8, -69, 19], "withholdReward": false, "trial_id": "mdp_trial_20", "block": "test", "trialIndex": 21, "score": 85.85, "costs": -2.15, "simulationMode": [null, null, null, null, null], "rewards": [1, -1, 8, 4, 76], "path": ["0", "0", "1", "2", "3", "4", "5"], "rt": [6151, 38, 129, 2903, 210], "actions": ["up", "up", "up", "right", "up"], "actionTimes": [7666, 8203, 8829, 12253, 12960], "queries": {"click": {"state": {"target": ["5"], "time": [2871]}, "edge": {"target": [], "time": []}}, "mouseover": {"state": {"target": ["1", "2", "3", "5", "9"], "time": [2262, 2295, 2332, 2646, 3655]}, "edge": {"target": [], "time": []}}, "mouseout": {"state": {"target": ["1", "2", "3", "5"], "time": [2292, 2330, 2478, 3269]}, "edge": {"target": [], "time": []}}}, "displayed_time": "15.52", "trialTime": 45708, "trial_type": "mouselab-mdp", "trial_index": 28, "time_elapsed": 1503612, "internal_node_id": "0.0-6.0-1.0-19.0"}}, {"uniqueid": "w33270074:a51483120", "current_trial": 29, "dateTime": 1693482253966, "trialdata": {"revealed_states": [], "clicked_states": ["17", "29", "9", "5"], "num_clicks_accrued": [0, 0, 0, 0, 0, 0, 0, 0, 0, 0, 0, 0, 0], "stateRewards": ["", 2, 4, -5, 7, 81, 35, 6, 11, 14, -72, 42, -1, 2, 3, -7, -77, -44, -40, -15, -85, 51, -32, -2, -1, -5, 7, -74, 47, 52, 16, -49, 48, -46], "withholdReward": false, "trial_id": "mdp_trial_21", "block": "test", "trialIndex": 22, "score": 80.4, "costs": -8.6, "simulationMode": [null, null, null, null, null], "rewards": [2, 4, -5, 7, 81], "path": ["0", "0", "1", "2", "3", "4", "5"], "rt": [14713, 67, 177, 188, 327], "actions": ["up", "up", "up", "right", "up"], "actionTimes": [17339, 17928, 18609, 19309, 20148], "queries": {"click": {"state": {"target": ["17", "29", "9", "5"], "time": [3273, 6435, 9674, 12893]}, "edge": {"target": [], "time": []}}, "mouseover": {"state": {"target": ["17", "29", "9", "5", "4", "21", "23"], "time": [3078, 4905, 7170, 10559, 13292, 13830, 16795]}, "edge": {"target": [], "time": []}}, "mouseout": {"state": {"target": ["9", "2", "1", "17", "29", "9", "5", "4", "21", "23"], "time": [1040, 1277, 1424, 4524, 6804, 9983, 13287, 13316, 16562, 16820]}, "edge": {"target": [], "time": []}}}, "displayed_time": "20.66", "trialTime": 22021, "trial_type": "mouselab-mdp", "trial_index": 29, "time_elapsed": 1526783, "internal_node_id": "0.0-6.0-1.0-20.0"}}, {"uniqueid": "w33270074:a51483120", "current_trial": 30, "dateTime": 1693482312848, "trialdata": {"revealed_states": [], "clicked_states": ["25", "33", "32", "21", "16", "17", "5", "9", "10", "11", "29", "28", "27", "6"], "num_clicks_accrued": [0, 0, 0, 0, 0, 0, 0, 0, 0, 0, 0, 0, 0], "stateRewards": ["", -2, -3, -5, 8, 27, 11, 43, -6, -24, -87, 69, -2, 1, 1, 9, 19, 48, -37, 9, -14, 45, 62, 1, 2, 1, 16, -81, -41, 22, 4, -6, -63, 47], "withholdReward": false, "trial_id": "mdp_trial_22", "block": "test", "trialIndex": 23, "score": 24.10000000000001, "costs": -28.89999999999999, "simulationMode": [null, null, null, null, null], "rewards": [-2, -3, -5, -6, 69], "path": ["0", "0", "1", "2", "3", "8", "11"], "rt": [45068, 613, 19, 759, 35], "actions": ["up", "up", "up", "left", "left"], "actionTimes": [47624, 48749, 49271, 50559, 51105], "queries": {"click": {"state": {"target": ["25", "33", "32", "21", "16", "17", "5", "9", "10", "11", "29", "28", "27", "6"], "time": [3481, 4882, 8016, 11171, 14415, 17658, 20810, 24069, 27233, 30392, 33878, 37484, 40586, 43790]}, "edge": {"target": [], "time": []}}, "mouseover": {"state": {"target": ["23", "24", "25", "33", "33", "32", "31", "21", "20", "14", "15", "16", "16", "17", "5", "3", "8", "9", "8", "10", "10", "11", "11", "27", "29", "29", "26", "28", "27", "27", "4", "6", "6"], "time": [2967, 3128, 3183, 3953, 4180, 5421, 8393, 9004, 11549, 11694, 11722, 11834, 12027, 15026, 18135, 21379, 21445, 21815, 24479, 24505, 25050, 27611, 27861, 32729, 33194, 33517, 37105, 37251, 37915, 38375, 40951, 41244, 41548]}, "edge": {"target": [], "time": []}}, "mouseout": {"state": {"target": ["0", "0", "23", "24", "25", "33", "33", "32", "31", "21", "20", "14", "15", "16", "16", "17", "5", "3", "8", "9", "8", "10", "10", "11", "11", "27", "29", "29", "26", "28", "27", "27", "4", "6", "6"], "time": [1314, 1912, 3096, 3155, 3881, 4078, 5276, 8341, 8422, 11477, 11645, 11720, 11750, 11892, 14527, 17755, 21322, 21410, 21474, 24476, 24503, 24529, 27545, 27637, 30880, 32783, 33214, 37083, 37131, 37885, 37944, 40881, 40975, 41323, 45287]}, "edge": {"target": [], "time": []}}}, "displayed_time": "51.60", "trialTime": 57754, "trial_type": "mouselab-mdp", "trial_index": 30, "time_elapsed": 1585663, "internal_node_id": "0.0-6.0-1.0-21.0"}}, {"uniqueid": "w33270074:a51483120", "current_trial": 31, "dateTime": 1693482362163, "trialdata": {"revealed_states": [], "clicked_states": ["5", "9", "29", "28", "27", "32", "21", "17", "16", "18", "20"], "num_clicks_accrued": [0, 0, 0, 0, 0, 0, 0, 0, 0, 0, 0, 0, 0], "stateRewards": ["", -1, -3, 1, -4, -48, -63, -49, -2, -84, -19, 65, 2, -2, -2, -12, -4, 59, 9, 6, 75, 69, -13, -1, -3, -3, -2, -37, -68, -36, 13, 32, 18, -14], "withholdReward": false, "trial_id": "mdp_trial_23", "block": "test", "trialIndex": 24, "score": 55.35000000000001, "costs": -23.649999999999995, "simulationMode": [null, null, null, null, null], "rewards": [2, -2, -2, 6, 75], "path": ["0", "0", "12", "13", "14", "19", "20"], "rt": [36836, 332, 117, 391, 225], "actions": ["right", "right", "right", "down", "right"], "actionTimes": [38524, 39375, 40009, 40921, 41656], "queries": {"click": {"state": {"target": ["5", "9", "29", "28", "27", "32", "21", "17", "16", "18", "20"], "time": [2448, 5623, 8762, 11889, 14973, 18048, 21311, 24587, 28137, 31549, 34766]}, "edge": {"target": [], "time": []}}, "mouseover": {"state": {"target": ["5", "5", "9", "9", "11", "26", "29", "26", "28", "27", "27", "32", "21", "20", "17", "16", "18", "14", "20", "21", "22"], "time": [2075, 2293, 2842, 3074, 6059, 6123, 6439, 9100, 9155, 12301, 12489, 15740, 18862, 21691, 22149, 25018, 28983, 32031, 32140, 35446, 35669]}, "edge": {"target": [], "time": []}}, "mouseout": {"state": {"target": ["20", "19", "12", "0", "5", "5", "9", "9", "11", "26", "29", "26", "28", "27", "27", "32", "21", "20", "17", "16", "16", "18", "14", "20", "21", "22"], "time": [573, 596, 659, 957, 2103, 2786, 2868, 6057, 6090, 6237, 9071, 9125, 12229, 12351, 15371, 18399, 21666, 21718, 24990, 28279, 28869, 31987, 32061, 35311, 35608, 35695]}, "edge": {"target": [], "time": []}}}, "displayed_time": "42.18", "trialTime": 48075, "trial_type": "mouselab-mdp", "trial_index": 31, "time_elapsed": 1634979, "internal_node_id": "0.0-6.0-1.0-22.0"}}, {"uniqueid": "w33270074:a51483120", "current_trial": 32, "dateTime": 1693482380104, "trialdata": {"revealed_states": [], "clicked_states": ["21", "32"], "num_clicks_accrued": [0, 0, 0, 0, 0, 0, 0, 0, 0, 0, 0, 0, 0], "stateRewards": ["", -1, 2, 6, 11, 21, -21, -21, -6, 48, -71, 88, -1, -3, 3, 7, 64, 2, 9, -4, 37, -67, 72, 2, 2, -8, -8, -10, 71, -40, -3, 73, 80, 47], "withholdReward": false, "trial_id": "mdp_trial_24", "block": "test", "trialIndex": 25, "score": 68.7, "costs": -4.3, "simulationMode": [null, null, null, null, null], "rewards": [2, 2, -8, -3, 80], "path": ["0", "0", "23", "24", "25", "30", "32"], "rt": [8674, 491, 457, 324, 284], "actions": ["left", "left", "left", "down", "down"], "actionTimes": [10055, 11054, 12016, 12854, 13655], "queries": {"click": {"state": {"target": ["21", "32"], "time": [2195, 5389]}, "edge": {"target": [], "time": []}}, "mouseover": {"state": {"target": ["21", "32", "11", "9"], "time": [1995, 2930, 6177, 6531]}, "edge": {"target": [], "time": []}}, "mouseout": {"state": {"target": ["0", "21", "32", "11"], "time": [1447, 2536, 5703, 6425]}, "edge": {"target": [], "time": []}}}, "displayed_time": "15.38", "trialTime": 16707, "trial_type": "mouselab-mdp", "trial_index": 32, "time_elapsed": 1652928, "internal_node_id": "0.0-6.0-1.0-23.0"}}, {"uniqueid": "w33270074:a51483120", "current_trial": 33, "dateTime": 1693482415847, "trialdata": {"revealed_states": [], "clicked_states": ["14", "21", "20", "5", "11", "6", "32", "33"], "num_clicks_accrued": [0, 0, 0, 0, 0, 0, 0, 0, 0, 0, 0, 0, 0], "stateRewards": ["", -2, 2, 3, -7, -31, -33, 29, -8, -57, 50, -83, -1, -1, 5, 13, -23, -62, 25, 5, -66, -85, 14, 1, -2, -1, 16, 71, 33, -19, -14, 5, -43, 79], "withholdReward": false, "trial_id": "mdp_trial_25", "block": "test", "trialIndex": 26, "score": 47, "costs": -16, "simulationMode": [null, null, null, null, null], "rewards": [1, -2, -1, -14, 79], "path": ["0", "0", "23", "24", "25", "30", "33"], "rt": [26650, 241, 321, 40, 245], "actions": ["left", "left", "left", "down", "left"], "actionTimes": [30022, 30786, 31634, 32169, 32907], "queries": {"click": {"state": {"target": ["14", "21", "20", "5", "11", "6", "32", "33"], "time": [4228, 5586, 8766, 13109, 16269, 19420, 22584, 25800]}, "edge": {"target": [], "time": []}}, "mouseover": {"state": {"target": ["14", "21", "20", "16", "5", "9", "11", "8", "6", "6", "10", "32", "33", "29", "29"], "time": [3891, 4888, 6369, 12158, 12476, 13961, 14084, 16921, 17033, 17326, 19947, 20479, 23268, 26288, 26564]}, "edge": {"target": [], "time": []}}, "mouseout": {"state": {"target": ["9", "12", "0", "14", "14", "21", "20", "16", "5", "9", "11", "8", "6", "6", "10", "32", "33", "29"], "time": [2275, 2306, 2607, 4308, 4632, 5972, 9207, 12183, 13220, 14009, 16816, 16951, 17065, 19874, 19974, 23192, 26228, 26319]}, "edge": {"target": [], "time": []}}}, "displayed_time": "33.41", "trialTime": 34601, "trial_type": "mouselab-mdp", "trial_index": 33, "time_elapsed": 1688663, "internal_node_id": "0.0-6.0-1.0-24.0"}}, {"uniqueid": "w33270074:a51483120", "current_trial": 34, "dateTime": 1693482484525, "trialdata": {"revealed_states": [], "clicked_states": ["21", "32", "9", "5", "17", "29", "28", "27", "33", "31", "20", "22", "16", "11", "6", "7", "10"], "num_clicks_accrued": [0, 0, 0, 0, 0, 0, 0, 0, 0, 0, 0, 0, 0], "stateRewards": ["", -1, 3, 8, 9, -53, 20, -84, 2, -28, -62, -31, -1, -2, -7, 2, 51, 58, 45, -4, -17, -41, 36, 2, -2, -7, -15, 29, -54, -37, -16, -43, 65, -17], "withholdReward": false, "trial_id": "mdp_trial_26", "block": "test", "trialIndex": 27, "score": 5.45000000000001, "costs": -36.54999999999999, "simulationMode": [null, null, null, null, null], "rewards": [2, -2, -7, -16, 65], "path": ["0", "0", "23", "24", "25", "30", "32"], "rt": [57073, 79, 75, 536, 325], "actions": ["left", "left", "left", "down", "down"], "actionTimes": [62473, 63074, 63672, 64731, 65572], "queries": {"click": {"state": {"target": ["21", "32", "9", "5", "17", "29", "28", "27", "33", "31", "20", "22", "16", "11", "6", "7", "10"], "time": [6035, 9246, 12699, 15905, 19061, 22320, 25596, 28747, 32153, 35334, 38548, 41712, 45363, 49169, 52347, 55644, 58862]}, "edge": {"target": [], "time": []}}, "mouseover": {"state": {"target": ["21", "31", "30", "32", "26", "11", "9", "5", "6", "16", "17", "2", "27", "29", "28", "26", "27", "33", "31", "25", "21", "20", "19", "22", "17", "16", "2", "11", "8", "6", "7", "2", "10"], "time": [5871, 6438, 6521, 6819, 9580, 9834, 10138, 13397, 16331, 16391, 16737, 19422, 19457, 19788, 23057, 26431, 26550, 29625, 32604, 35937, 36351, 36684, 39005, 39087, 43450, 45176, 48695, 48927, 49637, 50041, 53041, 56128, 56189]}, "edge": {"target": [], "time": []}}, "mouseout": {"state": {"target": ["29", "27", "0", "0", "0", "21", "31", "30", "32", "26", "11", "9", "5", "6", "16", "17", "2", "27", "29", "28", "26", "27", "33", "31", "25", "21", "20", "19", "22", "17", "16", "2", "11", "8", "6", "7", "2", "10"], "time": [1086, 1187, 1285, 1501, 5433, 6361, 6517, 6732, 9528, 9607, 9865, 13005, 16303, 16358, 16461, 19339, 19455, 19490, 22465, 26009, 26458, 29505, 32474, 35784, 36153, 36572, 38654, 39033, 43329, 43482, 46024, 48722, 49635, 49668, 52984, 56099, 56160, 61747]}, "edge": {"target": [], "time": []}}}, "displayed_time": "66.08", "trialTime": 67507, "trial_type": "mouselab-mdp", "trial_index": 34, "time_elapsed": 1757341, "internal_node_id": "0.0-6.0-1.0-25.0"}}, {"uniqueid": "w33270074:a51483120", "current_trial": 35, "dateTime": 1693482505090, "trialdata": {"revealed_states": [], "clicked_states": ["21", "17", "5"], "num_clicks_accrued": [0, 0, 0, 0, 0, 0, 0, 0, 0, 0, 0, 0, 0], "stateRewards": ["", -2, 4, -5, -12, 85, -24, -18, -15, -78, -22, 26, -1, -1, 2, 14, -45, 52, -23, 7, -33, 24, -6, -2, -4, 5, -7, -16, 36, -39, 5, 71, -87, -23], "withholdReward": false, "trial_id": "mdp_trial_27", "block": "test", "trialIndex": 28, "score": 63.55, "costs": -6.449999999999999, "simulationMode": [null, null, null, null, null], "rewards": [-2, 4, -5, -12, 85], "path": ["0", "0", "1", "2", "3", "4", "5"], "rt": [12323, 132, 395, 681, 230], "actions": ["up", "up", "up", "right", "up"], "actionTimes": [13799, 14485, 15402, 16594, 17328], "queries": {"click": {"state": {"target": ["21", "17", "5"], "time": [2950, 6276, 9406]}, "edge": {"target": [], "time": []}}, "mouseover": {"state": {"target": ["12", "13", "14", "19", "21", "21", "20", "17", "17", "16", "5", "5", "9"], "time": [2004, 2084, 2144, 2316, 2420, 2638, 4143, 4622, 4742, 6688, 6929, 7244, 9841]}, "edge": {"target": [], "time": []}}, "mouseout": {"state": {"target": ["10", "2", "7", "12", "0", "12", "13", "14", "19", "21", "21", "20", "17", "17", "16", "5", "5"], "time": [454, 486, 520, 621, 818, 2056, 2115, 2288, 2389, 2487, 3048, 4566, 4653, 6615, 6897, 6965, 9705]}, "edge": {"target": [], "time": []}}}, "displayed_time": "17.83", "trialTime": 19431, "trial_type": "mouselab-mdp", "trial_index": 35, "time_elapsed": 1777906, "internal_node_id": "0.0-6.0-1.0-26.0"}}, {"uniqueid": "w33270074:a51483120", "current_trial": 36, "dateTime": 1693482543975, "trialdata": {"revealed_states": [], "clicked_states": ["9", "5", "14", "21", "20", "33", "32", "31", "27"], "num_clicks_accrued": [0, 0, 0, 0, 0, 0, 0, 0, 0, 0, 0, 0, 0], "stateRewards": ["", 1, 2, -8, 9, 18, -83, -11, 6, -64, -48, 17, -2, -2, -5, -3, -24, -3, -86, -2, 48, -41, -22, -2, 4, 7, 8, 81, 13, -48, 10, 61, 19, 57], "withholdReward": false, "trial_id": "mdp_trial_28", "block": "test", "trialIndex": 29, "score": 79.85, "costs": -18.15, "simulationMode": [null, null, null, null, null], "rewards": [-2, 4, 7, 8, 81], "path": ["0", "0", "23", "24", "25", "26", "27"], "rt": [30049, 92, 288, 169, 606], "actions": ["left", "left", "left", "up", "up"], "actionTimes": [31510, 32126, 32936, 33605, 34705], "queries": {"click": {"state": {"target": ["9", "5", "14", "21", "20", "33", "32", "31", "27"], "time": [2882, 6088, 9436, 11166, 14321, 17597, 20822, 24109, 27329]}, "edge": {"target": [], "time": []}}, "mouseover": {"state": {"target": ["1", "3", "3", "9", "5", "5", "4", "18", "14", "19", "21", "20", "33", "33", "32", "31", "27", "29"], "time": [2012, 2075, 2444, 2646, 3462, 3891, 8055, 8113, 8444, 9884, 9966, 11958, 14856, 15146, 18034, 21190, 24746, 28167]}, "edge": {"target": [], "time": []}}, "mouseout": {"state": {"target": ["9", "8", "1", "3", "3", "9", "5", "5", "4", "18", "14", "19", "21", "20", "33", "33", "32", "31", "27"], "time": [509, 534, 2042, 2111, 2552, 3431, 3516, 6948, 8083, 8170, 9854, 9918, 11809, 14712, 14968, 18007, 21153, 24483, 27970]}, "edge": {"target": [], "time": []}}}, "displayed_time": "35.21", "trialTime": 37754, "trial_type": "mouselab-mdp", "trial_index": 36, "time_elapsed": 1816790, "internal_node_id": "0.0-6.0-1.0-27.0"}}, {"uniqueid": "w33270074:a51483120", "current_trial": 37, "dateTime": 1693482575274, "trialdata": {"revealed_states": [], "clicked_states": ["6", "5", "9", "11", "29", "33"], "num_clicks_accrued": [0, 0, 0, 0, 0, 0, 0, 0, 0, 0, 0, 0, 0], "stateRewards": ["", -2, -4, 6, 14, -34, 49, 36, -8, -3, 32, -4, 1, -2, 1, -8, -20, -71, -57, -7, -86, -62, -16, -2, -3, -5, 11, 23, -21, 53, 5, -5, 85, 73], "withholdReward": false, "trial_id": "mdp_trial_29", "block": "test", "trialIndex": 30, "score": 55.1, "costs": -12.9, "simulationMode": [null, null, null, null, null], "rewards": [-2, -3, -5, 5, 73], "path": ["0", "0", "23", "24", "25", "30", "33"], "rt": [22235, 88, 354, 868, 293], "actions": ["left", "left", "left", "down", "left"], "actionTimes": [24422, 25022, 25899, 27259, 28059], "queries": {"click": {"state": {"target": ["6", "5", "9", "11", "29", "33"], "time": [3851, 7086, 10424, 13626, 16760, 20009]}, "edge": {"target": [], "time": []}}, "mouseover": {"state": {"target": ["1", "2", "3", "3", "4", "16", "6", "5", "9", "11", "27", "29", "33", "32", "32"], "time": [2724, 2756, 2791, 3022, 3202, 3290, 3555, 4440, 7496, 10883, 14173, 14848, 17502, 20422, 20607]}, "edge": {"target": [], "time": []}}, "mouseout": {"state": {"target": ["29", "26", "25", "0", "1", "2", "3", "3", "4", "16", "6", "5", "9", "11", "27", "29", "33", "32"], "time": [454, 919, 989, 2673, 2753, 2789, 2840, 3171, 3236, 3356, 4347, 7445, 10856, 14123, 14254, 17170, 20390, 20454]}, "edge": {"target": [], "time": []}}}, "displayed_time": "28.57", "trialTime": 30194, "trial_type": "mouselab-mdp", "trial_index": 37, "time_elapsed": 1848091, "internal_node_id": "0.0-6.0-1.0-28.0"}}, {"uniqueid": "w33270074:a51483120", "current_trial": 38, "dateTime": 1693482632830, "trialdata": {"revealed_states": [], "clicked_states": ["11", "6", "21", "33", "32", "17", "16", "18", "22", "20", "29", "27", "28", "31"], "num_clicks_accrued": [0, 0, 0, 0, 0, 0, 0, 0, 0, 0, 0, 0, 0], "stateRewards": ["", -1, 4, -6, -5, -22, -38, -38, -2, -56, 88, 14, -1, -1, -7, -6, 61, -60, 21, 11, 57, 31, -30, -2, -2, 6, -9, -44, -70, -44, -15, 34, 16, -78], "withholdReward": false, "trial_id": "mdp_trial_30", "block": "test", "trialIndex": 31, "score": -24.099999999999994, "costs": -30.09999999999999, "simulationMode": [null, null, null, null, null], "rewards": [-1, -1, -7, -6, 21], "path": ["0", "0", "12", "13", "14", "15", "18"], "rt": [49271, 71, 343, 544, 387], "actions": ["right", "right", "right", "up", "left"], "actionTimes": [50909, 51485, 52411, 53451, 54361], "queries": {"click": {"state": {"target": ["11", "6", "21", "33", "32", "17", "16", "18", "22", "20", "29", "27", "28", "31"], "time": [3041, 6279, 9432, 12760, 15880, 19172, 22393, 25725, 28976, 32124, 35439, 38595, 41785, 44946]}, "edge": {"target": [], "time": []}}, "mouseover": {"state": {"target": ["1", "2", "3", "11", "4", "6", "14", "21", "33", "33", "24", "31", "32", "12", "17", "16", "18", "13", "22", "19", "20", "29", "27", "28", "24", "31", "13"], "time": [2267, 2300, 2466, 2835, 3498, 3684, 6824, 7169, 10066, 10393, 13191, 13431, 13532, 16650, 17056, 19994, 22971, 27029, 27121, 29332, 29697, 32709, 35836, 39198, 42182, 42454, 48786]}, "edge": {"target": [], "time": []}}, "mouseout": {"state": {"target": ["31", "0", "1", "2", "3", "11", "4", "6", "14", "21", "33", "33", "24", "31", "32", "12", "17", "16", "18", "13", "22", "19", "20", "29", "27", "28", "24", "31"], "time": [465, 852, 2298, 2334, 2616, 3148, 3529, 6794, 6850, 9527, 10195, 12868, 13221, 13465, 16218, 16690, 19687, 22937, 26286, 27056, 29329, 29362, 32595, 35782, 39135, 42152, 42240, 45485]}, "edge": {"target": [], "time": []}}}, "displayed_time": "54.87", "trialTime": 56324, "trial_type": "mouselab-mdp", "trial_index": 38, "time_elapsed": 1905646, "internal_node_id": "0.0-6.0-1.0-29.0"}}, {"uniqueid": "w33270074:a51483120", "current_trial": 39, "dateTime": 1693482663402, "trialdata": {"revealed_states": [], "clicked_states": ["3", "21", "17", "29", "9", "32", "33"], "num_clicks_accrued": [0, 0, 0, 0, 0, 0, 0, 0, 0, 0, 0, 0, 0], "stateRewards": ["", 1, 2, 8, -2, 23, -69, -18, -16, 54, -21, 71, -1, -4, 7, 11, 43, -6, 88, 6, -55, 72, 43, 1, -3, -2, -1, 68, -31, -54, 4, -8, 25, -2], "withholdReward": false, "trial_id": "mdp_trial_31", "block": "test", "trialIndex": 32, "score": 66.15, "costs": -13.850000000000001, "simulationMode": [null, null, null, null, null], "rewards": [-1, -4, 7, 6, 72], "path": ["0", "0", "12", "13", "14", "19", "21"], "rt": [23128, 93, 311, 67, 67], "actions": ["right", "right", "right", "down", "down"], "actionTimes": [24805, 25393, 26221, 26804, 27380], "queries": {"click": {"state": {"target": ["3", "21", "17", "29", "9", "32", "33"], "time": [2892, 4468, 8302, 11838, 15058, 18329, 21635]}, "edge": {"target": [], "time": []}}, "mouseover": {"state": {"target": ["1", "3", "3", "4", "5", "21", "21", "17", "17", "18", "2", "10", "27", "29", "27", "11", "9", "11", "25", "30", "32", "33", "30"], "time": [2427, 2461, 2711, 3301, 3559, 3994, 4259, 4875, 8011, 8861, 11020, 11130, 11183, 11261, 12267, 12330, 12714, 15393, 15451, 15481, 15515, 19008, 22115]}, "edge": {"target": [], "time": []}}, "mouseout": {"state": {"target": ["13", "1", "3", "3", "4", "5", "21", "21", "17", "17", "18", "2", "10", "27", "29", "27", "11", "9", "11", "25", "30", "32", "33", "30"], "time": [791, 2458, 2490, 2963, 3476, 3720, 4097, 4546, 4903, 8859, 8890, 11106, 11158, 11207, 11913, 12299, 12458, 15389, 15420, 15478, 15513, 18823, 22060, 22196]}, "edge": {"target": [], "time": []}}}, "displayed_time": "27.88", "trialTime": 29434, "trial_type": "mouselab-mdp", "trial_index": 39, "time_elapsed": 1936218, "internal_node_id": "0.0-6.0-1.0-30.0"}}, {"uniqueid": "w33270074:a51483120", "current_trial": 40, "dateTime": 1693482690439, "trialdata": {"revealed_states": [], "clicked_states": ["21", "33", "32", "5", "9"], "num_clicks_accrued": [0, 0, 0, 0, 0, 0, 0, 0, 0, 0, 0, 0, 0], "stateRewards": ["", 2, -4, -8, -15, 71, -43, -41, 7, -17, 20, 67, -1, -1, -4, 6, 37, -24, -47, 9, 34, 57, 45, 1, 2, -4, -5, -23, 88, -5, 13, -40, 43, 44], "withholdReward": false, "trial_id": "mdp_trial_32", "block": "test", "trialIndex": 33, "score": 35.25, "costs": -10.75, "simulationMode": [null, null, null, null, null], "rewards": [2, -4, -8, -15, 71], "path": ["0", "0", "1", "2", "3", "4", "5"], "rt": [19423, 126, 327, 32, 264], "actions": ["up", "up", "up", "right", "up"], "actionTimes": [21314, 21948, 22790, 23335, 24110], "queries": {"click": {"state": {"target": ["21", "33", "32", "5", "9"], "time": [3173, 7026, 10329, 13604, 17145]}, "edge": {"target": [], "time": []}}, "mouseover": {"state": {"target": ["12", "13", "21", "32", "32", "33", "32", "30", "5", "5", "9"], "time": [2644, 2676, 2990, 3640, 4059, 6825, 7838, 10655, 11155, 11394, 14095]}, "edge": {"target": [], "time": []}}, "mouseout": {"state": {"target": ["25", "28", "0", "12", "13", "21", "32", "32", "33", "33", "32", "30", "5", "5", "9", "9"], "time": [226, 608, 1258, 2674, 2712, 3276, 3676, 6723, 7142, 7468, 10652, 10688, 11186, 14036, 17255, 17681]}, "edge": {"target": [], "time": []}}}, "displayed_time": "24.63", "trialTime": 25883, "trial_type": "mouselab-mdp", "trial_index": 40, "time_elapsed": 1963255, "internal_node_id": "0.0-6.0-1.0-31.0"}}, {"uniqueid": "w33270074:a51483120", "current_trial": 41, "dateTime": 1693482708967, "trialdata": {"revealed_states": [], "clicked_states": ["5", "21"], "num_clicks_accrued": [0, 0, 0, 0, 0, 0, 0, 0, 0, 0, 0, 0, 0], "stateRewards": ["", -2, -3, -7, 7, -54, -69, -4, -14, -77, 22, 40, -2, -1, 5, 6, -35, 50, -60, 10, -28, 75, 57, 1, -4, -2, 2, 68, 34, -18, 12, 3, -21, -43], "withholdReward": false, "trial_id": "mdp_trial_33", "block": "test", "trialIndex": 34, "score": 82.7, "costs": -4.3, "simulationMode": [null, null, null, null, null], "rewards": [-2, -1, 5, 10, 75], "path": ["0", "0", "12", "13", "14", "19", "21"], "rt": [9357, 71, 298, 169, 181], "actions": ["right", "right", "right", "down", "down"], "actionTimes": [11057, 11641, 12461, 13151, 13842], "queries": {"click": {"state": {"target": ["5", "21"], "time": [2882, 6030]}, "edge": {"target": [], "time": []}}, "mouseover": {"state": {"target": ["1", "5", "4", "12", "21", "21", "32"], "time": [2279, 2693, 3288, 3369, 3674, 4006, 6855]}, "edge": {"target": [], "time": []}}, "mouseout": {"state": {"target": ["1", "0", "1", "5", "4", "12", "21", "21"], "time": [626, 2228, 2309, 3258, 3315, 3638, 3740, 6374]}, "edge": {"target": [], "time": []}}}, "displayed_time": "15.71", "trialTime": 17259, "trial_type": "mouselab-mdp", "trial_index": 41, "time_elapsed": 1981783, "internal_node_id": "0.0-6.0-1.0-32.0"}}, {"uniqueid": "w33270074:a51483120", "current_trial": 42, "dateTime": 1693482727956, "trialdata": {"revealed_states": [], "clicked_states": ["29"], "num_clicks_accrued": [0, 0, 0, 0, 0, 0, 0, 0, 0, 0, 0, 0, 0], "stateRewards": ["", -2, 4, -3, -13, 63, -36, 62, 11, 78, 34, -51, 2, -2, 8, -6, -40, -18, 31, 9, 64, 39, 79, 1, 4, -4, 15, -12, 76, 73, -10, -77, 86, -4], "withholdReward": false, "trial_id": "mdp_trial_34", "block": "test", "trialIndex": 35, "score": 86.85, "costs": -2.15, "simulationMode": [null, null, null, null, null], "rewards": [1, 4, -4, 15, 73], "path": ["0", "0", "23", "24", "25", "26", "29"], "rt": [5556, 567, 643, 776, 710], "actions": ["left", "left", "left", "up", "left"], "actionTimes": [7516, 8604, 9779, 11052, 12281], "queries": {"click": {"state": {"target": ["29"], "time": [3194]}, "edge": {"target": [], "time": []}}, "mouseover": {"state": {"target": ["14", "1", "26", "29", "26", "28", "26", "28"], "time": [1993, 2607, 2788, 2952, 3544, 4687, 4746, 4984]}, "edge": {"target": [], "time": []}}, "mouseout": {"state": {"target": ["32", "33", "25", "0", "0", "14", "1", "26", "29", "26", "28", "26"], "time": [536, 687, 872, 1186, 1991, 2555, 2657, 2921, 3541, 3571, 4717, 4952]}, "edge": {"target": [], "time": []}}}, "displayed_time": "15.97", "trialTime": 17749, "trial_type": "mouselab-mdp", "trial_index": 42, "time_elapsed": 2000780, "internal_node_id": "0.0-6.0-1.0-33.0"}}, {"uniqueid": "w33270074:a51483120", "current_trial": 43, "dateTime": 1693482746067, "trialdata": {"revealed_states": [], "clicked_states": ["21", "32"], "num_clicks_accrued": [0, 0, 0, 0, 0, 0, 0, 0, 0, 0, 0, 0, 0], "stateRewards": ["", -2, 2, -5, 1, 42, -63, -58, -6, 2, 16, 81, -2, 4, 7, -10, 33, 3, -33, -2, -52, -84, -27, 2, -3, -3, 15, -74, -14, -5, -5, -84, 79, -31], "withholdReward": false, "trial_id": "mdp_trial_35", "block": "test", "trialIndex": 36, "score": 65.7, "costs": -4.3, "simulationMode": [null, null, null, null, null], "rewards": [2, -3, -3, -5, 79], "path": ["0", "0", "23", "24", "25", "30", "32"], "rt": [8478, 170, 212, 149, 247], "actions": ["left", "left", "left", "down", "down"], "actionTimes": [10023, 10710, 11438, 12092, 12848], "queries": {"click": {"state": {"target": ["21", "32"], "time": [2265, 5524]}, "edge": {"target": [], "time": []}}, "mouseover": {"state": {"target": ["21", "21", "32", "9"], "time": [1574, 2038, 2957, 6220]}, "edge": {"target": [], "time": []}}, "mouseout": {"state": {"target": ["28", "21", "21", "32"], "time": [403, 1923, 2574, 5602]}, "edge": {"target": [], "time": []}}}, "displayed_time": "15.55", "trialTime": 16699, "trial_type": "mouselab-mdp", "trial_index": 43, "time_elapsed": 2018883, "internal_node_id": "0.0-6.0-1.0-34.0"}}, {"uniqueid": "w33270074:a51483120", "current_trial": 44, "dateTime": 1693482791149, "trialdata": {"revealed_states": [], "clicked_states": ["5", "21", "32", "33", "27", "17", "16", "6", "11", "9"], "num_clicks_accrued": [0, 0, 0, 0, 0, 0, 0, 0, 0, 0, 0, 0, 0], "stateRewards": ["", 2, -3, 5, -14, -63, -9, -24, -11, -54, -43, 68, 2, -2, -4, 7, -64, 30, 47, 12, -74, 11, 86, 1, -3, 3, 10, -71, -42, -52, -1, -29, -16, 69], "withholdReward": false, "trial_id": "mdp_trial_36", "block": "test", "trialIndex": 37, "score": 47.5, "costs": -21.499999999999996, "simulationMode": [null, null, null, null, null], "rewards": [1, -3, 3, -1, 69], "path": ["0", "0", "23", "24", "25", "30", "33"], "rt": [36630, 24, 323, 539, 270], "actions": ["left", "left", "left", "down", "left"], "actionTimes": [38900, 39444, 40322, 41378, 42152], "queries": {"click": {"state": {"target": ["5", "21", "32", "33", "27", "17", "16", "6", "11", "9"], "time": [3463, 6694, 9953, 13157, 17007, 20257, 23967, 27166, 31035, 34399]}, "edge": {"target": [], "time": []}}, "mouseover": {"state": {"target": ["1", "5", "6", "15", "14", "19", "21", "32", "33", "26", "27", "10", "18", "17", "17", "16", "4", "6", "8", "11", "9"], "time": [2950, 3236, 4115, 4459, 4494, 4603, 4791, 7371, 10357, 13525, 13761, 18238, 18557, 18588, 18940, 23735, 24900, 25203, 27750, 28168, 31843]}, "edge": {"target": [], "time": []}}, "mouseout": {"state": {"target": ["9", "3", "1", "1", "5", "6", "15", "14", "19", "21", "32", "33", "26", "27", "10", "18", "17", "17", "16", "4", "6", "8", "11", "9"], "time": [718, 783, 1310, 2981, 3970, 4148, 4491, 4525, 4762, 7070, 10274, 13421, 13729, 18233, 18301, 18586, 18618, 23605, 24869, 25137, 27684, 27817, 31627, 34899]}, "edge": {"target": [], "time": []}}}, "displayed_time": "42.67", "trialTime": 43710, "trial_type": "mouselab-mdp", "trial_index": 44, "time_elapsed": 2063965, "internal_node_id": "0.0-6.0-1.0-35.0"}}, {"uniqueid": "w33270074:a51483120", "current_trial": 45, "dateTime": 1693482810306, "trialdata": {"revealed_states": [], "clicked_states": ["17", "29", "5"], "num_clicks_accrued": [0, 0, 0, 0, 0, 0, 0, 0, 0, 0, 0, 0, 0], "stateRewards": ["", 1, -2, 7, -14, 88, -56, -44, -14, 64, -51, -57, -2, 3, -4, -9, -11, 19, -77, -1, 68, 75, -67, -1, 1, -2, 5, -37, 70, -34, -10, -72, 63, -41], "withholdReward": false, "trial_id": "mdp_trial_37", "block": "test", "trialIndex": 38, "score": 73.55, "costs": -6.449999999999999, "simulationMode": [null, null, null, null, null], "rewards": [1, -2, 7, -14, 88], "path": ["0", "0", "1", "2", "3", "4", "5"], "rt": [11327, 278, 61, 150, 57], "actions": ["up", "up", "up", "right", "up"], "actionTimes": [13146, 13928, 14504, 15174, 15756], "queries": {"click": {"state": {"target": ["17", "29", "5"], "time": [2578, 5827, 8877]}, "edge": {"target": [], "time": []}}, "mouseover": {"state": {"target": ["17", "2", "29", "5", "6", "6", "5", "31", "32"], "time": [2445, 2926, 3190, 6236, 6271, 6373, 6585, 9375, 9643]}, "edge": {"target": [], "time": []}}, "mouseout": {"state": {"target": ["11", "8", "0", "17", "2", "29", "5", "6", "6", "5", "31", "32"], "time": [477, 661, 1850, 2893, 2960, 5946, 6269, 6304, 6437, 9340, 9408, 12296]}, "edge": {"target": [], "time": []}}}, "displayed_time": "16.27", "trialTime": 17807, "trial_type": "mouselab-mdp", "trial_index": 45, "time_elapsed": 2083122, "internal_node_id": "0.0-6.0-1.0-36.0"}}, {"uniqueid": "w33270074:a51483120", "current_trial": 46, "dateTime": 1693482859176, "trialdata": {"revealed_states": [], "clicked_states": ["5", "33", "17", "21", "29", "9", "20", "6", "11", "27", "28", "32"], "num_clicks_accrued": [0, 0, 0, 0, 0, 0, 0, 0, 0, 0, 0, 0, 0], "stateRewards": ["", 1, -1, -7, -7, -22, 15, -13, 13, 26, -32, 38, -1, 1, -7, -4, 16, -62, 86, 12, -54, 56, 64, -2, -1, 6, 14, -57, 37, 62, -6, -25, 50, -70], "withholdReward": false, "trial_id": "mdp_trial_38", "block": "test", "trialIndex": 39, "score": 35.2, "costs": -25.799999999999994, "simulationMode": [null, null, null, null, null], "rewards": [-1, 1, -7, 12, 56], "path": ["0", "0", "12", "13", "14", "19", "21"], "rt": [41127, 88, 81, 498, 230], "actions": ["right", "right", "right", "down", "down"], "actionTimes": [43166, 43756, 44347, 45363, 46107], "queries": {"click": {"state": {"target": ["5", "33", "17", "21", "29", "9", "20", "6", "11", "27", "28", "32"], "time": [3287, 6525, 9779, 12928, 16300, 19635, 22921, 26135, 29592, 32909, 36025, 39257]}, "edge": {"target": [], "time": []}}, "mouseover": {"state": {"target": ["4", "5", "25", "33", "22", "17", "14", "19", "21", "22", "26", "29", "9", "20", "23", "24", "1", "6", "4", "8", "11", "1", "27", "28", "25", "32"], "time": [2814, 3098, 3833, 4172, 6896, 7133, 10198, 10235, 10334, 13264, 13323, 13687, 16989, 21078, 23388, 23422, 23745, 24169, 26946, 26980, 27871, 30322, 31285, 33373, 36412, 36857]}, "edge": {"target": [], "time": []}}, "mouseout": {"state": {"target": ["32", "32", "12", "0", "4", "5", "25", "33", "22", "17", "14", "19", "21", "22", "26", "29", "9", "20", "23", "24", "1", "6", "4", "8", "11", "1", "27", "27", "28", "25", "32"], "time": [428, 495, 1180, 2684, 2845, 3697, 3866, 6834, 6930, 10165, 10230, 10268, 13208, 13292, 13355, 16613, 19717, 23301, 23421, 23454, 23861, 26944, 26978, 27018, 30036, 31098, 33021, 33313, 36380, 36444, 39386]}, "edge": {"target": [], "time": []}}}, "displayed_time": "46.62", "trialTime": 47696, "trial_type": "mouselab-mdp", "trial_index": 46, "time_elapsed": 2131992, "internal_node_id": "0.0-6.0-1.0-37.0"}}, {"uniqueid": "w33270074:a51483120", "current_trial": 47, "dateTime": 1693482901977, "trialdata": {"revealed_states": [], "clicked_states": ["17", "33", "5", "21", "27", "29", "9", "11", "32", "31"], "num_clicks_accrued": [0, 0, 0, 0, 0, 0, 0, 0, 0, 0, 0, 0, 0], "stateRewards": ["", 1, 1, -3, 2, 22, -25, -11, -5, 50, 49, 3, 1, -1, 8, 14, -85, -30, 57, -6, -39, -16, 59, -2, -1, 5, 5, 59, -16, 8, 4, 67, 56, -9], "withholdReward": false, "trial_id": "mdp_trial_39", "block": "test", "trialIndex": 40, "score": 51.5, "costs": -21.499999999999996, "simulationMode": [null, null, null, null, null], "rewards": [-2, -1, 5, 4, 67], "path": ["0", "0", "23", "24", "25", "30", "31"], "rt": [35640, 227, 127, 183, 162], "actions": ["left", "left", "left", "down", "right"], "actionTimes": [37348, 38074, 38722, 39419, 40106], "queries": {"click": {"state": {"target": ["17", "33", "5", "21", "27", "29", "9", "11", "32", "31"], "time": [2654, 5889, 9124, 12388, 15584, 19223, 23146, 26464, 29685, 33278]}, "edge": {"target": [], "time": []}}, "mouseover": {"state": {"target": ["17", "17", "31", "25", "29", "33", "33", "25", "19", "20", "5", "12", "21", "21", "31", "24", "26", "27", "29", "11", "9", "11", "12", "32", "31"], "time": [2203, 2501, 3201, 3471, 3571, 4273, 4536, 6235, 6270, 6567, 7026, 9696, 10006, 10152, 13623, 13881, 13916, 14168, 18722, 22691, 22887, 23841, 26943, 27719, 32990]}, "edge": {"target": [], "time": []}}, "mouseout": {"state": {"target": ["0", "0", "17", "17", "31", "25", "29", "33", "33", "25", "19", "20", "5", "12", "21", "21", "31", "24", "26", "27", "29", "11", "9", "11", "12", "32", "31"], "time": [868, 1737, 2285, 3066, 3437, 3503, 4241, 4303, 6202, 6268, 6302, 6604, 9603, 9729, 10070, 12865, 13655, 13913, 13948, 18540, 19729, 22718, 23598, 26913, 26972, 30104, 35731]}, "edge": {"target": [], "time": []}}}, "displayed_time": "40.62", "trialTime": 41587, "trial_type": "mouselab-mdp", "trial_index": 47, "time_elapsed": 2174793, "internal_node_id": "0.0-6.0-1.0-38.0"}}, {"uniqueid": "w33270074:a51483120", "current_trial": 48, "dateTime": 1693482944377, "trialdata": {"revealed_states": [], "clicked_states": ["5", "32", "21", "11", "17", "29", "16", "33", "31", "27"], "num_clicks_accrued": [0, 0, 0, 0, 0, 0, 0, 0, 0, 0, 0, 0, 0], "stateRewards": ["", 2, 4, -3, 16, -58, 30, -35, 11, -60, 47, 27, -2, -1, -7, -16, 23, -70, 68, -10, -65, -43, -34, -2, 1, 7, 9, -63, 34, -31, -8, -12, -86, 59], "withholdReward": false, "trial_id": "mdp_trial_40", "block": "test", "trialIndex": 41, "score": 35.5, "costs": -21.499999999999996, "simulationMode": [null, null, null, null, null], "rewards": [-2, 1, 7, -8, 59], "path": ["0", "0", "23", "24", "25", "30", "33"], "rt": [34477, 59, 206, 926, 170], "actions": ["left", "left", "left", "down", "left"], "actionTimes": [36208, 36783, 37507, 38933, 39621], "queries": {"click": {"state": {"target": ["5", "32", "21", "11", "17", "29", "16", "33", "31", "27"], "time": [2659, 5821, 9016, 12188, 15472, 18684, 21822, 25098, 28391, 31603]}, "edge": {"target": [], "time": []}}, "mouseover": {"state": {"target": ["6", "5", "10", "32", "21", "8", "11", "17", "17", "29", "10", "16", "1", "33", "31", "27"], "time": [2301, 2485, 3049, 3770, 6536, 9446, 9955, 13186, 13435, 15912, 19039, 19650, 22398, 23133, 25921, 30331]}, "edge": {"target": [], "time": []}}, "mouseout": {"state": {"target": ["1", "6", "5", "10", "32", "21", "8", "11", "17", "17", "29", "10", "16", "16", "1", "33", "31", "27"], "time": [834, 2353, 3015, 3085, 6117, 9351, 9483, 12580, 13285, 15819, 18975, 19078, 21904, 22296, 22457, 25451, 28506, 32007]}, "edge": {"target": [], "time": []}}}, "displayed_time": "40.14", "trialTime": 41111, "trial_type": "mouselab-mdp", "trial_index": 48, "time_elapsed": 2217193, "internal_node_id": "0.0-6.0-1.0-39.0"}}, {"uniqueid": "w33270074:a51483120", "current_trial": 49, "dateTime": 1693483009262, "trialdata": {"rt": 64876, "response": {"Q0": "$-2 to $2", "Q1": "$-16 to $16", "Q2": "$-88 to $88", "Q3": "The cost for clicking on nodes varied between nodes.", "Q4": "Very motivated"}, "question_order": [0, 1, 2, 3, 4], "trial_id": "final_quiz_control", "trial_type": "survey-multi-choice", "trial_index": 49, "time_elapsed": 2282087, "internal_node_id": "0.0-6.0-2.0"}}, {"uniqueid": "w33270074:a51483120", "current_trial": 50, "dateTime": 1693483151704, "trialdata": {"rt": 142425, "response": {"Q0": "The strategy was to use the node inspector to reveal the value of the final node. Once the biggest positive number is found, the specific path was followed.", "Q1": "When I found anything above 70 I did not use any resources to spend on node inspector.", "Q2": "it was unpredictable, that is the difficult bit."}, "trial_id": "self_report_control", "trial_type": "survey-text", "trial_index": 50, "time_elapsed": 2424529, "internal_node_id": "0.0-6.0-3.0"}}, {"uniqueid": "w33270074:a51483120", "current_trial": 51, "dateTime": 1693483210445, "trialdata": {"rt": 58734, "response": {"Q0": "Disagree", "Q1": "Neither disagree nor agree", "Q2": "Neither disagree nor agree", "Q3": "Strongly disagree", "Q4": "Disagree", "Q5": "Strongly agree", "Q6": "Disagree"}, "question_order": [0, 1, 2, 3, 4, 5, 6], "trial_id": "self_report_2", "trial_type": "survey-multi-choice", "trial_index": 51, "time_elapsed": 2483270, "internal_node_id": "0.0-6.0-4.0"}}, {"uniqueid": "w33270074:a51483120", "current_trial": 52, "dateTime": 1693483230094, "trialdata": {"rt": 19631, "response": {"gender": "male", "age": "39", "colorblind": "0", "effort": "0"}, "trial_type": "survey-html-form", "trial_index": 52, "time_elapsed": 2502918, "internal_node_id": "0.0-6.0-5.0"}}, {"uniqueid": "w33270074:a51483120", "current_trial": 53, "dateTime": 1693483250965, "trialdata": {"rt": 20855, "response": {"Q0": "No.", "Q1": "No.", "Q2": "None."}, "trial_type": "survey-text", "trial_index": 53, "time_elapsed": 2523790, "internal_node_id": "0.0-6.0-6.0"}}, {"uniqueid": "w33270074:a51483120", "current_trial": 54, "dateTime": 1693483298020, "trialdata": {"rt": 47047, "stimulus": "<h1>Completion Code Instructions (1/2)</h1>\n<br><br><br><br>\nYou have reached the end of the experiment! The completion code consists of two parts: (1) a code with 2 characters (2) a code with 6 characters. On this page, you will receive the second part of the code. The first part of the completion code will be on the next page.\n<br><br>\nThe second part of your completion code is: <b>EWEK22</b>\n<br><br>\nPlease note this down. Then, press 'Finish HIT' in order to find the first part of your completion code. Once the data has been saved, you will receive this code either in this window or in the original browser window where you started the experiment.\n", "response": 0, "trial_type": "html-button-response", "trial_index": 54, "time_elapsed": 2570845, "internal_node_id": "0.0-6.0-7.0"}}, {"uniqueid": "w33270074:a51483120", "current_trial": 55, "dateTime": 1693483299033, "trialdata": {"success": true, "trial_type": "fullscreen", "trial_index": 55, "time_elapsed": 2571858, "internal_node_id": "0.0-7.0"}}], "questiondata": {"params": {"CODE": "C6DMOQA6", "MIN_TIME": 14, "inspectCost": 1, "startTime": "Thu Aug 31 2023 12:18:46 GMT+0100 (British Summer Time)", "bonusRate": 0.002, "variance": "1_2_4_8_44", "branching": "31123"}, "final_score": 2116.95}, "eventdata": [{"eventtype": "initialized", "value": null, "timestamp": 1693480725935, "interval": 0}, {"eventtype": "window_resize", "value": [1024, 744], "timestamp": 1693480725935, "interval": 0}, {"eventtype": "window_resize", "value": [1024, 744], "timestamp": 1693480726272, "interval": 337}, {"eventtype": "focus", "value": "off", "timestamp": 1693480727350, "interval": 1078}, {"eventtype": "focus", "value": "on", "timestamp": 1693480728807, "interval": 1457}, {"eventtype": "focus", "value": "off", "timestamp": 1693480734789, "interval": 5982}, {"eventtype": "focus", "value": "on", "timestamp": 1693480738101, "interval": 3312}, {"eventtype": "window_resize", "value": [1440, 900], "timestamp": 1693480739545, "interval": 1444}, {"eventtype": "window_resize", "value": [1024, 744], "timestamp": 1693483298291, "interval": 2558746}], "useragent": "Mozilla/5.0 (Macintosh; Intel Mac OS X 10_15_7) AppleWebKit/537.36 (KHTML, like Gecko) Chrome/116.0.0.0 Safari/537.36", "mode": "live", "id": "w33270074:a51483120", "status": "user data saved", "Beginhit": "2023-08-31 11:18:44.53133", "Beginexp": "2023-08-31 11:19:00.772848", "Endhit": "2023-08-31 12:01:39.882898", "psiturkStatus": 3, "browser": "<redacted>", "platform": "macos", "language": "en-GB"}