{"condition": 1, "counterbalance": 0, "assignmentId": "a59683339", "workerId": "w80713728", "hitId": "h25699019", "currenttrial": 56, "bonus": 0, "data": [{"uniqueid": "w80713728:a59683339", "current_trial": 0, "dateTime": 1691141902333, "trialdata": {"success": true, "trial_type": "fullscreen", "trial_index": 0, "time_elapsed": 8192, "internal_node_id": "0.0-0.0"}}, {"uniqueid": "w80713728:a59683339", "current_trial": 1, "dateTime": 1691141932490, "trialdata": {"view_history": [{"page_index": 0, "viewing_time": 30131}], "rt": 30136, "trial_id": "exp_instructions_misaligned", "trial_type": "instructions", "trial_index": 1, "time_elapsed": 38350, "internal_node_id": "0.0-1.0"}}, {"uniqueid": "w80713728:a59683339", "current_trial": 2, "dateTime": 1691141937429, "trialdata": {"success": true, "trial_type": "fullscreen", "trial_index": 2, "time_elapsed": 43289, "internal_node_id": "0.0-2.0-0.0"}}, {"uniqueid": "w80713728:a59683339", "current_trial": 3, "dateTime": 1691142298985, "trialdata": {"view_history": [{"page_index": 0, "viewing_time": 140005}, {"page_index": 1, "viewing_time": 134806}, {"page_index": 2, "viewing_time": 30647}, {"page_index": 3, "viewing_time": 56086}], "rt": 361546, "trial_id": "mouselab_instructions_1_misaligned", "trial_type": "instructions", "trial_index": 3, "time_elapsed": 404845, "internal_node_id": "0.0-2.0-1.0"}}, {"uniqueid": "w80713728:a59683339", "current_trial": 4, "dateTime": 1691142411545, "trialdata": {"revealed_states": [], "clicked_states": ["25", "14", "3", "1", "24", "12", "27", "2", "23", "22", "13", "20", "31", "33", "30", "32", "19", "21"], "num_clicks_accrued": [0, 0, 0, 0, 0, 0, 0, 0, 0, 0, 0, 0, 0], "stateRewards": ["", 10, -10, 10, -10, 10, 10, -10, 10, -10, 10, -10, 10, -10, 10, 10, 10, 10, -10, 10, -10, 10, 10, -10, -10, -10, -10, -10, -10, -10, 10, -10, 10, 10], "withholdReward": false, "trial_id": "practice_1", "block": "test", "trialIndex": 0, "score": 24.5, "costs": -9, "simulationMode": [null, null, null, null, null], "rewards": [10, -10, 10, 10, 10], "path": ["0", "0", "12", "13", "14", "19", "21"], "rt": [90611, 1394, 977, 804, 895], "actions": ["right", "right", "right", "down", "down"], "actionTimes": [99839, 101753, 103235, 104545, 105953], "queries": {"click": {"state": {"target": ["25", "14", "3", "1", "24", "12", "27", "2", "23", "22", "13", "20", "31", "33", "30", "32", "19", "21"], "time": [15177, 21593, 24652, 26295, 31132, 33844, 38453, 40612, 46190, 52702, 54121, 56788, 61386, 63524, 69069, 74095, 76633, 77841]}, "edge": {"target": [], "time": []}}, "mouseover": {"state": {"target": ["23", "24", "25", "24", "23", "12", "13", "14", "13", "12", "13", "14", "10", "3", "2", "1", "24", "30", "30", "25", "30", "24", "23", "0", "12", "13", "19", "28", "27", "28", "22", "7", "2", "1", "0", "22", "0", "23", "23", "12", "13", "12", "0", "1", "1", "12", "19", "21", "22", "13", "20", "20", "19", "22", "31", "31", "30", "33", "30", "0", "10", "25", "32", "19", "21", "22", "14", "20", "19", "21", "0", "22", "19", "22", "0"], "time": [14323, 14440, 14641, 16038, 16407, 18024, 18707, 18874, 19242, 19557, 20157, 20968, 23007, 23735, 25527, 25857, 27523, 27590, 28022, 29272, 29673, 30206, 33007, 33106, 33290, 34825, 34973, 37339, 37556, 39312, 39430, 39856, 40123, 41689, 41989, 44625, 44689, 44723, 45619, 47107, 47175, 48772, 48889, 50212, 50689, 50806, 51455, 51907, 51988, 53575, 55405, 56288, 57674, 58554, 60388, 60737, 62192, 62356, 65004, 70610, 70688, 71204, 73637, 75466, 77422, 78840, 81404, 81954, 82021, 82437, 88855, 89868, 90454, 95493, 98798]}, "edge": {"target": [], "time": []}}, "mouseout": {"state": {"target": ["0", "23", "24", "25", "24", "23", "12", "13", "14", "13", "12", "13", "14", "10", "3", "2", "1", "24", "30", "30", "25", "30", "24", "23", "0", "12", "13", "19", "12", "28", "27", "28", "22", "7", "2", "2", "1", "0", "22", "0", "23", "23", "12", "13", "12", "0", "1", "1", "12", "19", "21", "22", "13", "20", "20", "19", "22", "31", "31", "30", "33", "30", "0", "10", "25", "30", "32", "19", "21", "22", "14", "20", "19", "21", "0", "22", "19", "22"], "time": [14306, 14390, 14573, 15993, 16240, 17962, 18640, 18823, 19224, 19390, 20138, 20624, 22881, 23041, 25477, 25691, 27490, 27556, 27656, 29212, 29556, 29857, 32922, 33073, 33256, 34790, 34847, 36799, 36874, 37352, 39293, 39353, 39759, 40056, 40808, 41468, 41889, 42073, 44648, 44707, 44755, 47056, 47141, 48739, 48839, 50172, 50372, 50722, 51422, 51489, 51927, 53526, 55370, 56140, 57012, 57750, 59989, 60471, 62174, 62241, 64934, 69824, 70622, 70971, 71511, 73488, 74908, 77189, 78791, 78875, 81437, 81987, 82054, 83600, 88970, 90169, 95477, 95505]}, "edge": {"target": [], "time": []}}}, "displayed_time": "106.47", "trialTime": 111587, "trial_type": "mouselab-mdp", "trial_index": 4, "time_elapsed": 517403, "internal_node_id": "0.0-2.0-2.0-0.0"}}, {"uniqueid": "w80713728:a59683339", "current_trial": 5, "dateTime": 1691142470672, "trialdata": {"revealed_states": [], "clicked_states": ["14", "19", "30", "25", "3", "26", "27", "24", "23", "1", "2", "32", "28", "29"], "num_clicks_accrued": [0, 0, 0, 0, 0, 0, 0, 0, 0, 0, 0, 0, 0], "stateRewards": ["", -10, -10, 10, -10, -10, 10, -10, -10, -10, -10, 10, 10, -10, -10, 10, 10, 10, -10, 10, -10, -10, 10, -10, -10, 10, 10, -10, 10, -10, -10, 10, 10, -10], "withholdReward": false, "trial_id": "practice_2", "block": "test", "trialIndex": 1, "score": 6.5, "costs": -7, "simulationMode": [null, null, null, null, null], "rewards": [-10, -10, 10, 10, 10], "path": ["0", "0", "23", "24", "25", "26", "28"], "rt": [45351, 342, 557, 1165, 1072], "actions": ["left", "left", "left", "up", "right"], "actionTimes": [48859, 49715, 50780, 52477, 54044], "queries": {"click": {"state": {"target": ["14", "19", "30", "25", "3", "26", "27", "24", "23", "1", "2", "32", "28", "29"], "time": [6765, 8679, 10623, 12021, 13897, 15976, 18217, 22214, 23979, 25874, 28303, 34986, 43903, 45734]}, "edge": {"target": [], "time": []}}, "mouseover": {"state": {"target": ["12", "14", "19", "19", "22", "31", "30", "30", "25", "26", "8", "3", "10", "28", "26", "26", "27", "23", "24", "23", "1", "2", "3", "7", "1", "23", "30", "31", "30", "32", "30", "25", "24", "23", "24", "28", "26", "29", "26"], "time": [5603, 6070, 7626, 8142, 9257, 9323, 9357, 9968, 11274, 12621, 12707, 13043, 15020, 15187, 15370, 15470, 16740, 21503, 21736, 22922, 25004, 27303, 29190, 31369, 31874, 31952, 32585, 33986, 34253, 34470, 35955, 37985, 38318, 38385, 42919, 43352, 44655, 44952, 47118]}, "edge": {"target": [], "time": []}}, "mouseout": {"state": {"target": ["12", "14", "19", "19", "22", "31", "30", "30", "25", "26", "8", "3", "10", "28", "26", "26", "27", "23", "24", "23", "1", "2", "3", "7", "1", "23", "30", "31", "30", "32", "30", "25", "24", "23", "24", "28", "26", "29", "26", "28"], "time": [5620, 7607, 7756, 9240, 9275, 9339, 9374, 11240, 12234, 12640, 12740, 14954, 15086, 15255, 15422, 16186, 19121, 21587, 22788, 24837, 26076, 29172, 31304, 31386, 31903, 31969, 33971, 34115, 34436, 35650, 37519, 38286, 38331, 41115, 42969, 44623, 44672, 47087, 47169, 47285]}, "edge": {"target": [], "time": []}}}, "displayed_time": "54.55", "trialTime": 58565, "trial_type": "mouselab-mdp", "trial_index": 5, "time_elapsed": 576530, "internal_node_id": "0.0-2.0-2.0-1.0"}}, {"uniqueid": "w80713728:a59683339", "current_trial": 6, "dateTime": 1691142537703, "trialdata": {"view_history": [{"page_index": 0, "viewing_time": 53813}, {"page_index": 1, "viewing_time": 13204}], "rt": 67019, "trial_id": "mouselab_instructions_2_misaligned", "trial_type": "instructions", "trial_index": 6, "time_elapsed": 643563, "internal_node_id": "0.0-2.0-3.0"}}, {"uniqueid": "w80713728:a59683339", "current_trial": 7, "dateTime": 1691142605578, "trialdata": {"rt": 67855, "response": {"Q0": "The cost for clicking on nodes may vary between nodes.", "Q1": "The better I perform the higher my bonus will be.", "Q2": "No, the amount of cash at each node of the web may be different each time.", "Q3": "To get the highest total score.", "Q4": "Only before moving the spider.", "Q5": "3 seconds"}, "question_order": [0, 1, 2, 3, 4, 5], "correct": {"Q0": "The cost for clicking on nodes may vary between nodes.", "Q1": "The better I perform the higher my bonus will be.", "Q2": "No, the amount of cash at each node of the web may be different each time.", "Q3": "To get the highest total score.", "Q4": "Only before moving the spider.", "Q5": "3 seconds"}, "trial_id": "mouselab_quiz_misaligned", "trial_type": "survey-multi-choice", "trial_index": 7, "time_elapsed": 711438, "internal_node_id": "0.0-2.0-4.0"}}, {"uniqueid": "w80713728:a59683339", "current_trial": 8, "dateTime": 1691142627509, "trialdata": {"rt": 21895, "stimulus": "\n<h1> Get ready to start the game! </h1>\n\nThank you for reading the instructions. Get ready start with the 40 rounds of this game.\n<br><br>\nIf you need to take a break, feel free to take one after the end of a round, before continuing to the next one.\n<br><br>\nRemember, the more money the spider gets, the bigger your bonus will be!\n<br><br>\n<div style='text-align: center;'>Press <code>space</code> to begin.</div>\n\n<br><br>\n(If, at any point, the <code>space</code> key does not take you to the next page, click once on the text and try again.)", "response": " ", "trial_id": "mdp_ready", "trial_type": "html-keyboard-response", "trial_index": 8, "time_elapsed": 733369, "internal_node_id": "0.0-4.0-0.0"}}, {"uniqueid": "w80713728:a59683339", "current_trial": 9, "dateTime": 1691142701482, "trialdata": {"revealed_states": [], "clicked_states": ["23", "24", "25", "26", "27", "13", "12", "14", "19", "21", "22", "20", "15", "16", "1", "2", "3", "4", "6", "8", "11", "10", "9"], "num_clicks_accrued": [0, 0, 0, 0, 0, 0, 0, 0, 0, 0, 0, 0, 0], "stateRewards": ["", 1, 2, -3, -5, 66, -50, -47, -5, 1, 28, -27, 1, 1, -1, -6, 37, -25, 56, 1, -82, -66, -40, -1, -4, -7, 15, -61, -23, 26, 10, 14, -56, 29], "withholdReward": false, "trial_id": "mdp_trial_1", "block": "test", "trialIndex": 2, "score": -7.25, "costs": -30.249999999999996, "simulationMode": [null, null, null, null, null], "rewards": [1, 2, -3, -5, 28], "path": ["0", "0", "1", "2", "3", "8", "10"], "rt": [52216, 640, 710, 1099, 570], "actions": ["up", "up", "up", "left", "down"], "actionTimes": [57972, 59125, 60362, 61967, 63038], "queries": {"click": {"state": {"target": ["23", "24", "25", "26", "27", "13", "12", "14", "19", "21", "22", "20", "15", "16", "1", "2", "3", "4", "6", "8", "11", "10", "9"], "time": [6687, 7898, 9066, 10355, 11529, 15762, 16889, 17920, 19112, 20147, 23795, 26841, 30039, 31355, 35171, 36505, 37853, 39813, 40932, 45427, 46650, 50819, 53717]}, "edge": {"target": [], "time": []}}, "mouseover": {"state": {"target": ["23", "24", "25", "26", "26", "27", "1", "12", "13", "12", "13", "12", "14", "19", "21", "20", "19", "22", "19", "20", "14", "15", "16", "17", "15", "1", "2", "3", "4", "6", "5", "8", "11", "9", "8", "10", "8", "9", "4", "7", "1"], "time": [6229, 7219, 8550, 9586, 9947, 10899, 12104, 12152, 12189, 13783, 15318, 16502, 17403, 18669, 19635, 20834, 23065, 23115, 24599, 24784, 27256, 27585, 30424, 32297, 34148, 34657, 35950, 37198, 39325, 40548, 41682, 44881, 46166, 47498, 49997, 50330, 51467, 51750, 55465, 55548, 55999]}, "edge": {"target": [], "time": []}}, "mouseout": {"state": {"target": ["3", "7", "12", "0", "23", "24", "25", "26", "26", "27", "1", "12", "13", "12", "13", "12", "13", "14", "19", "19", "21", "20", "19", "22", "19", "20", "14", "15", "16", "17", "15", "1", "2", "3", "4", "6", "5", "8", "11", "9", "8", "10", "8", "9", "4", "7", "1"], "time": [1814, 1881, 2481, 6216, 7169, 8451, 9551, 9704, 10546, 12018, 12122, 12171, 13667, 15299, 16300, 17336, 17385, 18601, 19325, 19600, 20650, 23048, 23082, 24300, 24620, 27056, 27517, 30395, 32235, 34122, 34182, 35373, 37065, 39101, 40350, 41532, 44498, 46015, 47098, 49948, 50081, 51433, 51485, 54582, 55525, 55604, 66849]}, "edge": {"target": [], "time": []}}}, "displayed_time": "63.55", "trialTime": 73281, "trial_type": "mouselab-mdp", "trial_index": 9, "time_elapsed": 807340, "internal_node_id": "0.0-4.0-1.0-0.0"}}, {"uniqueid": "w80713728:a59683339", "current_trial": 10, "dateTime": 1691142724403, "trialdata": {"revealed_states": [], "clicked_states": ["23", "24"], "num_clicks_accrued": [0, 0, 0, 0, 0, 0, 0, 0, 0, 0, 0, 0, 0], "stateRewards": ["", -1, -4, -3, 1, -45, -67, -24, 14, 32, 22, 22, -1, 1, -5, -7, 72, 84, -79, -5, 19, -40, -2, -1, -2, 8, -3, 84, -25, -28, 11, 64, -66, 77], "withholdReward": false, "trial_id": "mdp_trial_2", "block": "test", "trialIndex": 3, "score": -50.1, "costs": -0.09999999999999998, "simulationMode": [null, null, null, null, null], "rewards": [-1, 1, -5, -5, -40], "path": ["0", "0", "12", "13", "14", "19", "21"], "rt": [11871, 610, 322, 443, 312], "actions": ["right", "right", "right", "down", "down"], "actionTimes": [14705, 15822, 16666, 17621, 18439], "queries": {"click": {"state": {"target": ["23", "24"], "time": [4110, 6119]}, "edge": {"target": [], "time": []}}, "mouseover": {"state": {"target": ["23", "24", "25", "25", "23", "24", "25"], "time": [3573, 5177, 6893, 7723, 8357, 9924, 9989]}, "edge": {"target": [], "time": []}}, "mouseout": {"state": {"target": ["0", "23", "24", "25", "24", "25", "23", "24", "25"], "time": [2038, 5133, 6809, 7390, 7707, 7906, 9906, 9940, 21414]}, "edge": {"target": [], "time": []}}}, "displayed_time": "18.96", "trialTime": 22212, "trial_type": "mouselab-mdp", "trial_index": 10, "time_elapsed": 830261, "internal_node_id": "0.0-4.0-1.0-1.0"}}, {"uniqueid": "w80713728:a59683339", "current_trial": 11, "dateTime": 1691142753865, "trialdata": {"revealed_states": [], "clicked_states": ["23", "24", "25", "30", "32", "31", "33"], "num_clicks_accrued": [0, 0, 0, 0, 0, 0, 0, 0, 0, 0, 0, 0, 0], "stateRewards": ["", 1, -3, -1, 9, -34, -40, 22, -7, 45, 53, -11, 2, 4, 5, 15, 21, 37, -49, -3, 80, -28, -34, 1, -3, 1, 1, -40, -6, -5, -16, -85, -86, 59], "withholdReward": false, "trial_id": "mdp_trial_3", "block": "test", "trialIndex": 4, "score": 32.95, "costs": -9.05, "simulationMode": [null, null, null, null, null], "rewards": [1, -3, 1, -16, 59], "path": ["0", "0", "23", "24", "25", "30", "33"], "rt": [17649, 303, 319, 335, 576], "actions": ["left", "left", "left", "down", "left"], "actionTimes": [20312, 21135, 21951, 22790, 23890], "queries": {"click": {"state": {"target": ["23", "24", "25", "30", "32", "31", "33"], "time": [4038, 5117, 6172, 7434, 8725, 11556, 14625]}, "edge": {"target": [], "time": []}}, "mouseover": {"state": {"target": ["0", "23", "24", "25", "30", "32", "31", "33", "26", "28"], "time": [3170, 3260, 4614, 5682, 6994, 8212, 9350, 12294, 15394, 19145]}, "edge": {"target": [], "time": []}}, "mouseout": {"state": {"target": ["25", "26", "1", "0", "23", "24", "25", "30", "30", "32", "31", "33", "26", "28", "23"], "time": [908, 992, 1191, 3183, 4546, 5625, 6761, 7634, 8046, 9231, 12162, 15120, 19132, 19193, 26410]}, "edge": {"target": [], "time": []}}}, "displayed_time": "24.41", "trialTime": 28746, "trial_type": "mouselab-mdp", "trial_index": 11, "time_elapsed": 859723, "internal_node_id": "0.0-4.0-1.0-2.0"}}, {"uniqueid": "w80713728:a59683339", "current_trial": 12, "dateTime": 1691142776257, "trialdata": {"revealed_states": [], "clicked_states": ["21", "32"], "num_clicks_accrued": [0, 0, 0, 0, 0, 0, 0, 0, 0, 0, 0, 0, 0], "stateRewards": ["", 2, -1, 5, 6, 10, 86, 55, 10, -45, 63, -71, 1, -2, 5, -8, -50, -72, 36, 15, 61, 12, 33, -1, -4, 6, 5, 79, -56, -21, -16, -87, 60, -81], "withholdReward": false, "trial_id": "mdp_trial_4", "block": "test", "trialIndex": 5, "score": 40.7, "costs": -4.3, "simulationMode": [null, null, null, null, null], "rewards": [-1, -4, 6, -16, 60], "path": ["0", "0", "23", "24", "25", "30", "32"], "rt": [10178, 313, 279, 91, 213], "actions": ["left", "left", "left", "down", "down"], "actionTimes": [14956, 15798, 16596, 17209, 17947], "queries": {"click": {"state": {"target": ["21", "32"], "time": [6416, 9285]}, "edge": {"target": [], "time": []}}, "mouseover": {"state": {"target": ["13", "19", "21", "32", "32", "30", "25", "26", "27", "28", "23"], "time": [5513, 5580, 5880, 7100, 7433, 9815, 9852, 9892, 10103, 13646, 13896]}, "edge": {"target": [], "time": []}}, "mouseout": {"state": {"target": ["12", "14", "13", "12", "0", "0", "13", "19", "21", "32", "32", "30", "25", "26", "27", "28", "23"], "time": [1129, 3213, 3246, 3262, 3329, 3645, 5530, 5647, 7000, 7135, 9504, 9833, 9872, 9935, 13589, 13813, 20058]}, "edge": {"target": [], "time": []}}}, "displayed_time": "18.78", "trialTime": 21659, "trial_type": "mouselab-mdp", "trial_index": 12, "time_elapsed": 882115, "internal_node_id": "0.0-4.0-1.0-3.0"}}, {"uniqueid": "w80713728:a59683339", "current_trial": 13, "dateTime": 1691142799608, "trialdata": {"revealed_states": [], "clicked_states": ["32", "21", "16"], "num_clicks_accrued": [0, 0, 0, 0, 0, 0, 0, 0, 0, 0, 0, 0, 0], "stateRewards": ["", -1, 3, 2, 9, 41, 4, -46, -12, -54, -87, -25, 2, 3, -1, 11, -77, 12, -33, -9, -32, 35, 72, 1, 3, -7, 4, 37, 65, -73, 6, 77, -43, 8], "withholdReward": false, "trial_id": "mdp_trial_5", "block": "test", "trialIndex": 6, "score": 23.55, "costs": -6.449999999999999, "simulationMode": [null, null, null, null, null, null], "rewards": [2, 3, -1, -9, 35], "path": ["0", "0", "12", "13", "14", "19", "21"], "rt": [11446, 1281, 354, 268, 883, 248], "actions": ["right", "right", "right", "right", "down", "down"], "actionTimes": [13710, 14998, 15873, 16654, 18051, 18816], "queries": {"click": {"state": {"target": ["32", "21", "16"], "time": [4036, 7633, 11738]}, "edge": {"target": [], "time": []}}, "mouseover": {"state": {"target": ["23", "32", "33", "30", "22", "21", "19", "14", "15", "16", "18"], "time": [2960, 3315, 4943, 6333, 6550, 7181, 8320, 8361, 8436, 8601, 12733]}, "edge": {"target": [], "time": []}}, "mouseout": {"state": {"target": ["0", "23", "32", "33", "30", "22", "21", "19", "14", "15", "16", "18", "13"], "time": [2954, 2973, 4783, 6316, 6353, 6881, 8301, 8342, 8397, 8549, 12300, 12816, 21414]}, "edge": {"target": [], "time": []}}}, "displayed_time": "19.34", "trialTime": 22612, "trial_type": "mouselab-mdp", "trial_index": 13, "time_elapsed": 905466, "internal_node_id": "0.0-4.0-1.0-4.0"}}, {"uniqueid": "w80713728:a59683339", "current_trial": 14, "dateTime": 1691142822228, "trialdata": {"revealed_states": [], "clicked_states": ["21", "20", "32"], "num_clicks_accrued": [0, 0, 0, 0, 0, 0, 0, 0, 0, 0, 0, 0, 0], "stateRewards": ["", -2, -3, -6, -7, 9, 16, 65, 5, -41, 20, -25, -1, -4, 1, -11, -49, -4, 71, 1, 39, -62, 52, -2, -3, 7, -9, -28, -70, 84, 8, 24, -58, 82], "withholdReward": false, "trial_id": "mdp_trial_6", "block": "test", "trialIndex": 7, "score": 29.55, "costs": -6.449999999999999, "simulationMode": [null, null, null, null, null], "rewards": [-1, -4, 1, 1, 39], "path": ["0", "0", "12", "13", "14", "19", "20"], "rt": [13116, 241, 229, 484, 261], "actions": ["right", "right", "right", "down", "right"], "actionTimes": [15249, 16016, 16752, 17739, 18500], "queries": {"click": {"state": {"target": ["21", "20", "32"], "time": [3621, 7631, 11057]}, "edge": {"target": [], "time": []}}, "mouseover": {"state": {"target": ["0", "22", "21", "21", "20", "32", "30", "33"], "time": [2657, 2691, 2768, 3185, 5115, 8853, 12012, 12204]}, "edge": {"target": [], "time": []}}, "mouseout": {"state": {"target": ["0", "0", "22", "21", "21", "20", "32", "30", "33"], "time": [949, 2672, 2734, 2801, 3820, 7830, 11771, 12054, 14147]}, "edge": {"target": [], "time": []}}}, "displayed_time": "19.00", "trialTime": 21686, "trial_type": "mouselab-mdp", "trial_index": 14, "time_elapsed": 928086, "internal_node_id": "0.0-4.0-1.0-5.0"}}, {"uniqueid": "w80713728:a59683339", "current_trial": 15, "dateTime": 1691142844621, "trialdata": {"revealed_states": [], "clicked_states": ["20", "21"], "num_clicks_accrued": [0, 0, 0, 0, 0, 0, 0, 0, 0, 0, 0, 0, 0], "stateRewards": ["", -2, -3, 8, -4, -30, 31, 69, 9, 66, 87, 64, -2, 2, 8, 5, 47, 16, -39, -8, -54, 51, -19, 1, -2, -2, -11, -25, -26, 43, -9, 19, -84, 86], "withholdReward": false, "trial_id": "mdp_trial_7", "block": "test", "trialIndex": 8, "score": 46.7, "costs": -4.3, "simulationMode": [null, null, null, null, null], "rewards": [-2, 2, 8, -8, 51], "path": ["0", "0", "12", "13", "14", "19", "21"], "rt": [10525, 157, 234, 220, 222], "actions": ["right", "right", "right", "down", "down"], "actionTimes": [13040, 13714, 14459, 15176, 15912], "queries": {"click": {"state": {"target": ["20", "21"], "time": [5047, 8676]}, "edge": {"target": [], "time": []}}, "mouseover": {"state": {"target": ["12", "13", "14", "19", "20", "21", "32"], "time": [3586, 3637, 3719, 3872, 4336, 5955, 9538]}, "edge": {"target": [], "time": []}}, "mouseout": {"state": {"target": ["0", "12", "13", "14", "19", "20", "21", "32", "31"], "time": [1517, 3619, 3685, 3755, 4086, 5723, 9023, 17468, 17986]}, "edge": {"target": [], "time": []}}}, "displayed_time": "16.52", "trialTime": 21564, "trial_type": "mouselab-mdp", "trial_index": 15, "time_elapsed": 950479, "internal_node_id": "0.0-4.0-1.0-6.0"}}, {"uniqueid": "w80713728:a59683339", "current_trial": 16, "dateTime": 1691142864969, "trialdata": {"revealed_states": [], "clicked_states": ["21"], "num_clicks_accrued": [0, 0, 0, 0, 0, 0, 0, 0, 0, 0, 0, 0, 0], "stateRewards": ["", 2, -4, 4, 9, 69, 9, -75, 12, -86, 66, 25, -1, 3, 2, -13, -88, -3, 1, 4, -69, 49, -84, 2, -1, 4, 2, -18, -81, -52, -15, -69, -54, 25], "withholdReward": false, "trial_id": "mdp_trial_8", "block": "test", "trialIndex": 9, "score": 54.85, "costs": -2.15, "simulationMode": [null, null, null, null, null], "rewards": [-1, 3, 2, 4, 49], "path": ["0", "0", "12", "13", "14", "19", "21"], "rt": [6145, 172, 255, 252, 250], "actions": ["right", "right", "right", "down", "down"], "actionTimes": [8702, 9402, 10174, 10955, 11718], "queries": {"click": {"state": {"target": ["21"], "time": [4558]}, "edge": {"target": [], "time": []}}, "mouseover": {"state": {"target": ["12", "22", "21", "22"], "time": [3365, 3438, 3765, 5447]}, "edge": {"target": [], "time": []}}, "mouseout": {"state": {"target": ["0", "12", "22", "21", "22"], "time": [1413, 3381, 3482, 5199, 14556]}, "edge": {"target": [], "time": []}}}, "displayed_time": "16.56", "trialTime": 19559, "trial_type": "mouselab-mdp", "trial_index": 16, "time_elapsed": 970827, "internal_node_id": "0.0-4.0-1.0-7.0"}}, {"uniqueid": "w80713728:a59683339", "current_trial": 17, "dateTime": 1691142884306, "trialdata": {"revealed_states": [], "clicked_states": ["21"], "num_clicks_accrued": [0, 0, 0, 0, 0, 0, 0, 0, 0, 0, 0, 0, 0], "stateRewards": ["", 2, 3, 8, 11, 25, -80, 6, -4, -56, 84, -23, -2, -4, -3, 4, -51, -9, -61, -15, -64, 67, -35, 1, -1, -7, -6, 83, 59, -15, 12, -79, 56, 41], "withholdReward": false, "trial_id": "mdp_trial_9", "block": "test", "trialIndex": 10, "score": 40.85, "costs": -2.15, "simulationMode": [null, null, null, null, null], "rewards": [-2, -4, -3, -15, 67], "path": ["0", "0", "12", "13", "14", "19", "21"], "rt": [5681, 192, 196, 116, 169], "actions": ["right", "right", "right", "down", "down"], "actionTimes": [8483, 9196, 9916, 10553, 11226], "queries": {"click": {"state": {"target": ["21"], "time": [4582]}, "edge": {"target": [], "time": []}}, "mouseover": {"state": {"target": ["12", "22", "21", "22"], "time": [3384, 3449, 4082, 5486]}, "edge": {"target": [], "time": []}}, "mouseout": {"state": {"target": ["0", "12", "22", "21", "22"], "time": [1447, 3403, 3499, 4786, 13566]}, "edge": {"target": [], "time": []}}}, "displayed_time": "16.81", "trialTime": 18499, "trial_type": "mouselab-mdp", "trial_index": 17, "time_elapsed": 990164, "internal_node_id": "0.0-4.0-1.0-8.0"}}, {"uniqueid": "w80713728:a59683339", "current_trial": 18, "dateTime": 1691142907021, "trialdata": {"revealed_states": [], "clicked_states": ["21"], "num_clicks_accrued": [0, 0, 0, 0, 0, 0, 0, 0, 0, 0, 0, 0, 0], "stateRewards": ["", -1, -3, -3, 1, -38, 2, -53, -2, -1, -81, 70, -1, 1, -5, -9, 46, 15, 35, -1, -22, 38, 59, -2, 4, -8, 13, 1, -83, -43, 4, 76, 13, 48], "withholdReward": false, "trial_id": "mdp_trial_10", "block": "test", "trialIndex": 11, "score": 29.85, "costs": -2.15, "simulationMode": [null, null, null, null, null], "rewards": [-1, 1, -5, -1, 38], "path": ["0", "0", "12", "13", "14", "19", "21"], "rt": [5785, 205, 271, 264, 226], "actions": ["right", "right", "right", "down", "down"], "actionTimes": [8467, 9193, 9991, 10766, 11512], "queries": {"click": {"state": {"target": ["21"], "time": [4340]}, "edge": {"target": [], "time": []}}, "mouseover": {"state": {"target": ["0", "19", "21", "22"], "time": [3241, 3297, 3681, 5661]}, "edge": {"target": [], "time": []}}, "mouseout": {"state": {"target": ["0", "0", "19", "21", "22"], "time": [1345, 3264, 3330, 5654, 13143]}, "edge": {"target": [], "time": []}}}, "displayed_time": "16.68", "trialTime": 21750, "trial_type": "mouselab-mdp", "trial_index": 18, "time_elapsed": 1012881, "internal_node_id": "0.0-4.0-1.0-9.0"}}, {"uniqueid": "w80713728:a59683339", "current_trial": 19, "dateTime": 1691142927112, "trialdata": {"revealed_states": [], "clicked_states": ["32"], "num_clicks_accrued": [0, 0, 0, 0, 0, 0, 0, 0, 0, 0, 0, 0, 0], "stateRewards": ["", -1, 3, 8, 10, -86, 61, -36, 10, 17, -60, 24, -1, -3, 3, 11, 50, 60, 33, -3, -20, 58, -6, 1, -4, -4, 13, -70, -71, 43, 14, 52, 82, -11], "withholdReward": false, "trial_id": "mdp_trial_11", "block": "test", "trialIndex": 12, "score": 86.85, "costs": -2.15, "simulationMode": [null, null, null, null, null], "rewards": [1, -4, -4, 14, 82], "path": ["0", "0", "23", "24", "25", "30", "32"], "rt": [6043, 149, 129, 166, 206], "actions": ["left", "left", "left", "down", "down"], "actionTimes": [8535, 9212, 9860, 10546, 11268], "queries": {"click": {"state": {"target": ["32"], "time": [3977]}, "edge": {"target": [], "time": []}}, "mouseover": {"state": {"target": ["23", "31", "30", "32", "21"], "time": [3175, 3212, 3244, 3408, 5156]}, "edge": {"target": [], "time": []}}, "mouseout": {"state": {"target": ["0", "23", "31", "30", "32", "21"], "time": [1274, 3193, 3227, 3261, 4610, 12275]}, "edge": {"target": [], "time": []}}}, "displayed_time": "16.49", "trialTime": 18900, "trial_type": "mouselab-mdp", "trial_index": 19, "time_elapsed": 1032971, "internal_node_id": "0.0-4.0-1.0-10.0"}}, {"uniqueid": "w80713728:a59683339", "current_trial": 20, "dateTime": 1691142946356, "trialdata": {"revealed_states": [], "clicked_states": ["32", "21"], "num_clicks_accrued": [0, 0, 0, 0, 0, 0, 0, 0, 0, 0, 0, 0, 0], "stateRewards": ["", 1, -1, -7, -7, -22, 15, -13, 13, 26, -32, 38, -1, 1, -7, -4, 16, -62, 86, 12, -54, 56, 64, -2, -1, 6, 14, -57, 37, 62, -6, -25, 50, -70], "withholdReward": false, "trial_id": "mdp_trial_12", "block": "test", "trialIndex": 13, "score": 56.7, "costs": -4.3, "simulationMode": [null, null, null, null, null], "rewards": [-1, 1, -7, 12, 56], "path": ["0", "0", "12", "13", "14", "19", "21"], "rt": [10138, 117, 99, 204, 281], "actions": ["right", "right", "right", "down", "down"], "actionTimes": [12258, 12904, 13521, 14244, 15037], "queries": {"click": {"state": {"target": ["32", "21"], "time": [3505, 8548]}, "edge": {"target": [], "time": []}}, "mouseover": {"state": {"target": ["23", "31", "32", "32", "21"], "time": [2669, 2695, 2851, 3068, 4738]}, "edge": {"target": [], "time": []}}, "mouseout": {"state": {"target": ["0", "23", "31", "32", "32", "21"], "time": [1232, 2689, 2713, 2902, 4014, 9204]}, "edge": {"target": [], "time": []}}}, "displayed_time": "16.12", "trialTime": 18305, "trial_type": "mouselab-mdp", "trial_index": 20, "time_elapsed": 1052214, "internal_node_id": "0.0-4.0-1.0-11.0"}}, {"uniqueid": "w80713728:a59683339", "current_trial": 21, "dateTime": 1691142967626, "trialdata": {"revealed_states": [], "clicked_states": ["32", "21", "20"], "num_clicks_accrued": [0, 0, 0, 0, 0, 0, 0, 0, 0, 0, 0, 0, 0], "stateRewards": ["", 2, -1, -1, -9, -81, -30, 55, -6, 78, 25, 62, 2, 4, -1, 9, -85, 1, -19, 1, -60, 12, -34, 1, 4, -1, -13, -24, -16, -83, -8, 16, 43, 9], "withholdReward": false, "trial_id": "mdp_trial_13", "block": "test", "trialIndex": 14, "score": 32.55, "costs": -6.449999999999999, "simulationMode": [null, null, null, null, null], "rewards": [1, 4, -1, -8, 43], "path": ["0", "0", "23", "24", "25", "30", "32"], "rt": [11884, 88, 136, 157, 187], "actions": ["left", "left", "left", "down", "down"], "actionTimes": [14508, 15112, 15776, 16446, 17146], "queries": {"click": {"state": {"target": ["32", "21", "20"], "time": [4650, 7767, 11163]}, "edge": {"target": [], "time": []}}, "mouseover": {"state": {"target": ["32", "21", "19", "20"], "time": [4235, 5705, 8305, 8604]}, "edge": {"target": [], "time": []}}, "mouseout": {"state": {"target": ["0", "32", "21", "19", "20"], "time": [1641, 5205, 7960, 8340, 11377]}, "edge": {"target": [], "time": []}}}, "displayed_time": "17.67", "trialTime": 20274, "trial_type": "mouselab-mdp", "trial_index": 21, "time_elapsed": 1073484, "internal_node_id": "0.0-4.0-1.0-12.0"}}, {"uniqueid": "w80713728:a59683339", "current_trial": 22, "dateTime": 1691143013804, "trialdata": {"revealed_states": [], "clicked_states": ["32", "20", "21", "22", "17", "16", "18", "33"], "num_clicks_accrued": [0, 0, 0, 0, 0, 0, 0, 0, 0, 0, 0, 0, 0], "stateRewards": ["", -2, -3, 8, 14, -73, 73, 84, -12, -2, -50, -17, 2, 1, -2, -9, -44, -27, -33, 16, -63, -47, -66, -2, 1, 4, -5, -33, -11, 50, 9, 38, -79, 31], "withholdReward": false, "trial_id": "mdp_trial_14", "block": "test", "trialIndex": 15, "score": 25.8, "costs": -17.2, "simulationMode": [null, null, null, null, null], "rewards": [-2, 1, 4, 9, 31], "path": ["0", "0", "23", "24", "25", "30", "33"], "rt": [31093, 434, 238, 189, 287], "actions": ["left", "left", "left", "down", "left"], "actionTimes": [33049, 34136, 34900, 35601, 36433], "queries": {"click": {"state": {"target": ["32", "20", "21", "22", "17", "16", "18", "33"], "time": [4042, 8906, 12113, 15596, 18630, 21565, 24953, 28514]}, "edge": {"target": [], "time": []}}, "mouseover": {"state": {"target": ["32", "32", "21", "19", "20", "21", "22", "13", "15", "17", "16", "18", "1", "24", "25", "33", "30", "31"], "time": [3176, 3410, 5321, 8010, 8392, 9646, 13096, 16397, 16730, 16774, 19362, 22479, 25599, 25831, 25988, 26322, 29082, 29175]}, "edge": {"target": [], "time": []}}, "mouseout": {"state": {"target": ["0", "32", "32", "21", "19", "20", "20", "21", "22", "13", "15", "17", "16", "18", "1", "24", "25", "33", "30", "31"], "time": [2578, 3276, 4695, 7978, 8093, 9107, 9376, 12812, 15794, 16420, 16751, 19212, 22230, 25544, 25621, 25934, 26086, 29060, 29120, 38175]}, "edge": {"target": [], "time": []}}}, "displayed_time": "36.95", "trialTime": 45181, "trial_type": "mouselab-mdp", "trial_index": 22, "time_elapsed": 1119663, "internal_node_id": "0.0-4.0-1.0-13.0"}}, {"uniqueid": "w80713728:a59683339", "current_trial": 23, "dateTime": 1691143036105, "trialdata": {"revealed_states": [], "clicked_states": ["33", "29"], "num_clicks_accrued": [0, 0, 0, 0, 0, 0, 0, 0, 0, 0, 0, 0, 0], "stateRewards": ["", -1, -3, 3, 5, 56, 39, 50, -1, -80, 33, -46, 1, -2, -6, -8, 87, 48, 54, -11, -20, -64, -54, -2, 3, -7, -3, 12, 88, 35, -16, -46, -70, -3], "withholdReward": false, "trial_id": "mdp_trial_15", "block": "test", "trialIndex": 16, "score": 21.7, "costs": -4.3, "simulationMode": [null, null, null, null, null], "rewards": [-2, 3, -7, -3, 35], "path": ["0", "0", "23", "24", "25", "26", "29"], "rt": [9472, 593, 364, 611, 335], "actions": ["left", "left", "left", "up", "left"], "actionTimes": [12349, 13442, 14311, 15440, 16298], "queries": {"click": {"state": {"target": ["33", "29"], "time": [4565, 8129]}, "edge": {"target": [], "time": []}}, "mouseover": {"state": {"target": ["23", "30", "33", "33", "29", "28"], "time": [3409, 3458, 3481, 3838, 5284, 8999]}, "edge": {"target": [], "time": []}}, "mouseout": {"state": {"target": ["23", "30", "33", "33", "29", "28", "24"], "time": [3426, 3476, 3497, 4772, 8324, 19392, 19425]}, "edge": {"target": [], "time": []}}}, "displayed_time": "16.88", "trialTime": 21230, "trial_type": "mouselab-mdp", "trial_index": 23, "time_elapsed": 1141963, "internal_node_id": "0.0-4.0-1.0-14.0"}}, {"uniqueid": "w80713728:a59683339", "current_trial": 24, "dateTime": 1691143062013, "trialdata": {"revealed_states": [], "clicked_states": ["21", "29", "33", "32"], "num_clicks_accrued": [0, 0, 0, 0, 0, 0, 0, 0, 0, 0, 0, 0, 0], "stateRewards": ["", -1, -1, 7, -15, -43, -21, -84, -9, -45, -66, 2, 1, -2, 2, 8, -27, 44, -52, -5, -84, 11, 53, 1, 4, -4, 16, 83, -82, -15, -16, 68, -43, 81], "withholdReward": false, "trial_id": "mdp_trial_16", "block": "test", "trialIndex": 17, "score": 57.4, "costs": -8.6, "simulationMode": [null, null, null, null, null, null], "rewards": [1, 4, -4, -16, 81], "path": ["0", "0", "23", "24", "25", "30", "33"], "rt": [13179, 2157, 281, 162, 299, 287], "actions": ["left", "left", "left", "left", "down", "left"], "actionTimes": [15610, 17775, 18557, 19238, 20058, 20866], "queries": {"click": {"state": {"target": ["21", "29", "33", "32"], "time": [4238, 7988, 11407, 14799]}, "edge": {"target": [], "time": []}}, "mouseover": {"state": {"target": ["22", "21", "24", "26", "29", "33", "32"], "time": [3138, 3787, 5010, 5377, 5442, 9090, 12308]}, "edge": {"target": [], "time": []}}, "mouseout": {"state": {"target": ["22", "0", "22", "21", "24", "26", "29", "29", "33", "32"], "time": [938, 3069, 3156, 4438, 5034, 5403, 8186, 8609, 11926, 14998]}, "edge": {"target": [], "time": []}}}, "displayed_time": "21.39", "trialTime": 25003, "trial_type": "mouselab-mdp", "trial_index": 24, "time_elapsed": 1167871, "internal_node_id": "0.0-4.0-1.0-15.0"}}, {"uniqueid": "w80713728:a59683339", "current_trial": 25, "dateTime": 1691143083990, "trialdata": {"revealed_states": [], "clicked_states": ["29", "32", "33"], "num_clicks_accrued": [0, 0, 0, 0, 0, 0, 0, 0, 0, 0, 0, 0, 0], "stateRewards": ["", 1, 1, 6, -14, -40, 37, 16, -13, 33, -68, 49, 2, 4, 3, 6, 55, 27, 32, 10, -65, 20, -87, 2, 1, -6, -5, -42, 12, 29, -8, 16, 76, -33], "withholdReward": false, "trial_id": "mdp_trial_17", "block": "test", "trialIndex": 18, "score": 58.55, "costs": -6.449999999999999, "simulationMode": [null, null, null, null, null, null], "rewards": [2, 1, -6, -8, 76], "path": ["0", "0", "23", "24", "25", "30", "32"], "rt": [10379, 775, 307, 287, 222, 427], "actions": ["left", "left", "left", "left", "down", "down"], "actionTimes": [13232, 14015, 14865, 15686, 16435, 17391], "queries": {"click": {"state": {"target": ["29", "32", "33"], "time": [5317, 9198, 12282]}, "edge": {"target": [], "time": []}}, "mouseover": {"state": {"target": ["23", "24", "25", "29", "30", "32", "33", "33"], "time": [4428, 4460, 4525, 4809, 6428, 6812, 9929, 11597]}, "edge": {"target": [], "time": []}}, "mouseout": {"state": {"target": ["0", "23", "24", "25", "29", "29", "30", "32", "33", "33", "25", "24"], "time": [1158, 4444, 4492, 4576, 5508, 6295, 6464, 9407, 11312, 12489, 19076, 19175]}, "edge": {"target": [], "time": []}}}, "displayed_time": "17.91", "trialTime": 21035, "trial_type": "mouselab-mdp", "trial_index": 25, "time_elapsed": 1189849, "internal_node_id": "0.0-4.0-1.0-16.0"}}, {"uniqueid": "w80713728:a59683339", "current_trial": 26, "dateTime": 1691143110240, "trialdata": {"revealed_states": [], "clicked_states": ["32", "33", "29", "21"], "num_clicks_accrued": [0, 0, 0, 0, 0, 0, 0, 0, 0, 0, 0, 0, 0], "stateRewards": ["", -2, -3, -7, 7, -54, -69, -4, -14, -77, 22, 40, -2, -1, 5, 6, -35, 50, -60, 10, -28, 75, 57, 1, -4, -2, 2, 68, 34, -18, 12, 3, -21, -43], "withholdReward": false, "trial_id": "mdp_trial_18", "block": "test", "trialIndex": 19, "score": 78.4, "costs": -8.6, "simulationMode": [null, null, null, null, null], "rewards": [-2, -1, 5, 10, 75], "path": ["0", "0", "12", "13", "14", "19", "21"], "rt": [16259, 230, 235, 240, 186], "actions": ["right", "right", "right", "down", "down"], "actionTimes": [19113, 19873, 20627, 21382, 22095], "queries": {"click": {"state": {"target": ["32", "33", "29", "21"], "time": [4878, 8449, 11720, 15042]}, "edge": {"target": [], "time": []}}, "mouseover": {"state": {"target": ["24", "30", "32", "33", "29", "26", "28", "22", "21", "20"], "time": [3622, 3806, 4005, 5711, 9459, 12342, 12369, 12523, 12992, 15856]}, "edge": {"target": [], "time": []}}, "mouseout": {"state": {"target": ["0", "24", "30", "32", "33", "29", "26", "28", "22", "21", "20", "19", "22"], "time": [1203, 3655, 3905, 5592, 8891, 11914, 12363, 12390, 12807, 15541, 23522, 23571, 23621]}, "edge": {"target": [], "time": []}}}, "displayed_time": "22.61", "trialTime": 25332, "trial_type": "mouselab-mdp", "trial_index": 26, "time_elapsed": 1216098, "internal_node_id": "0.0-4.0-1.0-17.0"}}, {"uniqueid": "w80713728:a59683339", "current_trial": 27, "dateTime": 1691143146534, "trialdata": {"revealed_states": [], "clicked_states": ["29", "21", "20", "32"], "num_clicks_accrued": [0, 0, 0, 0, 0, 0, 0, 0, 0, 0, 0, 0, 0], "stateRewards": ["", 1, 1, 5, 6, -29, -7, 3, -16, 9, -46, 65, -1, 4, -1, -16, -63, -77, -87, 8, 80, -50, 43, -1, -1, -5, 5, -38, -71, -62, 9, 81, -50, -52], "withholdReward": false, "trial_id": "mdp_trial_19", "block": "test", "trialIndex": 20, "score": 81.4, "costs": -8.6, "simulationMode": [null, null, null, null, null, null], "rewards": [-1, 4, -1, 8, 80], "path": ["0", "0", "12", "13", "14", "19", "20"], "rt": [16502, 415, 351, 264, 126, 219], "actions": ["right", "right", "right", "right", "down", "right"], "actionTimes": [19142, 19564, 20436, 21215, 21861, 22604], "queries": {"click": {"state": {"target": ["29", "21", "20", "32"], "time": [4979, 8880, 12296, 16708]}, "edge": {"target": [], "time": []}}, "mouseover": {"state": {"target": ["23", "26", "29", "28", "12", "22", "19", "21", "19", "20", "32", "31"], "time": [3870, 4031, 4197, 5546, 5623, 5667, 5713, 6288, 9802, 10067, 13321, 17655]}, "edge": {"target": [], "time": []}}, "mouseout": {"state": {"target": ["0", "23", "26", "29", "28", "12", "22", "19", "21", "19", "20", "32", "31"], "time": [1117, 3914, 4147, 5518, 5569, 5646, 5689, 6068, 9095, 9874, 12496, 17531, 24531]}, "edge": {"target": [], "time": []}}}, "displayed_time": "23.17", "trialTime": 35353, "trial_type": "mouselab-mdp", "trial_index": 27, "time_elapsed": 1252393, "internal_node_id": "0.0-4.0-1.0-18.0"}}, {"uniqueid": "w80713728:a59683339", "current_trial": 28, "dateTime": 1691143165817, "trialdata": {"revealed_states": [], "clicked_states": ["20", "21"], "num_clicks_accrued": [0, 0, 0, 0, 0, 0, 0, 0, 0, 0, 0, 0, 0], "stateRewards": ["", 2, 4, 4, -8, -36, -33, 38, 16, -51, 57, 57, 1, 3, 4, -6, 45, 68, 87, 1, 63, 24, -55, -2, 2, -6, -13, -63, -50, 8, 2, 80, 6, 60], "withholdReward": false, "trial_id": "mdp_trial_20", "block": "test", "trialIndex": 21, "score": 67.7, "costs": -4.3, "simulationMode": [null, null, null, null, null, null], "rewards": [1, 3, 4, 1, 63], "path": ["0", "0", "12", "13", "14", "19", "20"], "rt": [7937, 953, 264, 173, 232, 370], "actions": ["right", "right", "right", "right", "down", "right"], "actionTimes": [10277, 11236, 12010, 12701, 13461, 14382], "queries": {"click": {"state": {"target": ["20", "21"], "time": [4502, 8142]}, "edge": {"target": [], "time": []}}, "mouseover": {"state": {"target": ["12", "13", "19", "20", "21"], "time": [3208, 3257, 3590, 3657, 5198]}, "edge": {"target": [], "time": []}}, "mouseout": {"state": {"target": ["0", "12", "13", "19", "20", "20", "21"], "time": [1323, 3226, 3275, 3609, 4691, 5047, 16926]}, "edge": {"target": [], "time": []}}}, "displayed_time": "16.34", "trialTime": 18163, "trial_type": "mouselab-mdp", "trial_index": 28, "time_elapsed": 1271673, "internal_node_id": "0.0-4.0-1.0-19.0"}}, {"uniqueid": "w80713728:a59683339", "current_trial": 29, "dateTime": 1691143205454, "trialdata": {"revealed_states": [], "clicked_states": ["20", "21", "32", "33", "29", "31", "27", "28"], "num_clicks_accrued": [0, 0, 0, 0, 0, 0, 0, 0, 0, 0, 0, 0, 0], "stateRewards": ["", -1, 2, -2, 5, 80, -61, -27, 12, 44, -26, -75, -2, -4, 1, -16, 42, -49, -50, 4, -44, 2, 80, -2, -2, 5, -2, 59, 10, 24, 7, -48, -86, -44], "withholdReward": false, "trial_id": "mdp_trial_21", "block": "test", "trialIndex": 22, "score": 40.8, "costs": -17.2, "simulationMode": [null, null, null, null, null, null], "rewards": [-2, -2, 5, -2, 59], "path": ["0", "0", "23", "24", "25", "26", "27"], "rt": [25959, 1391, 1111, 199, 1587, 300], "actions": ["left", "left", "left", "left", "up", "up"], "actionTimes": [28430, 29829, 31455, 32176, 34280, 35081], "queries": {"click": {"state": {"target": ["20", "21", "32", "33", "29", "31", "27", "28"], "time": [3915, 7162, 10577, 13704, 16912, 20320, 23634, 26628]}, "edge": {"target": [], "time": []}}, "mouseover": {"state": {"target": ["0", "19", "20", "20", "21", "32", "33", "29", "24", "31", "27", "28"], "time": [2921, 2962, 2985, 3381, 4851, 8098, 11163, 14316, 17617, 18442, 21879, 24712]}, "edge": {"target": [], "time": []}}, "mouseout": {"state": {"target": ["0", "0", "19", "20", "20", "21", "32", "33", "29", "24", "31", "27", "28", "23"], "time": [1532, 2943, 2978, 3023, 4510, 7776, 10785, 14241, 17525, 18125, 21542, 24343, 36721, 36788]}, "edge": {"target": [], "time": []}}}, "displayed_time": "35.63", "trialTime": 38584, "trial_type": "mouselab-mdp", "trial_index": 29, "time_elapsed": 1311312, "internal_node_id": "0.0-4.0-1.0-20.0"}}, {"uniqueid": "w80713728:a59683339", "current_trial": 30, "dateTime": 1691143228402, "trialdata": {"revealed_states": [], "clicked_states": ["27", "29", "32"], "num_clicks_accrued": [0, 0, 0, 0, 0, 0, 0, 0, 0, 0, 0, 0, 0], "stateRewards": ["", 2, 2, 3, -15, 23, -14, 73, -7, -32, -20, -6, 1, 1, -5, -12, 73, 6, -84, 11, -81, -57, 13, -2, -1, -4, -8, -52, -58, 49, 13, 5, -41, -41], "withholdReward": false, "trial_id": "mdp_trial_22", "block": "test", "trialIndex": 23, "score": 27.55, "costs": -6.449999999999999, "simulationMode": [null, null, null, null, null], "rewards": [-2, -1, -4, -8, 49], "path": ["0", "0", "23", "24", "25", "26", "29"], "rt": [11430, 325, 102, 2016, 229], "actions": ["left", "left", "left", "up", "left"], "actionTimes": [14169, 15009, 15636, 18167, 18913], "queries": {"click": {"state": {"target": ["27", "29", "32"], "time": [4605, 7939, 11063]}, "edge": {"target": [], "time": []}}, "mouseover": {"state": {"target": ["23", "24", "26", "27", "29", "25", "30", "32"], "time": [3515, 3563, 3679, 3929, 5484, 8438, 8515, 9000]}, "edge": {"target": [], "time": []}}, "mouseout": {"state": {"target": ["0", "23", "24", "26", "27", "29", "25", "30", "32"], "time": [3497, 3533, 3582, 3713, 5250, 8416, 8492, 8833, 11264]}, "edge": {"target": [], "time": []}}}, "displayed_time": "19.42", "trialTime": 21875, "trial_type": "mouselab-mdp", "trial_index": 30, "time_elapsed": 1334260, "internal_node_id": "0.0-4.0-1.0-21.0"}}, {"uniqueid": "w80713728:a59683339", "current_trial": 31, "dateTime": 1691143247375, "trialdata": {"revealed_states": [], "clicked_states": ["20", "21"], "num_clicks_accrued": [0, 0, 0, 0, 0, 0, 0, 0, 0, 0, 0, 0, 0], "stateRewards": ["", 2, -3, -5, 5, 11, -9, -33, 6, 67, 6, -30, -1, -2, -6, 13, 55, 13, 72, -14, 75, 21, -66, -2, -4, 6, 15, -1, -35, 60, 2, 51, -73, 12], "withholdReward": false, "trial_id": "mdp_trial_23", "block": "test", "trialIndex": 24, "score": 47.7, "costs": -4.3, "simulationMode": [null, null, null, null, null, null], "rewards": [-1, -2, -6, -14, 75], "path": ["0", "0", "12", "13", "14", "19", "20"], "rt": [6056, 2311, 352, 203, 211, 377], "actions": ["right", "right", "right", "right", "down", "right"], "actionTimes": [8297, 10615, 11496, 12214, 12939, 13822], "queries": {"click": {"state": {"target": ["20", "21"], "time": [4102, 7461]}, "edge": {"target": [], "time": []}}, "mouseover": {"state": {"target": ["12", "13", "14", "20", "22", "21"], "time": [2875, 2910, 2973, 3257, 5201, 5773]}, "edge": {"target": [], "time": []}}, "mouseout": {"state": {"target": ["0", "12", "13", "14", "20", "22", "21"], "time": [1288, 2893, 2939, 2991, 4779, 5678, 16613]}, "edge": {"target": [], "time": []}}}, "displayed_time": "16.24", "trialTime": 17956, "trial_type": "mouselab-mdp", "trial_index": 31, "time_elapsed": 1353233, "internal_node_id": "0.0-4.0-1.0-22.0"}}, {"uniqueid": "w80713728:a59683339", "current_trial": 32, "dateTime": 1691143266498, "trialdata": {"revealed_states": [], "clicked_states": ["33"], "num_clicks_accrued": [0, 0, 0, 0, 0, 0, 0, 0, 0, 0, 0, 0, 0], "stateRewards": ["", 2, -1, 8, -2, -16, 69, -39, -7, -13, -27, -86, 2, -2, 2, 13, -34, -16, -20, -5, 19, 81, 32, -2, -1, 2, -14, 20, 80, 58, 4, 70, 12, 73], "withholdReward": false, "trial_id": "mdp_trial_24", "block": "test", "trialIndex": 25, "score": 73.85, "costs": -2.15, "simulationMode": [null, null, null, null, null], "rewards": [-2, -1, 2, 4, 73], "path": ["0", "0", "23", "24", "25", "30", "33"], "rt": [5711, 310, 278, 220, 215], "actions": ["left", "left", "left", "down", "left"], "actionTimes": [7828, 8660, 9444, 10186, 10898], "queries": {"click": {"state": {"target": ["33"], "time": [3625]}, "edge": {"target": [], "time": []}}, "mouseover": {"state": {"target": ["0", "30", "33", "30", "32"], "time": [2745, 3028, 3095, 4478, 5033]}, "edge": {"target": [], "time": []}}, "mouseout": {"state": {"target": ["0", "0", "30", "33", "30", "32"], "time": [1210, 2779, 3052, 4473, 4720, 12578]}, "edge": {"target": [], "time": []}}}, "displayed_time": "16.12", "trialTime": 18004, "trial_type": "mouselab-mdp", "trial_index": 32, "time_elapsed": 1372356, "internal_node_id": "0.0-4.0-1.0-23.0"}}, {"uniqueid": "w80713728:a59683339", "current_trial": 33, "dateTime": 1691143287954, "trialdata": {"revealed_states": [], "clicked_states": ["29"], "num_clicks_accrued": [0, 0, 0, 0, 0, 0, 0, 0, 0, 0, 0, 0, 0], "stateRewards": ["", 1, -1, 1, 13, 31, -56, 72, 2, 41, 5, 63, -2, -3, -2, 3, -71, -26, 52, 13, -31, 24, -67, 2, -2, 5, 4, 66, 43, 72, 9, 86, -26, 44], "withholdReward": false, "trial_id": "mdp_trial_25", "block": "test", "trialIndex": 26, "score": 78.85, "costs": -2.15, "simulationMode": [null, null, null, null, null], "rewards": [2, -2, 5, 4, 72], "path": ["0", "0", "23", "24", "25", "26", "29"], "rt": [6176, 270, 233, 749, 483], "actions": ["left", "left", "left", "up", "left"], "actionTimes": [9127, 9912, 10641, 11889, 12875], "queries": {"click": {"state": {"target": ["29"], "time": [4301]}, "edge": {"target": [], "time": []}}, "mouseover": {"state": {"target": ["23", "26", "29", "26", "23", "22", "21"], "time": [3463, 3505, 3555, 5270, 5316, 5740, 5946]}, "edge": {"target": [], "time": []}}, "mouseout": {"state": {"target": ["0", "23", "26", "29", "26", "23", "22", "21"], "time": [1606, 3482, 3537, 5228, 5293, 5340, 5798, 18221]}, "edge": {"target": [], "time": []}}}, "displayed_time": "16.95", "trialTime": 20336, "trial_type": "mouselab-mdp", "trial_index": 33, "time_elapsed": 1393812, "internal_node_id": "0.0-4.0-1.0-24.0"}}, {"uniqueid": "w80713728:a59683339", "current_trial": 34, "dateTime": 1691143307410, "trialdata": {"revealed_states": [], "clicked_states": ["17"], "num_clicks_accrued": [0, 0, 0, 0, 0, 0, 0, 0, 0, 0, 0, 0, 0], "stateRewards": ["", -1, -3, 4, -10, -5, 79, -87, -2, 53, 29, -20, -2, -1, -5, 10, 27, 86, 46, -16, -29, 40, 3, 2, 4, -1, -6, 37, 79, -29, 7, 86, -62, 29], "withholdReward": false, "trial_id": "mdp_trial_26", "block": "test", "trialIndex": 27, "score": 85.85, "costs": -2.15, "simulationMode": [null, null, null, null, null], "rewards": [-2, -1, -5, 10, 86], "path": ["0", "0", "12", "13", "14", "15", "17"], "rt": [5903, 196, 275, 265, 226], "actions": ["right", "right", "right", "up", "right"], "actionTimes": [8240, 8970, 9755, 10527, 11256], "queries": {"click": {"state": {"target": ["17"], "time": [3756]}, "edge": {"target": [], "time": []}}, "mouseover": {"state": {"target": ["12", "14", "17", "15", "18", "28", "26", "29"], "time": [2608, 2858, 3209, 4305, 4337, 4844, 4899, 4987]}, "edge": {"target": [], "time": []}}, "mouseout": {"state": {"target": ["0", "12", "14", "17", "15", "18", "28", "26", "29", "25"], "time": [841, 2742, 2891, 4298, 4330, 4362, 4868, 4979, 12941, 13392]}, "edge": {"target": [], "time": []}}}, "displayed_time": "16.34", "trialTime": 18097, "trial_type": "mouselab-mdp", "trial_index": 34, "time_elapsed": 1413268, "internal_node_id": "0.0-4.0-1.0-25.0"}}, {"uniqueid": "w80713728:a59683339", "current_trial": 35, "dateTime": 1691143343523, "trialdata": {"revealed_states": [], "clicked_states": ["29", "9", "17", "20", "22", "21"], "num_clicks_accrued": [0, 0, 0, 0, 0, 0, 0, 0, 0, 0, 0, 0, 0], "stateRewards": ["", -1, 1, 3, -8, -23, -15, -14, -11, -23, 58, 68, 1, 3, 5, 12, -17, -41, -7, -10, -4, 82, 10, 1, 4, -4, 11, 73, 55, -55, -1, -86, -86, 54], "withholdReward": false, "trial_id": "mdp_trial_27", "block": "test", "trialIndex": 28, "score": 68.1, "costs": -12.9, "simulationMode": [null, null, null, null, null], "rewards": [1, 3, 5, -10, 82], "path": ["0", "0", "12", "13", "14", "19", "21"], "rt": [24728, 175, 187, 611, 244], "actions": ["right", "right", "right", "down", "down"], "actionTimes": [27190, 27886, 28582, 29689, 30439], "queries": {"click": {"state": {"target": ["29", "9", "17", "20", "22", "21"], "time": [4020, 7469, 12149, 15570, 19003, 22833]}, "edge": {"target": [], "time": []}}, "mouseover": {"state": {"target": ["28", "26", "29", "9", "5", "17", "20", "19", "22", "19", "21", "13", "6"], "time": [3241, 3281, 3474, 6149, 8752, 11707, 14308, 16669, 16908, 19812, 20066, 23351, 23782]}, "edge": {"target": [], "time": []}}, "mouseout": {"state": {"target": ["0", "28", "26", "29", "9", "5", "17", "17", "20", "19", "22", "19", "21", "13", "6", "4", "3", "8", "10", "0"], "time": [705, 3263, 3424, 5611, 8219, 11101, 12355, 13947, 15774, 16772, 19200, 19914, 23038, 23381, 32192, 32239, 32289, 32881, 33656, 33856]}, "edge": {"target": [], "time": []}}}, "displayed_time": "30.96", "trialTime": 34944, "trial_type": "mouselab-mdp", "trial_index": 35, "time_elapsed": 1449381, "internal_node_id": "0.0-4.0-1.0-26.0"}}, {"uniqueid": "w80713728:a59683339", "current_trial": 36, "dateTime": 1691143362271, "trialdata": {"revealed_states": [], "clicked_states": ["32"], "num_clicks_accrued": [0, 0, 0, 0, 0, 0, 0, 0, 0, 0, 0, 0, 0], "stateRewards": ["", 2, -2, -3, 10, -4, -1, -11, -8, -9, -36, -78, 2, 1, 7, -7, 44, -1, -31, -1, 26, 47, 83, 2, -4, -4, -6, -52, -76, -81, -1, -59, 45, 67], "withholdReward": false, "trial_id": "mdp_trial_28", "block": "test", "trialIndex": 29, "score": 35.85, "costs": -2.15, "simulationMode": [null, null, null, null, null], "rewards": [2, -4, -4, -1, 45], "path": ["0", "0", "23", "24", "25", "30", "32"], "rt": [5368, 249, 193, 177, 218], "actions": ["left", "left", "left", "down", "down"], "actionTimes": [7543, 8305, 8998, 9682, 10407], "queries": {"click": {"state": {"target": ["32"], "time": [3498]}, "edge": {"target": [], "time": []}}, "mouseover": {"state": {"target": ["31", "30", "32", "33"], "time": [2717, 2767, 3051, 4212]}, "edge": {"target": [], "time": []}}, "mouseout": {"state": {"target": ["0", "31", "30", "32", "33", "30", "31"], "time": [766, 2735, 2800, 3705, 12134, 12184, 12267]}, "edge": {"target": [], "time": []}}}, "displayed_time": "16.18", "trialTime": 17619, "trial_type": "mouselab-mdp", "trial_index": 36, "time_elapsed": 1468129, "internal_node_id": "0.0-4.0-1.0-27.0"}}, {"uniqueid": "w80713728:a59683339", "current_trial": 37, "dateTime": 1691143389174, "trialdata": {"revealed_states": [], "clicked_states": ["27", "29", "32", "33"], "num_clicks_accrued": [0, 0, 0, 0, 0, 0, 0, 0, 0, 0, 0, 0, 0], "stateRewards": ["", -2, -3, -5, 8, 27, 11, 43, -6, -24, -87, 69, -2, 1, 1, 9, 19, 48, -37, 9, -14, 45, 62, 1, 2, 1, 16, -81, -41, 22, 4, -6, -63, 47], "withholdReward": false, "trial_id": "mdp_trial_29", "block": "test", "trialIndex": 30, "score": 46.4, "costs": -8.6, "simulationMode": [null, null, null, null, null], "rewards": [1, 2, 1, 4, 47], "path": ["0", "0", "23", "24", "25", "30", "33"], "rt": [15661, 197, 238, 146, 332], "actions": ["left", "left", "left", "down", "left"], "actionTimes": [18566, 19278, 20019, 20721, 21562], "queries": {"click": {"state": {"target": ["27", "29", "32", "33"], "time": [4231, 7618, 11191, 14526]}, "edge": {"target": [], "time": []}}, "mouseover": {"state": {"target": ["28", "27", "29", "30", "32", "33", "30", "31", "22"], "time": [3443, 3626, 5335, 8276, 8579, 11947, 15038, 15068, 15781]}, "edge": {"target": [], "time": []}}, "mouseout": {"state": {"target": ["0", "28", "27", "29", "30", "32", "33", "30", "31", "22"], "time": [1458, 3493, 5018, 8082, 8367, 11376, 15031, 15062, 15094, 24525]}, "edge": {"target": [], "time": []}}}, "displayed_time": "22.06", "trialTime": 25666, "trial_type": "mouselab-mdp", "trial_index": 37, "time_elapsed": 1495033, "internal_node_id": "0.0-4.0-1.0-28.0"}}, {"uniqueid": "w80713728:a59683339", "current_trial": 38, "dateTime": 1691143408125, "trialdata": {"revealed_states": [], "clicked_states": ["20", "21"], "num_clicks_accrued": [0, 0, 0, 0, 0, 0, 0, 0, 0, 0, 0, 0, 0], "stateRewards": ["", -2, -1, -3, -1, -78, -6, 2, -1, 22, -88, 32, 2, 2, -7, -8, -51, -17, 54, 2, -44, 54, 75, 2, -2, -8, -15, -29, 12, -67, 15, -1, -47, -47], "withholdReward": false, "trial_id": "mdp_trial_30", "block": "test", "trialIndex": 31, "score": 48.7, "costs": -4.3, "simulationMode": [null, null, null, null, null], "rewards": [2, 2, -7, 2, 54], "path": ["0", "0", "12", "13", "14", "19", "21"], "rt": [9234, 214, 202, 175, 355], "actions": ["right", "right", "right", "down", "down"], "actionTimes": [11684, 12417, 13122, 13797, 14658], "queries": {"click": {"state": {"target": ["20", "21"], "time": [3617, 6986]}, "edge": {"target": [], "time": []}}, "mouseover": {"state": {"target": ["12", "13", "20", "19", "22", "21", "30", "33", "31"], "time": [2626, 2715, 3115, 4467, 4554, 6431, 7855, 8022, 10683]}, "edge": {"target": [], "time": []}}, "mouseout": {"state": {"target": ["0", "12", "13", "20", "19", "22", "21", "30", "33", "31"], "time": [764, 2668, 2764, 4442, 4512, 6088, 7183, 7881, 10646, 10715]}, "edge": {"target": [], "time": []}}}, "displayed_time": "16.45", "trialTime": 17790, "trial_type": "mouselab-mdp", "trial_index": 38, "time_elapsed": 1513983, "internal_node_id": "0.0-4.0-1.0-29.0"}}, {"uniqueid": "w80713728:a59683339", "current_trial": 39, "dateTime": 1691143427377, "trialdata": {"revealed_states": [], "clicked_states": ["33", "32"], "num_clicks_accrued": [0, 0, 0, 0, 0, 0, 0, 0, 0, 0, 0, 0, 0], "stateRewards": ["", 2, -2, 7, -11, -76, -65, -23, 16, -58, 30, 81, 1, 2, 7, 14, 9, 55, -2, 6, 11, -15, 31, -1, -1, -3, 2, 15, 2, 46, 15, 18, 45, -34], "withholdReward": false, "trial_id": "mdp_trial_31", "block": "test", "trialIndex": 32, "score": 50.7, "costs": -4.3, "simulationMode": [null, null, null, null, null], "rewards": [-1, -1, -3, 15, 45], "path": ["0", "0", "23", "24", "25", "30", "32"], "rt": [9179, 195, 153, 241, 211], "actions": ["left", "left", "left", "down", "down"], "actionTimes": [11331, 12051, 12708, 13459, 14165], "queries": {"click": {"state": {"target": ["33", "32"], "time": [3968, 7380]}, "edge": {"target": [], "time": []}}, "mouseover": {"state": {"target": ["23", "24", "25", "33", "30", "32", "32", "0", "12", "13", "22"], "time": [3034, 3074, 3119, 3536, 4897, 5266, 5643, 7904, 7935, 8040, 8374]}, "edge": {"target": [], "time": []}}, "mouseout": {"state": {"target": ["0", "23", "24", "25", "33", "30", "32", "32", "0", "12", "13", "22", "19"], "time": [1101, 3054, 3100, 3169, 4216, 4962, 5310, 7836, 7930, 7979, 8236, 16685, 16749]}, "edge": {"target": [], "time": []}}}, "displayed_time": "16.15", "trialTime": 18179, "trial_type": "mouselab-mdp", "trial_index": 39, "time_elapsed": 1533235, "internal_node_id": "0.0-4.0-1.0-30.0"}}, {"uniqueid": "w80713728:a59683339", "current_trial": 40, "dateTime": 1691143446081, "trialdata": {"revealed_states": [], "clicked_states": ["22"], "num_clicks_accrued": [0, 0, 0, 0, 0, 0, 0, 0, 0, 0, 0, 0, 0], "stateRewards": ["", -2, -1, -6, -14, -55, 78, -13, 11, 14, -71, 59, 2, 2, 6, -6, 9, 38, 14, 7, 85, 11, 68, 1, -4, -1, -3, -63, -85, 9, -2, 63, -86, -10], "withholdReward": false, "trial_id": "mdp_trial_32", "block": "test", "trialIndex": 33, "score": 82.85, "costs": -2.15, "simulationMode": [null, null, null, null, null], "rewards": [2, 2, 6, 7, 68], "path": ["0", "0", "12", "13", "14", "19", "22"], "rt": [5507, 183, 169, 305, 319], "actions": ["right", "right", "right", "down", "left"], "actionTimes": [7560, 8252, 8921, 9740, 10555], "queries": {"click": {"state": {"target": ["22"], "time": [3566]}, "edge": {"target": [], "time": []}}, "mouseover": {"state": {"target": ["12", "13", "19", "22", "21"], "time": [2701, 2741, 2814, 3030, 4580]}, "edge": {"target": [], "time": []}}, "mouseout": {"state": {"target": ["0", "12", "13", "19", "22", "22", "21"], "time": [981, 2721, 2764, 2980, 3770, 4288, 13317]}, "edge": {"target": [], "time": []}}}, "displayed_time": "16.05", "trialTime": 17498, "trial_type": "mouselab-mdp", "trial_index": 40, "time_elapsed": 1551939, "internal_node_id": "0.0-4.0-1.0-31.0"}}, {"uniqueid": "w80713728:a59683339", "current_trial": 41, "dateTime": 1691143476057, "trialdata": {"revealed_states": [], "clicked_states": ["29", "31", "22"], "num_clicks_accrued": [0, 0, 0, 0, 0, 0, 0, 0, 0, 0, 0, 0, 0], "stateRewards": ["", 1, 2, 3, 16, 63, -25, 16, -4, -14, 82, -66, -1, -3, -3, -11, -14, 19, 46, 3, -34, -82, 66, -2, -3, 4, -5, -63, 77, -37, -1, -45, -41, 84], "withholdReward": false, "trial_id": "mdp_trial_33", "block": "test", "trialIndex": 34, "score": 55.55, "costs": -6.449999999999999, "simulationMode": [null, null, null, null, null], "rewards": [-1, -3, -3, 3, 66], "path": ["0", "0", "12", "13", "14", "19", "22"], "rt": [12343, 214, 534, 546, 333], "actions": ["right", "right", "right", "down", "left"], "actionTimes": [14715, 15456, 16493, 18015, 18993], "queries": {"click": {"state": {"target": ["29", "31", "22"], "time": [3807, 7261, 10674]}, "edge": {"target": [], "time": []}}, "mouseover": {"state": {"target": ["29", "25", "31", "0", "12", "22", "21"], "time": [3144, 4407, 4650, 7786, 7816, 8042, 11328]}, "edge": {"target": [], "time": []}}, "mouseout": {"state": {"target": ["0", "0", "29", "25", "31", "0", "12", "22", "21"], "time": [1291, 2970, 4359, 4433, 7723, 7810, 7863, 11160, 21550]}, "edge": {"target": [], "time": []}}}, "displayed_time": "19.56", "trialTime": 28666, "trial_type": "mouselab-mdp", "trial_index": 41, "time_elapsed": 1581915, "internal_node_id": "0.0-4.0-1.0-32.0"}}, {"uniqueid": "w80713728:a59683339", "current_trial": 42, "dateTime": 1691143507947, "trialdata": {"revealed_states": [], "clicked_states": ["22"], "num_clicks_accrued": [0, 0, 0, 0, 0, 0, 0, 0, 0, 0, 0, 0, 0], "stateRewards": ["", 1, 2, -6, -13, -51, 22, -4, -12, -44, -12, 6, -2, -2, -2, -14, -46, -4, -77, -2, 36, -79, 41, 2, -4, 2, -6, -55, 59, 70, -5, 39, -19, 24], "withholdReward": false, "trial_id": "mdp_trial_34", "block": "test", "trialIndex": 35, "score": 30.85, "costs": -2.15, "simulationMode": [null, null, null, null, null], "rewards": [-2, -2, -2, -2, 41], "path": ["0", "0", "12", "13", "14", "19", "22"], "rt": [6998, 502, 544, 277, 435], "actions": ["right", "right", "right", "down", "left"], "actionTimes": [21944, 23181, 24224, 25014, 25949], "queries": {"click": {"state": {"target": ["22"], "time": [17903]}, "edge": {"target": [], "time": []}}, "mouseover": {"state": {"target": ["12", "13", "22", "21"], "time": [16941, 16990, 17390, 18855]}, "edge": {"target": [], "time": []}}, "mouseout": {"state": {"target": ["0", "27", "12", "13", "22", "21"], "time": [1389, 14150, 16962, 17026, 18534, 28507]}, "edge": {"target": [], "time": []}}}, "displayed_time": "29.00", "trialTime": 30277, "trial_type": "mouselab-mdp", "trial_index": 42, "time_elapsed": 1613806, "internal_node_id": "0.0-4.0-1.0-33.0"}}, {"uniqueid": "w80713728:a59683339", "current_trial": 43, "dateTime": 1691143529310, "trialdata": {"revealed_states": [], "clicked_states": ["33"], "num_clicks_accrued": [0, 0, 0, 0, 0, 0, 0, 0, 0, 0, 0, 0, 0], "stateRewards": ["", -1, 2, 5, -6, 13, -64, -47, 8, -79, -80, -33, 1, 2, -2, -16, 56, -71, -10, 3, 29, 44, 85, -1, 4, 5, 4, -36, -56, 19, 8, 52, -13, -2], "withholdReward": false, "trial_id": "mdp_trial_35", "block": "test", "trialIndex": 36, "score": 86.85, "costs": -2.15, "simulationMode": [null, null, null, null, null], "rewards": [1, 2, -2, 3, 85], "path": ["0", "0", "12", "13", "14", "19", "22"], "rt": [10347, 244, 120, 248, 215], "actions": ["right", "right", "right", "down", "left"], "actionTimes": [12868, 13637, 14263, 15007, 15771], "queries": {"click": {"state": {"target": ["33"], "time": [4634]}, "edge": {"target": [], "time": []}}, "mouseover": {"state": {"target": ["23", "24", "30", "33", "32", "32"], "time": [3764, 3822, 3937, 4126, 9999, 10337]}, "edge": {"target": [], "time": []}}, "mouseout": {"state": {"target": ["0", "1", "23", "24", "30", "33", "32", "32"], "time": [704, 853, 3816, 3842, 4006, 8891, 10049, 17700]}, "edge": {"target": [], "time": []}}}, "displayed_time": "16.52", "trialTime": 19955, "trial_type": "mouselab-mdp", "trial_index": 43, "time_elapsed": 1635168, "internal_node_id": "0.0-4.0-1.0-34.0"}}, {"uniqueid": "w80713728:a59683339", "current_trial": 44, "dateTime": 1691143549166, "trialdata": {"revealed_states": [], "clicked_states": ["22", "20"], "num_clicks_accrued": [0, 0, 0, 0, 0, 0, 0, 0, 0, 0, 0, 0, 0], "stateRewards": ["", 2, -1, 3, -12, -83, 6, -33, 9, 28, 24, -50, -2, -1, -2, -5, -87, 37, 82, 12, 80, -5, 10, -2, -3, -6, 9, 22, -1, 16, 9, 77, -62, 58], "withholdReward": false, "trial_id": "mdp_trial_36", "block": "test", "trialIndex": 37, "score": 82.7, "costs": -4.3, "simulationMode": [null, null, null, null, null], "rewards": [-2, -1, -2, 12, 80], "path": ["0", "0", "12", "13", "14", "19", "20"], "rt": [9141, 183, 174, 176, 271], "actions": ["right", "right", "right", "down", "right"], "actionTimes": [11894, 12603, 13277, 13977, 14777], "queries": {"click": {"state": {"target": ["22", "20"], "time": [4461, 7976]}, "edge": {"target": [], "time": []}}, "mouseover": {"state": {"target": ["12", "13", "22", "19", "20", "21"], "time": [3481, 3699, 3848, 4999, 5273, 8817]}, "edge": {"target": [], "time": []}}, "mouseout": {"state": {"target": ["12", "0", "12", "13", "22", "19", "20", "21"], "time": [1146, 3443, 3598, 3782, 4952, 5125, 8422, 17339]}, "edge": {"target": [], "time": []}}}, "displayed_time": "16.75", "trialTime": 18521, "trial_type": "mouselab-mdp", "trial_index": 44, "time_elapsed": 1655024, "internal_node_id": "0.0-4.0-1.0-35.0"}}, {"uniqueid": "w80713728:a59683339", "current_trial": 45, "dateTime": 1691143569679, "trialdata": {"revealed_states": [], "clicked_states": ["33", "22"], "num_clicks_accrued": [0, 0, 0, 0, 0, 0, 0, 0, 0, 0, 0, 0, 0], "stateRewards": ["", -2, -4, 4, -11, -63, -60, -7, 2, -14, 81, -43, -1, -1, -5, 7, 10, 69, 40, 8, -83, 52, 60, 1, 2, 5, -5, 16, 64, 14, -3, 29, 7, -51], "withholdReward": false, "trial_id": "mdp_trial_37", "block": "test", "trialIndex": 38, "score": 56.7, "costs": -4.3, "simulationMode": [null, null, null, null, null], "rewards": [-1, -1, -5, 8, 60], "path": ["0", "0", "12", "13", "14", "19", "22"], "rt": [11146, 120, 192, 262, 264], "actions": ["right", "right", "right", "down", "left"], "actionTimes": [13471, 14168, 14875, 15692, 16464], "queries": {"click": {"state": {"target": ["33", "22"], "time": [3923, 9424]}, "edge": {"target": [], "time": []}}, "mouseover": {"state": {"target": ["23", "24", "33", "22", "21"], "time": [2895, 2933, 3278, 5792, 10306]}, "edge": {"target": [], "time": []}}, "mouseout": {"state": {"target": ["0", "23", "24", "33", "22", "21"], "time": [1093, 2928, 2962, 5131, 9437, 17936]}, "edge": {"target": [], "time": []}}}, "displayed_time": "16.97", "trialTime": 19116, "trial_type": "mouselab-mdp", "trial_index": 45, "time_elapsed": 1675536, "internal_node_id": "0.0-4.0-1.0-36.0"}}, {"uniqueid": "w80713728:a59683339", "current_trial": 46, "dateTime": 1691143602786, "trialdata": {"revealed_states": [], "clicked_states": ["20", "21", "32", "33", "29", "28"], "num_clicks_accrued": [0, 0, 0, 0, 0, 0, 0, 0, 0, 0, 0, 0, 0], "stateRewards": ["", 1, 4, 5, -5, 58, -80, 75, 6, 25, -39, 46, 2, -2, 4, 2, 59, 31, -22, -12, -61, 15, 72, 1, -2, -7, 8, 77, 76, -23, -7, 71, -15, -3], "withholdReward": false, "trial_id": "mdp_trial_38", "block": "test", "trialIndex": 39, "score": 63.1, "costs": -12.9, "simulationMode": [null, null, null, null, null], "rewards": [1, -2, -7, 8, 76], "path": ["0", "0", "23", "24", "25", "26", "28"], "rt": [23532, 186, 145, 255, 251], "actions": ["left", "left", "left", "up", "right"], "actionTimes": [25909, 26623, 27266, 28041, 28848], "queries": {"click": {"state": {"target": ["20", "21", "32", "33", "29", "28"], "time": [4077, 7587, 11245, 14638, 18115, 21473]}, "edge": {"target": [], "time": []}}, "mouseover": {"state": {"target": ["12", "13", "19", "20", "19", "21", "32", "33", "29", "29", "26", "28", "27"], "time": [3000, 3047, 3150, 3416, 5046, 5298, 8389, 11772, 15260, 15552, 18528, 18559, 22233]}, "edge": {"target": [], "time": []}}, "mouseout": {"state": {"target": ["0", "12", "13", "19", "20", "19", "21", "32", "33", "29", "29", "26", "28", "27", "23"], "time": [1282, 3022, 3069, 3171, 4974, 5091, 7990, 11720, 15193, 15331, 18318, 18554, 22185, 30085, 30316]}, "edge": {"target": [], "time": []}}}, "displayed_time": "29.35", "trialTime": 31762, "trial_type": "mouselab-mdp", "trial_index": 46, "time_elapsed": 1708644, "internal_node_id": "0.0-4.0-1.0-37.0"}}, {"uniqueid": "w80713728:a59683339", "current_trial": 47, "dateTime": 1691143621548, "trialdata": {"revealed_states": [], "clicked_states": ["18"], "num_clicks_accrued": [0, 0, 0, 0, 0, 0, 0, 0, 0, 0, 0, 0, 0], "stateRewards": ["", 2, -3, -2, 14, -4, 85, 46, 15, -28, 41, 31, -1, -1, -1, 5, 62, 79, 57, 12, -73, -64, 86, -1, 1, -3, -5, 68, 11, -32, 8, -80, -21, -56], "withholdReward": false, "trial_id": "mdp_trial_39", "block": "test", "trialIndex": 40, "score": 56.85, "costs": -2.15, "simulationMode": [null, null, null, null, null], "rewards": [-1, -1, -1, 5, 57], "path": ["0", "0", "12", "13", "14", "15", "18"], "rt": [5595, 204, 161, 252, 338], "actions": ["right", "right", "right", "up", "left"], "actionTimes": [7801, 8507, 9177, 9952, 10787], "queries": {"click": {"state": {"target": ["18"], "time": [3510]}, "edge": {"target": [], "time": []}}, "mouseover": {"state": {"target": ["18", "13", "22"], "time": [2910, 4148, 4491]}, "edge": {"target": [], "time": []}}, "mouseout": {"state": {"target": ["0", "18", "18", "13", "22"], "time": [2767, 3712, 4122, 4175, 14992]}, "edge": {"target": [], "time": []}}}, "displayed_time": "16.21", "trialTime": 17552, "trial_type": "mouselab-mdp", "trial_index": 47, "time_elapsed": 1727406, "internal_node_id": "0.0-4.0-1.0-38.0"}}, {"uniqueid": "w80713728:a59683339", "current_trial": 48, "dateTime": 1691143645518, "trialdata": {"revealed_states": [], "clicked_states": ["20", "18", "28"], "num_clicks_accrued": [0, 0, 0, 0, 0, 0, 0, 0, 0, 0, 0, 0, 0], "stateRewards": ["", -2, -1, 3, -3, 71, -58, -21, 7, -10, -75, -37, 2, 4, -1, -12, -79, -29, -48, 3, -41, -10, -30, -1, -2, 1, -15, 13, 66, 22, -1, -42, -86, -55], "withholdReward": false, "trial_id": "mdp_trial_40", "block": "test", "trialIndex": 41, "score": 42.55, "costs": -6.449999999999999, "simulationMode": [null, null, null, null, null], "rewards": [-1, -2, 1, -15, 66], "path": ["0", "0", "23", "24", "25", "26", "28"], "rt": [13025, 214, 149, 295, 686], "actions": ["left", "left", "left", "up", "right"], "actionTimes": [15719, 16458, 17110, 17906, 19099], "queries": {"click": {"state": {"target": ["20", "18", "28"], "time": [4290, 8116, 11527]}, "edge": {"target": [], "time": []}}, "mouseover": {"state": {"target": ["14", "20", "14", "15", "18", "1", "28", "25", "30", "32"], "time": [3410, 3706, 5144, 5261, 5443, 8858, 9266, 12163, 12219, 12387]}, "edge": {"target": [], "time": []}}, "mouseout": {"state": {"target": ["0", "14", "20", "14", "15", "18", "1", "28", "28", "25", "30", "32"], "time": [3257, 3439, 4490, 5213, 5288, 8807, 8906, 11725, 12113, 12192, 12290, 21305]}, "edge": {"target": [], "time": []}}}, "displayed_time": "19.61", "trialTime": 22637, "trial_type": "mouselab-mdp", "trial_index": 48, "time_elapsed": 1751376, "internal_node_id": "0.0-4.0-1.0-39.0"}}, {"uniqueid": "w80713728:a59683339", "current_trial": 49, "dateTime": 1691143716819, "trialdata": {"rt": 71133, "response": {"Q0": "$-88 to $88", "Q1": "$-16 to $16", "Q2": "$-88 to $88", "Q3": "The cost for clicking on nodes varied between nodes.", "Q4": "Very motivated"}, "question_order": [0, 1, 2, 3, 4], "trial_id": "final_quiz_control", "trial_type": "survey-multi-choice", "trial_index": 49, "time_elapsed": 1822678, "internal_node_id": "0.0-4.0-2.0"}}, {"uniqueid": "w80713728:a59683339", "current_trial": 50, "dateTime": 1691143969581, "trialdata": {"rt": 252209, "response": {"Q0": "I would randomly click on the last nodes that leads to the outside of the web and when I see a high score I would take the spider to that node", "Q1": "Yes I improved because at lower levels I scored lower but as time went by, my scores went higher ", "Q2": "It was 50 percent difficult because as I randomly clicked on the nodes my score would be negative and you never really now which node has a high score"}, "trial_id": "self_report_control", "trial_type": "survey-text", "trial_index": 50, "time_elapsed": 2075436, "internal_node_id": "0.0-4.0-3.0"}}, {"uniqueid": "w80713728:a59683339", "current_trial": 51, "dateTime": 1691144060296, "trialdata": {"rt": 90698, "response": {"Q0": "Strongly agree", "Q1": "Disagree", "Q2": "Agree", "Q3": "Strongly agree", "Q4": "Strongly disagree", "Q5": "Strongly agree", "Q6": "Strongly disagree"}, "question_order": [0, 1, 2, 3, 4, 5, 6], "trial_id": "self_report_2", "trial_type": "survey-multi-choice", "trial_index": 51, "time_elapsed": 2166156, "internal_node_id": "0.0-4.0-4.0"}}, {"uniqueid": "w80713728:a59683339", "current_trial": 52, "dateTime": 1691144081527, "trialdata": {"rt": 21187, "response": {"gender": "female", "age": "21", "colorblind": "0", "effort": "0"}, "trial_type": "survey-html-form", "trial_index": 52, "time_elapsed": 2187387, "internal_node_id": "0.0-4.0-5.0"}}, {"uniqueid": "w80713728:a59683339", "current_trial": 53, "dateTime": 1691144169262, "trialdata": {"rt": 87700, "response": {"Q0": "Before I got to play the training rounds, the instructions were very confusing but I got to understand as I was playing", "Q1": "No it was my first time.", "Q2": ""}, "trial_type": "survey-text", "trial_index": 53, "time_elapsed": 2275121, "internal_node_id": "0.0-4.0-6.0"}}, {"uniqueid": "w80713728:a59683339", "current_trial": 54, "dateTime": 1691144175594, "trialdata": {"rt": 6298, "stimulus": "Press 'Finish HIT' in order to reach the completion code. Once the data has been saved, you will receive the code either in this window or in the original browser window where you started the experiment.\n", "response": 0, "trial_type": "html-button-response", "trial_index": 54, "time_elapsed": 2281454, "internal_node_id": "0.0-5.0"}}, {"uniqueid": "w80713728:a59683339", "current_trial": 55, "dateTime": 1691144176626, "trialdata": {"success": true, "trial_type": "fullscreen", "trial_index": 55, "time_elapsed": 2282485, "internal_node_id": "0.0-6.0"}}], "questiondata": {"params": {"CODE": "C6DMOQA6", "MIN_TIME": 14, "inspectCost": 1, "startTime": "Fri Aug 04 2023 11:38:12 GMT+0200 (South Africa Standard Time)", "bonusRate": 0.002, "variance": "1_2_4_8_44", "branching": "31123"}, "final_score": 1971.05}, "eventdata": [{"eventtype": "initialized", "value": null, "timestamp": 1691141891946, "interval": 0}, {"eventtype": "window_resize", "value": [1366, 662], "timestamp": 1691141891946, "interval": 0}, {"eventtype": "window_resize", "value": [1366, 662], "timestamp": 1691141892399, "interval": 453}, {"eventtype": "window_resize", "value": [1366, 768], "timestamp": 1691141901561, "interval": 9162}], "useragent": "Mozilla/5.0 (Windows NT 10.0; Win64; x64) AppleWebKit/537.36 (KHTML, like Gecko) Chrome/115.0.0.0 Safari/537.36", "mode": "live", "id": "w80713728:a59683339", "status": "user data saved", "Beginhit": "2023-08-04 09:38:09.711479", "Beginexp": "2023-08-04 09:38:23.602571", "Endhit": "2023-08-04 10:16:19.599519", "psiturkStatus": 3, "browser": "<redacted>", "platform": "windows", "language": "en-ZA"}