{"condition": 0, "counterbalance": 0, "assignmentId": "a33001062", "workerId": "w53995758", "hitId": "h98989288", "currenttrial": 55, "bonus": 0, "data": [{"uniqueid": "w53995758:a33001062", "current_trial": 0, "dateTime": 1693483671035, "trialdata": {"success": true, "trial_type": "fullscreen", "trial_index": 0, "time_elapsed": 9479, "internal_node_id": "0.0-0.0"}}, {"uniqueid": "w53995758:a33001062", "current_trial": 1, "dateTime": 1693483714430, "trialdata": {"view_history": [{"page_index": 0, "viewing_time": 43391}], "rt": 43392, "trial_id": "exp_instructions_control", "trial_type": "instructions", "trial_index": 1, "time_elapsed": 52874, "internal_node_id": "0.0-1.0"}}, {"uniqueid": "w53995758:a33001062", "current_trial": 2, "dateTime": 1693484001064, "trialdata": {"view_history": [{"page_index": 0, "viewing_time": 53323}, {"page_index": 1, "viewing_time": 89839}, {"page_index": 2, "viewing_time": 105047}, {"page_index": 3, "viewing_time": 38422}], "rt": 286631, "trial_id": "mouselab_instructions_1_control", "trial_type": "instructions", "trial_index": 2, "time_elapsed": 339508, "internal_node_id": "0.0-2.0-1.0"}}, {"uniqueid": "w53995758:a33001062", "current_trial": 3, "dateTime": 1693484051032, "trialdata": {"revealed_states": [], "clicked_states": ["12", "23", "1", "14", "3", "25", "15", "19", "26", "30"], "num_clicks_accrued": [0, 0, 0, 0, 0, 0, 0, 0, 0, 0, 0, 0, 0], "stateRewards": ["", -10, -10, 10, -10, -10, 10, 10, -10, -10, -10, 10, -10, -10, 10, 10, 10, 10, -10, -10, 10, 10, 10, -10, 10, 10, 10, -10, -10, 10, -10, 10, -10, 10], "withholdReward": false, "trial_id": "practice_1", "block": "test", "trialIndex": 0, "score": 18.5, "costs": -5, "simulationMode": [null, null, null, null, null, null, null, null, null, null, null, null, null, null, null], "rewards": [-10, -10, 10, 10, 10, 10, 10, -10], "path": ["0", "0", "23", "23", "24", "24", "25", "26", "25", "27"], "rt": [30425, 21573, 1424, 933, 734, 239, 790, 299, 555, 59, 143, 1293, 152, 1172, 681], "actions": ["left", "left", "left", "left", "left", "left", "left", "left", "left", "left", "up", "left", "left", "up", "up"], "actionTimes": [21575, 21578, 23004, 23006, 23743, 23744, 24536, 24538, 25095, 25097, 25749, 26392, 26394, 27569, 27570], "queries": {"click": {"state": {"target": ["12", "23", "1", "14", "3", "25", "15", "19", "26", "30"], "time": [null, null, null, null, null, null, 5594, 7427, 10003, 11278]}, "edge": {"target": [], "time": []}}, "mouseover": {"state": {"target": ["13", "12", "1", "23", "1", "18", "13", "14", "18", "7", "3", "2", "24", "24", "25", "24", "25", "24", "23", "0", "2", "1", "12", "13", "2", "13", "15", "14", "19", "22", "23", "24", "25", "25", "25", "25", "26", "25", "30", "31", "12", "12", "0", "0", "0", "0"], "time": [null, null, null, null, null, null, null, null, null, null, null, null, null, null, null, null, null, null, null, 86, 1353, 1420, 1653, 1869, 3220, 4387, 5170, 5736, 5869, 7870, 8420, 8487, 8570, 9070, 9404, 9537, 9820, 10203, 10370, 11654, 11771, 13922, 14154, 15304, 16220, 16789]}, "edge": {"target": [], "time": []}}, "mouseout": {"state": {"target": ["12", "0", "0", "13", "12", "1", "23", "1", "18", "13", "14", "18", "7", "3", "2", "24", "24", "25", "24", "25", "24", "23", "0", "2", "1", "12", "13", "2", "13", "15", "14", "19", "22", "23", "24", "25", "25", "25", "25", "26", "25", "30", "31", "12", "12", "0", "0", "0", "0", "0", "0"], "time": [null, null, null, null, null, null, null, null, null, null, null, null, null, null, null, null, null, null, null, null, null, 37, 553, 1370, 1453, 1769, 2220, 4087, 4687, 5703, 5770, 7836, 7920, 8470, 8537, 8653, 9270, 9438, 9620, 10153, 10270, 11638, 11687, 11970, 14055, 14604, 15888, 16370, 17057, 31505, 36405]}, "edge": {"target": [], "time": []}}}, "displayed_time": "28.07", "trialTime": 38076, "trial_type": "mouselab-mdp", "trial_index": 3, "time_elapsed": 389476, "internal_node_id": "0.0-2.0-2.0-0.0"}}, {"uniqueid": "w53995758:a33001062", "current_trial": 4, "dateTime": 1693484076327, "trialdata": {"revealed_states": [], "clicked_states": ["8", "4", "14", "12"], "num_clicks_accrued": [0, 0, 0, 0, 0, 0, 0, 0, 0, 0, 0, 0, 0], "stateRewards": ["", -10, -10, 10, -10, 10, -10, 10, -10, -10, 10, -10, -10, 10, -10, -10, -10, 10, -10, -10, -10, -10, -10, 10, -10, 10, 10, -10, -10, 10, 10, -10, -10, -10], "withholdReward": false, "trial_id": "practice_2", "block": "test", "trialIndex": 1, "score": 11.5, "costs": -2, "simulationMode": [null, null, null, null, null], "rewards": [10, -10, 10, 10, -10], "path": ["0", "0", "23", "24", "25", "30", "33"], "rt": [16318, 177, 221, 161, 86], "actions": ["left", "left", "left", "down", "left"], "actionTimes": [18736, 19435, 20161, 20817, 21393], "queries": {"click": {"state": {"target": ["8", "4", "14", "12"], "time": [5328, 7076, 13199, 15761]}, "edge": {"target": [], "time": []}}, "mouseover": {"state": {"target": ["1", "2", "3", "8", "8", "2", "1", "2", "8", "3", "4", "4", "7", "2", "2", "3", "7", "18", "14", "14", "22", "12", "12", "0"], "time": [2822, 3122, 3538, 3955, 4172, 4555, 4772, 4822, 5171, 5605, 5754, 6722, 7388, 9055, 9572, 9821, 11488, 11507, 11538, 11771, 13709, 14106, 14790, 17739]}, "edge": {"target": [], "time": []}}, "mouseout": {"state": {"target": ["0", "1", "2", "3", "8", "8", "2", "1", "2", "8", "3", "4", "4", "7", "2", "2", "3", "7", "18", "14", "14", "22", "12", "12", "12", "0", "0", "0"], "time": [2738, 2904, 3221, 3922, 4005, 4538, 4571, 4788, 4855, 5555, 5704, 6339, 7338, 7471, 9188, 9655, 11472, 11505, 11522, 11572, 13657, 13757, 14207, 16122, 17589, 17872, 19905, 23005]}, "edge": {"target": [], "time": []}}}, "displayed_time": "21.89", "trialTime": 25070, "trial_type": "mouselab-mdp", "trial_index": 4, "time_elapsed": 414770, "internal_node_id": "0.0-2.0-2.0-1.0"}}, {"uniqueid": "w53995758:a33001062", "current_trial": 5, "dateTime": 1693484119358, "trialdata": {"view_history": [{"page_index": 0, "viewing_time": 39594}, {"page_index": 1, "viewing_time": 3435}], "rt": 43029, "trial_id": "mouselab_instructions_2_control", "trial_type": "instructions", "trial_index": 5, "time_elapsed": 457802, "internal_node_id": "0.0-2.0-3.0"}}, {"uniqueid": "w53995758:a33001062", "current_trial": 6, "dateTime": 1693484147038, "trialdata": {"rt": 27674, "response": {"Q0": "The cost for clicking on nodes may vary between nodes.", "Q1": "The better I perform the higher my bonus will be.", "Q2": "No, the amount of cash at each node of the web may be different each time.", "Q3": "To get the highest total score.", "Q4": "Only before moving the spider.", "Q5": "3 seconds"}, "question_order": [0, 1, 2, 3, 4, 5], "correct": {"Q0": "The cost for clicking on nodes may vary between nodes.", "Q1": "The better I perform the higher my bonus will be.", "Q2": "No, the amount of cash at each node of the web may be different each time.", "Q3": "To get the highest total score.", "Q4": "Only before moving the spider.", "Q5": "3 seconds"}, "trial_id": "mouselab_quiz_control", "trial_type": "survey-multi-choice", "trial_index": 6, "time_elapsed": 485482, "internal_node_id": "0.0-2.0-4.0"}}, {"uniqueid": "w53995758:a33001062", "current_trial": 7, "dateTime": 1693484151561, "trialdata": {"rt": 4516, "response": {"Q0": "No"}, "question_order": [0], "trial_id": "repeat_check", "trial_type": "survey-multi-choice", "trial_index": 7, "time_elapsed": 490004, "internal_node_id": "0.0-4.0-0.0"}}, {"uniqueid": "w53995758:a33001062", "current_trial": 8, "dateTime": 1693484158918, "trialdata": {"rt": 7353, "stimulus": "\n<h1> Get ready to start the game! </h1>\n\nThank you for reading the instructions. Get ready start with the 40 rounds of this game.\n<br><br>\nIf you need to take a break, feel free to take one after the end of a round, before continuing to the next one.\n<br><br>\nRemember, the more money the spider gets, the bigger your bonus will be!\n<br><br>\n<div style='text-align: center;'>Press <code>space</code> to begin.</div>\n\n<br><br>\n(If, at any point, the <code>space</code> key does not take you to the next page, click once on the text and try again.)", "response": " ", "trial_id": "mdp_ready", "trial_type": "html-keyboard-response", "trial_index": 8, "time_elapsed": 497362, "internal_node_id": "0.0-6.0-0.0"}}, {"uniqueid": "w53995758:a33001062", "current_trial": 9, "dateTime": 1693484176337, "trialdata": {"revealed_states": [], "clicked_states": ["1", "14", "25"], "num_clicks_accrued": [0, 0, 0, 0, 0, 0, 0, 0, 0, 0, 0, 0, 0], "stateRewards": ["", -1, 2, 6, 11, 21, -21, -21, -6, 48, -71, 88, -1, -3, 3, 7, 64, 2, 9, -4, 37, -67, 72, 2, 2, -8, -8, -10, 71, -40, -3, 73, 80, 47], "withholdReward": false, "trial_id": "mdp_trial_1", "block": "test", "trialIndex": 2, "score": 27.8, "costs": -4.199999999999999, "simulationMode": [null, null, null, null, null], "rewards": [-1, -3, 3, -4, 37], "path": ["0", "0", "12", "13", "14", "19", "20"], "rt": [10777, 238, 169, 26, 213], "actions": ["right", "right", "right", "down", "right"], "actionTimes": [12228, 12956, 13620, 14143, 14847], "queries": {"click": {"state": {"target": ["1", "14", "25"], "time": [2733, 4521, 7337]}, "edge": {"target": [], "time": []}}, "mouseover": {"state": {"target": ["1", "1", "12", "13", "14", "13", "12", "0", "23", "24", "25", "24", "23", "0", "12", "12"], "time": [1850, 2467, 3216, 3884, 4000, 4883, 4983, 5066, 5116, 5150, 5399, 7783, 8616, 9650, 10101, 10766]}, "edge": {"target": [], "time": []}}, "mouseout": {"state": {"target": ["3", "2", "1", "0", "1", "1", "12", "13", "14", "13", "12", "0", "23", "24", "25", "24", "23", "0", "12"], "time": [466, 798, 999, 1566, 2334, 2916, 3834, 3934, 4833, 4950, 5016, 5100, 5133, 5183, 7734, 7817, 9438, 10017, 10700]}, "edge": {"target": [], "time": []}}}, "displayed_time": "15.45", "trialTime": 17151, "trial_type": "mouselab-mdp", "trial_index": 9, "time_elapsed": 514780, "internal_node_id": "0.0-6.0-1.0-0.0"}}, {"uniqueid": "w53995758:a33001062", "current_trial": 10, "dateTime": 1693484197687, "trialdata": {"revealed_states": [], "clicked_states": [], "num_clicks_accrued": [0, 0, 0, 0, 0, 0, 0, 0, 0, 0, 0, 0, 0], "stateRewards": ["", -1, 3, 1, -11, -22, -36, 19, -5, -70, -52, 50, -2, -4, 4, -2, -41, -83, 29, -2, 22, 10, -6, -2, 3, -2, 14, 54, 44, 77, -9, -65, -37, -40], "withholdReward": false, "trial_id": "mdp_trial_2", "block": "test", "trialIndex": 3, "score": -72, "costs": 0, "simulationMode": [null, null, null, null, null], "rewards": [-1, 3, 1, -5, -70], "path": ["0", "0", "1", "2", "3", "8", "9"], "rt": [5275, 29, 27, 19, 2], "actions": ["up", "up", "up", "left", "up"], "actionTimes": [9709, 10236, 10785, 11294, 11814], "queries": {"click": {"state": {"target": [], "time": []}, "edge": {"target": [], "time": []}}, "mouseover": {"state": {"target": ["0", "12", "13", "14", "13", "12"], "time": [4522, 4572, 4605, 4891, 7889, 8025]}, "edge": {"target": [], "time": []}}, "mouseout": {"state": {"target": ["12", "0", "0", "12", "13", "14", "13", "12", "0", "0"], "time": [172, 4172, 4539, 4589, 4655, 7856, 7939, 8106, 14543, 16701]}, "edge": {"target": [], "time": []}}}, "displayed_time": "18.43", "trialTime": 21107, "trial_type": "mouselab-mdp", "trial_index": 10, "time_elapsed": 536131, "internal_node_id": "0.0-6.0-1.0-1.0"}}, {"uniqueid": "w53995758:a33001062", "current_trial": 11, "dateTime": 1693484216875, "trialdata": {"revealed_states": [], "clicked_states": ["12", "14", "1", "3", "23", "25"], "num_clicks_accrued": [0, 0, 0, 0, 0, 0, 0, 0, 0, 0, 0, 0, 0], "stateRewards": ["", 1, 3, 3, -10, 52, 68, 59, 12, 7, 49, 21, -2, -3, -4, -2, -2, 63, 63, -4, 44, 43, -76, -2, -3, -6, 13, 48, 36, 12, -5, -36, -33, -11], "withholdReward": false, "trial_id": "mdp_trial_3", "block": "test", "trialIndex": 4, "score": 40.6, "costs": -8.4, "simulationMode": [null, null, null, null, null], "rewards": [1, 3, 3, -10, 52], "path": ["0", "0", "1", "2", "3", "4", "5"], "rt": [13302, 84, 202, 400, 175], "actions": ["up", "up", "up", "right", "up"], "actionTimes": [14483, 15076, 15794, 16692, 17367], "queries": {"click": {"state": {"target": ["12", "14", "1", "3", "23", "25"], "time": [1724, 3640, 5519, 7709, 9966, 11851]}, "edge": {"target": [], "time": []}}, "mouseover": {"state": {"target": ["12", "13", "14", "13", "13", "14", "13", "1", "2", "3", "10", "28", "25", "24", "23", "24", "25", "24"], "time": [1340, 1906, 2156, 2673, 3256, 3506, 3940, 4156, 6023, 6406, 7990, 8040, 8457, 9374, 9573, 10141, 10273, 12074]}, "edge": {"target": [], "time": []}}, "mouseout": {"state": {"target": ["12", "12", "0", "12", "13", "14", "13", "13", "14", "13", "1", "2", "3", "10", "28", "25", "24", "23", "24", "25", "24"], "time": [222, 740, 1306, 1873, 2106, 2657, 2723, 3290, 3906, 3973, 5857, 6190, 7940, 8024, 8091, 9357, 9423, 10107, 10207, 12057, 12090]}, "edge": {"target": [], "time": []}}}, "displayed_time": "17.86", "trialTime": 18912, "trial_type": "mouselab-mdp", "trial_index": 11, "time_elapsed": 555319, "internal_node_id": "0.0-6.0-1.0-2.0"}}, {"uniqueid": "w53995758:a33001062", "current_trial": 12, "dateTime": 1693484241410, "trialdata": {"revealed_states": [], "clicked_states": ["12", "14", "1", "3", "23", "26", "30"], "num_clicks_accrued": [0, 0, 0, 0, 0, 0, 0, 0, 0, 0, 0, 0, 0], "stateRewards": ["", 1, -1, 1, 13, 31, -56, 72, 2, 41, 5, 63, -2, -3, -2, 3, -71, -26, 52, 13, -31, 24, -67, 2, -2, 5, 4, 66, 43, 72, 9, 86, -26, 44], "withholdReward": false, "trial_id": "mdp_trial_4", "block": "test", "trialIndex": 5, "score": 48.2, "costs": -9.8, "simulationMode": [null, null, null, null, null], "rewards": [2, -2, 5, 9, 44], "path": ["0", "0", "23", "24", "25", "30", "33"], "rt": [16618, 58, 111, 57, 149], "actions": ["left", "left", "left", "down", "left"], "actionTimes": [19455, 20001, 20621, 21185, 21842], "queries": {"click": {"state": {"target": ["12", "14", "1", "3", "23", "26", "30"], "time": [3627, 5432, 7299, 9362, 11799, 14232, 16620]}, "edge": {"target": [], "time": []}}, "mouseover": {"state": {"target": ["12", "13", "14", "13", "1", "2", "3", "10", "28", "25", "24", "23", "24", "25", "26", "25", "30", "24", "2", "4"], "time": [3023, 3840, 4023, 5658, 5974, 7624, 8025, 9657, 9757, 10174, 10307, 10557, 12074, 12157, 13975, 14575, 15041, 16791, 16908, 17275]}, "edge": {"target": [], "time": []}}, "mouseout": {"state": {"target": ["0", "12", "13", "14", "13", "1", "2", "3", "10", "28", "25", "24", "23", "24", "25", "26", "25", "30", "24", "2", "4", "18"], "time": [2990, 3756, 3973, 5640, 5674, 7507, 7757, 9577, 9690, 9807, 10257, 10357, 12040, 12124, 13861, 14491, 14741, 16758, 16808, 17175, 18561, 23441]}, "edge": {"target": [], "time": []}}}, "displayed_time": "22.34", "trialTime": 24295, "trial_type": "mouselab-mdp", "trial_index": 12, "time_elapsed": 579853, "internal_node_id": "0.0-6.0-1.0-3.0"}}, {"uniqueid": "w53995758:a33001062", "current_trial": 13, "dateTime": 1693484267548, "trialdata": {"revealed_states": [], "clicked_states": ["1", "12", "23", "3", "4", "8", "15", "19"], "num_clicks_accrued": [0, 0, 0, 0, 0, 0, 0, 0, 0, 0, 0, 0, 0], "stateRewards": ["", 1, 1, 1, 15, -76, 52, -32, 14, -57, 37, 49, 1, -4, -3, 6, 83, -76, 25, 9, 36, -1, -17, -1, 4, 4, -2, -22, -21, 58, -15, -57, 49, -24], "withholdReward": false, "trial_id": "mdp_trial_5", "block": "test", "trialIndex": 6, "score": -51.2, "costs": -11.200000000000001, "simulationMode": [null, null, null, null, null], "rewards": [1, 1, 1, 14, -57], "path": ["0", "0", "1", "2", "3", "8", "9"], "rt": [19780, 1, 113, 29, 180], "actions": ["up", "up", "up", "left", "up"], "actionTimes": [21342, 21843, 22470, 23003, 23672], "queries": {"click": {"state": {"target": ["1", "12", "23", "3", "4", "8", "15", "19"], "time": [3981, 6033, 7802, 10240, 12397, 14694, 17232, 19397]}, "edge": {"target": [], "time": []}}, "mouseover": {"state": {"target": ["1", "2", "2", "1", "12", "0", "23", "23", "0", "7", "3", "4", "8", "7", "7", "18", "15", "14", "19", "7"], "time": [1904, 2204, 2572, 2638, 4522, 6338, 6390, 6591, 8205, 9822, 10122, 10872, 13639, 15288, 16689, 16889, 17038, 17472, 17822, 19689]}, "edge": {"target": [], "time": []}}, "mouseout": {"state": {"target": ["0", "0", "1", "2", "2", "1", "12", "0", "23", "23", "0", "12", "7", "3", "4", "3", "8", "7", "7", "18", "15", "14", "19", "7"], "time": [855, 1757, 2104, 2521, 2604, 4271, 6288, 6374, 6438, 8191, 8238, 8823, 9924, 10722, 12792, 13488, 15039, 16481, 16789, 16908, 17405, 17572, 19572, 19773]}, "edge": {"target": [], "time": []}}}, "displayed_time": "24.17", "trialTime": 25930, "trial_type": "mouselab-mdp", "trial_index": 13, "time_elapsed": 605992, "internal_node_id": "0.0-6.0-1.0-4.0"}}, {"uniqueid": "w53995758:a33001062", "current_trial": 14, "dateTime": 1693484291763, "trialdata": {"revealed_states": [], "clicked_states": ["12", "1", "23", "4", "8", "26", "30"], "num_clicks_accrued": [0, 0, 0, 0, 0, 0, 0, 0, 0, 0, 0, 0, 0], "stateRewards": ["", 2, 4, 7, 7, -79, -2, -21, -5, -53, 47, -21, 1, -3, -1, 7, 83, 7, 84, -7, 80, -37, 69, 2, -4, 5, 2, 4, -20, -30, 7, 71, 44, -81], "withholdReward": false, "trial_id": "mdp_trial_6", "block": "test", "trialIndex": 7, "score": -10.8, "costs": -9.8, "simulationMode": [null, null, null, null, null], "rewards": [2, 4, 7, 7, -21], "path": ["0", "0", "1", "2", "3", "4", "7"], "rt": [15995, 129, 86, 49, 560], "actions": ["up", "up", "up", "right", "down"], "actionTimes": [19610, 20233, 20806, 21353, 22413], "queries": {"click": {"state": {"target": ["12", "1", "23", "4", "8", "26", "30"], "time": [4378, 6586, 8636, 11567, 13404, 15440, 17355]}, "edge": {"target": [], "time": []}}, "mouseover": {"state": {"target": ["12", "12", "1", "23", "1", "23", "7", "4", "3", "8", "28", "24", "26", "25", "30", "24"], "time": [4018, 4271, 4618, 5218, 6318, 6835, 10972, 11385, 11752, 11885, 13652, 13769, 14135, 15686, 15852, 17552]}, "edge": {"target": [], "time": []}}, "mouseout": {"state": {"target": ["0", "12", "12", "1", "23", "1", "23", "1", "7", "4", "3", "8", "28", "24", "26", "25", "30", "24"], "time": [3851, 4068, 4518, 5018, 5935, 6702, 8952, 9236, 11252, 11719, 11818, 13552, 13719, 13787, 15652, 15791, 17519, 17569]}, "edge": {"target": [], "time": []}}}, "displayed_time": "22.90", "trialTime": 24006, "trial_type": "mouselab-mdp", "trial_index": 14, "time_elapsed": 630206, "internal_node_id": "0.0-6.0-1.0-5.0"}}, {"uniqueid": "w53995758:a33001062", "current_trial": 15, "dateTime": 1693484327760, "trialdata": {"revealed_states": [], "clicked_states": ["12", "1", "23", "25", "3", "14", "15", "19", "18", "17", "16", "21"], "num_clicks_accrued": [0, 0, 0, 0, 0, 0, 0, 0, 0, 0, 0, 0, 0], "stateRewards": ["", 2, 4, -5, 7, 81, 35, 6, 11, 14, -72, 42, -1, 2, 3, -7, -77, -44, -40, -15, -85, 51, -32, -2, -1, -5, 7, -74, 47, 52, 16, -49, 48, -46], "withholdReward": false, "trial_id": "mdp_trial_7", "block": "test", "trialIndex": 8, "score": 23.2, "costs": -16.8, "simulationMode": [null, null, null, null, null], "rewards": [-1, 2, 3, -15, 51], "path": ["0", "0", "12", "13", "14", "19", "21"], "rt": [28119, 10, 2, 488, 117], "actions": ["right", "right", "right", "down", "down"], "actionTimes": [30351, 30859, 31372, 32389, 33001], "queries": {"click": {"state": {"target": ["12", "1", "23", "25", "3", "14", "15", "19", "18", "17", "16", "21"], "time": [3271, 5154, 6983, 9389, 11938, 13968, 15900, 18198, 20866, 23546, 25636, 27514]}, "edge": {"target": [], "time": []}}, "mouseover": {"state": {"target": ["12", "12", "1", "23", "24", "25", "26", "28", "2", "3", "7", "13", "13", "14", "15", "19", "19", "14", "14", "14", "15", "18", "15", "16", "7", "2", "7", "16", "17", "16", "16", "15", "21", "21", "22", "19"], "time": [2864, 3135, 3664, 5863, 7347, 7481, 10064, 11216, 11482, 11782, 12381, 12714, 13114, 13448, 14248, 16831, 18050, 20284, 20382, 20498, 20599, 20682, 21148, 21248, 22282, 22365, 22970, 23115, 23331, 23865, 24148, 26016, 26399, 26648, 27981, 29637]}, "edge": {"target": [], "time": []}}, "mouseout": {"state": {"target": ["23", "0", "12", "12", "1", "23", "24", "25", "26", "28", "2", "3", "7", "13", "13", "14", "15", "14", "19", "19", "14", "14", "14", "15", "18", "15", "16", "7", "2", "7", "16", "17", "16", "16", "16", "15", "21", "21", "22", "19"], "time": [1880, 2617, 2914, 3464, 5482, 7301, 7430, 9714, 11199, 11249, 11597, 12281, 12414, 12731, 13330, 14164, 16281, 16464, 16931, 18508, 20316, 20399, 20515, 20616, 21031, 21165, 22199, 22315, 22869, 23032, 23148, 23798, 23883, 25707, 25949, 26049, 26449, 27765, 29625, 34199]}, "edge": {"target": [], "time": []}}}, "displayed_time": "33.50", "trialTime": 35781, "trial_type": "mouselab-mdp", "trial_index": 15, "time_elapsed": 666203, "internal_node_id": "0.0-6.0-1.0-6.0"}}, {"uniqueid": "w53995758:a33001062", "current_trial": 16, "dateTime": 1693484349894, "trialdata": {"revealed_states": [], "clicked_states": ["12", "1", "14", "3", "15", "19", "22"], "num_clicks_accrued": [0, 0, 0, 0, 0, 0, 0, 0, 0, 0, 0, 0, 0], "stateRewards": ["", 2, 3, -3, 4, 72, -28, 34, -12, 57, -64, -15, 2, 1, -4, -15, 2, 49, 31, -1, -42, -58, 31, -2, 1, -2, -13, -75, -19, -22, -6, 61, 10, -56], "withholdReward": false, "trial_id": "mdp_trial_8", "block": "test", "trialIndex": 9, "score": 19.2, "costs": -9.8, "simulationMode": [null, null, null, null, null], "rewards": [2, 1, -4, -1, 31], "path": ["0", "0", "12", "13", "14", "19", "22"], "rt": [16214, 327, 140, 27, 718], "actions": ["right", "right", "right", "down", "left"], "actionTimes": [17293, 18115, 18743, 19267, 20504], "queries": {"click": {"state": {"target": ["12", "1", "14", "3", "15", "19", "22"], "time": [1730, 4004, 5911, 8068, 10243, 12124, 14127]}, "edge": {"target": [], "time": []}}, "mouseover": {"state": {"target": ["12", "1", "23", "1", "13", "14", "13", "2", "3", "2", "18", "15", "14", "19", "21", "22", "21"], "time": [1437, 2068, 2634, 3417, 4685, 5135, 6419, 6851, 7070, 8285, 8652, 9135, 10535, 10635, 12468, 12851, 14670]}, "edge": {"target": [], "time": []}}, "mouseout": {"state": {"target": ["0", "12", "1", "23", "1", "13", "14", "13", "2", "3", "2", "18", "15", "14", "19", "21", "22", "21", "22"], "time": [1388, 1868, 2501, 3251, 4184, 5101, 6402, 6435, 6868, 8251, 8318, 8968, 10468, 10585, 12368, 12668, 14352, 16256, 16286]}, "edge": {"target": [], "time": []}}}, "displayed_time": "21.01", "trialTime": 21915, "trial_type": "mouselab-mdp", "trial_index": 16, "time_elapsed": 688337, "internal_node_id": "0.0-6.0-1.0-7.0"}}, {"uniqueid": "w53995758:a33001062", "current_trial": 17, "dateTime": 1693484380145, "trialdata": {"revealed_states": [], "clicked_states": ["12", "1", "13", "14", "19", "22", "20", "21", "17", "16", "18"], "num_clicks_accrued": [0, 0, 0, 0, 0, 0, 0, 0, 0, 0, 0, 0, 0], "stateRewards": ["", -2, 4, 3, 5, -61, 4, 30, 1, -47, 83, 10, 1, 4, 7, -14, 19, -74, -83, 6, -2, -2, -65, -1, -2, 4, -11, 12, -1, -68, 11, -38, -28, 66], "withholdReward": false, "trial_id": "mdp_trial_9", "block": "test", "trialIndex": 10, "score": 1.5999999999999979, "costs": -15.400000000000002, "simulationMode": [null, null, null, null, null], "rewards": [1, 4, 7, -14, 19], "path": ["0", "0", "12", "13", "14", "15", "16"], "rt": [24835, 200, 339, 46, 115], "actions": ["right", "right", "right", "up", "up"], "actionTimes": [25908, 26597, 27436, 27979, 28612], "queries": {"click": {"state": {"target": ["12", "1", "13", "14", "19", "22", "20", "21", "17", "16", "18"], "time": [1788, 3965, 6420, 9065, 11203, 13853, 16184, 18080, 20018, 21940, 23956]}, "edge": {"target": [], "time": []}}, "mouseover": {"state": {"target": ["12", "12", "1", "2", "18", "13", "14", "14", "14", "20", "19", "22", "20", "21", "20", "21", "17", "16", "18", "15"], "time": [1430, 1695, 2361, 4249, 6029, 6344, 6795, 8562, 8778, 9545, 9778, 13645, 14112, 14895, 16096, 16629, 18696, 20296, 22163, 24230]}, "edge": {"target": [], "time": []}}, "mouseout": {"state": {"target": ["20", "19", "12", "0", "12", "12", "1", "2", "18", "13", "14", "13", "13", "14", "14", "20", "19", "19", "22", "22", "19", "20", "19", "21", "20", "21", "17", "16", "18", "15"], "time": [477, 510, 594, 1396, 1462, 2144, 4195, 5979, 6048, 6728, 8364, 8412, 8528, 8611, 9278, 9745, 11379, 13465, 13915, 14012, 14062, 14563, 14679, 15930, 16396, 18313, 20179, 22096, 24203, 24246]}, "edge": {"target": [], "time": []}}}, "displayed_time": "29.12", "trialTime": 30010, "trial_type": "mouselab-mdp", "trial_index": 17, "time_elapsed": 718589, "internal_node_id": "0.0-6.0-1.0-8.0"}}, {"uniqueid": "w53995758:a33001062", "current_trial": 18, "dateTime": 1693484398241, "trialdata": {"revealed_states": [], "clicked_states": ["16", "17", "20", "21", "14"], "num_clicks_accrued": [0, 0, 0, 0, 0, 0, 0, 0, 0, 0, 0, 0, 0], "stateRewards": ["", 2, -3, 5, 11, -79, 54, 11, -9, -78, 33, 22, -2, -1, 2, 14, 43, 34, 1, 10, 49, -65, 39, -1, 1, -1, 3, -16, -2, 11, 2, 12, 48, -65], "withholdReward": false, "trial_id": "mdp_trial_10", "block": "test", "trialIndex": 11, "score": 51, "costs": -7, "simulationMode": [null, null, null, null, null], "rewards": [-2, -1, 2, 10, 49], "path": ["0", "0", "12", "13", "14", "19", "20"], "rt": [12462, 179, 312, 428, 98], "actions": ["right", "right", "right", "down", "right"], "actionTimes": [13593, 14264, 15063, 15979, 16566], "queries": {"click": {"state": {"target": ["16", "17", "20", "21", "14"], "time": [1807, 3861, 5650, 7651, 10229]}, "edge": {"target": [], "time": []}}, "mouseover": {"state": {"target": ["12", "13", "15", "16", "17", "17", "20", "21", "22", "13", "22", "14", "13"], "time": [1216, 1266, 1399, 1666, 2183, 2599, 4117, 5967, 7967, 8667, 8933, 9951, 10633]}, "edge": {"target": [], "time": []}}, "mouseout": {"state": {"target": ["20", "19", "12", "0", "12", "13", "15", "16", "17", "17", "20", "21", "22", "13", "22", "14", "13"], "time": [385, 516, 699, 1183, 1249, 1349, 1582, 2066, 2316, 4000, 5783, 7705, 8617, 8850, 9620, 10467, 12635]}, "edge": {"target": [], "time": []}}}, "displayed_time": "17.07", "trialTime": 17807, "trial_type": "mouselab-mdp", "trial_index": 18, "time_elapsed": 736684, "internal_node_id": "0.0-6.0-1.0-9.0"}}, {"uniqueid": "w53995758:a33001062", "current_trial": 19, "dateTime": 1693484426302, "trialdata": {"revealed_states": [], "clicked_states": ["20", "21", "17", "16", "18", "22", "6", "5", "7", "9", "10", "11"], "num_clicks_accrued": [0, 0, 0, 0, 0, 0, 0, 0, 0, 0, 0, 0, 0], "stateRewards": ["", -1, 1, 8, -3, -24, 11, -65, -6, -77, 48, 44, -2, 1, -2, -7, -55, -35, 33, 8, -28, 19, -53, -1, -1, -5, -5, -70, 10, 44, 8, -58, -70, 51], "withholdReward": false, "trial_id": "mdp_trial_11", "block": "test", "trialIndex": 12, "score": 33.2, "costs": -16.8, "simulationMode": [null, null, null, null, null], "rewards": [-1, 1, 8, -6, 48], "path": ["0", "0", "1", "2", "3", "8", "10"], "rt": [23086, 188, 24, 2, 45], "actions": ["up", "up", "up", "left", "down"], "actionTimes": [24376, 25065, 25583, 26078, 26639], "queries": {"click": {"state": {"target": ["20", "21", "17", "16", "18", "22", "6", "5", "7", "9", "10", "11"], "time": [2083, 3602, 5333, 7169, 9031, 10724, 13138, 14951, 16818, 18691, 20496, 22603]}, "edge": {"target": [], "time": []}}, "mouseover": {"state": {"target": ["0", "12", "13", "14", "20", "21", "19", "17", "16", "16", "15", "18", "13", "22", "13", "7", "4", "6", "7", "4", "5", "4", "7", "7", "2", "10", "8", "9", "8", "10", "11", "3"], "time": [1305, 1625, 1642, 1659, 1990, 2756, 4008, 4474, 5690, 6307, 7376, 7641, 9261, 9361, 11108, 11427, 12709, 13042, 13524, 13941, 14158, 15125, 15308, 16175, 17091, 17341, 17842, 18158, 18958, 19108, 20975, 23142]}, "edge": {"target": [], "time": []}}, "mouseout": {"state": {"target": ["24", "23", "0", "12", "13", "14", "20", "21", "19", "17", "16", "16", "15", "18", "13", "22", "13", "7", "4", "6", "7", "4", "5", "4", "7", "7", "2", "10", "8", "9", "8", "10", "11"], "time": [907, 940, 1624, 1640, 1657, 1675, 2440, 3957, 4057, 5524, 6007, 7309, 7390, 9207, 9308, 11025, 11158, 12593, 12930, 13357, 13907, 14074, 15091, 15191, 15875, 17008, 17208, 17808, 17892, 18908, 19025, 20808, 23092]}, "edge": {"target": [], "time": []}}}, "displayed_time": "27.14", "trialTime": 27824, "trial_type": "mouselab-mdp", "trial_index": 19, "time_elapsed": 764745, "internal_node_id": "0.0-6.0-1.0-10.0"}}, {"uniqueid": "w53995758:a33001062", "current_trial": 20, "dateTime": 1693484442419, "trialdata": {"revealed_states": [], "clicked_states": ["21", "19"], "num_clicks_accrued": [0, 0, 0, 0, 0, 0, 0, 0, 0, 0, 0, 0, 0], "stateRewards": ["", -2, -3, -3, 9, 79, 67, 22, -15, -56, 27, -85, -2, 4, -4, -15, -20, -32, 60, 15, 71, 57, 17, 1, 2, -8, 15, -37, -81, 82, 15, 21, -3, 2], "withholdReward": false, "trial_id": "mdp_trial_12", "block": "test", "trialIndex": 13, "score": 67.2, "costs": -2.8, "simulationMode": [null, null, null, null, null], "rewards": [-2, 4, -4, 15, 57], "path": ["0", "0", "12", "13", "14", "19", "21"], "rt": [6329, 68, 260, 258, 156], "actions": ["right", "right", "right", "down", "down"], "actionTimes": [7422, 7978, 8738, 9486, 10134], "queries": {"click": {"state": {"target": ["21", "19"], "time": [1882, 4615]}, "edge": {"target": [], "time": []}}, "mouseover": {"state": {"target": ["0", "12", "22", "21", "32", "19", "14", "13"], "time": [1100, 1409, 1476, 1792, 2559, 4509, 4843, 5043]}, "edge": {"target": [], "time": []}}, "mouseout": {"state": {"target": ["3", "4", "17", "14", "22", "12", "0", "0", "12", "22", "21", "32", "19", "14", "13", "13", "22", "22", "22", "19"], "time": [326, 358, 492, 542, 592, 742, 775, 1393, 1426, 1492, 1968, 3932, 4743, 4893, 6627, 12478, 13273, 13596, 15710, 15760]}, "edge": {"target": [], "time": []}}}, "displayed_time": "15.10", "trialTime": 15878, "trial_type": "mouselab-mdp", "trial_index": 20, "time_elapsed": 780862, "internal_node_id": "0.0-6.0-1.0-11.0"}}, {"uniqueid": "w53995758:a33001062", "current_trial": 21, "dateTime": 1693484458972, "trialdata": {"revealed_states": [], "clicked_states": ["32", "30"], "num_clicks_accrued": [0, 0, 0, 0, 0, 0, 0, 0, 0, 0, 0, 0, 0], "stateRewards": ["", -2, 3, -1, -9, 44, 48, -37, -3, 71, -39, 87, -1, 3, -4, 4, -21, 59, -15, -8, -1, 28, -38, 2, 4, 4, 8, -85, -72, -63, 14, 58, 63, -46], "withholdReward": false, "trial_id": "mdp_trial_13", "block": "test", "trialIndex": 14, "score": 84.2, "costs": -2.8, "simulationMode": [null, null, null, null, null], "rewards": [2, 4, 4, 14, 63], "path": ["0", "0", "23", "24", "25", "30", "32"], "rt": [7131, 93, 94, 9, 89], "actions": ["left", "left", "left", "down", "down"], "actionTimes": [8651, 9248, 9833, 10331, 10928], "queries": {"click": {"state": {"target": ["32", "30"], "time": [2880, 5881]}, "edge": {"target": [], "time": []}}, "mouseover": {"state": {"target": ["0", "31", "32", "31", "21", "31", "30", "25"], "time": [1553, 1920, 2453, 3620, 4390, 5220, 5737, 6670]}, "edge": {"target": [], "time": []}}, "mouseout": {"state": {"target": ["32", "31", "0", "0", "31", "32", "31", "21", "31", "30", "25", "31", "30", "25", "26", "28", "23"], "time": [936, 986, 1036, 1620, 1986, 3186, 4287, 5056, 5521, 6237, 7871, 12620, 12687, 12937, 13237, 16156, 16188]}, "edge": {"target": [], "time": []}}}, "displayed_time": "15.52", "trialTime": 16322, "trial_type": "mouselab-mdp", "trial_index": 21, "time_elapsed": 797415, "internal_node_id": "0.0-6.0-1.0-12.0"}}, {"uniqueid": "w53995758:a33001062", "current_trial": 22, "dateTime": 1693484478106, "trialdata": {"revealed_states": [], "clicked_states": ["28", "31", "30"], "num_clicks_accrued": [0, 0, 0, 0, 0, 0, 0, 0, 0, 0, 0, 0, 0], "stateRewards": ["", 1, 1, -5, 8, -6, 45, 16, -6, -7, -22, -38, -1, -4, 8, -11, -16, 21, -45, -15, -59, -32, 42, -1, 3, 6, 11, -7, 34, -27, -8, 85, 43, -9], "withholdReward": false, "trial_id": "mdp_trial_14", "block": "test", "trialIndex": 15, "score": 80.8, "costs": -4.199999999999999, "simulationMode": [null, null, null, null, null], "rewards": [-1, 3, 6, -8, 85], "path": ["0", "0", "23", "24", "25", "30", "31"], "rt": [7377, 528, 114, 419, 63], "actions": ["left", "left", "left", "down", "right"], "actionTimes": [11648, 12674, 13278, 14215, 14775], "queries": {"click": {"state": {"target": ["28", "31", "30"], "time": [4785, 6910, 9535]}, "edge": {"target": [], "time": []}}, "mouseover": {"state": {"target": ["28", "28", "24", "31", "26", "27", "26", "30", "24", "23"], "time": [4361, 4677, 5244, 5377, 7144, 7411, 8968, 9326, 10095, 10511]}, "edge": {"target": [], "time": []}}, "mouseout": {"state": {"target": ["23", "24", "28", "23", "0", "28", "28", "28", "24", "31", "26", "27", "26", "30", "24", "23", "0"], "time": [76, 143, 3262, 3394, 4280, 4410, 4881, 5165, 5310, 7061, 7161, 8964, 8980, 9728, 10478, 16331, 16349]}, "edge": {"target": [], "time": []}}}, "displayed_time": "18.27", "trialTime": 18829, "trial_type": "mouselab-mdp", "trial_index": 22, "time_elapsed": 816549, "internal_node_id": "0.0-6.0-1.0-13.0"}}, {"uniqueid": "w53995758:a33001062", "current_trial": 23, "dateTime": 1693484506870, "trialdata": {"revealed_states": [], "clicked_states": ["32", "31", "28", "27", "33", "22", "29", "21", "20", "17", "16"], "num_clicks_accrued": [0, 0, 0, 0, 0, 0, 0, 0, 0, 0, 0, 0, 0], "stateRewards": ["", 2, 3, 3, 10, 19, -21, 6, 9, 54, 68, 16, 2, 2, -6, -8, 40, -2, -75, -2, -42, 55, 59, -1, 2, 4, -14, 11, -34, -30, -6, 61, -53, 13], "withholdReward": false, "trial_id": "mdp_trial_15", "block": "test", "trialIndex": 16, "score": 39.599999999999994, "costs": -15.400000000000002, "simulationMode": [null, null, null, null, null], "rewards": [2, 2, -6, -2, 59], "path": ["0", "0", "12", "13", "14", "19", "22"], "rt": [23226, 237, 3, 292, 310], "actions": ["right", "right", "right", "down", "left"], "actionTimes": [24300, 25040, 25540, 26344, 27146], "queries": {"click": {"state": {"target": ["32", "31", "28", "27", "33", "22", "29", "21", "20", "17", "16"], "time": [1862, 3982, 5985, 8071, 9958, 11924, 14008, 15908, 18041, 20064, 22380]}, "edge": {"target": [], "time": []}}, "mouseover": {"state": {"target": ["32", "31", "22", "21", "31", "25", "28", "26", "27", "29", "33", "29", "26", "12", "13", "14", "20", "19", "22", "23", "24", "26", "29", "23", "21", "20", "20", "17", "16", "16", "18"], "time": [1649, 2216, 2316, 2800, 3516, 4449, 4833, 6250, 6799, 8433, 8999, 10433, 11151, 11233, 11266, 11285, 11416, 11549, 11733, 12199, 12218, 12499, 12699, 14166, 15000, 16550, 17900, 18717, 20367, 22287, 22717]}, "edge": {"target": [], "time": []}}, "mouseout": {"state": {"target": ["0", "32", "31", "22", "21", "31", "25", "28", "26", "27", "29", "33", "29", "26", "12", "13", "14", "20", "19", "22", "23", "24", "26", "29", "23", "21", "20", "20", "17", "16", "16", "18"], "time": [1266, 2099, 2235, 2549, 3099, 4025, 4483, 6166, 6449, 8300, 8717, 10150, 11133, 11168, 11250, 11283, 11316, 11516, 11599, 12032, 12216, 12233, 12550, 14134, 14184, 16117, 17650, 18129, 20267, 22068, 22651, 22735]}, "edge": {"target": [], "time": []}}}, "displayed_time": "27.64", "trialTime": 28512, "trial_type": "mouselab-mdp", "trial_index": 23, "time_elapsed": 845313, "internal_node_id": "0.0-6.0-1.0-14.0"}}, {"uniqueid": "w53995758:a33001062", "current_trial": 24, "dateTime": 1693484522905, "trialdata": {"revealed_states": [], "clicked_states": ["20", "16", "22"], "num_clicks_accrued": [0, 0, 0, 0, 0, 0, 0, 0, 0, 0, 0, 0, 0], "stateRewards": ["", 2, 3, 8, 14, 69, -27, 17, 2, -71, -65, -10, 2, -3, 7, 8, 65, -10, 65, -12, 73, -12, 13, -2, -2, 6, 10, -79, -69, -18, 10, -85, 67, 74], "withholdReward": false, "trial_id": "mdp_trial_16", "block": "test", "trialIndex": 17, "score": 62.8, "costs": -4.199999999999999, "simulationMode": [null, null, null, null, null], "rewards": [2, -3, 7, -12, 73], "path": ["0", "0", "12", "13", "14", "19", "20"], "rt": [7243, 187, 124, 324, 99], "actions": ["right", "right", "right", "down", "right"], "actionTimes": [8481, 9199, 9819, 10636, 11228], "queries": {"click": {"state": {"target": ["20", "16", "22"], "time": [1836, 3918, 6545]}, "edge": {"target": [], "time": []}}, "mouseover": {"state": {"target": ["19", "20", "19", "14", "15", "16", "15", "17", "17", "19", "21", "21", "22"], "time": [1443, 1795, 2410, 2777, 3127, 3295, 4110, 4394, 4577, 4927, 4961, 5540, 6431]}, "edge": {"target": [], "time": []}}, "mouseout": {"state": {"target": ["15", "13", "0", "19", "20", "19", "14", "15", "16", "15", "17", "17", "19", "21", "21", "22", "20", "20", "20"], "time": [393, 410, 1343, 1645, 2293, 2510, 2910, 3210, 4077, 4361, 4444, 4844, 4944, 5027, 6211, 6694, 13481, 13663, 14780]}, "edge": {"target": [], "time": []}}}, "displayed_time": "15.24", "trialTime": 15772, "trial_type": "mouselab-mdp", "trial_index": 24, "time_elapsed": 861347, "internal_node_id": "0.0-6.0-1.0-15.0"}}, {"uniqueid": "w53995758:a33001062", "current_trial": 25, "dateTime": 1693484539298, "trialdata": {"revealed_states": [], "clicked_states": ["20", "6", "7"], "num_clicks_accrued": [0, 0, 0, 0, 0, 0, 0, 0, 0, 0, 0, 0, 0], "stateRewards": ["", -1, -1, 4, -16, -75, 81, -51, -7, -84, 73, -30, -2, 1, -3, -16, -77, 33, 14, 1, 45, 87, -66, 2, 2, -5, -7, -19, -17, 79, -3, 8, 49, 47], "withholdReward": false, "trial_id": "mdp_trial_17", "block": "test", "trialIndex": 18, "score": 62.8, "costs": -4.199999999999999, "simulationMode": [null, null, null, null, null], "rewards": [-1, -1, 4, -16, 81], "path": ["0", "0", "1", "2", "3", "4", "6"], "rt": [7838, 96, 53, 23, 87], "actions": ["up", "up", "up", "right", "right"], "actionTimes": [9337, 9925, 10501, 11017, 11615], "queries": {"click": {"state": {"target": ["20", "6", "7"], "time": [2071, 4028, 6491]}, "edge": {"target": [], "time": []}}, "mouseover": {"state": {"target": ["22", "19", "20", "17", "16", "6", "16", "16", "17", "7", "7", "4", "5"], "time": [1559, 1759, 1859, 2659, 3359, 3725, 4259, 4993, 5209, 6126, 6428, 6860, 8010]}, "edge": {"target": [], "time": []}}, "mouseout": {"state": {"target": ["19", "12", "23", "23", "0", "22", "19", "20", "17", "16", "6", "16", "16", "17", "7", "7", "4", "5", "4", "2", "1", "0"], "time": [442, 508, 558, 793, 1510, 1675, 1825, 2142, 3293, 3526, 4176, 4759, 5093, 6059, 6143, 6759, 7279, 13227, 13260, 13310, 13343, 13377]}, "edge": {"target": [], "time": []}}}, "displayed_time": "15.50", "trialTime": 16117, "trial_type": "mouselab-mdp", "trial_index": 25, "time_elapsed": 877741, "internal_node_id": "0.0-6.0-1.0-16.0"}}, {"uniqueid": "w53995758:a33001062", "current_trial": 26, "dateTime": 1693484561281, "trialdata": {"revealed_states": [], "clicked_states": ["6", "11", "5", "8", "3", "27", "28"], "num_clicks_accrued": [0, 0, 0, 0, 0, 0, 0, 0, 0, 0, 0, 0, 0], "stateRewards": ["", -1, -3, 1, -4, -48, -63, -49, -2, -84, -19, 65, 2, -2, -2, -12, -4, 59, 9, 6, 75, 69, -13, -1, -3, -3, -2, -37, -68, -36, 13, 32, 18, -14], "withholdReward": false, "trial_id": "mdp_trial_18", "block": "test", "trialIndex": 19, "score": 50.2, "costs": -9.8, "simulationMode": [null, null, null, null, null], "rewards": [-1, -3, 1, -2, 65], "path": ["0", "0", "1", "2", "3", "8", "11"], "rt": [17059, 6, 117, 70, 130], "actions": ["up", "up", "up", "left", "left"], "actionTimes": [18016, 18536, 19179, 19753, 20377], "queries": {"click": {"state": {"target": ["6", "11", "5", "8", "3", "27", "28"], "time": [1589, 3683, 6092, 8089, 11298, 13194, 15137]}, "edge": {"target": [], "time": []}}, "mouseover": {"state": {"target": ["0", "7", "6", "4", "3", "8", "11", "11", "8", "5", "4", "3", "8", "3", "4", "3", "7", "1", "23", "31", "30", "25", "26", "27", "28", "1"], "time": [965, 1210, 1494, 1777, 1811, 1845, 1911, 2194, 3928, 4261, 6261, 6328, 7645, 8361, 10966, 11211, 11895, 11994, 12013, 12044, 12178, 12261, 12328, 12444, 13611, 17099]}, "edge": {"target": [], "time": []}}, "mouseout": {"state": {"target": ["12", "0", "0", "7", "6", "4", "3", "8", "11", "11", "8", "5", "4", "3", "8", "3", "4", "3", "3", "7", "1", "23", "31", "30", "25", "26", "27", "28", "1"], "time": [610, 745, 1011, 1344, 1744, 1794, 1828, 1878, 2060, 3911, 3961, 6211, 6278, 6444, 8328, 10947, 11094, 11415, 11844, 11944, 12011, 12028, 12078, 12228, 12311, 12395, 13411, 15312, 17117]}, "edge": {"target": [], "time": []}}}, "displayed_time": "20.88", "trialTime": 21735, "trial_type": "mouselab-mdp", "trial_index": 26, "time_elapsed": 899725, "internal_node_id": "0.0-6.0-1.0-17.0"}}, {"uniqueid": "w53995758:a33001062", "current_trial": 27, "dateTime": 1693484583567, "trialdata": {"revealed_states": [], "clicked_states": ["11", "7", "17", "16", "6", "5"], "num_clicks_accrued": [0, 0, 0, 0, 0, 0, 0, 0, 0, 0, 0, 0, 0], "stateRewards": ["", -1, -2, -1, -10, -57, 73, -72, -16, 75, -14, -46, -2, -3, -7, -1, -61, -60, 76, -4, 50, 4, 14, 2, 2, -7, 12, -65, -32, 15, -8, -76, -25, -61], "withholdReward": false, "trial_id": "mdp_trial_19", "block": "test", "trialIndex": 20, "score": 50.6, "costs": -8.4, "simulationMode": [null, null, null, null, null], "rewards": [-1, -2, -1, -10, 73], "path": ["0", "0", "1", "2", "3", "4", "6"], "rt": [12935, 192, 541, 48, 51], "actions": ["up", "up", "up", "right", "right"], "actionTimes": [13983, 14670, 15702, 16242, 16812], "queries": {"click": {"state": {"target": ["11", "7", "17", "16", "6", "5"], "time": [2543, 4467, 6311, 8223, 9985, 12026]}, "edge": {"target": [], "time": []}}, "mouseover": {"state": {"target": ["1", "2", "3", "8", "11", "7", "15", "17", "16", "6", "5"], "time": [1378, 1492, 1592, 1659, 2142, 3708, 4845, 5344, 7626, 8543, 10427]}, "edge": {"target": [], "time": []}}, "mouseout": {"state": {"target": ["0", "0", "1", "2", "3", "8", "11", "7", "15", "17", "16", "6", "5", "22", "19", "20", "21"], "time": [558, 1268, 1442, 1542, 1642, 1709, 2992, 4796, 4862, 6511, 8376, 10048, 12343, 20226, 20260, 20293, 20959]}, "edge": {"target": [], "time": []}}}, "displayed_time": "17.31", "trialTime": 22031, "trial_type": "mouselab-mdp", "trial_index": 27, "time_elapsed": 922010, "internal_node_id": "0.0-6.0-1.0-18.0"}}, {"uniqueid": "w53995758:a33001062", "current_trial": 28, "dateTime": 1693484608400, "trialdata": {"revealed_states": [], "clicked_states": ["21", "20", "16", "15", "17", "18", "6", "5"], "num_clicks_accrued": [0, 0, 0, 0, 0, 0, 0, 0, 0, 0, 0, 0, 0], "stateRewards": ["", -2, 3, 8, -9, 59, 41, -50, -1, 82, 66, 33, 2, -2, 7, 8, 1, -38, 12, -16, 24, -37, 67, 1, 4, -2, 5, 35, -83, 28, 8, -27, 69, -64], "withholdReward": false, "trial_id": "mdp_trial_20", "block": "test", "trialIndex": 21, "score": 47.8, "costs": -11.200000000000001, "simulationMode": [null, null, null, null, null], "rewards": [-2, 3, 8, -9, 59], "path": ["0", "0", "1", "2", "3", "4", "5"], "rt": [17938, 46, 322, 252, 72], "actions": ["up", "up", "up", "right", "up"], "actionTimes": [19057, 19599, 20408, 21157, 21727], "queries": {"click": {"state": {"target": ["21", "20", "16", "15", "17", "18", "6", "5"], "time": [1857, 3880, 5962, 8058, 9919, 12376, 14326, 16476]}, "edge": {"target": [], "time": []}}, "mouseover": {"state": {"target": ["19", "21", "20", "19", "16", "17", "15", "15", "15", "17", "4", "5", "6", "18", "6", "7", "4", "5", "4", "3", "8", "9", "3"], "time": [1468, 1801, 2918, 4052, 4585, 6468, 6769, 7519, 7835, 8335, 10302, 10685, 12019, 12269, 12952, 14603, 15969, 16456, 16803, 17169, 17269, 17486, 18537]}, "edge": {"target": [], "time": []}}, "mouseout": {"state": {"target": ["0", "19", "21", "21", "20", "19", "16", "17", "15", "15", "15", "17", "16", "4", "5", "6", "18", "6", "7", "4", "5", "4", "3", "8", "9", "3"], "time": [935, 1485, 1891, 2468, 4019, 4102, 6252, 6702, 6819, 7602, 8252, 10153, 10219, 10519, 11989, 12036, 12465, 14519, 15652, 16036, 16770, 16836, 17203, 17302, 18505, 18553]}, "edge": {"target": [], "time": []}}}, "displayed_time": "22.22", "trialTime": 24557, "trial_type": "mouselab-mdp", "trial_index": 28, "time_elapsed": 946843, "internal_node_id": "0.0-6.0-1.0-19.0"}}, {"uniqueid": "w53995758:a33001062", "current_trial": 29, "dateTime": 1693484640307, "trialdata": {"revealed_states": [], "clicked_states": ["17", "16", "5", "7", "10", "11", "27", "28", "32", "31", "22", "20"], "num_clicks_accrued": [0, 0, 0, 0, 0, 0, 0, 0, 0, 0, 0, 0, 0], "stateRewards": ["", 2, 4, 7, -6, -76, -81, 2, 5, -66, -3, 36, -2, -4, 6, -2, -69, 4, -49, -6, 67, 38, -67, 2, 1, 1, 6, -68, -21, 52, -16, -16, 6, -70], "withholdReward": false, "trial_id": "mdp_trial_21", "block": "test", "trialIndex": 22, "score": 44.2, "costs": -16.8, "simulationMode": [null, null, null, null, null], "rewards": [-2, -4, 6, -6, 67], "path": ["0", "0", "12", "13", "14", "19", "20"], "rt": [25901, 182, 19, 365, 193], "actions": ["right", "right", "right", "down", "right"], "actionTimes": [26908, 27588, 28112, 28971, 29667], "queries": {"click": {"state": {"target": ["17", "16", "5", "7", "10", "11", "27", "28", "32", "31", "22", "20"], "time": [2420, 4282, 6028, 8232, 10470, 12755, 14915, 16969, 18878, 20792, 22632, 24506]}, "edge": {"target": [], "time": []}}, "mouseover": {"state": {"target": ["1", "18", "17", "15", "16", "6", "6", "16", "15", "13", "4", "3", "8", "11", "11", "8", "3", "7", "4", "5", "3", "10", "3", "4", "4", "3", "9", "11", "8", "3", "4", "6", "7", "6", "2", "10", "8", "9", "11", "9", "27", "28", "24", "31", "32", "31", "30", "19", "20", "19", "22", "20", "21"], "time": [1537, 2005, 2403, 2721, 2803, 3087, 3337, 3553, 4454, 4571, 4754, 4855, 4872, 4889, 4971, 4989, 5022, 5354, 5404, 5470, 6321, 6387, 6471, 6506, 6571, 6621, 6821, 7287, 7621, 7639, 7656, 7687, 8140, 8620, 10089, 10390, 10738, 10904, 12693, 13104, 14239, 15171, 17188, 17256, 17521, 19221, 21071, 21221, 21522, 21621, 21955, 23005, 24872]}, "edge": {"target": [], "time": []}}, "mouseout": {"state": {"target": ["0", "1", "18", "17", "15", "16", "6", "6", "16", "15", "13", "4", "3", "8", "11", "11", "8", "3", "7", "4", "5", "3", "10", "3", "4", "4", "3", "9", "11", "8", "3", "4", "6", "7", "6", "2", "10", "8", "9", "11", "9", "27", "28", "24", "31", "32", "31", "30", "31", "19", "20", "19", "22", "20", "21"], "time": [805, 1974, 2022, 2670, 2753, 2953, 3153, 3454, 4438, 4471, 4637, 4854, 4871, 4887, 4904, 4987, 5021, 5054, 5387, 5437, 6271, 6337, 6437, 6504, 6521, 6609, 6654, 7188, 7604, 7637, 7654, 7670, 7704, 8437, 9871, 10139, 10671, 10787, 12487, 13038, 13804, 15038, 17155, 17238, 17279, 19055, 21022, 21159, 21188, 21238, 21572, 21805, 22821, 24739, 30675]}, "edge": {"target": [], "time": []}}}, "displayed_time": "30.16", "trialTime": 31650, "trial_type": "mouselab-mdp", "trial_index": 29, "time_elapsed": 978751, "internal_node_id": "0.0-6.0-1.0-20.0"}}, {"uniqueid": "w53995758:a33001062", "current_trial": 30, "dateTime": 1693484662007, "trialdata": {"revealed_states": [], "clicked_states": ["21", "20", "17", "16", "6", "5", "9"], "num_clicks_accrued": [0, 0, 0, 0, 0, 0, 0, 0, 0, 0, 0, 0, 0], "stateRewards": ["", -1, -3, -7, -4, -85, -70, 79, 8, 84, -66, 42, 2, -2, -3, -16, -54, -66, 68, -3, 21, -14, 7, -2, -1, -3, -8, 75, 80, 86, -7, -84, 73, -16], "withholdReward": false, "trial_id": "mdp_trial_22", "block": "test", "trialIndex": 23, "score": 71.2, "costs": -9.8, "simulationMode": [null, null, null, null, null], "rewards": [-1, -3, -7, 8, 84], "path": ["0", "0", "1", "2", "3", "8", "9"], "rt": [15816, 355, 96, 481, 160], "actions": ["up", "up", "up", "left", "up"], "actionTimes": [16851, 17701, 18291, 19261, 19926], "queries": {"click": {"state": {"target": ["21", "20", "17", "16", "6", "5", "9"], "time": [1677, 3631, 5710, 7530, 10057, 12518, 14447]}, "edge": {"target": [], "time": []}}, "mouseover": {"state": {"target": ["12", "22", "21", "19", "20", "19", "16", "17", "15", "16", "18", "6", "5", "4", "7", "4", "5", "9", "8", "10"], "time": [1228, 1344, 1593, 2043, 2476, 3793, 4060, 4332, 5843, 5960, 7893, 9960, 10344, 11177, 11327, 12277, 12344, 12844, 14578, 14694]}, "edge": {"target": [], "time": []}}, "mouseout": {"state": {"target": ["12", "22", "21", "19", "20", "19", "16", "17", "15", "16", "18", "6", "5", "4", "7", "4", "5", "9", "8", "10"], "time": [1294, 1410, 1687, 2059, 3760, 3826, 4127, 5810, 5865, 7760, 9780, 10262, 11144, 11227, 12244, 12311, 12728, 14561, 14627, 20897]}, "edge": {"target": [], "time": []}}}, "displayed_time": "20.46", "trialTime": 21450, "trial_type": "mouselab-mdp", "trial_index": 30, "time_elapsed": 1000450, "internal_node_id": "0.0-6.0-1.0-21.0"}}, {"uniqueid": "w53995758:a33001062", "current_trial": 31, "dateTime": 1693484677710, "trialdata": {"revealed_states": [], "clicked_states": ["20", "16"], "num_clicks_accrued": [0, 0, 0, 0, 0, 0, 0, 0, 0, 0, 0, 0, 0], "stateRewards": ["", 1, -4, 6, -3, 40, 76, -51, 5, -24, -63, 44, -2, -2, 8, 1, 76, -85, -58, 10, 59, 20, 11, -2, 3, -3, 3, -82, -10, 54, -7, -57, -6, -32], "withholdReward": false, "trial_id": "mdp_trial_23", "block": "test", "trialIndex": 24, "score": 78.2, "costs": -2.8, "simulationMode": [null, null, null, null, null], "rewards": [-2, -2, 8, 1, 76], "path": ["0", "0", "12", "13", "14", "15", "16"], "rt": [5489, 158, 132, 112, 178], "actions": ["right", "right", "right", "up", "up"], "actionTimes": [6480, 7140, 7763, 8381, 9077], "queries": {"click": {"state": {"target": ["20", "16"], "time": [2302, 4278]}, "edge": {"target": [], "time": []}}, "mouseover": {"state": {"target": ["12", "13", "14", "20", "19", "19", "14", "15", "16", "6", "6", "17"], "time": [1513, 1613, 1846, 2247, 2596, 2763, 2813, 2846, 2913, 4663, 4963, 5363]}, "edge": {"target": [], "time": []}}, "mouseout": {"state": {"target": ["12", "13", "14", "20", "19", "19", "14", "15", "16", "6", "6", "16", "17"], "time": [1563, 1762, 1913, 2513, 2648, 2796, 2829, 2879, 4613, 4680, 5247, 5313, 12881]}, "edge": {"target": [], "time": []}}}, "displayed_time": "14.99", "trialTime": 15424, "trial_type": "mouselab-mdp", "trial_index": 31, "time_elapsed": 1016153, "internal_node_id": "0.0-6.0-1.0-22.0"}}, {"uniqueid": "w53995758:a33001062", "current_trial": 32, "dateTime": 1693484693563, "trialdata": {"revealed_states": [], "clicked_states": ["16", "20", "6", "28"], "num_clicks_accrued": [0, 0, 0, 0, 0, 0, 0, 0, 0, 0, 0, 0, 0], "stateRewards": ["", 1, 2, 3, 16, 63, -25, 16, -4, -14, 82, -66, -1, -3, -3, -11, -14, 19, 46, 3, -34, -82, 66, -2, -3, 4, -5, -63, 77, -37, -1, -45, -41, 84], "withholdReward": false, "trial_id": "mdp_trial_24", "block": "test", "trialIndex": 25, "score": 65.4, "costs": -5.6, "simulationMode": [null, null, null, null, null], "rewards": [-2, -3, 4, -5, 77], "path": ["0", "0", "23", "24", "25", "26", "28"], "rt": [9372, 103, 21, 309, 191], "actions": ["left", "left", "left", "up", "right"], "actionTimes": [10589, 11201, 11735, 12557, 13238], "queries": {"click": {"state": {"target": ["16", "20", "6", "28"], "time": [1751, 3647, 6009, 8334]}, "edge": {"target": [], "time": []}}, "mouseover": {"state": {"target": ["12", "13", "15", "16", "20", "21", "22", "21", "19", "6", "7", "1", "25", "26", "27", "28", "24", "31", "31"], "time": [1228, 1312, 1495, 1628, 2312, 4080, 4213, 4663, 5616, 5779, 6281, 6330, 6413, 6729, 7062, 8245, 8662, 8729, 8929]}, "edge": {"target": [], "time": []}}, "mouseout": {"state": {"target": ["13", "12", "0", "12", "13", "15", "16", "20", "21", "22", "21", "19", "6", "6", "7", "1", "25", "26", "27", "28", "28", "24", "31", "31"], "time": [561, 761, 1227, 1264, 1328, 1545, 1928, 3946, 4097, 4413, 5599, 5629, 6070, 6246, 6319, 6346, 6446, 6796, 8162, 8452, 8645, 8712, 8745, 13846]}, "edge": {"target": [], "time": []}}}, "displayed_time": "15.22", "trialTime": 15592, "trial_type": "mouselab-mdp", "trial_index": 32, "time_elapsed": 1032006, "internal_node_id": "0.0-6.0-1.0-23.0"}}, {"uniqueid": "w53995758:a33001062", "current_trial": 33, "dateTime": 1693484709388, "trialdata": {"revealed_states": [], "clicked_states": ["17", "20"], "num_clicks_accrued": [0, 0, 0, 0, 0, 0, 0, 0, 0, 0, 0, 0, 0], "stateRewards": ["", -2, 4, -7, -3, -76, 39, -28, 10, 14, 12, 60, 2, -3, 6, -10, 88, -34, -41, -3, 72, -13, -56, 1, 3, 2, 8, -51, 23, -57, 1, 14, -46, -16], "withholdReward": false, "trial_id": "mdp_trial_25", "block": "test", "trialIndex": 26, "score": 71.2, "costs": -2.8, "simulationMode": [null, null, null, null, null], "rewards": [2, -3, 6, -3, 72], "path": ["0", "0", "12", "13", "14", "19", "20"], "rt": [4925, 129, 217, 193, 174], "actions": ["right", "right", "right", "down", "right"], "actionTimes": [6026, 6655, 7361, 8053, 8717], "queries": {"click": {"state": {"target": ["17", "20"], "time": [1626, 3437]}, "edge": {"target": [], "time": []}}, "mouseover": {"state": {"target": ["12", "13", "17", "20", "14", "15", "16", "15", "14", "22"], "time": [1180, 1208, 1525, 2191, 3675, 3708, 3858, 4925, 4992, 5565]}, "edge": {"target": [], "time": []}}, "mouseout": {"state": {"target": ["22", "12", "0", "12", "13", "17", "20", "14", "15", "16", "15", "14", "22"], "time": [507, 624, 1174, 1191, 1225, 1875, 3608, 3692, 3775, 4908, 4978, 5058, 12074]}, "edge": {"target": [], "time": []}}}, "displayed_time": "15.10", "trialTime": 15561, "trial_type": "mouselab-mdp", "trial_index": 33, "time_elapsed": 1047831, "internal_node_id": "0.0-6.0-1.0-24.0"}}, {"uniqueid": "w53995758:a33001062", "current_trial": 34, "dateTime": 1693484740281, "trialdata": {"revealed_states": [], "clicked_states": ["20", "21", "16", "17", "5", "7", "6", "22", "11", "9", "27"], "num_clicks_accrued": [0, 0, 0, 0, 0, 0, 0, 0, 0, 0, 0, 0, 0], "stateRewards": ["", -1, -4, 8, 8, -68, 47, 24, -7, -61, 49, -69, -1, -1, 8, -7, 42, 1, -45, -11, 10, -63, -6, 1, 4, 6, -16, 79, -37, -58, -12, 81, 18, -53], "withholdReward": false, "trial_id": "mdp_trial_26", "block": "test", "trialIndex": 27, "score": 58.599999999999994, "costs": -15.400000000000002, "simulationMode": [null, null, null, null, null], "rewards": [1, 4, 6, -16, 79], "path": ["0", "0", "23", "24", "25", "26", "27"], "rt": [24242, 135, 191, 27, 138], "actions": ["left", "left", "left", "up", "up"], "actionTimes": [25510, 26148, 26837, 27357, 28017], "queries": {"click": {"state": {"target": ["20", "21", "16", "17", "5", "7", "6", "22", "11", "9", "27"], "time": [2598, 4609, 6834, 8844, 10740, 12823, 14975, 17158, 19207, 21320, 23151]}, "edge": {"target": [], "time": []}}, "mouseover": {"state": {"target": ["12", "13", "19", "20", "21", "13", "18", "16", "17", "15", "7", "4", "5", "6", "7", "6", "6", "13", "13", "22", "12", "11", "8", "9", "8", "27", "28", "24", "31", "31"], "time": [1844, 1877, 2127, 2510, 3244, 4911, 4961, 5211, 7061, 8994, 9061, 9128, 9428, 11144, 12646, 13111, 14861, 15561, 16011, 16261, 17429, 17811, 19545, 20067, 21545, 21861, 23329, 23679, 23729, 24028]}, "edge": {"target": [], "time": []}}, "mouseout": {"state": {"target": ["13", "13", "12", "0", "0", "12", "13", "19", "20", "21", "13", "18", "16", "17", "15", "7", "4", "5", "6", "7", "6", "6", "13", "13", "22", "12", "11", "8", "9", "8", "27", "28", "24", "31", "31"], "time": [195, 696, 727, 776, 1827, 1861, 1977, 2194, 2894, 4844, 4944, 4994, 6994, 8978, 9011, 9078, 9181, 10994, 12579, 12994, 14616, 15179, 15761, 16094, 17295, 17461, 19495, 19678, 21528, 21561, 23278, 23379, 23696, 23779, 28913]}, "edge": {"target": [], "time": []}}}, "displayed_time": "28.51", "trialTime": 30606, "trial_type": "mouselab-mdp", "trial_index": 34, "time_elapsed": 1078724, "internal_node_id": "0.0-6.0-1.0-25.0"}}, {"uniqueid": "w53995758:a33001062", "current_trial": 35, "dateTime": 1693484756823, "trialdata": {"revealed_states": [], "clicked_states": ["21"], "num_clicks_accrued": [0, 0, 0, 0, 0, 0, 0, 0, 0, 0, 0, 0, 0], "stateRewards": ["", -1, 1, 3, -8, -23, -15, -14, -11, -23, 58, 68, 1, 3, 5, 12, -17, -41, -7, -10, -4, 82, 10, 1, 4, -4, 11, 73, 55, -55, -1, -86, -86, 54], "withholdReward": false, "trial_id": "mdp_trial_27", "block": "test", "trialIndex": 28, "score": 79.6, "costs": -1.4, "simulationMode": [null, null, null, null, null], "rewards": [1, 3, 5, -10, 82], "path": ["0", "0", "12", "13", "14", "19", "21"], "rt": [2982, 69, 289, 129, 105], "actions": ["right", "right", "right", "down", "down"], "actionTimes": [4136, 4717, 5504, 6128, 6721], "queries": {"click": {"state": {"target": ["21"], "time": [1784]}, "edge": {"target": [], "time": []}}, "mouseover": {"state": {"target": ["12", "19", "21", "20", "17"], "time": [1247, 1434, 1714, 2698, 3666]}, "edge": {"target": [], "time": []}}, "mouseout": {"state": {"target": ["0", "12", "19", "21", "20", "17", "20", "19", "22", "22", "19"], "time": [1231, 1264, 1614, 1876, 3498, 3768, 7916, 8133, 9822, 10167, 10452]}, "edge": {"target": [], "time": []}}}, "displayed_time": "15.16", "trialTime": 16233, "trial_type": "mouselab-mdp", "trial_index": 35, "time_elapsed": 1095266, "internal_node_id": "0.0-6.0-1.0-26.0"}}, {"uniqueid": "w53995758:a33001062", "current_trial": 36, "dateTime": 1693484773513, "trialdata": {"revealed_states": [], "clicked_states": ["32"], "num_clicks_accrued": [0, 0, 0, 0, 0, 0, 0, 0, 0, 0, 0, 0, 0], "stateRewards": ["", -1, 3, 8, 9, -53, 20, -84, 2, -28, -62, -31, -1, -2, -7, 2, 51, 58, 45, -4, -17, -41, 36, 2, -2, -7, -15, 29, -54, -37, -16, -43, 65, -17], "withholdReward": false, "trial_id": "mdp_trial_28", "block": "test", "trialIndex": 29, "score": 40.6, "costs": -1.4, "simulationMode": [null, null, null, null, null], "rewards": [2, -2, -7, -16, 65], "path": ["0", "0", "23", "24", "25", "30", "32"], "rt": [3069, 151, 81, 135, 22], "actions": ["left", "left", "left", "down", "down"], "actionTimes": [4142, 4797, 5376, 6016, 6551], "queries": {"click": {"state": {"target": ["32"], "time": [1871]}, "edge": {"target": [], "time": []}}, "mouseover": {"state": {"target": ["31", "32", "31"], "time": [1444, 1679, 2194]}, "edge": {"target": [], "time": []}}, "mouseout": {"state": {"target": ["0", "31", "32", "31"], "time": [1116, 1477, 2011, 7180]}, "edge": {"target": [], "time": []}}}, "displayed_time": "15.07", "trialTime": 16419, "trial_type": "mouselab-mdp", "trial_index": 36, "time_elapsed": 1111956, "internal_node_id": "0.0-6.0-1.0-27.0"}}, {"uniqueid": "w53995758:a33001062", "current_trial": 37, "dateTime": 1693484801270, "trialdata": {"revealed_states": [], "clicked_states": ["32", "21", "31", "16", "27", "29", "6", "5", "9", "10"], "num_clicks_accrued": [0, 0, 0, 0, 0, 0, 0, 0, 0, 0, 0, 0, 0], "stateRewards": ["", -1, -2, 4, 9, 10, -75, 39, 16, -43, 88, -19, -1, 1, 2, 4, -31, 10, 73, 12, 41, -64, -81, -2, 2, -6, 1, -81, -1, -26, 3, -59, -3, -20], "withholdReward": false, "trial_id": "mdp_trial_29", "block": "test", "trialIndex": 30, "score": 91, "costs": -14.000000000000002, "simulationMode": [null, null, null, null, null], "rewards": [-1, -2, 4, 16, 88], "path": ["0", "0", "1", "2", "3", "8", "10"], "rt": [20731, 164, 52, 425, 116], "actions": ["up", "up", "up", "left", "down"], "actionTimes": [21945, 22616, 23167, 24090, 24700], "queries": {"click": {"state": {"target": ["32", "21", "31", "16", "27", "29", "6", "5", "9", "10"], "time": [2974, 4901, 6764, 8549, 10392, 12254, 14146, 15944, 17941, 19727]}, "edge": {"target": [], "time": []}}, "mouseover": {"state": {"target": ["24", "31", "32", "31", "13", "22", "19", "21", "31", "24", "16", "7", "2", "10", "27", "29", "26", "1", "18", "6", "4", "5", "3", "8", "9", "8", "10", "11"], "time": [2184, 2380, 2679, 3313, 3680, 3763, 3846, 3963, 5664, 7264, 7415, 8797, 8847, 8963, 9366, 10847, 12447, 12514, 12564, 12930, 14414, 14631, 16281, 16364, 16547, 18130, 18280, 20564]}, "edge": {"target": [], "time": []}}, "mouseout": {"state": {"target": ["0", "0", "24", "31", "32", "31", "13", "22", "19", "21", "31", "24", "16", "16", "7", "2", "10", "27", "29", "26", "1", "18", "16", "6", "4", "5", "3", "8", "9", "8", "10", "11", "2", "1"], "time": [812, 1563, 2198, 2430, 3024, 3330, 3696, 3780, 3863, 5013, 7047, 7282, 8619, 8732, 8813, 8930, 8996, 10668, 12432, 12464, 12532, 12648, 12714, 14347, 14447, 16214, 16331, 16447, 18097, 18197, 19931, 25147, 25681, 25781]}, "edge": {"target": [], "time": []}}}, "displayed_time": "25.20", "trialTime": 27444, "trial_type": "mouselab-mdp", "trial_index": 37, "time_elapsed": 1139713, "internal_node_id": "0.0-6.0-1.0-28.0"}}, {"uniqueid": "w53995758:a33001062", "current_trial": 38, "dateTime": 1693484818385, "trialdata": {"revealed_states": [], "clicked_states": ["9", "5", "6"], "num_clicks_accrued": [0, 0, 0, 0, 0, 0, 0, 0, 0, 0, 0, 0, 0], "stateRewards": ["", -2, 3, 3, -14, 62, 36, 49, 16, 11, 17, -84, 2, -1, 6, 2, -82, -73, 49, -6, -87, 48, 50, -1, -2, -1, -16, -11, 37, -44, 4, 55, 73, -10], "withholdReward": false, "trial_id": "mdp_trial_30", "block": "test", "trialIndex": 31, "score": 47.8, "costs": -4.199999999999999, "simulationMode": [null, null, null, null, null, null], "rewards": [-2, 3, 3, -14, 62], "path": ["0", "0", "1", "2", "3", "4", "5"], "rt": [5744, 221, 222, 43, 3, 157], "actions": ["up", "up", "up", "up", "right", "up"], "actionTimes": [8071, 8294, 9022, 9594, 10104, 10774], "queries": {"click": {"state": {"target": ["9", "5", "6"], "time": [2937, 4952, 7039]}, "edge": {"target": [], "time": []}}, "mouseover": {"state": {"target": ["1", "2", "8", "9", "5", "5", "6", "6", "7", "2", "2"], "time": [2466, 2582, 2749, 2832, 3582, 4799, 5182, 5399, 7334, 7367, 7817]}, "edge": {"target": [], "time": []}}, "mouseout": {"state": {"target": ["0", "1", "2", "8", "9", "5", "5", "6", "6", "7", "2", "2"], "time": [2016, 2549, 2599, 2782, 3304, 3616, 5133, 5216, 7266, 7350, 7383, 8033]}, "edge": {"target": [], "time": []}}}, "displayed_time": "16.33", "trialTime": 16828, "trial_type": "mouselab-mdp", "trial_index": 38, "time_elapsed": 1156829, "internal_node_id": "0.0-6.0-1.0-29.0"}}, {"uniqueid": "w53995758:a33001062", "current_trial": 39, "dateTime": 1693484855509, "trialdata": {"revealed_states": [], "clicked_states": ["5", "17", "20", "16", "21", "18", "22", "7", "6", "10", "28", "31", "33", "29", "27"], "num_clicks_accrued": [0, 0, 0, 0, 0, 0, 0, 0, 0, 0, 0, 0, 0], "stateRewards": ["", -1, 2, -2, 13, -56, -28, 10, 14, 53, -80, -29, 1, -3, -3, -14, 14, 9, -40, -9, 18, 18, 48, 1, 1, 1, -9, 64, -39, -9, 7, -52, -78, 7], "withholdReward": false, "trial_id": "mdp_trial_31", "block": "test", "trialIndex": 32, "score": 37, "costs": -20.999999999999996, "simulationMode": [null, null, null, null, null], "rewards": [1, 1, 1, -9, 64], "path": ["0", "0", "23", "24", "25", "26", "27"], "rt": [30901, 67, 188, 312, 9], "actions": ["left", "left", "left", "up", "up"], "actionTimes": [31851, 32419, 33105, 33912, 34409], "queries": {"click": {"state": {"target": ["5", "17", "20", "16", "21", "18", "22", "7", "6", "10", "28", "31", "33", "29", "27"], "time": [1953, 4404, 6253, 8034, 9614, 11610, 13641, 15427, 17338, 19188, 21909, 23870, 25754, 27601, 29476]}, "edge": {"target": [], "time": []}}, "mouseover": {"state": {"target": ["1", "4", "5", "6", "16", "17", "17", "20", "15", "16", "16", "19", "21", "22", "13", "18", "13", "22", "12", "7", "6", "10", "8", "9", "26", "28", "24", "31", "33", "29", "27", "26", "25", "30", "32", "32"], "time": [1332, 1614, 1814, 2798, 4081, 4115, 4364, 4764, 6436, 6473, 6748, 8648, 8831, 10199, 10749, 10981, 11816, 11950, 13898, 14216, 16367, 17917, 19448, 20131, 21599, 21881, 22181, 22231, 24365, 26715, 27882, 29682, 29721, 29755, 29815, 30099]}, "edge": {"target": [], "time": []}}, "mouseout": {"state": {"target": ["12", "0", "1", "4", "5", "6", "16", "17", "17", "20", "15", "16", "16", "19", "21", "22", "13", "18", "13", "22", "12", "7", "6", "10", "8", "9", "26", "28", "24", "31", "33", "29", "27", "26", "25", "30", "32", "32"], "time": [531, 1286, 1366, 1697, 2198, 3664, 4097, 4131, 4664, 6348, 6454, 6531, 8281, 8681, 9931, 10648, 10848, 11783, 11868, 13783, 13917, 16002, 17467, 19365, 19565, 21532, 21649, 22148, 22198, 23999, 26149, 27681, 29649, 29702, 29740, 29782, 29899, 35535]}, "edge": {"target": [], "time": []}}}, "displayed_time": "34.92", "trialTime": 36763, "trial_type": "mouselab-mdp", "trial_index": 39, "time_elapsed": 1193952, "internal_node_id": "0.0-6.0-1.0-30.0"}}, {"uniqueid": "w53995758:a33001062", "current_trial": 40, "dateTime": 1693484885246, "trialdata": {"revealed_states": [], "clicked_states": ["17", "20", "21", "22", "18", "16", "6", "5", "7", "9", "11"], "num_clicks_accrued": [0, 0, 0, 0, 0, 0, 0, 0, 0, 0, 0, 0, 0], "stateRewards": ["", -2, -3, 1, -7, 39, -67, 16, 5, -20, 73, 66, -1, 4, 5, -3, 23, -68, -87, -8, 3, -3, 17, 1, -4, -2, -13, -32, 34, 61, -5, -11, -18, 12], "withholdReward": false, "trial_id": "mdp_trial_32", "block": "test", "trialIndex": 33, "score": 51.599999999999994, "costs": -15.400000000000002, "simulationMode": [null, null, null, null, null], "rewards": [-2, -3, 1, 5, 66], "path": ["0", "0", "1", "2", "3", "8", "11"], "rt": [24275, 172, 26, 176, 91], "actions": ["up", "up", "up", "left", "left"], "actionTimes": [25936, 26614, 27149, 27816, 28398], "queries": {"click": {"state": {"target": ["17", "20", "21", "22", "18", "16", "6", "5", "7", "9", "11"], "time": [2859, 4629, 6383, 8110, 10404, 12274, 14198, 16082, 18381, 20515, 22709]}, "edge": {"target": [], "time": []}}, "mouseover": {"state": {"target": ["0", "17", "17", "20", "21", "19", "21", "22", "15", "18", "16", "7", "4", "6", "5", "4", "7", "2", "10", "8", "9", "8", "10", "11", "26", "27", "10", "2"], "time": [2156, 2272, 2771, 3204, 5038, 5188, 5588, 6788, 8421, 8738, 10788, 12471, 12672, 12855, 14738, 16256, 16322, 18572, 18622, 18723, 18989, 20806, 20905, 22606, 23005, 23173, 25005, 25072]}, "edge": {"target": [], "time": []}}, "mouseout": {"state": {"target": ["22", "13", "12", "0", "0", "17", "17", "17", "20", "21", "19", "21", "22", "15", "18", "16", "7", "4", "6", "5", "4", "7", "2", "10", "8", "9", "8", "10", "11", "26", "27", "10", "2", "2", "1"], "time": [337, 537, 1070, 1370, 2221, 2288, 2946, 3071, 4771, 5121, 5204, 6654, 8321, 8571, 10497, 12421, 12538, 12755, 14438, 16222, 16289, 18555, 18605, 18672, 18872, 20755, 20872, 22373, 22872, 23122, 24938, 25039, 25105, 26472, 28873]}, "edge": {"target": [], "time": []}}}, "displayed_time": "28.89", "trialTime": 29389, "trial_type": "mouselab-mdp", "trial_index": 40, "time_elapsed": 1223689, "internal_node_id": "0.0-6.0-1.0-31.0"}}, {"uniqueid": "w53995758:a33001062", "current_trial": 41, "dateTime": 1693484901154, "trialdata": {"revealed_states": [], "clicked_states": ["17", "20", "16", "18"], "num_clicks_accrued": [0, 0, 0, 0, 0, 0, 0, 0, 0, 0, 0, 0, 0], "stateRewards": ["", -2, -4, -2, -13, -15, 87, -19, -6, -80, 30, 12, 1, 1, -8, 2, 55, 56, 15, 11, -68, -7, 55, -2, 3, -3, -3, 48, 62, 4, 1, -3, 69, -33], "withholdReward": false, "trial_id": "mdp_trial_33", "block": "test", "trialIndex": 34, "score": 46.4, "costs": -5.6, "simulationMode": [null, null, null, null, null], "rewards": [1, 1, -8, 2, 56], "path": ["0", "0", "12", "13", "14", "15", "17"], "rt": [9088, 108, 119, 142, 91], "actions": ["right", "right", "right", "up", "right"], "actionTimes": [10218, 10848, 11459, 12099, 12682], "queries": {"click": {"state": {"target": ["17", "20", "16", "18"], "time": [2004, 3634, 5649, 7568]}, "edge": {"target": [], "time": []}}, "mouseover": {"state": {"target": ["18", "15", "17", "16", "15", "14", "20", "20", "14", "15", "16", "15", "16", "18", "18", "6"], "time": [1405, 1605, 1988, 2321, 3122, 3172, 3238, 3522, 3905, 3955, 4606, 5156, 5522, 5989, 6273, 8739]}, "edge": {"target": [], "time": []}}, "mouseout": {"state": {"target": ["0", "18", "15", "17", "16", "15", "14", "20", "20", "14", "15", "16", "15", "16", "18", "18", "16"], "time": [1238, 1555, 1804, 2155, 3057, 3155, 3188, 3305, 3822, 3922, 4138, 5140, 5356, 5701, 6040, 8339, 8539]}, "edge": {"target": [], "time": []}}}, "displayed_time": "15.13", "trialTime": 15597, "trial_type": "mouselab-mdp", "trial_index": 41, "time_elapsed": 1239598, "internal_node_id": "0.0-6.0-1.0-32.0"}}, {"uniqueid": "w53995758:a33001062", "current_trial": 42, "dateTime": 1693484916959, "trialdata": {"revealed_states": [], "clicked_states": ["6", "17", "16"], "num_clicks_accrued": [0, 0, 0, 0, 0, 0, 0, 0, 0, 0, 0, 0, 0], "stateRewards": ["", -2, 2, 8, -6, -25, 3, 87, 2, -62, -2, 74, -2, -1, 2, -1, 79, 49, -37, -14, 5, 67, -9, -1, 2, -2, 5, 15, 38, 32, -14, -38, -38, 30], "withholdReward": false, "trial_id": "mdp_trial_34", "block": "test", "trialIndex": 35, "score": 72.8, "costs": -4.199999999999999, "simulationMode": [null, null, null, null, null], "rewards": [-2, -1, 2, -1, 79], "path": ["0", "0", "12", "13", "14", "15", "16"], "rt": [6025, 56, 132, 64, 73], "actions": ["right", "right", "right", "up", "up"], "actionTimes": [7025, 7584, 8225, 8791, 9367], "queries": {"click": {"state": {"target": ["6", "17", "16"], "time": [1556, 3154, 4731]}, "edge": {"target": [], "time": []}}, "mouseover": {"state": {"target": ["7", "4", "6", "5", "3", "17", "16", "18"], "time": [1125, 1309, 1459, 1859, 2226, 3042, 3859, 5109]}, "edge": {"target": [], "time": []}}, "mouseout": {"state": {"target": ["6", "7", "4", "6", "5", "3", "17", "16", "18"], "time": [175, 1225, 1392, 1621, 2192, 2242, 3509, 5026, 9962]}, "edge": {"target": [], "time": []}}}, "displayed_time": "15.00", "trialTime": 15502, "trial_type": "mouselab-mdp", "trial_index": 42, "time_elapsed": 1255401, "internal_node_id": "0.0-6.0-1.0-33.0"}}, {"uniqueid": "w53995758:a33001062", "current_trial": 43, "dateTime": 1693484933695, "trialdata": {"revealed_states": [], "clicked_states": [], "num_clicks_accrued": [0, 0, 0, 0, 0, 0, 0, 0, 0, 0, 0, 0, 0], "stateRewards": ["", -2, 2, -5, -6, 10, -66, -58, -10, -11, -63, -70, -1, -4, -5, 7, 66, -64, -43, -3, 45, -37, 4, -2, -2, -6, -4, -30, 33, 43, 15, -32, -65, -59], "withholdReward": false, "trial_id": "mdp_trial_35", "block": "test", "trialIndex": 36, "score": 32, "costs": 0, "simulationMode": [null, null, null, null, null], "rewards": [-1, -4, -5, -3, 45], "path": ["0", "0", "12", "13", "14", "19", "20"], "rt": [641, 542, 145, 35, 57], "actions": ["right", "right", "right", "down", "right"], "actionTimes": [2050, 3093, 3748, 4286, 4875], "queries": {"click": {"state": {"target": [], "time": []}, "edge": {"target": [], "time": []}}, "mouseover": {"state": {"target": [], "time": []}, "edge": {"target": [], "time": []}}, "mouseout": {"state": {"target": ["15", "13", "12", "0", "12", "13", "14", "19", "20"], "time": [335, 824, 933, 2583, 2800, 2866, 3434, 7768, 16369]}, "edge": {"target": [], "time": []}}}, "displayed_time": "15.41", "trialTime": 16414, "trial_type": "mouselab-mdp", "trial_index": 43, "time_elapsed": 1272139, "internal_node_id": "0.0-6.0-1.0-34.0"}}, {"uniqueid": "w53995758:a33001062", "current_trial": 44, "dateTime": 1693484972496, "trialdata": {"revealed_states": [], "clicked_states": ["17", "20", "22", "6", "5", "9", "11", "27", "28", "31", "33", "32", "29", "21", "16", "18"], "num_clicks_accrued": [0, 0, 0, 0, 0, 0, 0, 0, 0, 0, 0, 0, 0], "stateRewards": ["", 1, -1, 4, -2, -75, -75, 84, -9, -60, -79, 59, 2, -4, 8, 9, -17, -82, 80, 14, -4, 49, 49, -1, 3, 6, -11, -33, 34, 55, 9, -57, 5, 59], "withholdReward": false, "trial_id": "mdp_trial_36", "block": "test", "trialIndex": 37, "score": 72.60000000000001, "costs": -22.399999999999995, "simulationMode": [null, null, null, null, null], "rewards": [2, -4, 8, 9, 80], "path": ["0", "0", "12", "13", "14", "15", "18"], "rt": [33423, 22, 147, 15, 358], "actions": ["right", "right", "right", "up", "left"], "actionTimes": [34487, 35013, 35689, 36207, 37084], "queries": {"click": {"state": {"target": ["17", "20", "22", "6", "5", "9", "11", "27", "28", "31", "33", "32", "29", "21", "16", "18"], "time": [1946, 4219, 6149, 7961, 9858, 11592, 13386, 15418, 17413, 19341, 21650, 23588, 25628, 27969, 30178, 32182]}, "edge": {"target": [], "time": []}}, "mouseover": {"state": {"target": ["1", "7", "15", "17", "16", "15", "20", "19", "22", "22", "7", "4", "5", "6", "5", "9", "5", "4", "3", "9", "11", "27", "28", "31", "32", "33", "32", "32", "29", "29", "26", "23", "0", "21", "13", "18", "16", "18"], "time": [1425, 1522, 1589, 1874, 2205, 2922, 3172, 4406, 4440, 4789, 6439, 6460, 6506, 6906, 8389, 9272, 9658, 10056, 10356, 10440, 11906, 14339, 15673, 17873, 19589, 21456, 21873, 22023, 23873, 24207, 25973, 26057, 26140, 26540, 28235, 28269, 28691, 30540]}, "edge": {"target": [], "time": []}}, "mouseout": {"state": {"target": ["20", "19", "12", "1", "7", "15", "17", "16", "15", "20", "19", "22", "22", "7", "4", "5", "6", "5", "9", "5", "4", "3", "9", "11", "27", "27", "28", "31", "32", "33", "33", "32", "32", "29", "29", "26", "23", "0", "21", "13", "18", "16", "18"], "time": [239, 305, 438, 1446, 1539, 1622, 2122, 2872, 2972, 4389, 4439, 4455, 6339, 6459, 6490, 6706, 8306, 8973, 9322, 10006, 10106, 10390, 11842, 13689, 15479, 15607, 17623, 19539, 21323, 21716, 21807, 21940, 23756, 23923, 25957, 26007, 26090, 26163, 28108, 28253, 28323, 30407, 34075]}, "edge": {"target": [], "time": []}}}, "displayed_time": "37.58", "trialTime": 38503, "trial_type": "mouselab-mdp", "trial_index": 44, "time_elapsed": 1310939, "internal_node_id": "0.0-6.0-1.0-35.0"}}, {"uniqueid": "w53995758:a33001062", "current_trial": 45, "dateTime": 1693485017081, "trialdata": {"revealed_states": [], "clicked_states": ["17", "18", "16", "20", "21", "22", "6", "5", "7", "9", "10", "28", "27", "12", "1", "23", "29", "31"], "num_clicks_accrued": [0, 0, 0, 0, 0, 0, 0, 0, 0, 0, 0, 0, 0], "stateRewards": ["", -2, 2, 2, -6, 9, 37, 50, -13, -7, -18, -75, -2, -4, 4, 7, 23, -57, -66, -7, -81, -48, -76, 1, 1, -8, 1, 51, -2, 70, 14, 59, 71, -37], "withholdReward": false, "trial_id": "mdp_trial_37", "block": "test", "trialIndex": 38, "score": 39.80000000000001, "costs": -25.199999999999992, "simulationMode": [null, null, null, null, null], "rewards": [1, 1, -8, 1, 70], "path": ["0", "0", "23", "24", "25", "26", "29"], "rt": [39079, 62, 158, 149, 109], "actions": ["left", "left", "left", "up", "left"], "actionTimes": [40244, 40795, 41458, 42114, 42723], "queries": {"click": {"state": {"target": ["17", "18", "16", "20", "21", "22", "6", "5", "7", "9", "10", "28", "27", "12", "1", "23", "29", "31"], "time": [2334, 4552, 6926, 8882, 10699, 12606, 14783, 16699, 18529, 20663, 22580, 25237, 28964, 31010, 32869, 34688, 36629, 38451]}, "edge": {"target": [], "time": []}}, "mouseover": {"state": {"target": ["12", "13", "14", "15", "17", "15", "18", "16", "18", "16", "15", "20", "19", "21", "22", "13", "18", "13", "22", "13", "18", "6", "6", "5", "7", "2", "3", "8", "9", "8", "10", "11", "28", "27", "27", "1", "27", "23", "0", "12", "23", "1", "1", "23", "28", "26", "29", "25", "31", "23"], "time": [1747, 1847, 1945, 2079, 2262, 2581, 2746, 3046, 4480, 4849, 7164, 7464, 9013, 9429, 11029, 11496, 11846, 11879, 11946, 12780, 12813, 13030, 13281, 14996, 17014, 18882, 18930, 19297, 19530, 20880, 21199, 23147, 25153, 25613, 26748, 27883, 28664, 30247, 30297, 30447, 31314, 32131, 32764, 33164, 35115, 35222, 35747, 36998, 37148, 39314]}, "edge": {"target": [], "time": []}}, "mouseout": {"state": {"target": ["12", "0", "12", "13", "14", "15", "17", "15", "18", "16", "18", "16", "15", "20", "19", "21", "22", "13", "18", "13", "22", "13", "18", "6", "6", "5", "7", "2", "3", "8", "9", "8", "10", "11", "10", "28", "27", "27", "1", "27", "28", "23", "0", "12", "23", "1", "1", "23", "28", "26", "29", "25", "31", "23"], "time": [714, 1646, 1830, 1879, 1995, 2196, 2497, 2663, 2831, 4384, 4745, 7130, 7179, 8996, 9074, 10846, 11229, 11529, 11863, 11913, 12729, 12797, 12830, 13063, 14914, 16830, 18797, 18898, 18963, 19413, 20847, 20947, 22642, 24784, 24848, 25430, 25714, 27531, 28535, 29297, 30097, 30264, 30380, 31231, 31331, 32364, 33016, 35031, 35131, 35264, 36931, 37015, 38898, 39414]}, "edge": {"target": [], "time": []}}}, "displayed_time": "43.22", "trialTime": 44276, "trial_type": "mouselab-mdp", "trial_index": 45, "time_elapsed": 1355524, "internal_node_id": "0.0-6.0-1.0-36.0"}}, {"uniqueid": "w53995758:a33001062", "current_trial": 46, "dateTime": 1693485033703, "trialdata": {"revealed_states": [], "clicked_states": ["1", "12", "7", "6", "5"], "num_clicks_accrued": [0, 0, 0, 0, 0, 0, 0, 0, 0, 0, 0, 0, 0], "stateRewards": ["", 2, -3, -2, 14, -4, 85, 46, 15, -28, 41, 31, -1, -1, -1, 5, 62, 79, 57, 12, -73, -64, 86, -1, 1, -3, -5, 68, 11, -32, 8, -80, -21, -56], "withholdReward": false, "trial_id": "mdp_trial_38", "block": "test", "trialIndex": 39, "score": 89, "costs": -7, "simulationMode": [null, null, null, null, null, null], "rewards": [2, -3, -2, 14, 85], "path": ["0", "0", "1", "2", "3", "4", "6"], "rt": [8274, 226, 83, 184, 127, 22], "actions": ["up", "up", "up", "up", "right", "right"], "actionTimes": [9172, 9400, 9996, 10711, 11340, 11867], "queries": {"click": {"state": {"target": ["1", "12", "7", "6", "5"], "time": [1478, 3317, 5070, 6891, 8734]}, "edge": {"target": [], "time": []}}, "mouseover": {"state": {"target": ["1", "12", "0", "23", "2", "7", "6", "6", "5", "4"], "time": [1343, 1747, 3663, 3743, 4361, 4962, 5562, 6559, 7227, 9064]}, "edge": {"target": [], "time": []}}, "mouseout": {"state": {"target": ["12", "1", "12", "0", "23", "2", "7", "6", "6", "5", "4", "16", "17", "15", "13", "14", "13", "12", "1", "0"], "time": [509, 1644, 3628, 3696, 4195, 4562, 5293, 5794, 7096, 9048, 9116, 9696, 13043, 13612, 13778, 13811, 14062, 14278, 15694, 15728]}, "edge": {"target": [], "time": []}}}, "displayed_time": "14.90", "trialTime": 16294, "trial_type": "mouselab-mdp", "trial_index": 46, "time_elapsed": 1372147, "internal_node_id": "0.0-6.0-1.0-37.0"}}, {"uniqueid": "w53995758:a33001062", "current_trial": 47, "dateTime": 1693485052365, "trialdata": {"revealed_states": [], "clicked_states": ["1", "6", "7", "5", "9", "11"], "num_clicks_accrued": [0, 0, 0, 0, 0, 0, 0, 0, 0, 0, 0, 0, 0], "stateRewards": ["", 2, -3, 5, -14, -63, -9, -24, -11, -54, -43, 68, 2, -2, -4, 7, -64, 30, 47, 12, -74, 11, 86, 1, -3, 3, 10, -71, -42, -52, -1, -29, -16, 69], "withholdReward": false, "trial_id": "mdp_trial_39", "block": "test", "trialIndex": 40, "score": 52.6, "costs": -8.4, "simulationMode": [null, null, null, null, null], "rewards": [2, -3, 5, -11, 68], "path": ["0", "0", "1", "2", "3", "8", "11"], "rt": [13644, 163, 55, 184, 4], "actions": ["up", "up", "up", "left", "left"], "actionTimes": [14461, 15114, 15708, 16388, 16890], "queries": {"click": {"state": {"target": ["1", "6", "7", "5", "9", "11"], "time": [1237, 4219, 6133, 8023, 9828, 11687]}, "edge": {"target": [], "time": []}}, "mouseover": {"state": {"target": ["1", "12", "12", "6", "7", "4", "5", "9", "9", "8", "10", "11", "10"], "time": [1032, 1617, 1968, 4166, 4533, 6384, 6483, 8304, 8569, 10118, 10220, 10933, 12050]}, "edge": {"target": [], "time": []}}, "mouseout": {"state": {"target": ["12", "1", "12", "12", "6", "7", "4", "5", "9", "9", "8", "10", "11"], "time": [315, 1433, 1818, 3686, 4383, 6350, 6433, 8236, 8400, 10068, 10167, 10786, 11969]}, "edge": {"target": [], "time": []}}}, "displayed_time": "17.42", "trialTime": 18327, "trial_type": "mouselab-mdp", "trial_index": 47, "time_elapsed": 1390808, "internal_node_id": "0.0-6.0-1.0-38.0"}}, {"uniqueid": "w53995758:a33001062", "current_trial": 48, "dateTime": 1693485069295, "trialdata": {"revealed_states": [], "clicked_states": ["1", "12", "17", "16"], "num_clicks_accrued": [0, 0, 0, 0, 0, 0, 0, 0, 0, 0, 0, 0, 0], "stateRewards": ["", -2, 1, 6, -2, -10, -78, -69, 14, -15, 7, -1, 1, -1, -2, 13, 77, 32, 87, 5, -74, 30, -26, 1, 3, 4, 12, 39, 54, -43, 2, 10, 23, 13], "withholdReward": false, "trial_id": "mdp_trial_40", "block": "test", "trialIndex": 41, "score": 82.4, "costs": -5.6, "simulationMode": [null, null, null, null, null], "rewards": [1, -1, -2, 13, 77], "path": ["0", "0", "12", "13", "14", "15", "16"], "rt": [9343, 191, 206, 149, 189], "actions": ["right", "right", "right", "up", "up"], "actionTimes": [11011, 11700, 12417, 13059, 13751], "queries": {"click": {"state": {"target": ["1", "12", "17", "16"], "time": [2026, 4052, 6751, 8784]}, "edge": {"target": [], "time": []}}, "mouseover": {"state": {"target": ["1", "12", "23", "13", "17", "15", "16", "18"], "time": [1678, 2822, 4324, 6207, 6674, 7029, 7074, 9208]}, "edge": {"target": [], "time": []}}, "mouseout": {"state": {"target": ["10", "1", "12", "0", "1", "12", "23", "13", "17", "15", "16", "18", "16"], "time": [507, 592, 706, 891, 2307, 4248, 6145, 6225, 6941, 7042, 9043, 14059, 14307]}, "edge": {"target": [], "time": []}}}, "displayed_time": "15.67", "trialTime": 16546, "trial_type": "mouselab-mdp", "trial_index": 48, "time_elapsed": 1407738, "internal_node_id": "0.0-6.0-1.0-39.0"}}, {"uniqueid": "w53995758:a33001062", "current_trial": 49, "dateTime": 1693485104459, "trialdata": {"rt": 35155, "response": {"Q0": "$-2 to $2", "Q1": "$-4 to $4", "Q2": "$-88 to $88", "Q3": "The cost was always $1.4.", "Q4": "Very motivated"}, "question_order": [0, 1, 2, 3, 4], "trial_id": "final_quiz_control", "trial_type": "survey-multi-choice", "trial_index": 49, "time_elapsed": 1442903, "internal_node_id": "0.0-6.0-2.0"}}, {"uniqueid": "w53995758:a33001062", "current_trial": 50, "dateTime": 1693485264799, "trialdata": {"rt": 160334, "response": {"Q0": "Just find an end-node above value sixty.", "Q1": "Just adjusted how much it was worth spending finding higher end nodes based on cost vs reward.", "Q2": "Since the placement was seemingly random, trying to find patterns can be problematic due to spurious correlation. At least with only 40 attempts. So I just found a working strategy and went with it."}, "trial_id": "self_report_control", "trial_type": "survey-text", "trial_index": 50, "time_elapsed": 1603243, "internal_node_id": "0.0-6.0-3.0"}}, {"uniqueid": "w53995758:a33001062", "current_trial": 51, "dateTime": 1693485276312, "trialdata": {"rt": 11510, "response": {"gender": "male", "age": "28", "colorblind": "0", "effort": "0"}, "trial_type": "survey-html-form", "trial_index": 51, "time_elapsed": 1614756, "internal_node_id": "0.0-6.0-4.0"}}, {"uniqueid": "w53995758:a33001062", "current_trial": 52, "dateTime": 1693485308127, "trialdata": {"rt": 31811, "response": {"Q0": "No.", "Q1": "Not done it before.", "Q2": ""}, "trial_type": "survey-text", "trial_index": 52, "time_elapsed": 1646571, "internal_node_id": "0.0-6.0-5.0"}}, {"uniqueid": "w53995758:a33001062", "current_trial": 53, "dateTime": 1693485341767, "trialdata": {"rt": 33635, "stimulus": "<h1>Completion Code Instructions (1/2)</h1>\n<br><br><br><br>\nYou have reached the end of the experiment! The completion code consists of two parts: (1) a code with 2 characters (2) a code with 6 characters. On this page, you will receive the second part of the code. The first part of the completion code will be on the next page.\n<br><br>\nThe second part of your completion code is: <b>EWEK22</b>\n<br><br>\nPlease note this down. Then, press 'Finish HIT' in order to find the first part of your completion code. Once the data has been saved, you will receive this code either in this window or in the original browser window where you started the experiment.\n", "response": 0, "trial_type": "html-button-response", "trial_index": 53, "time_elapsed": 1680211, "internal_node_id": "0.0-6.0-6.0"}}, {"uniqueid": "w53995758:a33001062", "current_trial": 54, "dateTime": 1693485342771, "trialdata": {"success": true, "trial_type": "fullscreen", "trial_index": 54, "time_elapsed": 1681215, "internal_node_id": "0.0-7.0"}}], "questiondata": {"params": {"CODE": "C6DMOQA6", "MIN_TIME": 14, "inspectCost": 1, "startTime": "Thu Aug 31 2023 14:07:32 GMT+0200 (Central European Summer Time)", "bonusRate": 0.002, "variance": "1_2_4_8_44", "branching": "31123"}, "final_score": 1880.8}, "eventdata": [{"eventtype": "initialized", "value": null, "timestamp": 1693483651994, "interval": 0}, {"eventtype": "window_resize", "value": [1024, 973], "timestamp": 1693483651995, "interval": 1}, {"eventtype": "focus", "value": "off", "timestamp": 1693483652189, "interval": 194}, {"eventtype": "window_resize", "value": [1024, 973], "timestamp": 1693483652401, "interval": 212}, {"eventtype": "focus", "value": "on", "timestamp": 1693483661391, "interval": 8990}, {"eventtype": "focus", "value": "off", "timestamp": 1693483667026, "interval": 5635}, {"eventtype": "focus", "value": "on", "timestamp": 1693483669230, "interval": 2204}, {"eventtype": "window_resize", "value": [1920, 1080], "timestamp": 1693483670254, "interval": 1024}, {"eventtype": "window_resize", "value": [1024, 973], "timestamp": 1693483696755, "interval": 26501}, {"eventtype": "focus", "value": "off", "timestamp": 1693483699351, "interval": 2596}, {"eventtype": "focus", "value": "on", "timestamp": 1693483712411, "interval": 13060}, {"eventtype": "window_resize", "value": [1920, 1080], "timestamp": 1693483713319, "interval": 908}, {"eventtype": "window_resize", "value": [1024, 973], "timestamp": 1693485316207, "interval": 1602888}, {"eventtype": "focus", "value": "off", "timestamp": 1693485318308, "interval": 2101}, {"eventtype": "focus", "value": "on", "timestamp": 1693485328919, "interval": 10611}], "useragent": "Mozilla/5.0 (Windows NT 10.0; Win64; x64) AppleWebKit/537.36 (KHTML, like Gecko) Chrome/116.0.0.0 Safari/537.36", "mode": "live", "id": "w53995758:a33001062", "status": "user data saved", "Beginhit": "2023-08-31 12:07:29.898381", "Beginexp": "2023-08-31 12:07:51.103765", "Endhit": "2023-08-31 12:35:43.349263", "psiturkStatus": 3, "browser": "<redacted>", "platform": "windows", "language": "nb-NO"}