{"condition": 0, "counterbalance": 0, "assignmentId": "a66023514", "workerId": "w48615500", "hitId": "h88771891", "currenttrial": 55, "bonus": 0, "data": [{"uniqueid": "w48615500:a66023514", "current_trial": 0, "dateTime": 1693480764227, "trialdata": {"success": true, "trial_type": "fullscreen", "trial_index": 0, "time_elapsed": 3594, "internal_node_id": "0.0-0.0"}}, {"uniqueid": "w48615500:a66023514", "current_trial": 1, "dateTime": 1693480793606, "trialdata": {"view_history": [{"page_index": 0, "viewing_time": 29373}], "rt": 29373, "trial_id": "exp_instructions_control", "trial_type": "instructions", "trial_index": 1, "time_elapsed": 32972, "internal_node_id": "0.0-1.0"}}, {"uniqueid": "w48615500:a66023514", "current_trial": 2, "dateTime": 1693481191911, "trialdata": {"view_history": [{"page_index": 0, "viewing_time": 121167}, {"page_index": 1, "viewing_time": 120746}, {"page_index": 2, "viewing_time": 26782}, {"page_index": 3, "viewing_time": 129605}], "rt": 398300, "trial_id": "mouselab_instructions_1_control", "trial_type": "instructions", "trial_index": 2, "time_elapsed": 431277, "internal_node_id": "0.0-2.0-1.0"}}, {"uniqueid": "w48615500:a66023514", "current_trial": 3, "dateTime": 1693481267190, "trialdata": {"revealed_states": [], "clicked_states": ["23", "24", "25", "30", "32"], "num_clicks_accrued": [0, 0, 0, 0, 0, 0, 0, 0, 0, 0, 0, 0, 0], "stateRewards": ["", 10, -10, -10, 10, 10, -10, -10, -10, 10, -10, 10, 10, 10, 10, -10, 10, 10, 10, -10, 10, 10, -10, 10, -10, -10, -10, 10, 10, 10, 10, -10, -10, -10], "withholdReward": false, "trial_id": "practice_1", "block": "test", "trialIndex": 0, "score": 31, "costs": -2.5, "simulationMode": [null, null, null, null, null], "rewards": [10, 10, 10, -10, 10], "path": ["0", "0", "12", "13", "14", "19", "21"], "rt": [22349, 35933, 1385, 4093, 494], "actions": ["right", "right", "right", "down", "down"], "actionTimes": [24667, 61113, 63017, 67622, 68640], "queries": {"click": {"state": {"target": ["23", "24", "25", "30", "32"], "time": [4170, 8931, 10949, 12710, 14079]}, "edge": {"target": [], "time": []}}, "mouseover": {"state": {"target": ["23", "24", "25", "24", "25", "24", "25", "30", "32", "31", "31", "30", "33", "25", "13", "13", "13", "0", "24", "25", "25"], "time": [3695, 6182, 7499, 7617, 7813, 8129, 9813, 11179, 13562, 20612, 20711, 20733, 20743, 20791, 20839, 20908, 21077, 21127, 21145, 21162, 21257]}, "edge": {"target": [], "time": []}}, "mouseout": {"state": {"target": ["10", "1", "23", "24", "25", "24", "25", "24", "25", "30", "32", "31", "31", "30", "33", "25", "13", "13", "13", "0", "24", "25", "25", "13", "18", "0", "12", "12", "12", "13", "12", "12", "12", "12", "12", "13", "12", "0", "23", "0", "0", "1", "2", "9", "9", "8", "10", "1", "0", "0", "23", "13", "12", "23", "21", "19", "13", "13", "14", "19", "19", "22", "12", "0", "23", "0", "13", "14", "13", "22", "0", "1", "0", "12", "7", "4", "12", "0", "23", "25", "20", "19", "22", "13", "22", "22", "13", "13", "14", "13", "12", "0", "0", "0", "0", "13", "19", "14"], "time": [1131, 1181, 6067, 7482, 7600, 7788, 8095, 9780, 11129, 13245, 16115, 20628, 20728, 20740, 20756, 20808, 20856, 20925, 21110, 21142, 21158, 21174, 21325, 25923, 26143, 26479, 28244, 28475, 30960, 31024, 31188, 31410, 31521, 31622, 32521, 35551, 35603, 35636, 35754, 35786, 38424, 38555, 38573, 38618, 38885, 38932, 38949, 38992, 39041, 39421, 39438, 39694, 39726, 39833, 41728, 41819, 42856, 42937, 42984, 43487, 44688, 44704, 44884, 46121, 46465, 46499, 46532, 46620, 46803, 46966, 47387, 47936, 48022, 48490, 49868, 50302, 50567, 51331, 52004, 52213, 52898, 52916, 52934, 53302, 53386, 53634, 53751, 55613, 56379, 56412, 56430, 56464, 56561, 57076, 60294, 64380, 66501, 66926]}, "edge": {"target": [], "time": []}}}, "displayed_time": "69.16", "trialTime": 73713, "trial_type": "mouselab-mdp", "trial_index": 3, "time_elapsed": 506556, "internal_node_id": "0.0-2.0-2.0-0.0"}}, {"uniqueid": "w48615500:a66023514", "current_trial": 4, "dateTime": 1693481297591, "trialdata": {"revealed_states": [], "clicked_states": ["12", "1", "2", "23", "24"], "num_clicks_accrued": [0, 0, 0, 0, 0, 0, 0, 0, 0, 0, 0, 0, 0], "stateRewards": ["", -10, -10, -10, -10, -10, 10, 10, -10, -10, 10, 10, 10, 10, -10, 10, 10, -10, -10, -10, 10, 10, 10, 10, -10, 10, -10, -10, 10, -10, -10, 10, -10, -10], "withholdReward": false, "trial_id": "practice_2", "block": "test", "trialIndex": 1, "score": -9, "costs": -2.5, "simulationMode": [null, null, null, null, null], "rewards": [10, -10, 10, -10, -10], "path": ["0", "0", "23", "24", "25", "30", "32"], "rt": [14155, 370, 5906, 947, 1220], "actions": ["left", "left", "left", "down", "down"], "actionTimes": [15969, 16851, 23269, 24741, 26480], "queries": {"click": {"state": {"target": ["12", "1", "2", "23", "24"], "time": [5716, 7642, 8665, 10749, 14448]}, "edge": {"target": [], "time": []}}, "mouseover": {"state": {"target": ["1", "12", "1", "2", "24", "23", "24", "24", "24", "25"], "time": [3211, 4663, 6813, 8447, 9279, 10461, 11445, 13114, 14145, 14945]}, "edge": {"target": [], "time": []}}, "mouseout": {"state": {"target": ["15", "16", "23", "0", "1", "12", "1", "2", "24", "23", "24", "24", "24", "25", "25", "30"], "time": [583, 599, 933, 1549, 4580, 6697, 7689, 9146, 10431, 11329, 12913, 13945, 14913, 19345, 20995, 22211]}, "edge": {"target": [], "time": []}}}, "displayed_time": "26.99", "trialTime": 30221, "trial_type": "mouselab-mdp", "trial_index": 4, "time_elapsed": 536956, "internal_node_id": "0.0-2.0-2.0-1.0"}}, {"uniqueid": "w48615500:a66023514", "current_trial": 5, "dateTime": 1693481340516, "trialdata": {"view_history": [{"page_index": 0, "viewing_time": 27637}, {"page_index": 1, "viewing_time": 15280}], "rt": 42918, "trial_id": "mouselab_instructions_2_control", "trial_type": "instructions", "trial_index": 5, "time_elapsed": 579883, "internal_node_id": "0.0-2.0-3.0"}}, {"uniqueid": "w48615500:a66023514", "current_trial": 6, "dateTime": 1693481390494, "trialdata": {"rt": 49971, "response": {"Q0": "The cost for clicking on nodes may vary between nodes.", "Q1": "The better I perform the higher my bonus will be.", "Q2": "No, the amount of cash at each node of the web may be different each time.", "Q3": "To get the highest total score.", "Q4": "Only before moving the spider.", "Q5": "3 seconds"}, "question_order": [0, 1, 2, 3, 4, 5], "correct": {"Q0": "The cost for clicking on nodes may vary between nodes.", "Q1": "The better I perform the higher my bonus will be.", "Q2": "No, the amount of cash at each node of the web may be different each time.", "Q3": "To get the highest total score.", "Q4": "Only before moving the spider.", "Q5": "3 seconds"}, "trial_id": "mouselab_quiz_control", "trial_type": "survey-multi-choice", "trial_index": 6, "time_elapsed": 629861, "internal_node_id": "0.0-2.0-4.0"}}, {"uniqueid": "w48615500:a66023514", "current_trial": 7, "dateTime": 1693481397996, "trialdata": {"rt": 7492, "response": {"Q0": "No"}, "question_order": [0], "trial_id": "repeat_check", "trial_type": "survey-multi-choice", "trial_index": 7, "time_elapsed": 637363, "internal_node_id": "0.0-4.0-0.0"}}, {"uniqueid": "w48615500:a66023514", "current_trial": 8, "dateTime": 1693481412393, "trialdata": {"rt": 14389, "stimulus": "\n<h1> Get ready to start the game! </h1>\n\nThank you for reading the instructions. Get ready start with the 40 rounds of this game.\n<br><br>\nIf you need to take a break, feel free to take one after the end of a round, before continuing to the next one.\n<br><br>\nRemember, the more money the spider gets, the bigger your bonus will be!\n<br><br>\n<div style='text-align: center;'>Press <code>space</code> to begin.</div>\n\n<br><br>\n(If, at any point, the <code>space</code> key does not take you to the next page, click once on the text and try again.)", "response": " ", "trial_id": "mdp_ready", "trial_type": "html-keyboard-response", "trial_index": 8, "time_elapsed": 651760, "internal_node_id": "0.0-6.0-0.0"}}, {"uniqueid": "w48615500:a66023514", "current_trial": 9, "dateTime": 1693481450207, "trialdata": {"revealed_states": [], "clicked_states": ["23", "12", "1", "13", "14", "24"], "num_clicks_accrued": [0, 0, 0, 0, 0, 0, 0, 0, 0, 0, 0, 0, 0], "stateRewards": ["", -2, 3, 3, -14, 62, 36, 49, 16, 11, 17, -84, 2, -1, 6, 2, -82, -73, 49, -6, -87, 48, 50, -1, -2, -1, -16, -11, 37, -44, 4, 55, 73, -10], "withholdReward": false, "trial_id": "mdp_trial_1", "block": "test", "trialIndex": 2, "score": 64.6, "costs": -8.4, "simulationMode": [null, null, null, null, null], "rewards": [-1, -2, -1, 4, 73], "path": ["0", "0", "23", "24", "25", "30", "32"], "rt": [17220, 2209, 2555, 3057, 1054], "actions": ["left", "left", "left", "down", "down"], "actionTimes": [19594, 22321, 25381, 28949, 30545], "queries": {"click": {"state": {"target": ["23", "12", "1", "13", "14", "24"], "time": [4500, 6607, 8881, 11110, 13231, 15425]}, "edge": {"target": [], "time": []}}, "mouseover": {"state": {"target": ["23", "0", "12", "1", "13", "13", "14", "12", "0", "23", "24", "25", "23"], "time": [3416, 5930, 6045, 7431, 10497, 10866, 11608, 13797, 13816, 13861, 14026, 15977, 17558]}, "edge": {"target": [], "time": []}}, "mouseout": {"state": {"target": ["3", "8", "11", "23", "0", "12", "1", "13", "13", "14", "14", "13", "12", "0", "23", "24", "25", "24", "23", "24", "25", "30", "31"], "time": [232, 281, 679, 5910, 5960, 7310, 10327, 10648, 11594, 13348, 13726, 13793, 13813, 13827, 13926, 15926, 17512, 17540, 19029, 26341, 27625, 28391, 28420]}, "edge": {"target": [], "time": []}}}, "displayed_time": "31.06", "trialTime": 37604, "trial_type": "mouselab-mdp", "trial_index": 9, "time_elapsed": 689573, "internal_node_id": "0.0-6.0-1.0-0.0"}}, {"uniqueid": "w48615500:a66023514", "current_trial": 10, "dateTime": 1693481475593, "trialdata": {"revealed_states": [], "clicked_states": ["1", "2", "3", "4", "5"], "num_clicks_accrued": [0, 0, 0, 0, 0, 0, 0, 0, 0, 0, 0, 0, 0], "stateRewards": ["", 1, 4, -8, -13, -13, -87, -77, -10, -44, 54, 42, 2, -3, -4, 12, -9, -80, 52, 9, 84, -2, -65, 1, -4, -5, -6, 8, 80, 32, 13, -59, -5, -13], "withholdReward": false, "trial_id": "mdp_trial_2", "block": "test", "trialIndex": 3, "score": -36, "costs": -7, "simulationMode": [null, null, null, null, null], "rewards": [1, 4, -8, -13, -13], "path": ["0", "0", "1", "2", "3", "4", "5"], "rt": [14574, 687, 358, 659, 330], "actions": ["up", "up", "up", "right", "up"], "actionTimes": [18233, 19462, 20333, 21516, 22374], "queries": {"click": {"state": {"target": ["1", "2", "3", "4", "5"], "time": [5760, 7469, 9310, 11094, 13109]}, "edge": {"target": [], "time": []}}, "mouseover": {"state": {"target": ["1", "1", "2", "3", "4", "5", "7", "0", "1"], "time": [5312, 5562, 6594, 8372, 9723, 11605, 14692, 15088, 16854]}, "edge": {"target": [], "time": []}}, "mouseout": {"state": {"target": ["29", "24", "23", "1", "1", "2", "3", "4", "5", "4", "7", "0", "1", "0", "22"], "time": [2842, 3044, 3157, 5411, 6440, 8157, 9641, 11541, 14656, 14688, 14706, 15138, 17307, 23508, 24508]}, "edge": {"target": [], "time": []}}}, "displayed_time": "22.89", "trialTime": 25164, "trial_type": "mouselab-mdp", "trial_index": 10, "time_elapsed": 714958, "internal_node_id": "0.0-6.0-1.0-1.0"}}, {"uniqueid": "w48615500:a66023514", "current_trial": 11, "dateTime": 1693481502144, "trialdata": {"revealed_states": [], "clicked_states": ["12", "13", "14", "23", "24", "25", "30", "32"], "num_clicks_accrued": [0, 0, 0, 0, 0, 0, 0, 0, 0, 0, 0, 0, 0], "stateRewards": ["", -1, -1, 4, -16, -75, 81, -51, -7, -84, 73, -30, -2, 1, -3, -16, -77, 33, 14, 1, 45, 87, -66, 2, 2, -5, -7, -19, -17, 79, -3, 8, 49, 47], "withholdReward": false, "trial_id": "mdp_trial_3", "block": "test", "trialIndex": 4, "score": 33.8, "costs": -11.200000000000001, "simulationMode": [null, null, null, null, null], "rewards": [2, 2, -5, -3, 49], "path": ["0", "0", "23", "24", "25", "30", "32"], "rt": [18355, 387, 333, 341, 422], "actions": ["left", "left", "left", "down", "down"], "actionTimes": [20181, 21082, 21927, 22784, 23733], "queries": {"click": {"state": {"target": ["12", "13", "14", "23", "24", "25", "30", "32"], "time": [3296, 5446, 7074, 9042, 11127, 13695, 15687, 17857]}, "edge": {"target": [], "time": []}}, "mouseover": {"state": {"target": ["23", "12", "13", "14", "23", "24", "25", "30", "32", "0"], "time": [2663, 2928, 3896, 5977, 8228, 9844, 13222, 15408, 17008, 18974]}, "edge": {"target": [], "time": []}}, "mouseout": {"state": {"target": ["30", "24", "12", "1", "0", "23", "12", "13", "14", "23", "24", "25", "30", "32", "0"], "time": [698, 1013, 1095, 1330, 1595, 2833, 3863, 5945, 7978, 9644, 13157, 15174, 15784, 18707, 19108]}, "edge": {"target": [], "time": []}}}, "displayed_time": "24.24", "trialTime": 26309, "trial_type": "mouselab-mdp", "trial_index": 11, "time_elapsed": 741509, "internal_node_id": "0.0-6.0-1.0-2.0"}}, {"uniqueid": "w48615500:a66023514", "current_trial": 12, "dateTime": 1693481525929, "trialdata": {"revealed_states": [], "clicked_states": ["12", "13", "14", "15", "16"], "num_clicks_accrued": [0, 0, 0, 0, 0, 0, 0, 0, 0, 0, 0, 0, 0], "stateRewards": ["", -1, 1, 6, -6, 70, 66, 67, -16, -75, -35, 37, -1, 4, 4, -6, 47, -9, 63, 15, 21, -63, 13, 1, 3, -6, 10, 79, -29, 18, -15, 9, -67, -19], "withholdReward": false, "trial_id": "mdp_trial_4", "block": "test", "trialIndex": 5, "score": 41, "costs": -7, "simulationMode": [null, null, null, null, null], "rewards": [-1, 4, 4, -6, 47], "path": ["0", "0", "12", "13", "14", "15", "16"], "rt": [13284, 1636, 822, 412, 447], "actions": ["right", "right", "right", "up", "up"], "actionTimes": [15410, 17569, 18898, 19826, 20795], "queries": {"click": {"state": {"target": ["12", "13", "14", "15", "16"], "time": [3785, 5842, 7901, 10061, 12291]}, "edge": {"target": [], "time": []}}, "mouseover": {"state": {"target": ["12", "13", "14", "15", "16"], "time": [3568, 4331, 7762, 9864, 12009]}, "edge": {"target": [], "time": []}}, "mouseout": {"state": {"target": ["1", "1", "0", "12", "13", "13", "14", "15", "16", "15"], "time": [811, 1119, 3336, 4299, 5884, 7463, 7967, 11946, 22156, 22208]}, "edge": {"target": [], "time": []}}}, "displayed_time": "21.31", "trialTime": 23557, "trial_type": "mouselab-mdp", "trial_index": 12, "time_elapsed": 765295, "internal_node_id": "0.0-6.0-1.0-3.0"}}, {"uniqueid": "w48615500:a66023514", "current_trial": 13, "dateTime": 1693481555230, "trialdata": {"revealed_states": [], "clicked_states": ["1", "2", "10", "8", "9"], "num_clicks_accrued": [0, 0, 0, 0, 0, 0, 0, 0, 0, 0, 0, 0, 0], "stateRewards": ["", -1, 1, 8, -3, -24, 11, -65, -6, -77, 48, 44, -2, 1, -2, -7, -55, -35, 33, 8, -28, 19, -53, -1, -1, -5, -5, -70, 10, 44, 8, -58, -70, 51], "withholdReward": false, "trial_id": "mdp_trial_5", "block": "test", "trialIndex": 6, "score": -82, "costs": -7, "simulationMode": [null, null, null, null, null], "rewards": [-1, 1, 8, -6, -77], "path": ["0", "0", "1", "2", "3", "8", "9"], "rt": [15280, 419, 5440, 824, 727], "actions": ["up", "up", "up", "left", "up"], "actionTimes": [17207, 18139, 24098, 25440, 26675], "queries": {"click": {"state": {"target": ["1", "2", "10", "8", "9"], "time": [4465, 6855, 10253, 12372, 14327]}, "edge": {"target": [], "time": []}}, "mouseover": {"state": {"target": ["0", "1", "2", "10", "8", "9"], "time": [3456, 3819, 6552, 9155, 12137, 13916]}, "edge": {"target": [], "time": []}}, "mouseout": {"state": {"target": ["12", "0", "0", "1", "2", "10", "8", "9", "8", "3", "2", "1"], "time": [1290, 2592, 3520, 6441, 8992, 11701, 13767, 21817, 22031, 27931, 27995, 28131]}, "edge": {"target": [], "time": []}}}, "displayed_time": "27.20", "trialTime": 29072, "trial_type": "mouselab-mdp", "trial_index": 13, "time_elapsed": 794596, "internal_node_id": "0.0-6.0-1.0-4.0"}}, {"uniqueid": "w48615500:a66023514", "current_trial": 14, "dateTime": 1693481583636, "trialdata": {"revealed_states": [], "clicked_states": ["23", "24", "25", "26", "27", "30", "32"], "num_clicks_accrued": [0, 0, 0, 0, 0, 0, 0, 0, 0, 0, 0, 0, 0], "stateRewards": ["", 2, 3, 6, -5, -74, -53, 17, -12, 46, 44, 18, -2, 4, 1, -8, 22, -23, -49, 9, -45, 55, 81, 1, -1, -7, -16, -83, -71, -45, 2, 51, 82, 61], "withholdReward": false, "trial_id": "mdp_trial_6", "block": "test", "trialIndex": 7, "score": 67.2, "costs": -9.8, "simulationMode": [null, null, null, null, null], "rewards": [1, -1, -7, 2, 82], "path": ["0", "0", "23", "24", "25", "30", "32"], "rt": [18353, 299, 249, 343, 297], "actions": ["left", "left", "left", "down", "down"], "actionTimes": [21667, 22481, 23246, 24107, 24928], "queries": {"click": {"state": {"target": ["23", "24", "25", "26", "27", "30", "32"], "time": [4257, 6950, 9174, 12002, 14218, 17246, 19637]}, "edge": {"target": [], "time": []}}, "mouseover": {"state": {"target": ["0", "23", "23", "24", "25", "26", "27", "26", "25", "30", "32"], "time": [3838, 3883, 4052, 5991, 8965, 11714, 13929, 16698, 16730, 16831, 19277]}, "edge": {"target": [], "time": []}}, "mouseout": {"state": {"target": ["22", "25", "21", "21", "19", "12", "0", "0", "23", "23", "24", "25", "26", "27", "26", "25", "30", "32"], "time": [586, 635, 2166, 2249, 2380, 2816, 2982, 3866, 3949, 5954, 8869, 11468, 13856, 16684, 16711, 16762, 19232, 20212]}, "edge": {"target": [], "time": []}}}, "displayed_time": "25.45", "trialTime": 28168, "trial_type": "mouselab-mdp", "trial_index": 14, "time_elapsed": 823002, "internal_node_id": "0.0-6.0-1.0-5.0"}}, {"uniqueid": "w48615500:a66023514", "current_trial": 15, "dateTime": 1693481606501, "trialdata": {"revealed_states": [], "clicked_states": ["12", "13", "14", "19", "21"], "num_clicks_accrued": [0, 0, 0, 0, 0, 0, 0, 0, 0, 0, 0, 0, 0], "stateRewards": ["", 2, -2, -3, 10, -4, -1, -11, -8, -9, -36, -78, 2, 1, 7, -7, 44, -1, -31, -1, 26, 47, 83, 2, -4, -4, -6, -52, -76, -81, -1, -59, 45, 67], "withholdReward": false, "trial_id": "mdp_trial_7", "block": "test", "trialIndex": 8, "score": 49, "costs": -7, "simulationMode": [null, null, null, null, null], "rewards": [2, 1, 7, -1, 47], "path": ["0", "0", "12", "13", "14", "19", "21"], "rt": [14868, 737, 346, 271, 304], "actions": ["right", "right", "right", "down", "down"], "actionTimes": [16479, 17736, 18595, 19387, 20202], "queries": {"click": {"state": {"target": ["12", "13", "14", "19", "21"], "time": [4544, 6660, 8890, 11735, 13912]}, "edge": {"target": [], "time": []}}, "mouseover": {"state": {"target": ["12", "13", "14", "19", "21"], "time": [3233, 6449, 8386, 11184, 13678]}, "edge": {"target": [], "time": []}}, "mouseout": {"state": {"target": ["0", "12", "13", "14", "14", "19", "21"], "time": [1366, 6404, 6710, 8937, 11131, 13612, 15495]}, "edge": {"target": [], "time": []}}}, "displayed_time": "20.71", "trialTime": 22658, "trial_type": "mouselab-mdp", "trial_index": 15, "time_elapsed": 845867, "internal_node_id": "0.0-6.0-1.0-6.0"}}, {"uniqueid": "w48615500:a66023514", "current_trial": 16, "dateTime": 1693481626529, "trialdata": {"revealed_states": [], "clicked_states": [], "num_clicks_accrued": [0, 0, 0, 0, 0, 0, 0, 0, 0, 0, 0, 0, 0], "stateRewards": ["", 1, -2, 7, -14, 88, -56, -44, -14, 64, -51, -57, -2, 3, -4, -9, -11, 19, -77, -1, 68, 75, -67, -1, 1, -2, 5, -37, 70, -34, -10, -72, 63, -41], "withholdReward": false, "trial_id": "mdp_trial_8", "block": "test", "trialIndex": 9, "score": -64, "costs": 0, "simulationMode": [null, null, null, null, null], "rewards": [1, -2, 7, -14, -56], "path": ["0", "0", "1", "2", "3", "4", "6"], "rt": [11546, 390, 1302, 185, 319], "actions": ["up", "up", "up", "right", "right"], "actionTimes": [13354, 14251, 16072, 16764, 17598], "queries": {"click": {"state": {"target": [], "time": []}, "edge": {"target": [], "time": []}}, "mouseover": {"state": {"target": ["0", "1", "1", "0", "1", "1", "0"], "time": [3596, 4327, 6164, 6378, 6579, 8098, 12391]}, "edge": {"target": [], "time": []}}, "mouseout": {"state": {"target": ["14", "23", "0", "0", "1", "1", "0", "1", "1", "0", "0"], "time": [695, 947, 1133, 4112, 5998, 6295, 6512, 7178, 9033, 12440, 18829]}, "edge": {"target": [], "time": []}}}, "displayed_time": "18.11", "trialTime": 19809, "trial_type": "mouselab-mdp", "trial_index": 16, "time_elapsed": 865896, "internal_node_id": "0.0-6.0-1.0-7.0"}}, {"uniqueid": "w48615500:a66023514", "current_trial": 17, "dateTime": 1693481648923, "trialdata": {"revealed_states": [], "clicked_states": ["23", "25", "24", "30", "32"], "num_clicks_accrued": [0, 0, 0, 0, 0, 0, 0, 0, 0, 0, 0, 0, 0], "stateRewards": ["", -2, 1, -5, 2, -68, 80, 33, 10, 67, -59, 20, -1, -3, 3, 14, 74, -2, 24, -16, 63, 80, 46, -1, 4, 6, 12, 83, -38, -43, -4, 43, 14, -79], "withholdReward": false, "trial_id": "mdp_trial_9", "block": "test", "trialIndex": 10, "score": 12, "costs": -7, "simulationMode": [null, null, null, null, null], "rewards": [-1, 4, 6, -4, 14], "path": ["0", "0", "23", "24", "25", "30", "32"], "rt": [13510, 272, 204, 195, 139], "actions": ["left", "left", "left", "down", "down"], "actionTimes": [17170, 17964, 18680, 19385, 20050], "queries": {"click": {"state": {"target": ["23", "25", "24", "30", "32"], "time": [5072, 7422, 9121, 12109, 13981]}, "edge": {"target": [], "time": []}}, "mouseover": {"state": {"target": ["0", "23", "24", "25", "24", "31", "31", "30", "32", "0"], "time": [4376, 4558, 5415, 7040, 8123, 9672, 11560, 11855, 13188, 16225]}, "edge": {"target": [], "time": []}}, "mouseout": {"state": {"target": ["0", "7", "0", "23", "24", "25", "24", "31", "31", "30", "32", "0", "0"], "time": [639, 908, 4455, 5375, 6926, 8091, 9623, 9789, 11738, 12789, 14016, 16341, 21610]}, "edge": {"target": [], "time": []}}}, "displayed_time": "20.57", "trialTime": 22168, "trial_type": "mouselab-mdp", "trial_index": 17, "time_elapsed": 888288, "internal_node_id": "0.0-6.0-1.0-8.0"}}, {"uniqueid": "w48615500:a66023514", "current_trial": 18, "dateTime": 1693481695717, "trialdata": {"revealed_states": [], "clicked_states": ["12", "13", "14", "19", "21", "23", "24", "25", "30", "32", "1", "2", "3", "8", "9", "4", "5"], "num_clicks_accrued": [0, 0, 0, 0, 0, 0, 0, 0, 0, 0, 0, 0, 0], "stateRewards": ["", 1, 2, 3, 16, 63, -25, 16, -4, -14, 82, -66, -1, -3, -3, -11, -14, 19, 46, 3, -34, -82, 66, -2, -3, 4, -5, -63, 77, -37, -1, -45, -41, 84], "withholdReward": false, "trial_id": "mdp_trial_10", "block": "test", "trialIndex": 11, "score": 61.2, "costs": -23.799999999999994, "simulationMode": [null, null, null, null, null], "rewards": [1, 2, 3, 16, 63], "path": ["0", "0", "1", "2", "3", "4", "5"], "rt": [38537, 321, 180, 367, 303], "actions": ["up", "up", "up", "right", "up"], "actionTimes": [41214, 42055, 42750, 43639, 44457], "queries": {"click": {"state": {"target": ["12", "13", "14", "19", "21", "23", "24", "25", "30", "32", "1", "2", "3", "8", "9", "4", "5"], "time": [5042, 8084, 9834, 11902, 14172, 16814, 18648, 20328, 21850, 23785, 26380, 28290, 30075, 32026, 33837, 36484, 38525]}, "edge": {"target": [], "time": []}}, "mouseover": {"state": {"target": ["12", "13", "22", "13", "14", "19", "21", "23", "24", "25", "30", "32", "23", "1", "2", "10", "3", "8", "9", "4", "5", "1"], "time": [4210, 5678, 7624, 7759, 8594, 10194, 12710, 16558, 17344, 19158, 20891, 23072, 25937, 26170, 27022, 28755, 29172, 31071, 33052, 36219, 37151, 39532]}, "edge": {"target": [], "time": []}}, "mouseout": {"state": {"target": ["10", "28", "14", "13", "12", "0", "12", "13", "22", "13", "14", "19", "21", "23", "24", "25", "30", "32", "23", "1", "2", "10", "3", "8", "9", "4", "5", "1", "0"], "time": [645, 1811, 2078, 2112, 2145, 4093, 5663, 7616, 7678, 8545, 10162, 12244, 14810, 17293, 19025, 20724, 22491, 24440, 25988, 26822, 28671, 29071, 30886, 32553, 36057, 36527, 39185, 45652, 45750]}, "edge": {"target": [], "time": []}}}, "displayed_time": "44.97", "trialTime": 46560, "trial_type": "mouselab-mdp", "trial_index": 18, "time_elapsed": 935083, "internal_node_id": "0.0-6.0-1.0-9.0"}}, {"uniqueid": "w48615500:a66023514", "current_trial": 19, "dateTime": 1693481715788, "trialdata": {"revealed_states": [], "clicked_states": ["23"], "num_clicks_accrued": [0, 0, 0, 0, 0, 0, 0, 0, 0, 0, 0, 0, 0], "stateRewards": ["", 2, 4, 4, -8, -36, -33, 38, 16, -51, 57, 57, 1, 3, 4, -6, 45, 68, 87, 1, 63, 24, -55, -2, 2, -6, -13, -63, -50, 8, 2, 80, 6, 60], "withholdReward": false, "trial_id": "mdp_trial_11", "block": "test", "trialIndex": 12, "score": -83.4, "costs": -1.4, "simulationMode": [null, null, null, null, null], "rewards": [-2, 2, -6, -13, -63], "path": ["0", "0", "23", "24", "25", "26", "27"], "rt": [10250, 818, 1121, 448, 117], "actions": ["left", "left", "left", "up", "up"], "actionTimes": [11819, 13157, 14792, 15754, 16388], "queries": {"click": {"state": {"target": ["23"], "time": [4388]}, "edge": {"target": [], "time": []}}, "mouseover": {"state": {"target": ["0", "23", "24", "25", "25", "0"], "time": [3171, 4140, 5137, 7370, 10188, 11354]}, "edge": {"target": [], "time": []}}, "mouseout": {"state": {"target": ["0", "23", "24", "25", "25", "0", "0"], "time": [3260, 4908, 7322, 9939, 10804, 17725, 17921]}, "edge": {"target": [], "time": []}}}, "displayed_time": "16.90", "trialTime": 19837, "trial_type": "mouselab-mdp", "trial_index": 19, "time_elapsed": 955153, "internal_node_id": "0.0-6.0-1.0-10.0"}}, {"uniqueid": "w48615500:a66023514", "current_trial": 20, "dateTime": 1693481734546, "trialdata": {"revealed_states": [], "clicked_states": ["12", "13", "14", "15", "17"], "num_clicks_accrued": [0, 0, 0, 0, 0, 0, 0, 0, 0, 0, 0, 0, 0], "stateRewards": ["", 1, 3, -2, 15, 51, 15, -19, 11, 67, -45, -73, 2, 4, -2, -13, 36, 9, -28, 10, -30, 31, 16, 1, 2, -1, -16, 14, -22, 36, -1, 88, -5, 45], "withholdReward": false, "trial_id": "mdp_trial_12", "block": "test", "trialIndex": 13, "score": -7, "costs": -7, "simulationMode": [null, null, null, null, null], "rewards": [2, 4, -2, -13, 9], "path": ["0", "0", "12", "13", "14", "15", "17"], "rt": [11865, 177, 166, 149, 113], "actions": ["right", "right", "right", "up", "right"], "actionTimes": [12878, 13581, 14269, 14932, 15565], "queries": {"click": {"state": {"target": ["12", "13", "14", "15", "17"], "time": [2149, 4139, 5818, 7739, 9902]}, "edge": {"target": [], "time": []}}, "mouseover": {"state": {"target": ["0", "12", "13", "14", "15", "17", "20", "19"], "time": [1592, 1869, 2471, 4470, 6503, 8319, 10338, 11068]}, "edge": {"target": [], "time": []}}, "mouseout": {"state": {"target": ["0", "0", "12", "13", "14", "15", "17", "20", "19", "13", "12", "0"], "time": [655, 1790, 2370, 4418, 6236, 8186, 10217, 10685, 12142, 17298, 17398, 17648]}, "edge": {"target": [], "time": []}}}, "displayed_time": "16.09", "trialTime": 18517, "trial_type": "mouselab-mdp", "trial_index": 20, "time_elapsed": 973911, "internal_node_id": "0.0-6.0-1.0-11.0"}}, {"uniqueid": "w48615500:a66023514", "current_trial": 21, "dateTime": 1693481756768, "trialdata": {"revealed_states": [], "clicked_states": ["12", "14", "19", "21", "13", "15", "16"], "num_clicks_accrued": [0, 0, 0, 0, 0, 0, 0, 0, 0, 0, 0, 0, 0], "stateRewards": ["", -2, 2, 5, -14, -56, 64, 84, -5, 52, 39, 85, -2, 1, 7, 8, 21, 29, -78, -9, -10, -69, 10, -2, -1, -7, 15, 72, 20, 41, -2, 52, 80, 22], "withholdReward": false, "trial_id": "mdp_trial_13", "block": "test", "trialIndex": 14, "score": 25.2, "costs": -9.8, "simulationMode": [null, null, null, null, null], "rewards": [-2, 1, 7, 8, 21], "path": ["0", "0", "12", "13", "14", "15", "16"], "rt": [15920, 230, 169, 217, 144], "actions": ["right", "right", "right", "up", "up"], "actionTimes": [17407, 18153, 18842, 19573, 20234], "queries": {"click": {"state": {"target": ["12", "14", "19", "21", "13", "15", "16"], "time": [3270, 5358, 7736, 9755, 11418, 13441, 15361]}, "edge": {"target": [], "time": []}}, "mouseover": {"state": {"target": ["1", "0", "23", "0", "12", "13", "14", "19", "21", "19", "21", "22", "13", "15", "17", "16"], "time": [1907, 2546, 2607, 2707, 2757, 3690, 5126, 5673, 7338, 7555, 7988, 10489, 10722, 12006, 14154, 15153]}, "edge": {"target": [], "time": []}}, "mouseout": {"state": {"target": ["0", "1", "0", "23", "0", "12", "13", "14", "14", "19", "21", "19", "19", "21", "22", "13", "15", "17"], "time": [1793, 2011, 2574, 2674, 2740, 3314, 4971, 5417, 5624, 7273, 7492, 7804, 7955, 10456, 10606, 11438, 14087, 14969]}, "edge": {"target": [], "time": []}}}, "displayed_time": "20.76", "trialTime": 21984, "trial_type": "mouselab-mdp", "trial_index": 21, "time_elapsed": 996134, "internal_node_id": "0.0-6.0-1.0-12.0"}}, {"uniqueid": "w48615500:a66023514", "current_trial": 22, "dateTime": 1693481776645, "trialdata": {"revealed_states": [], "clicked_states": ["23", "25", "26", "27", "30", "32"], "num_clicks_accrued": [0, 0, 0, 0, 0, 0, 0, 0, 0, 0, 0, 0, 0], "stateRewards": ["", -1, 3, -4, -14, 78, 67, 2, 13, -32, 28, 39, -2, 1, -4, -4, -4, -42, -86, 11, 64, -29, -32, -1, -4, 2, -7, 5, 68, -61, 2, -21, 85, 50], "withholdReward": false, "trial_id": "mdp_trial_14", "block": "test", "trialIndex": 15, "score": 75.6, "costs": -8.4, "simulationMode": [null, null, null, null, null], "rewards": [-1, -4, 2, 2, 85], "path": ["0", "0", "23", "24", "25", "30", "32"], "rt": [13417, 252, 273, 315, 228], "actions": ["left", "left", "left", "down", "down"], "actionTimes": [14926, 15695, 16479, 17305, 18051], "queries": {"click": {"state": {"target": ["23", "25", "26", "27", "30", "32"], "time": [2723, 4994, 7165, 9160, 10679, 12248]}, "edge": {"target": [], "time": []}}, "mouseover": {"state": {"target": ["0", "23", "24", "25", "31", "26", "27", "24", "31", "30", "32"], "time": [2426, 2458, 3208, 4727, 5307, 5692, 7607, 9705, 10007, 10256, 11639]}, "edge": {"target": [], "time": []}}, "mouseout": {"state": {"target": ["3", "2", "1", "1", "0", "23", "24", "25", "25", "31", "26", "27", "24", "31", "30", "32", "32"], "time": [690, 774, 874, 1023, 2445, 3108, 4529, 5051, 5258, 5408, 7424, 9406, 9824, 10090, 11237, 12327, 12636]}, "edge": {"target": [], "time": []}}}, "displayed_time": "18.57", "trialTime": 19619, "trial_type": "mouselab-mdp", "trial_index": 22, "time_elapsed": 1016011, "internal_node_id": "0.0-6.0-1.0-13.0"}}, {"uniqueid": "w48615500:a66023514", "current_trial": 23, "dateTime": 1693481809989, "trialdata": {"revealed_states": [], "clicked_states": ["1", "2", "3", "8", "9", "4", "5", "12", "13", "14", "15", "16"], "num_clicks_accrued": [0, 0, 0, 0, 0, 0, 0, 0, 0, 0, 0, 0, 0], "stateRewards": ["", 1, -2, -3, 14, -42, -87, -37, -11, -50, 33, -44, -2, 4, -7, 13, 48, -75, -66, 12, 23, -2, 82, 1, -4, 3, 12, 51, -15, -26, -11, -52, -29, 82], "withholdReward": false, "trial_id": "mdp_trial_15", "block": "test", "trialIndex": 16, "score": 39.2, "costs": -16.8, "simulationMode": [null, null, null, null, null], "rewards": [-2, 4, -7, 13, 48], "path": ["0", "0", "12", "13", "14", "15", "16"], "rt": [26484, 213, 240, 220, 35], "actions": ["right", "right", "right", "up", "up"], "actionTimes": [28395, 29122, 29882, 30628, 31176], "queries": {"click": {"state": {"target": ["1", "2", "3", "8", "9", "4", "5", "12", "13", "14", "15", "16"], "time": [3340, 6416, 8097, 10144, 11909, 13730, 15616, 18740, 20281, 22323, 24178, 26005]}, "edge": {"target": [], "time": []}}, "mouseover": {"state": {"target": ["1", "2", "3", "2", "3", "8", "9", "4", "5", "7", "1", "0", "23", "0", "12", "13", "14", "19", "15", "16", "14"], "time": [2912, 3928, 5784, 6143, 6679, 8594, 11008, 12394, 14843, 16042, 17991, 18106, 18358, 18424, 18475, 19058, 20623, 22973, 23440, 25337, 27372]}, "edge": {"target": [], "time": []}}, "mouseout": {"state": {"target": ["0", "1", "2", "3", "2", "3", "8", "9", "4", "4", "5", "4", "7", "1", "0", "23", "0", "12", "13", "14", "14", "19", "14", "15", "15", "16", "15", "14", "14", "14", "19"], "time": [1161, 3392, 5446, 6099, 6467, 8429, 10561, 12275, 14193, 14643, 15943, 16009, 17876, 18023, 18122, 18407, 18457, 18768, 20606, 22394, 22591, 23288, 23337, 24973, 25154, 26305, 26338, 26840, 27925, 32558, 32681]}, "edge": {"target": [], "time": []}}}, "displayed_time": "31.69", "trialTime": 33091, "trial_type": "mouselab-mdp", "trial_index": 23, "time_elapsed": 1049354, "internal_node_id": "0.0-6.0-1.0-14.0"}}, {"uniqueid": "w48615500:a66023514", "current_trial": 24, "dateTime": 1693481827625, "trialdata": {"revealed_states": [], "clicked_states": ["1", "2", "4", "7"], "num_clicks_accrued": [0, 0, 0, 0, 0, 0, 0, 0, 0, 0, 0, 0, 0], "stateRewards": ["", -1, -3, 3, 5, 56, 39, 50, -1, -80, 33, -46, 1, -2, -6, -8, 87, 48, 54, -11, -20, -64, -54, -2, 3, -7, -3, 12, 88, 35, -16, -46, -70, -3], "withholdReward": false, "trial_id": "mdp_trial_16", "block": "test", "trialIndex": 17, "score": 48.4, "costs": -5.6, "simulationMode": [null, null, null, null, null], "rewards": [-1, -3, 3, 5, 50], "path": ["0", "0", "1", "2", "3", "4", "7"], "rt": [11308, 290, 141, 285, 257], "actions": ["up", "up", "up", "right", "down"], "actionTimes": [12793, 13601, 14267, 15078, 15849], "queries": {"click": {"state": {"target": ["1", "2", "4", "7"], "time": [2760, 4781, 6794, 9959]}, "edge": {"target": [], "time": []}}, "mouseover": {"state": {"target": ["0", "1", "2", "3", "4", "7", "7", "18", "6"], "time": [2017, 2428, 3276, 5124, 6342, 7341, 9023, 10339, 10606]}, "edge": {"target": [], "time": []}}, "mouseout": {"state": {"target": ["13", "12", "0", "0", "1", "2", "3", "4", "7", "7", "18", "7", "6", "7"], "time": [875, 992, 1158, 2245, 3110, 4840, 6256, 7190, 8473, 10174, 10356, 10522, 12126, 12189]}, "edge": {"target": [], "time": []}}}, "displayed_time": "16.36", "trialTime": 17369, "trial_type": "mouselab-mdp", "trial_index": 24, "time_elapsed": 1066991, "internal_node_id": "0.0-6.0-1.0-15.0"}}, {"uniqueid": "w48615500:a66023514", "current_trial": 25, "dateTime": 1693481848736, "trialdata": {"revealed_states": [], "clicked_states": ["12", "13", "14", "16", "1"], "num_clicks_accrued": [0, 0, 0, 0, 0, 0, 0, 0, 0, 0, 0, 0, 0], "stateRewards": ["", -1, 4, -8, 12, 14, 69, -8, 5, -72, -14, 56, -1, -1, -1, 9, 67, 19, 11, -9, -88, -58, 3, 2, -4, -8, 4, 62, 77, -74, 5, -31, 65, 88], "withholdReward": false, "trial_id": "mdp_trial_17", "block": "test", "trialIndex": 18, "score": 66, "costs": -7, "simulationMode": [null, null, null, null, null], "rewards": [-1, -1, -1, 9, 67], "path": ["0", "0", "12", "13", "14", "15", "16"], "rt": [13398, 311, 274, 221, 724], "actions": ["right", "right", "right", "up", "up"], "actionTimes": [15395, 16222, 17000, 17746, 18982], "queries": {"click": {"state": {"target": ["12", "13", "14", "16", "1"], "time": [4715, 6644, 8610, 11633, 13420]}, "edge": {"target": [], "time": []}}, "mouseover": {"state": {"target": ["0", "23", "0", "12", "13", "14", "15", "17", "15", "16", "15", "1", "12"], "time": [2482, 2840, 4024, 4459, 5207, 6923, 9339, 10840, 11222, 11389, 12006, 13252, 14539]}, "edge": {"target": [], "time": []}}, "mouseout": {"state": {"target": ["27", "10", "2", "0", "23", "0", "12", "13", "14", "14", "14", "15", "17", "15", "16", "15", "1", "1"], "time": [439, 823, 1007, 2531, 3989, 4261, 5042, 6908, 8662, 9007, 9251, 10724, 11172, 11272, 11990, 12056, 13464, 14221]}, "edge": {"target": [], "time": []}}}, "displayed_time": "19.51", "trialTime": 20751, "trial_type": "mouselab-mdp", "trial_index": 25, "time_elapsed": 1088101, "internal_node_id": "0.0-6.0-1.0-16.0"}}, {"uniqueid": "w48615500:a66023514", "current_trial": 26, "dateTime": 1693481879373, "trialdata": {"revealed_states": [], "clicked_states": ["23", "25", "27", "30", "32", "12", "13", "14", "15", "16"], "num_clicks_accrued": [0, 0, 0, 0, 0, 0, 0, 0, 0, 0, 0, 0, 0], "stateRewards": ["", -1, 2, 5, -6, 13, -64, -47, 8, -79, -80, -33, 1, 2, -2, -16, 56, -71, -10, 3, 29, 44, 85, -1, 4, 5, 4, -36, -56, 19, 8, 52, -13, -2], "withholdReward": false, "trial_id": "mdp_trial_18", "block": "test", "trialIndex": 19, "score": 27, "costs": -14.000000000000002, "simulationMode": [null, null, null, null, null], "rewards": [1, 2, -2, -16, 56], "path": ["0", "0", "12", "13", "14", "15", "16"], "rt": [23910, 178, 262, 15, 55], "actions": ["right", "right", "right", "up", "up"], "actionTimes": [25799, 26493, 27275, 27811, 28400], "queries": {"click": {"state": {"target": ["23", "25", "27", "30", "32", "12", "13", "14", "15", "16"], "time": [3743, 5790, 7694, 10612, 12896, 15815, 18073, 19648, 21557, 23357]}, "edge": {"target": [], "time": []}}, "mouseover": {"state": {"target": ["0", "0", "1", "23", "24", "25", "26", "27", "28", "24", "31", "32", "30", "32", "32", "31", "12", "13", "14", "19", "15", "16"], "time": [2568, 2798, 3282, 3483, 4300, 5448, 6265, 7465, 9897, 9947, 9982, 10030, 10265, 11080, 12764, 13497, 15635, 16146, 18512, 20446, 20912, 22381]}, "edge": {"target": [], "time": []}}, "mouseout": {"state": {"target": ["0", "0", "0", "1", "23", "24", "25", "26", "27", "28", "24", "31", "32", "30", "30", "32", "32", "31", "12", "12", "13", "14", "19", "14", "15", "16", "14", "22"], "time": [2344, 2598, 2914, 3400, 4082, 5382, 6115, 7382, 9873, 9930, 9965, 9996, 10216, 10663, 10881, 11748, 12960, 13529, 15869, 16080, 18381, 20379, 20647, 20727, 21620, 23811, 29312, 29341]}, "edge": {"target": [], "time": []}}}, "displayed_time": "28.93", "trialTime": 30371, "trial_type": "mouselab-mdp", "trial_index": 26, "time_elapsed": 1118739, "internal_node_id": "0.0-6.0-1.0-17.0"}}, {"uniqueid": "w48615500:a66023514", "current_trial": 27, "dateTime": 1693481900081, "trialdata": {"revealed_states": [], "clicked_states": ["12", "14", "21", "15", "16"], "num_clicks_accrued": [0, 0, 0, 0, 0, 0, 0, 0, 0, 0, 0, 0, 0], "stateRewards": ["", -2, -3, 4, 1, 33, -53, 15, 9, -12, 61, -6, -2, 4, 6, -11, 47, -43, -7, -11, 46, 23, -28, -1, -1, 3, -10, 11, 76, -76, 10, 18, -38, 87], "withholdReward": false, "trial_id": "mdp_trial_19", "block": "test", "trialIndex": 20, "score": 37, "costs": -7, "simulationMode": [null, null, null, null, null], "rewards": [-2, 4, 6, -11, 47], "path": ["0", "0", "12", "13", "14", "15", "16"], "rt": [12277, 212, 1074, 516, 140], "actions": ["right", "right", "right", "up", "up"], "actionTimes": [14330, 15060, 16653, 17677, 18336], "queries": {"click": {"state": {"target": ["12", "14", "21", "15", "16"], "time": [4526, 6559, 8225, 10189, 11822]}, "edge": {"target": [], "time": []}}, "mouseover": {"state": {"target": ["23", "0", "12", "13", "14", "19", "21", "19", "20", "15", "16", "16", "14", "14", "13"], "time": [3680, 3863, 4116, 4862, 6345, 6863, 7778, 9095, 9245, 9644, 11028, 11694, 12944, 13344, 13778]}, "edge": {"target": [], "time": []}}, "mouseout": {"state": {"target": ["0", "23", "0", "12", "13", "14", "19", "21", "21", "19", "20", "15", "16", "16", "15", "14", "14", "13", "1"], "time": [1665, 3783, 3913, 4829, 6300, 6813, 7629, 8277, 9011, 9143, 9479, 10761, 11526, 12109, 12228, 12976, 13763, 13876, 19357]}, "edge": {"target": [], "time": []}}}, "displayed_time": "18.86", "trialTime": 20453, "trial_type": "mouselab-mdp", "trial_index": 27, "time_elapsed": 1139447, "internal_node_id": "0.0-6.0-1.0-18.0"}}, {"uniqueid": "w48615500:a66023514", "current_trial": 28, "dateTime": 1693481923192, "trialdata": {"revealed_states": [], "clicked_states": ["23", "25", "30", "32", "26", "27"], "num_clicks_accrued": [0, 0, 0, 0, 0, 0, 0, 0, 0, 0, 0, 0, 0], "stateRewards": ["", 1, 3, 1, -13, 52, -28, 67, -14, 3, 63, -70, -1, -4, 7, -11, -10, 47, -18, 6, 69, -9, -61, 2, 3, -6, 10, 63, -34, 40, -6, -79, -35, -32], "withholdReward": false, "trial_id": "mdp_trial_20", "block": "test", "trialIndex": 21, "score": 63.6, "costs": -8.4, "simulationMode": [null, null, null, null, null], "rewards": [2, 3, -6, 10, 63], "path": ["0", "0", "23", "24", "25", "26", "27"], "rt": [15174, 259, 283, 329, 74], "actions": ["left", "left", "left", "up", "up"], "actionTimes": [18236, 19022, 19827, 20674, 21264], "queries": {"click": {"state": {"target": ["23", "25", "30", "32", "26", "27"], "time": [4920, 7028, 9267, 11540, 13462, 15567]}, "edge": {"target": [], "time": []}}, "mouseover": {"state": {"target": ["0", "23", "24", "25", "30", "30", "32", "26", "26", "27", "24"], "time": [3895, 4666, 5244, 6909, 7865, 9142, 9541, 12241, 12575, 13975, 17291]}, "edge": {"target": [], "time": []}}, "mouseout": {"state": {"target": ["23", "32", "25", "24", "23", "0", "12", "0", "0", "23", "24", "25", "30", "30", "32", "32", "26", "26", "27", "24"], "time": [599, 1480, 1828, 2112, 2144, 2160, 2346, 2762, 3999, 5144, 6710, 7492, 8859, 9460, 11620, 11875, 12259, 13841, 16224, 17340]}, "edge": {"target": [], "time": []}}}, "displayed_time": "21.78", "trialTime": 22854, "trial_type": "mouselab-mdp", "trial_index": 28, "time_elapsed": 1162559, "internal_node_id": "0.0-6.0-1.0-19.0"}}, {"uniqueid": "w48615500:a66023514", "current_trial": 29, "dateTime": 1693481941628, "trialdata": {"revealed_states": [], "clicked_states": ["1", "3", "4", "5"], "num_clicks_accrued": [0, 0, 0, 0, 0, 0, 0, 0, 0, 0, 0, 0, 0], "stateRewards": ["", -2, 3, -1, -9, 44, 48, -37, -3, 71, -39, 87, -1, 3, -4, 4, -21, 59, -15, -8, -1, 28, -38, 2, 4, 4, 8, -85, -72, -63, 14, 58, 63, -46], "withholdReward": false, "trial_id": "mdp_trial_21", "block": "test", "trialIndex": 22, "score": 29.4, "costs": -5.6, "simulationMode": [null, null, null, null, null], "rewards": [-2, 3, -1, -9, 44], "path": ["0", "0", "1", "2", "3", "4", "5"], "rt": [11365, 208, 141, 318, 236], "actions": ["up", "up", "up", "right", "up"], "actionTimes": [13369, 14079, 14742, 15553, 16288], "queries": {"click": {"state": {"target": ["1", "3", "4", "5"], "time": [4120, 6363, 8112, 10453]}, "edge": {"target": [], "time": []}}, "mouseover": {"state": {"target": ["0", "12", "1", "2", "3", "4", "5", "7", "7"], "time": [2840, 3472, 3902, 4486, 5950, 6950, 8416, 11465, 12598]}, "edge": {"target": [], "time": []}}, "mouseout": {"state": {"target": ["0", "12", "1", "2", "3", "4", "5", "4", "7"], "time": [3322, 3756, 4184, 5884, 6850, 8335, 11215, 11399, 11482]}, "edge": {"target": [], "time": []}}}, "displayed_time": "16.80", "trialTime": 18170, "trial_type": "mouselab-mdp", "trial_index": 29, "time_elapsed": 1180994, "internal_node_id": "0.0-6.0-1.0-20.0"}}, {"uniqueid": "w48615500:a66023514", "current_trial": 30, "dateTime": 1693481959860, "trialdata": {"revealed_states": [], "clicked_states": ["12", "14", "19", "21"], "num_clicks_accrued": [0, 0, 0, 0, 0, 0, 0, 0, 0, 0, 0, 0, 0], "stateRewards": ["", 1, 1, 4, 11, 83, -66, 18, -16, -23, 5, 25, 1, -3, 1, -12, 18, 24, -86, -11, -64, 36, 40, 2, 1, -6, 13, 55, 29, 72, -2, 81, -72, -41], "withholdReward": false, "trial_id": "mdp_trial_22", "block": "test", "trialIndex": 23, "score": 18.4, "costs": -5.6, "simulationMode": [null, null, null, null, null], "rewards": [1, -3, 1, -11, 36], "path": ["0", "0", "12", "13", "14", "19", "21"], "rt": [11425, 167, 128, 304, 137], "actions": ["right", "right", "right", "down", "down"], "actionTimes": [13807, 14480, 15123, 15949, 16581], "queries": {"click": {"state": {"target": ["12", "14", "19", "21"], "time": [3893, 5799, 7816, 11677]}, "edge": {"target": [], "time": []}}, "mouseover": {"state": {"target": ["12", "12", "13", "14", "13", "14", "19", "21", "21"], "time": [3330, 3643, 4176, 4725, 5109, 5578, 6308, 8330, 9978]}, "edge": {"target": [], "time": []}}, "mouseout": {"state": {"target": ["7", "7", "1", "12", "12", "13", "14", "13", "14", "19", "19", "21", "21"], "time": [796, 1645, 1743, 3427, 3954, 4630, 4845, 5548, 6076, 8075, 8326, 9725, 12775]}, "edge": {"target": [], "time": []}}}, "displayed_time": "17.09", "trialTime": 17970, "trial_type": "mouselab-mdp", "trial_index": 30, "time_elapsed": 1199227, "internal_node_id": "0.0-6.0-1.0-21.0"}}, {"uniqueid": "w48615500:a66023514", "current_trial": 31, "dateTime": 1693481979393, "trialdata": {"revealed_states": [], "clicked_states": ["1", "3", "9", "23"], "num_clicks_accrued": [0, 0, 0, 0, 0, 0, 0, 0, 0, 0, 0, 0, 0], "stateRewards": ["", -1, 2, -2, 13, -56, -28, 10, 14, 53, -80, -29, 1, -3, -3, -14, 14, 9, -40, -9, 18, 18, 48, 1, 1, 1, -9, 64, -39, -9, 7, -52, -78, 7], "withholdReward": false, "trial_id": "mdp_trial_23", "block": "test", "trialIndex": 24, "score": 60.4, "costs": -5.6, "simulationMode": [null, null, null, null, null], "rewards": [-1, 2, -2, 14, 53], "path": ["0", "0", "1", "2", "3", "8", "9"], "rt": [12638, 205, 145, 259, 266], "actions": ["up", "up", "up", "left", "up"], "actionTimes": [13924, 14629, 15283, 16063, 16837], "queries": {"click": {"state": {"target": ["1", "3", "9", "23"], "time": [3704, 5351, 9095, 11009]}, "edge": {"target": [], "time": []}}, "mouseover": {"state": {"target": ["1", "1", "23", "1", "2", "3", "8", "9", "8", "24", "31", "24", "23", "23", "24", "1", "1", "1"], "time": [1694, 2292, 2805, 3322, 4204, 5205, 5738, 6386, 9552, 9769, 10004, 10319, 10584, 10835, 11320, 11868, 12203, 12467]}, "edge": {"target": [], "time": []}}, "mouseout": {"state": {"target": ["1", "1", "23", "1", "2", "3", "8", "9", "8", "24", "31", "24", "23", "23", "24", "1", "1", "1", "1"], "time": [1877, 2594, 3237, 3956, 5122, 5688, 6353, 9522, 9568, 9920, 10203, 10569, 10618, 11084, 11819, 12005, 12267, 13489, 18553]}, "edge": {"target": [], "time": []}}}, "displayed_time": "17.35", "trialTime": 19233, "trial_type": "mouselab-mdp", "trial_index": 31, "time_elapsed": 1218758, "internal_node_id": "0.0-6.0-1.0-22.0"}}, {"uniqueid": "w48615500:a66023514", "current_trial": 32, "dateTime": 1693482000133, "trialdata": {"revealed_states": [], "clicked_states": ["23", "24", "30"], "num_clicks_accrued": [0, 0, 0, 0, 0, 0, 0, 0, 0, 0, 0, 0, 0], "stateRewards": ["", -2, -4, -2, 10, -8, -15, -47, 7, -84, 53, 5, -1, 2, -7, 3, 83, 31, 47, -1, 30, -8, 69, 2, -4, -1, 8, -7, 12, -8, -8, -13, 30, -84], "withholdReward": false, "trial_id": "mdp_trial_24", "block": "test", "trialIndex": 25, "score": 14.8, "costs": -4.199999999999999, "simulationMode": [null, null, null, null, null], "rewards": [2, -4, -1, -8, 30], "path": ["0", "0", "23", "24", "25", "30", "32"], "rt": [13848, 610, 172, 304, 143], "actions": ["left", "left", "left", "down", "down"], "actionTimes": [15470, 16586, 17263, 18062, 18701], "queries": {"click": {"state": {"target": ["23", "24", "30"], "time": [3742, 5599, 7900]}, "edge": {"target": [], "time": []}}, "mouseover": {"state": {"target": ["0", "23", "24", "24", "25", "25", "30", "32", "25", "25", "25", "25", "32", "0"], "time": [3310, 3625, 4040, 5443, 5975, 6741, 7801, 8276, 10156, 10387, 10905, 11855, 12137, 14090]}, "edge": {"target": [], "time": []}}, "mouseout": {"state": {"target": ["1", "13", "12", "0", "0", "23", "24", "24", "24", "25", "25", "30", "30", "32", "30", "25", "25", "30", "30", "25", "25", "30", "32"], "time": [579, 755, 974, 1327, 3459, 4023, 5258, 5682, 5890, 6577, 7593, 7916, 8176, 10039, 10106, 10272, 10422, 10487, 10688, 11561, 11909, 12039, 13205]}, "edge": {"target": [], "time": []}}}, "displayed_time": "19.23", "trialTime": 20467, "trial_type": "mouselab-mdp", "trial_index": 32, "time_elapsed": 1239499, "internal_node_id": "0.0-6.0-1.0-23.0"}}, {"uniqueid": "w48615500:a66023514", "current_trial": 33, "dateTime": 1693482031717, "trialdata": {"revealed_states": [], "clicked_states": ["12", "13", "14", "16", "1", "3", "4", "5", "8", "9"], "num_clicks_accrued": [0, 0, 0, 0, 0, 0, 0, 0, 0, 0, 0, 0, 0], "stateRewards": ["", -1, -3, 4, -10, -5, 79, -87, -2, 53, 29, -20, -2, -1, -5, 10, 27, 86, 46, -16, -29, 40, 3, 2, 4, -1, -6, 37, 79, -29, 7, 86, -62, 29], "withholdReward": false, "trial_id": "mdp_trial_25", "block": "test", "trialIndex": 26, "score": 37, "costs": -14.000000000000002, "simulationMode": [null, null, null, null, null], "rewards": [-1, -3, 4, -2, 53], "path": ["0", "0", "1", "2", "3", "8", "9"], "rt": [25015, 48, 68, 181, 170], "actions": ["up", "up", "up", "left", "up"], "actionTimes": [26265, 26830, 27428, 28128, 28802], "queries": {"click": {"state": {"target": ["12", "13", "14", "16", "1", "3", "4", "5", "8", "9"], "time": [2512, 4590, 6543, 8549, 12261, 14223, 16043, 18906, 21668, 23655]}, "edge": {"target": [], "time": []}}, "mouseover": {"state": {"target": ["12", "13", "13", "14", "15", "16", "15", "2", "1", "1", "1", "2", "3", "4", "5", "7", "2", "8", "9"], "time": [2169, 3019, 4370, 4835, 6834, 7868, 9251, 10017, 10116, 11571, 11903, 12648, 14014, 14531, 16598, 19598, 20646, 20712, 22095]}, "edge": {"target": [], "time": []}}, "mouseout": {"state": {"target": ["1", "1", "12", "13", "13", "14", "15", "16", "16", "15", "2", "1", "1", "1", "2", "3", "4", "5", "7", "2", "8", "9", "2"], "time": [655, 804, 2938, 4256, 4820, 6699, 7752, 8630, 9232, 9298, 10033, 10950, 11648, 12566, 13944, 14498, 16101, 19278, 19730, 20661, 22014, 24312, 30175]}, "edge": {"target": [], "time": []}}}, "displayed_time": "29.30", "trialTime": 31204, "trial_type": "mouselab-mdp", "trial_index": 33, "time_elapsed": 1271084, "internal_node_id": "0.0-6.0-1.0-24.0"}}, {"uniqueid": "w48615500:a66023514", "current_trial": 34, "dateTime": 1693482055414, "trialdata": {"revealed_states": [], "clicked_states": [], "num_clicks_accrued": [0, 0, 0, 0, 0, 0, 0, 0, 0, 0, 0, 0, 0], "stateRewards": ["", 2, -4, 7, 3, 23, -42, 4, 7, -81, -33, 7, -2, -4, 5, -1, 50, -57, -14, -13, -14, 44, 55, -2, -2, 5, -2, 33, 1, 57, -13, -7, 58, 87], "withholdReward": false, "trial_id": "mdp_trial_26", "block": "test", "trialIndex": 27, "score": -28, "costs": 0, "simulationMode": [null, null, null, null, null], "rewards": [-2, -4, 5, -13, -14], "path": ["0", "0", "12", "13", "14", "19", "20"], "rt": [16133, 234, 924, 188, 341], "actions": ["right", "right", "right", "down", "right"], "actionTimes": [17572, 18303, 19743, 20439, 21274], "queries": {"click": {"state": {"target": [], "time": []}, "edge": {"target": [], "time": []}}, "mouseover": {"state": {"target": ["0", "23", "25", "24", "23", "23", "0", "23", "24", "25", "26", "27", "25", "25", "26", "23", "24", "23", "23", "24"], "time": [3769, 3819, 4019, 4069, 4104, 4236, 4535, 4701, 5469, 6351, 6968, 7501, 10487, 10757, 12050, 12547, 13849, 14296, 14938, 15615]}, "edge": {"target": [], "time": []}}, "mouseout": {"state": {"target": ["0", "0", "23", "25", "24", "23", "23", "0", "23", "24", "25", "26", "27", "25", "25", "26", "23", "24", "23", "23", "24", "23", "24", "25", "25"], "time": [819, 3784, 3852, 4051, 4084, 4117, 4501, 4668, 5369, 6285, 6884, 7435, 10085, 10516, 11988, 12402, 13732, 14272, 14318, 15570, 16569, 22532, 22580, 22611, 22884]}, "edge": {"target": [], "time": []}}}, "displayed_time": "21.77", "trialTime": 23427, "trial_type": "mouselab-mdp", "trial_index": 34, "time_elapsed": 1294780, "internal_node_id": "0.0-6.0-1.0-25.0"}}, {"uniqueid": "w48615500:a66023514", "current_trial": 35, "dateTime": 1693482071770, "trialdata": {"revealed_states": [], "clicked_states": ["23", "30", "33"], "num_clicks_accrued": [0, 0, 0, 0, 0, 0, 0, 0, 0, 0, 0, 0, 0], "stateRewards": ["", -1, 3, -5, -2, -13, -9, -34, -7, -81, 32, 35, -2, -2, 1, -14, -32, 81, 7, 4, 82, 56, -8, -1, 3, -8, 6, -24, -24, -53, 2, 38, 61, 54], "withholdReward": false, "trial_id": "mdp_trial_27", "block": "test", "trialIndex": 28, "score": 45.8, "costs": -4.199999999999999, "simulationMode": [null, null, null, null, null], "rewards": [-1, 3, -8, 2, 54], "path": ["0", "0", "23", "24", "25", "30", "33"], "rt": [8003, 198, 185, 241, 191], "actions": ["left", "left", "left", "down", "left"], "actionTimes": [9182, 9883, 10572, 11310, 12011], "queries": {"click": {"state": {"target": ["23", "30", "33"], "time": [2291, 4342, 6305]}, "edge": {"target": [], "time": []}}, "mouseover": {"state": {"target": ["23", "24", "25", "30", "32", "33", "31", "31", "23"], "time": [1970, 2751, 3384, 4170, 4700, 5884, 7050, 7418, 8701]}, "edge": {"target": [], "time": []}}, "mouseout": {"state": {"target": ["24", "0", "23", "24", "25", "30", "32", "33", "30", "31", "31", "23"], "time": [428, 818, 2685, 3268, 4101, 4634, 5770, 6985, 7033, 7067, 8555, 13864]}, "edge": {"target": [], "time": []}}}, "displayed_time": "15.18", "trialTime": 16073, "trial_type": "mouselab-mdp", "trial_index": 35, "time_elapsed": 1311135, "internal_node_id": "0.0-6.0-1.0-26.0"}}, {"uniqueid": "w48615500:a66023514", "current_trial": 36, "dateTime": 1693482092076, "trialdata": {"revealed_states": [], "clicked_states": [], "num_clicks_accrued": [0, 0, 0, 0, 0, 0, 0, 0, 0, 0, 0, 0, 0], "stateRewards": ["", -1, 3, -7, 16, -32, -74, -48, 2, 10, 15, -30, 1, 1, -2, 10, 12, -83, 67, 13, -66, 47, 65, -2, 4, 2, -14, -8, -57, 24, 9, 65, 12, 46], "withholdReward": false, "trial_id": "mdp_trial_28", "block": "test", "trialIndex": 29, "score": 12, "costs": 0, "simulationMode": [null, null, null, null, null], "rewards": [-1, 3, -7, 2, 15], "path": ["0", "0", "1", "2", "3", "8", "10"], "rt": [13600, 219, 350, 282, 322], "actions": ["up", "up", "up", "left", "down"], "actionTimes": [14787, 15500, 16351, 17131, 17952], "queries": {"click": {"state": {"target": [], "time": []}, "edge": {"target": [], "time": []}}, "mouseover": {"state": {"target": ["0", "0", "1", "2", "3", "8", "9", "8", "2", "1", "0", "0", "1"], "time": [3459, 3904, 4337, 6083, 8916, 9715, 10215, 12130, 12213, 12315, 13003, 13213, 13348]}, "edge": {"target": [], "time": []}}, "mouseout": {"state": {"target": ["0", "0", "0", "1", "2", "3", "8", "9", "8", "2", "1", "0", "0", "1"], "time": [832, 3605, 4086, 6050, 8819, 9632, 10153, 12065, 12165, 12263, 12365, 13153, 13229, 19412]}, "edge": {"target": [], "time": []}}}, "displayed_time": "18.45", "trialTime": 20002, "trial_type": "mouselab-mdp", "trial_index": 36, "time_elapsed": 1331442, "internal_node_id": "0.0-6.0-1.0-27.0"}}, {"uniqueid": "w48615500:a66023514", "current_trial": 37, "dateTime": 1693482114448, "trialdata": {"revealed_states": [], "clicked_states": ["12", "15", "19", "21", "20", "22"], "num_clicks_accrued": [0, 0, 0, 0, 0, 0, 0, 0, 0, 0, 0, 0, 0], "stateRewards": ["", 1, 1, -5, 8, -6, 45, 16, -6, -7, -22, -38, -1, -4, 8, -11, -16, 21, -45, -15, -59, -32, 42, -1, 3, 6, 11, -7, 34, -27, -8, 85, 43, -9], "withholdReward": false, "trial_id": "mdp_trial_29", "block": "test", "trialIndex": 30, "score": 21.6, "costs": -8.4, "simulationMode": [null, null, null, null, null], "rewards": [-1, -4, 8, -15, 42], "path": ["0", "0", "12", "13", "14", "19", "22"], "rt": [14822, 201, 182, 212, 137], "actions": ["right", "right", "right", "down", "left"], "actionTimes": [17205, 17929, 18608, 19324, 19978], "queries": {"click": {"state": {"target": ["12", "15", "19", "21", "20", "22"], "time": [4251, 6137, 8892, 10572, 12831, 14661]}, "edge": {"target": [], "time": []}}, "mouseover": {"state": {"target": ["12", "13", "14", "15", "17", "14", "19", "21", "20", "22", "13"], "time": [4080, 4494, 5079, 5861, 6410, 7177, 7227, 9476, 11161, 13476, 15476]}, "edge": {"target": [], "time": []}}, "mouseout": {"state": {"target": ["0", "1", "12", "13", "14", "15", "17", "14", "19", "19", "21", "21", "20", "20", "22", "13", "12", "0"], "time": [800, 1915, 4478, 5029, 5710, 6294, 7100, 7212, 8949, 9351, 10641, 11074, 12901, 13077, 15209, 21259, 21289, 21305]}, "edge": {"target": [], "time": []}}}, "displayed_time": "20.48", "trialTime": 22092, "trial_type": "mouselab-mdp", "trial_index": 37, "time_elapsed": 1353814, "internal_node_id": "0.0-6.0-1.0-28.0"}}, {"uniqueid": "w48615500:a66023514", "current_trial": 38, "dateTime": 1693482134637, "trialdata": {"revealed_states": [], "clicked_states": ["23", "30", "32", "33"], "num_clicks_accrued": [0, 0, 0, 0, 0, 0, 0, 0, 0, 0, 0, 0, 0], "stateRewards": ["", 2, 4, -6, -13, -75, -81, 30, 7, 5, 59, -65, -1, -1, 7, 14, -38, 36, -41, 1, -54, -5, 64, 2, -1, 5, 6, -19, 79, 11, 16, -33, -50, 58], "withholdReward": false, "trial_id": "mdp_trial_30", "block": "test", "trialIndex": 31, "score": 74.4, "costs": -5.6, "simulationMode": [null, null, null, null, null], "rewards": [2, -1, 5, 16, 58], "path": ["0", "0", "23", "24", "25", "30", "33"], "rt": [12802, 120, 137, 165, 59], "actions": ["left", "left", "left", "down", "left"], "actionTimes": [14434, 15074, 15725, 16400, 16962], "queries": {"click": {"state": {"target": ["23", "30", "32", "33"], "time": [2966, 4659, 8219, 11907]}, "edge": {"target": [], "time": []}}, "mouseover": {"state": {"target": ["0", "23", "24", "25", "30", "31", "32", "31", "30", "33"], "time": [2307, 2719, 3352, 4052, 4535, 5219, 5802, 11520, 11536, 11735]}, "edge": {"target": [], "time": []}}, "mouseout": {"state": {"target": ["1", "0", "23", "24", "25", "30", "30", "31", "32", "31", "30", "33"], "time": [954, 2352, 3218, 3987, 4490, 4727, 4969, 5668, 8282, 11533, 11566, 18867]}, "edge": {"target": [], "time": []}}}, "displayed_time": "17.49", "trialTime": 19895, "trial_type": "mouselab-mdp", "trial_index": 38, "time_elapsed": 1374003, "internal_node_id": "0.0-6.0-1.0-29.0"}}, {"uniqueid": "w48615500:a66023514", "current_trial": 39, "dateTime": 1693482155306, "trialdata": {"revealed_states": [], "clicked_states": ["1", "4", "6", "5", "7"], "num_clicks_accrued": [0, 0, 0, 0, 0, 0, 0, 0, 0, 0, 0, 0, 0], "stateRewards": ["", -1, -2, 4, 9, 10, -75, 39, 16, -43, 88, -19, -1, 1, 2, 4, -31, 10, 73, 12, 41, -64, -81, -2, 2, -6, 1, -81, -1, -26, 3, -59, -3, -20], "withholdReward": false, "trial_id": "mdp_trial_31", "block": "test", "trialIndex": 32, "score": 42, "costs": -7, "simulationMode": [null, null, null, null, null], "rewards": [-1, -2, 4, 9, 39], "path": ["0", "0", "1", "2", "3", "4", "7"], "rt": [13985, 156, 67, 232, 192], "actions": ["up", "up", "up", "right", "down"], "actionTimes": [15573, 16228, 16805, 17557, 18249], "queries": {"click": {"state": {"target": ["1", "4", "6", "5", "7"], "time": [3630, 5280, 7062, 11407, 13604]}, "edge": {"target": [], "time": []}}, "mouseover": {"state": {"target": ["0", "1", "12", "1", "2", "3", "4", "7", "6", "5", "4", "7"], "time": [2331, 2609, 3148, 3375, 3876, 4458, 5076, 5694, 6541, 7957, 11772, 11904]}, "edge": {"target": [], "time": []}}, "mouseout": {"state": {"target": ["33", "30", "31", "0", "0", "1", "12", "1", "2", "3", "4", "7", "6", "4", "5", "4", "7", "7"], "time": [557, 656, 673, 1109, 2464, 2914, 3259, 3671, 4380, 4909, 5576, 6475, 7592, 7873, 11689, 11840, 19414, 19585]}, "edge": {"target": [], "time": []}}}, "displayed_time": "18.77", "trialTime": 20378, "trial_type": "mouselab-mdp", "trial_index": 39, "time_elapsed": 1394672, "internal_node_id": "0.0-6.0-1.0-30.0"}}, {"uniqueid": "w48615500:a66023514", "current_trial": 40, "dateTime": 1693482172171, "trialdata": {"revealed_states": [], "clicked_states": ["12", "21", "20"], "num_clicks_accrued": [0, 0, 0, 0, 0, 0, 0, 0, 0, 0, 0, 0, 0], "stateRewards": ["", 2, 3, 3, 10, 19, -21, 6, 9, 54, 68, 16, 2, 2, -6, -8, 40, -2, -75, -2, -42, 55, 59, -1, 2, 4, -14, 11, -34, -30, -6, 61, -53, 13], "withholdReward": false, "trial_id": "mdp_trial_32", "block": "test", "trialIndex": 33, "score": 46.8, "costs": -4.199999999999999, "simulationMode": [null, null, null, null, null, null], "rewards": [2, 2, -6, -2, 55], "path": ["0", "0", "12", "13", "14", "19", "21"], "rt": [6696, 2657, 239, 272, 191, 231], "actions": ["right", "right", "right", "right", "down", "down"], "actionTimes": [8076, 10737, 11480, 12262, 12950, 13687], "queries": {"click": {"state": {"target": ["12", "21", "20"], "time": [2888, 5240, 6919]}, "edge": {"target": [], "time": []}}, "mouseover": {"state": {"target": ["0", "12", "12", "13", "14", "22", "21", "20", "19", "14", "12"], "time": [1890, 2422, 2692, 3122, 3707, 4190, 4739, 5704, 7420, 9393, 9704]}, "edge": {"target": [], "time": []}}, "mouseout": {"state": {"target": ["0", "0", "12", "12", "13", "14", "22", "21", "20", "20", "19", "14", "12"], "time": [1022, 2395, 2489, 3055, 3565, 4072, 4588, 5301, 6978, 7409, 7487, 9643, 10021]}, "edge": {"target": [], "time": []}}}, "displayed_time": "15.38", "trialTime": 16465, "trial_type": "mouselab-mdp", "trial_index": 40, "time_elapsed": 1411538, "internal_node_id": "0.0-6.0-1.0-31.0"}}, {"uniqueid": "w48615500:a66023514", "current_trial": 41, "dateTime": 1693482191873, "trialdata": {"revealed_states": [], "clicked_states": ["5", "6", "7", "10"], "num_clicks_accrued": [0, 0, 0, 0, 0, 0, 0, 0, 0, 0, 0, 0, 0], "stateRewards": ["", 2, 4, 4, 9, -88, -10, 44, 16, -54, 64, 78, 1, 2, 5, 16, 80, 36, 7, -4, 9, -47, -70, -1, -3, 6, -16, 11, 80, 28, 8, -1, 34, -17], "withholdReward": false, "trial_id": "mdp_trial_33", "block": "test", "trialIndex": 34, "score": 84.4, "costs": -5.6, "simulationMode": [null, null, null, null, null], "rewards": [2, 4, 4, 16, 64], "path": ["0", "0", "1", "2", "3", "8", "10"], "rt": [12653, 322, 116, 215, 164], "actions": ["up", "up", "up", "left", "down"], "actionTimes": [14125, 14959, 15586, 16317, 16981], "queries": {"click": {"state": {"target": ["5", "6", "7", "10"], "time": [3840, 6455, 8424, 11241]}, "edge": {"target": [], "time": []}}, "mouseover": {"state": {"target": ["12", "1", "1", "2", "2", "4", "5", "4", "6", "7", "6", "7", "1", "10", "11"], "time": [2070, 2501, 2719, 2934, 3323, 3451, 3568, 4434, 4619, 5964, 6183, 6750, 8950, 9048, 12000]}, "edge": {"target": [], "time": []}}, "mouseout": {"state": {"target": ["24", "25", "12", "1", "1", "2", "2", "4", "5", "4", "6", "7", "6", "7", "1", "10", "11", "10", "10", "23"], "time": [599, 849, 2101, 2584, 2867, 3123, 3357, 3485, 4250, 4537, 5867, 6092, 6649, 8717, 8983, 11765, 13432, 13586, 18411, 18696]}, "edge": {"target": [], "time": []}}}, "displayed_time": "17.48", "trialTime": 19416, "trial_type": "mouselab-mdp", "trial_index": 41, "time_elapsed": 1431239, "internal_node_id": "0.0-6.0-1.0-32.0"}}, {"uniqueid": "w48615500:a66023514", "current_trial": 42, "dateTime": 1693482216073, "trialdata": {"revealed_states": [], "clicked_states": ["28", "27", "29", "25", "31", "32", "33"], "num_clicks_accrued": [0, 0, 0, 0, 0, 0, 0, 0, 0, 0, 0, 0, 0], "stateRewards": ["", 2, -3, 5, -14, -63, -9, -24, -11, -54, -43, 68, 2, -2, -4, 7, -64, 30, 47, 12, -74, 11, 86, 1, -3, 3, 10, -71, -42, -52, -1, -29, -16, 69], "withholdReward": false, "trial_id": "mdp_trial_34", "block": "test", "trialIndex": 35, "score": 59.2, "costs": -9.8, "simulationMode": [null, null, null, null, null], "rewards": [1, -3, 3, -1, 69], "path": ["0", "0", "23", "24", "25", "30", "33"], "rt": [16605, 103, 242, 211, 185], "actions": ["left", "left", "left", "down", "left"], "actionTimes": [17841, 18447, 19199, 19914, 20593], "queries": {"click": {"state": {"target": ["28", "27", "29", "25", "31", "32", "33"], "time": [2602, 4671, 6810, 8653, 11440, 13316, 15176]}, "edge": {"target": [], "time": []}}, "mouseover": {"state": {"target": ["24", "28", "27", "29", "25", "24", "31", "31", "32", "33", "30", "22", "21"], "time": [2192, 2363, 2991, 5175, 7192, 10856, 10956, 11227, 12072, 13990, 15660, 16189, 16692]}, "edge": {"target": [], "time": []}}, "mouseout": {"state": {"target": ["23", "0", "0", "24", "28", "27", "29", "25", "24", "31", "31", "32", "33", "30", "31", "22", "21"], "time": [592, 675, 878, 2273, 2891, 4942, 7106, 10777, 10890, 10973, 11939, 13906, 15639, 15673, 15703, 16405, 17136]}, "edge": {"target": [], "time": []}}}, "displayed_time": "21.09", "trialTime": 23897, "trial_type": "mouselab-mdp", "trial_index": 42, "time_elapsed": 1455438, "internal_node_id": "0.0-6.0-1.0-33.0"}}, {"uniqueid": "w48615500:a66023514", "current_trial": 43, "dateTime": 1693482238057, "trialdata": {"revealed_states": [], "clicked_states": ["21", "20", "22", "17", "16", "18"], "num_clicks_accrued": [0, 0, 0, 0, 0, 0, 0, 0, 0, 0, 0, 0, 0], "stateRewards": ["", 1, -2, -8, -3, 31, -84, -55, -14, 15, -58, 17, -2, -3, 7, 7, -12, 48, 67, 4, -44, -68, 46, 2, 3, -5, -7, 76, 27, 5, 11, 57, 52, 59], "withholdReward": false, "trial_id": "mdp_trial_35", "block": "test", "trialIndex": 36, "score": 67.6, "costs": -8.4, "simulationMode": [null, null, null, null, null], "rewards": [-2, -3, 7, 7, 67], "path": ["0", "0", "12", "13", "14", "15", "18"], "rt": [14654, 116, 165, 81, 166], "actions": ["right", "right", "right", "up", "left"], "actionTimes": [16834, 17460, 18143, 18743, 19425], "queries": {"click": {"state": {"target": ["21", "20", "22", "17", "16", "18"], "time": [4419, 6140, 8105, 10275, 12458, 14296]}, "edge": {"target": [], "time": []}}, "mouseover": {"state": {"target": ["12", "13", "19", "21", "20", "20", "19", "22", "17", "16", "18", "14"], "time": [3962, 4010, 4095, 4261, 4810, 5412, 6445, 6528, 8659, 10626, 13075, 15123]}, "edge": {"target": [], "time": []}}, "mouseout": {"state": {"target": ["12", "12", "13", "19", "21", "20", "20", "19", "22", "17", "16", "18", "14", "14", "19", "22"], "time": [1747, 3993, 4044, 4178, 4487, 5327, 6409, 6494, 8260, 10544, 12759, 14679, 16461, 20659, 20757, 20820]}, "edge": {"target": [], "time": []}}}, "displayed_time": "19.93", "trialTime": 21659, "trial_type": "mouselab-mdp", "trial_index": 43, "time_elapsed": 1477423, "internal_node_id": "0.0-6.0-1.0-34.0"}}, {"uniqueid": "w48615500:a66023514", "current_trial": 44, "dateTime": 1693482256799, "trialdata": {"revealed_states": [], "clicked_states": ["9", "11", "3", "8"], "num_clicks_accrued": [0, 0, 0, 0, 0, 0, 0, 0, 0, 0, 0, 0, 0], "stateRewards": ["", -1, -3, -6, 14, 41, 18, 63, -14, 80, 21, 17, -2, -4, -2, -5, 13, 70, 8, -4, -64, -10, -20, 2, -1, 4, -1, -17, -55, 42, -7, 47, 54, 15], "withholdReward": false, "trial_id": "mdp_trial_36", "block": "test", "trialIndex": 37, "score": 50.4, "costs": -5.6, "simulationMode": [null, null, null, null, null], "rewards": [-1, -3, -6, -14, 80], "path": ["0", "0", "1", "2", "3", "8", "9"], "rt": [10712, 279, 273, 299, 813], "actions": ["up", "up", "up", "left", "up"], "actionTimes": [12526, 13314, 14093, 14898, 16215], "queries": {"click": {"state": {"target": ["9", "11", "3", "8"], "time": [3925, 5625, 8136, 10058]}, "edge": {"target": [], "time": []}}, "mouseover": {"state": {"target": ["1", "8", "9", "9", "11", "10", "2", "3", "8", "2"], "time": [2506, 2552, 2601, 2940, 4833, 6151, 6817, 7065, 8600, 10648]}, "edge": {"target": [], "time": []}}, "mouseout": {"state": {"target": ["12", "1", "8", "9", "9", "11", "10", "2", "3", "8", "3", "2"], "time": [1370, 2522, 2583, 2617, 4550, 6066, 6767, 6983, 8498, 10481, 10533, 17534]}, "edge": {"target": [], "time": []}}}, "displayed_time": "16.72", "trialTime": 18431, "trial_type": "mouselab-mdp", "trial_index": 44, "time_elapsed": 1496164, "internal_node_id": "0.0-6.0-1.0-35.0"}}, {"uniqueid": "w48615500:a66023514", "current_trial": 45, "dateTime": 1693482274969, "trialdata": {"revealed_states": [], "clicked_states": ["28", "27", "29"], "num_clicks_accrued": [0, 0, 0, 0, 0, 0, 0, 0, 0, 0, 0, 0, 0], "stateRewards": ["", 1, -1, -7, -7, -22, 15, -13, 13, 26, -32, 38, -1, 1, -7, -4, 16, -62, 86, 12, -54, 56, 64, -2, -1, 6, 14, -57, 37, 62, -6, -25, 50, -70], "withholdReward": false, "trial_id": "mdp_trial_37", "block": "test", "trialIndex": 38, "score": 74.8, "costs": -4.199999999999999, "simulationMode": [null, null, null, null, null], "rewards": [-2, -1, 6, 14, 62], "path": ["0", "0", "23", "24", "25", "26", "29"], "rt": [8270, 212, 418, 520, 104], "actions": ["left", "left", "left", "up", "left"], "actionTimes": [10387, 11120, 12043, 13061, 13658], "queries": {"click": {"state": {"target": ["28", "27", "29"], "time": [3975, 5709, 7558]}, "edge": {"target": [], "time": []}}, "mouseover": {"state": {"target": ["23", "31", "31", "28", "27", "26", "29", "25", "31"], "time": [2658, 2857, 3125, 3789, 4455, 6037, 6155, 7920, 8088]}, "edge": {"target": [], "time": []}}, "mouseout": {"state": {"target": ["0", "23", "31", "31", "28", "27", "26", "29", "25", "31"], "time": [1805, 2724, 2924, 3560, 4048, 5955, 6054, 7871, 7973, 14901]}, "edge": {"target": [], "time": []}}}, "displayed_time": "16.12", "trialTime": 17863, "trial_type": "mouselab-mdp", "trial_index": 45, "time_elapsed": 1514335, "internal_node_id": "0.0-6.0-1.0-36.0"}}, {"uniqueid": "w48615500:a66023514", "current_trial": 46, "dateTime": 1693482305964, "trialdata": {"revealed_states": [], "clicked_states": ["7", "10", "6", "5", "9", "11", "28", "27", "24", "25", "26"], "num_clicks_accrued": [0, 0, 0, 0, 0, 0, 0, 0, 0, 0, 0, 0, 0], "stateRewards": ["", -2, 1, 6, -2, -10, -78, -69, 14, -15, 7, -1, 1, -1, -2, 13, 77, 32, 87, 5, -74, 30, -26, 1, 3, 4, 12, 39, 54, -43, 2, 10, 23, 13], "withholdReward": false, "trial_id": "mdp_trial_38", "block": "test", "trialIndex": 39, "score": 58.599999999999994, "costs": -15.400000000000002, "simulationMode": [null, null, null, null, null], "rewards": [1, 3, 4, 12, 54], "path": ["0", "0", "23", "24", "25", "26", "28"], "rt": [23522, 263, 241, 254, 84], "actions": ["left", "left", "left", "up", "right"], "actionTimes": [25059, 25833, 26579, 27357, 27969], "queries": {"click": {"state": {"target": ["7", "10", "6", "5", "9", "11", "28", "27", "24", "25", "26"], "time": [3573, 5662, 7631, 9523, 11407, 13248, 15178, 17144, 19138, 21039, 22819]}, "edge": {"target": [], "time": []}}, "mouseover": {"state": {"target": ["7", "2", "10", "1", "2", "4", "6", "4", "5", "4", "3", "9", "8", "11", "23", "28", "27", "26", "24", "23", "25", "26", "26", "28", "23"], "time": [3057, 4089, 4424, 6192, 6235, 6323, 6622, 8122, 8238, 10021, 10098, 10373, 11773, 11954, 13736, 14820, 15669, 17587, 18370, 19419, 19870, 21485, 21935, 23166, 23485]}, "edge": {"target": [], "time": []}}, "mouseout": {"state": {"target": ["0", "7", "2", "10", "1", "2", "4", "6", "6", "4", "5", "4", "3", "9", "8", "11", "23", "28", "27", "26", "24", "23", "24", "25", "26", "26", "26", "28", "23", "0"], "time": [1011, 4039, 4308, 6090, 6212, 6250, 6507, 7699, 7905, 8174, 9988, 10059, 10154, 11722, 11854, 13605, 14588, 15586, 17388, 17604, 19168, 19534, 19718, 21318, 21619, 22865, 23117, 23200, 29486, 29652]}, "edge": {"target": [], "time": []}}}, "displayed_time": "28.48", "trialTime": 30698, "trial_type": "mouselab-mdp", "trial_index": 46, "time_elapsed": 1545329, "internal_node_id": "0.0-6.0-1.0-37.0"}}, {"uniqueid": "w48615500:a66023514", "current_trial": 47, "dateTime": 1693482330215, "trialdata": {"revealed_states": [], "clicked_states": ["21", "22", "20", "19", "14", "13", "12"], "num_clicks_accrued": [0, 0, 0, 0, 0, 0, 0, 0, 0, 0, 0, 0, 0], "stateRewards": ["", 2, -3, -8, 14, -7, -51, 73, 2, 36, 36, -43, -1, 3, -4, 1, 6, 87, -65, 15, 61, -42, -83, -1, 3, -2, -7, 30, -48, 35, 13, 26, 60, 78], "withholdReward": false, "trial_id": "mdp_trial_39", "block": "test", "trialIndex": 40, "score": 64.2, "costs": -9.8, "simulationMode": [null, null, null, null, null], "rewards": [-1, 3, -4, 15, 61], "path": ["0", "0", "12", "13", "14", "19", "20"], "rt": [16627, 317, 238, 292, 492], "actions": ["right", "right", "right", "down", "right"], "actionTimes": [18286, 19105, 19855, 20660, 21659], "queries": {"click": {"state": {"target": ["21", "22", "20", "19", "14", "13", "12"], "time": [3652, 5508, 7331, 10587, 12476, 14486, 16218]}, "edge": {"target": [], "time": []}}, "mouseover": {"state": {"target": ["0", "12", "13", "14", "22", "21", "22", "19", "20", "17", "14", "19", "14", "13", "12"], "time": [2508, 2535, 2585, 2769, 2886, 3338, 4234, 5734, 5802, 8084, 10145, 10217, 10999, 12799, 15192]}, "edge": {"target": [], "time": []}}, "mouseout": {"state": {"target": ["0", "0", "12", "13", "14", "22", "21", "22", "19", "20", "17", "14", "19", "14", "13", "12"], "time": [971, 2522, 2569, 2636, 2803, 3053, 4120, 5718, 5768, 7391, 10138, 10184, 10882, 12700, 14915, 22964]}, "edge": {"target": [], "time": []}}}, "displayed_time": "22.17", "trialTime": 23905, "trial_type": "mouselab-mdp", "trial_index": 47, "time_elapsed": 1569580, "internal_node_id": "0.0-6.0-1.0-38.0"}}, {"uniqueid": "w48615500:a66023514", "current_trial": 48, "dateTime": 1693482354993, "trialdata": {"revealed_states": [], "clicked_states": ["32", "33", "31", "23", "24", "25", "30"], "num_clicks_accrued": [0, 0, 0, 0, 0, 0, 0, 0, 0, 0, 0, 0, 0], "stateRewards": ["", 1, 1, 5, 6, -29, -7, 3, -16, 9, -46, 65, -1, 4, -1, -16, -63, -77, -87, 8, 80, -50, 43, -1, -1, -5, 5, -38, -71, -62, 9, 81, -50, -52], "withholdReward": false, "trial_id": "mdp_trial_40", "block": "test", "trialIndex": 41, "score": 73.2, "costs": -9.8, "simulationMode": [null, null, null, null, null], "rewards": [-1, -1, -5, 9, 81], "path": ["0", "0", "23", "24", "25", "30", "31"], "rt": [17301, 174, 105, 231, 230], "actions": ["left", "left", "left", "down", "right"], "actionTimes": [18576, 19247, 19842, 20590, 21321], "queries": {"click": {"state": {"target": ["32", "33", "31", "23", "24", "25", "30"], "time": [2249, 4311, 6487, 9801, 11668, 14456, 16300]}, "edge": {"target": [], "time": []}}, "mouseover": {"state": {"target": ["0", "32", "33", "30", "30", "33", "30", "31", "24", "28", "24", "31", "24", "28", "28", "24", "23", "24", "25", "30", "31"], "time": [1634, 1975, 2675, 3585, 3774, 3908, 4525, 4576, 5307, 5409, 5674, 5810, 6923, 7240, 7407, 9389, 9575, 10089, 11991, 14806, 16720]}, "edge": {"target": [], "time": []}}, "mouseout": {"state": {"target": ["12", "0", "0", "32", "33", "30", "30", "33", "30", "31", "24", "28", "24", "31", "24", "28", "28", "24", "23", "24", "25", "25", "30", "31"], "time": [490, 991, 1655, 2543, 3567, 3641, 3859, 4381, 4559, 5292, 5357, 5659, 5690, 6549, 6959, 7273, 9361, 9456, 10039, 11890, 14496, 14688, 16705, 17286]}, "edge": {"target": [], "time": []}}}, "displayed_time": "21.82", "trialTime": 24468, "trial_type": "mouselab-mdp", "trial_index": 48, "time_elapsed": 1594360, "internal_node_id": "0.0-6.0-1.0-39.0"}}, {"uniqueid": "w48615500:a66023514", "current_trial": 49, "dateTime": 1693482406373, "trialdata": {"rt": 51363, "response": {"Q0": "$-2 to $2", "Q1": "$-16 to $16", "Q2": "$-88 to $88", "Q3": "The cost for clicking on nodes varied between nodes.", "Q4": "Slightly motivated"}, "question_order": [0, 1, 2, 3, 4], "trial_id": "final_quiz_control", "trial_type": "survey-multi-choice", "trial_index": 49, "time_elapsed": 1645738, "internal_node_id": "0.0-6.0-2.0"}}, {"uniqueid": "w48615500:a66023514", "current_trial": 50, "dateTime": 1693482490945, "trialdata": {"rt": 84528, "response": {"Q0": "In the beginning I was clicking on random nodes to see the amounts and then later in the game I started checking on nodes on the far edge as I realized they had more points most of the time. ", "Q1": "Yes, later in the game I started checking on nodes on the far edge as I realized they had more points most of the time. ", "Q2": "It was not difficult at all."}, "trial_id": "self_report_control", "trial_type": "survey-text", "trial_index": 50, "time_elapsed": 1730312, "internal_node_id": "0.0-6.0-3.0"}}, {"uniqueid": "w48615500:a66023514", "current_trial": 51, "dateTime": 1693482523323, "trialdata": {"rt": 32359, "response": {"gender": "female", "age": "29", "colorblind": "0", "effort": "0"}, "trial_type": "survey-html-form", "trial_index": 51, "time_elapsed": 1762690, "internal_node_id": "0.0-6.0-4.0"}}, {"uniqueid": "w48615500:a66023514", "current_trial": 52, "dateTime": 1693482535999, "trialdata": {"rt": 12667, "response": {"Q0": "No", "Q1": "No", "Q2": "None"}, "trial_type": "survey-text", "trial_index": 52, "time_elapsed": 1775366, "internal_node_id": "0.0-6.0-5.0"}}, {"uniqueid": "w48615500:a66023514", "current_trial": 53, "dateTime": 1693482573703, "trialdata": {"rt": 37692, "stimulus": "<h1>Completion Code Instructions (1/2)</h1>\n<br><br><br><br>\nYou have reached the end of the experiment! The completion code consists of two parts: (1) a code with 2 characters (2) a code with 6 characters. On this page, you will receive the second part of the code. The first part of the completion code will be on the next page.\n<br><br>\nThe second part of your completion code is: <b>EWEK22</b>\n<br><br>\nPlease note this down. Then, press 'Finish HIT' in order to find the first part of your completion code. Once the data has been saved, you will receive this code either in this window or in the original browser window where you started the experiment.\n", "response": 0, "trial_type": "html-button-response", "trial_index": 53, "time_elapsed": 1813070, "internal_node_id": "0.0-6.0-6.0"}}, {"uniqueid": "w48615500:a66023514", "current_trial": 54, "dateTime": 1693482574718, "trialdata": {"success": true, "trial_type": "fullscreen", "trial_index": 54, "time_elapsed": 1814085, "internal_node_id": "0.0-7.0"}}], "questiondata": {"params": {"CODE": "C6DMOQA6", "MIN_TIME": 14, "inspectCost": 1, "startTime": "Thu Aug 31 2023 13:19:17 GMT+0200 (South Africa Standard Time)", "bonusRate": 0.002, "variance": "1_2_4_8_44", "branching": "31123"}}, "eventdata": [{"eventtype": "initialized", "value": null, "timestamp": 1693480755644, "interval": 0}, {"eventtype": "window_resize", "value": [1032, 600], "timestamp": 1693480755644, "interval": 0}, {"eventtype": "window_resize", "value": [1032, 600], "timestamp": 1693480756990, "interval": 1346}, {"eventtype": "window_resize", "value": [1280, 614], "timestamp": 1693480762333, "interval": 5343}, {"eventtype": "window_resize", "value": [1280, 720], "timestamp": 1693480763481, "interval": 1148}, {"eventtype": "window_resize", "value": [1280, 614], "timestamp": 1693482573994, "interval": 1810513}], "useragent": "Mozilla/5.0 (Windows NT 10.0; Win64; x64) AppleWebKit/537.36 (KHTML, like Gecko) Chrome/116.0.0.0 Safari/537.36", "mode": "live", "id": "w48615500:a66023514", "status": "user data saved", "Beginhit": "2023-08-31 11:19:11.148216", "Beginexp": "2023-08-31 11:19:24.905216", "Endhit": "2023-08-31 11:49:40.881923", "psiturkStatus": 3, "browser": "<redacted>", "platform": "windows", "language": "en-US"}