{"condition": 0, "counterbalance": 0, "assignmentId": "a14902636", "workerId": "w77984285", "hitId": "h20520816", "currenttrial": 26, "bonus": 0, "data": [{"uniqueid": "w77984285:a14902636", "current_trial": 0, "dateTime": 1691159236093, "trialdata": {"success": true, "trial_type": "fullscreen", "trial_index": 0, "time_elapsed": 9969, "internal_node_id": "0.0-0.0"}}, {"uniqueid": "w77984285:a14902636", "current_trial": 1, "dateTime": 1691159306964, "trialdata": {"view_history": [{"page_index": 0, "viewing_time": 70853}], "rt": 70854, "trial_id": "exp_instructions_control", "trial_type": "instructions", "trial_index": 1, "time_elapsed": 80841, "internal_node_id": "0.0-1.0"}}, {"uniqueid": "w77984285:a14902636", "current_trial": 2, "dateTime": 1691159314974, "trialdata": {"success": true, "trial_type": "fullscreen", "trial_index": 2, "time_elapsed": 88851, "internal_node_id": "0.0-2.0-0.0"}}, {"uniqueid": "w77984285:a14902636", "current_trial": 3, "dateTime": 1691159528921, "trialdata": {"view_history": [{"page_index": 0, "viewing_time": 109810}, {"page_index": 1, "viewing_time": 62860}, {"page_index": 2, "viewing_time": 9540}, {"page_index": 3, "viewing_time": 31729}], "rt": 213940, "trial_id": "mouselab_instructions_1_control", "trial_type": "instructions", "trial_index": 3, "time_elapsed": 302798, "internal_node_id": "0.0-2.0-1.0"}}, {"uniqueid": "w77984285:a14902636", "current_trial": 4, "dateTime": 1691159545970, "trialdata": {"revealed_states": [], "clicked_states": [], "num_clicks_accrued": [0, 0, 0, 0, 0, 0, 0, 0, 0, 0, 0, 0, 0], "stateRewards": ["", 10, -10, -10, -10, -10, -10, -10, 10, -10, -10, -10, -10, 10, 10, -10, 10, -10, -10, 10, -10, -10, -10, -10, -10, -10, 10, 10, -10, -10, 10, -10, 10, -10], "withholdReward": false, "trial_id": "practice_1", "block": "test", "trialIndex": 0, "score": -26.5, "costs": 0, "simulationMode": [null, null, null, null, null], "rewards": [-10, -10, -10, 10, -10], "path": ["0", "0", "23", "24", "25", "26", "29"], "rt": [1129, 744, 733, 385, 90], "actions": ["left", "left", "left", "up", "left"], "actionTimes": [6110, 7415, 8677, 9588, 10211], "queries": {"click": {"state": {"target": [], "time": []}, "edge": {"target": [], "time": []}}, "mouseover": {"state": {"target": [], "time": []}, "edge": {"target": [], "time": []}}, "mouseout": {"state": {"target": ["0", "18"], "time": [12247, 12278]}, "edge": {"target": [], "time": []}}}, "displayed_time": "10.74", "trialTime": 15387, "trial_type": "mouselab-mdp", "trial_index": 4, "time_elapsed": 319846, "internal_node_id": "0.0-2.0-2.0-0.0"}}, {"uniqueid": "w77984285:a14902636", "current_trial": 5, "dateTime": 1691159565459, "trialdata": {"revealed_states": [], "clicked_states": [], "num_clicks_accrued": [0, 0, 0, 0, 0, 0, 0, 0, 0, 0, 0, 0, 0], "stateRewards": ["", 10, 10, 10, -10, -10, 10, -10, 10, -10, 10, 10, 10, -10, 10, -10, -10, 10, -10, 10, 10, -10, 10, -10, 10, 10, -10, 10, -10, -10, -10, 10, 10, 10], "withholdReward": false, "trial_id": "practice_2", "block": "test", "trialIndex": 1, "score": 13.5, "costs": 0, "simulationMode": [null, null, null, null, null], "rewards": [-10, 10, 10, -10, 10], "path": ["0", "0", "23", "24", "25", "30", "33"], "rt": [4356, 2070, 1178, 191, 617], "actions": ["left", "left", "left", "down", "left"], "actionTimes": [7405, 10070, 11774, 12497, 13647], "queries": {"click": {"state": {"target": [], "time": []}, "edge": {"target": [], "time": []}}, "mouseover": {"state": {"target": [], "time": []}, "edge": {"target": [], "time": []}}, "mouseout": {"state": {"target": ["19", "22", "0"], "time": [1213, 1243, 1624]}, "edge": {"target": [], "time": []}}}, "displayed_time": "14.18", "trialTime": 18347, "trial_type": "mouselab-mdp", "trial_index": 5, "time_elapsed": 339335, "internal_node_id": "0.0-2.0-2.0-1.0"}}, {"uniqueid": "w77984285:a14902636", "current_trial": 6, "dateTime": 1691159592892, "trialdata": {"view_history": [{"page_index": 0, "viewing_time": 16473}, {"page_index": 1, "viewing_time": 10951}], "rt": 27425, "trial_id": "mouselab_instructions_2_control", "trial_type": "instructions", "trial_index": 6, "time_elapsed": 366769, "internal_node_id": "0.0-2.0-3.0"}}, {"uniqueid": "w77984285:a14902636", "current_trial": 7, "dateTime": 1691159660373, "trialdata": {"rt": 67465, "response": {"Q0": "The cost for clicking on nodes may vary between nodes.", "Q1": "The better I perform the higher my bonus will be.", "Q2": "No, the amount of cash at each node of the web may be different each time.", "Q3": "To get the highest total score.", "Q4": "Only before moving the spider.", "Q5": "3 seconds"}, "question_order": [0, 1, 2, 3, 4, 5], "correct": {"Q0": "The cost for clicking on nodes may vary between nodes.", "Q1": "The better I perform the higher my bonus will be.", "Q2": "No, the amount of cash at each node of the web may be different each time.", "Q3": "To get the highest total score.", "Q4": "Only before moving the spider.", "Q5": "3 seconds"}, "trial_id": "mouselab_quiz_control", "trial_type": "survey-multi-choice", "trial_index": 7, "time_elapsed": 434249, "internal_node_id": "0.0-2.0-4.0"}}, {"uniqueid": "w77984285:a14902636", "current_trial": 8, "dateTime": 1691159667113, "trialdata": {"rt": 6725, "stimulus": "\n<h1> Get ready to start the game! </h1>\n\nThank you for reading the instructions. Get ready start with the 40 rounds of this game.\n<br><br>\nIf you need to take a break, feel free to take one after the end of a round, before continuing to the next one.\n<br><br>\nRemember, the more money the spider gets, the bigger your bonus will be!\n<br><br>\n<div style='text-align: center;'>Press <code>space</code> to begin.</div>\n\n<br><br>\n(If, at any point, the <code>space</code> key does not take you to the next page, click once on the text and try again.)", "response": " ", "trial_id": "mdp_ready", "trial_type": "html-keyboard-response", "trial_index": 8, "time_elapsed": 440990, "internal_node_id": "0.0-4.0-0.0"}}, {"uniqueid": "w77984285:a14902636", "current_trial": 9, "dateTime": 1691159689705, "trialdata": {"revealed_states": [], "clicked_states": [], "num_clicks_accrued": [0, 0, 0, 0, 0, 0, 0, 0, 0, 0, 0, 0, 0], "stateRewards": ["", -2, -3, -5, 8, 27, 11, 43, -6, -24, -87, 69, -2, 1, 1, 9, 19, 48, -37, 9, -14, 45, 62, 1, 2, 1, 16, -81, -41, 22, 4, -6, -63, 47], "withholdReward": false, "trial_id": "mdp_trial_1", "block": "test", "trialIndex": 2, "score": 55, "costs": 0, "simulationMode": [null, null, null, null, null], "rewards": [1, 2, 1, 4, 47], "path": ["0", "0", "23", "24", "25", "30", "33"], "rt": [1453, 747, 2391, 224, 164], "actions": ["left", "left", "left", "down", "left"], "actionTimes": [6155, 7428, 10350, 11106, 11790], "queries": {"click": {"state": {"target": [], "time": []}, "edge": {"target": [], "time": []}}, "mouseover": {"state": {"target": [], "time": []}, "edge": {"target": [], "time": []}}, "mouseout": {"state": {"target": ["0", "12"], "time": [15034, 15061]}, "edge": {"target": [], "time": []}}}, "displayed_time": "18.70", "trialTime": 21416, "trial_type": "mouselab-mdp", "trial_index": 9, "time_elapsed": 463581, "internal_node_id": "0.0-4.0-1.0-0.0"}}, {"uniqueid": "w77984285:a14902636", "current_trial": 10, "dateTime": 1691159709469, "trialdata": {"revealed_states": [], "clicked_states": [], "num_clicks_accrued": [0, 0, 0, 0, 0, 0, 0, 0, 0, 0, 0, 0, 0], "stateRewards": ["", -1, -3, -7, -4, -85, -70, 79, 8, 84, -66, 42, 2, -2, -3, -16, -54, -66, 68, -3, 21, -14, 7, -2, -1, -3, -8, 75, 80, 86, -7, -84, 73, -16], "withholdReward": false, "trial_id": "mdp_trial_2", "block": "test", "trialIndex": 3, "score": -85, "costs": 0, "simulationMode": [null, null, null, null, null], "rewards": [2, -2, -3, -16, -66], "path": ["0", "0", "12", "13", "14", "15", "17"], "rt": [4251, 539, 585, 583, 42], "actions": ["right", "right", "right", "up", "right"], "actionTimes": [7207, 8280, 9402, 10515, 11091], "queries": {"click": {"state": {"target": [], "time": []}, "edge": {"target": [], "time": []}}, "mouseover": {"state": {"target": [], "time": []}, "edge": {"target": [], "time": []}}, "mouseout": {"state": {"target": ["16", "18", "12", "0", "0"], "time": [1492, 1525, 1656, 1906, 14499]}, "edge": {"target": [], "time": []}}}, "displayed_time": "16.96", "trialTime": 18499, "trial_type": "mouselab-mdp", "trial_index": 10, "time_elapsed": 483344, "internal_node_id": "0.0-4.0-1.0-1.0"}}, {"uniqueid": "w77984285:a14902636", "current_trial": 11, "dateTime": 1691159730221, "trialdata": {"revealed_states": [], "clicked_states": ["26"], "num_clicks_accrued": [0, 0, 0, 0, 0, 0, 0, 0, 0, 0, 0, 0, 0], "stateRewards": ["", 2, 1, -3, 7, 46, 11, -36, 16, 71, 5, 1, 2, -2, -8, -3, -4, 6, 55, 7, 68, -54, 2, 1, 1, 6, -6, 42, -4, -84, -11, -65, 63, 25], "withholdReward": false, "trial_id": "mdp_trial_3", "block": "test", "trialIndex": 4, "score": 58.6, "costs": -1.4, "simulationMode": [null, null, null, null, null], "rewards": [1, 1, 6, -11, 63], "path": ["0", "0", "23", "24", "25", "30", "32"], "rt": [4947, 670, 1303, 144, 208], "actions": ["left", "left", "left", "down", "down"], "actionTimes": [8778, 9993, 11828, 12522, 13290], "queries": {"click": {"state": {"target": ["26"], "time": [6490]}, "edge": {"target": [], "time": []}}, "mouseover": {"state": {"target": ["12", "12", "23", "24", "26", "24"], "time": [4690, 5140, 5190, 5277, 5888, 7434]}, "edge": {"target": [], "time": []}}, "mouseout": {"state": {"target": ["12", "12", "12", "23", "24", "26", "24", "1", "16"], "time": [2238, 4756, 5159, 5237, 5456, 7333, 7507, 15889, 15913]}, "edge": {"target": [], "time": []}}}, "displayed_time": "17.84", "trialTime": 19404, "trial_type": "mouselab-mdp", "trial_index": 11, "time_elapsed": 504097, "internal_node_id": "0.0-4.0-1.0-2.0"}}, {"uniqueid": "w77984285:a14902636", "current_trial": 12, "dateTime": 1691159767649, "trialdata": {"revealed_states": [], "clicked_states": [], "num_clicks_accrued": [0, 0, 0, 0, 0, 0, 0, 0, 0, 0, 0, 0, 0], "stateRewards": ["", 2, -1, -4, -13, 74, 77, 3, 2, -43, -2, -11, 2, 3, 7, 11, -26, -29, -33, -3, -3, -13, -3, 1, 3, -7, 14, -59, 33, 9, -5, 34, 79, 68], "withholdReward": false, "trial_id": "mdp_trial_4", "block": "test", "trialIndex": 5, "score": 60, "costs": 0, "simulationMode": [null, null, null, null, null], "rewards": [1, 3, -7, -5, 68], "path": ["0", "0", "23", "24", "25", "30", "33"], "rt": [14852, 1088, 1371, 83, 409], "actions": ["left", "left", "left", "down", "left"], "actionTimes": [18832, 20505, 22434, 23059, 24005], "queries": {"click": {"state": {"target": [], "time": []}, "edge": {"target": [], "time": []}}, "mouseover": {"state": {"target": ["23", "24", "25", "26", "25", "30", "25", "26", "25", "24", "20", "19", "14", "15"], "time": [4818, 4860, 4955, 5439, 5889, 5970, 6569, 6606, 10667, 12703, 12828, 13170, 14763, 14929]}, "edge": {"target": [], "time": []}}, "mouseout": {"state": {"target": ["15", "18", "23", "23", "0", "23", "24", "25", "26", "25", "30", "25", "26", "25", "24", "20", "19", "14", "15"], "time": [1891, 1941, 2321, 2604, 4790, 4840, 4920, 5403, 5870, 5927, 6539, 6590, 10649, 12684, 12731, 13149, 14731, 14829, 16294]}, "edge": {"target": [], "time": []}}}, "displayed_time": "24.54", "trialTime": 35864, "trial_type": "mouselab-mdp", "trial_index": 12, "time_elapsed": 541525, "internal_node_id": "0.0-4.0-1.0-3.0"}}, {"uniqueid": "w77984285:a14902636", "current_trial": 13, "dateTime": 1691159789366, "trialdata": {"revealed_states": [], "clicked_states": ["25"], "num_clicks_accrued": [0, 0, 0, 0, 0, 0, 0, 0, 0, 0, 0, 0, 0], "stateRewards": ["", 1, -1, 1, -14, -10, 67, -28, -11, 72, 40, -65, -1, 1, 1, -2, 8, -55, 34, -10, 61, 33, -15, 2, -4, 7, 4, -75, 63, -21, -16, 61, 19, 21], "withholdReward": false, "trial_id": "mdp_trial_5", "block": "test", "trialIndex": 6, "score": 8.6, "costs": -1.4, "simulationMode": [null, null, null, null, null, null], "rewards": [2, -4, 7, -16, 21], "path": ["0", "0", "23", "24", "25", "30", "33"], "rt": [2179, 1629, 1030, 697, 2002, 221], "actions": ["left", "left", "left", "left", "down", "left"], "actionTimes": [6582, 8219, 9798, 11050, 13599, 14347], "queries": {"click": {"state": {"target": ["25"], "time": [5903]}, "edge": {"target": [], "time": []}}, "mouseover": {"state": {"target": ["23", "24", "25"], "time": [5181, 5232, 5392]}, "edge": {"target": [], "time": []}}, "mouseout": {"state": {"target": ["12", "0", "0", "23", "24", "25", "28"], "time": [2759, 2858, 5161, 5196, 5257, 6093, 16014]}, "edge": {"target": [], "time": []}}}, "displayed_time": "18.41", "trialTime": 19876, "trial_type": "mouselab-mdp", "trial_index": 13, "time_elapsed": 563242, "internal_node_id": "0.0-4.0-1.0-4.0"}}, {"uniqueid": "w77984285:a14902636", "current_trial": 14, "dateTime": 1691159818264, "trialdata": {"revealed_states": [], "clicked_states": [], "num_clicks_accrued": [0, 0, 0, 0, 0, 0, 0, 0, 0, 0, 0, 0, 0], "stateRewards": ["", 1, 2, 8, -2, 23, -69, -18, -16, 54, -21, 71, -1, -4, 7, 11, 43, -6, 88, 6, -55, 72, 43, 1, -3, -2, -1, 68, -31, -54, 4, -8, 25, -2], "withholdReward": false, "trial_id": "mdp_trial_6", "block": "test", "trialIndex": 7, "score": 56, "costs": 0, "simulationMode": [null, null, null, null, null], "rewards": [-1, -4, 7, 11, 43], "path": ["0", "0", "12", "13", "14", "15", "16"], "rt": [1741, 1791, 1853, 561, 35], "actions": ["right", "right", "right", "up", "up"], "actionTimes": [5387, 7741, 10125, 11225, 11828], "queries": {"click": {"state": {"target": [], "time": []}, "edge": {"target": [], "time": []}}, "mouseover": {"state": {"target": [], "time": []}, "edge": {"target": [], "time": []}}, "mouseout": {"state": {"target": ["18", "12", "0"], "time": [2085, 2117, 14721]}, "edge": {"target": [], "time": []}}}, "displayed_time": "17.65", "trialTime": 27135, "trial_type": "mouselab-mdp", "trial_index": 14, "time_elapsed": 592140, "internal_node_id": "0.0-4.0-1.0-5.0"}}, {"uniqueid": "w77984285:a14902636", "current_trial": 15, "dateTime": 1691159838353, "trialdata": {"revealed_states": [], "clicked_states": ["14"], "num_clicks_accrued": [0, 0, 0, 0, 0, 0, 0, 0, 0, 0, 0, 0, 0], "stateRewards": ["", 1, 1, -6, -2, 7, 77, 3, 16, -16, 66, 31, -1, 3, -8, -6, 33, -50, -48, 7, -60, -66, 36, 2, -3, 3, -7, -12, -61, -79, -4, 8, 74, -70], "withholdReward": false, "trial_id": "mdp_trial_7", "block": "test", "trialIndex": 8, "score": 70.6, "costs": -1.4, "simulationMode": [null, null, null, null, null], "rewards": [2, -3, 3, -4, 74], "path": ["0", "0", "23", "24", "25", "30", "32"], "rt": [5227, 637, 542, 800, 319], "actions": ["left", "left", "left", "down", "down"], "actionTimes": [7256, 8442, 9517, 10858, 11700], "queries": {"click": {"state": {"target": ["14"], "time": [3435]}, "edge": {"target": [], "time": []}}, "mouseover": {"state": {"target": ["12", "14"], "time": [2597, 3120]}, "edge": {"target": [], "time": []}}, "mouseout": {"state": {"target": ["20", "19", "22", "12", "0", "12", "14"], "time": [59, 177, 492, 577, 2579, 2616, 4269]}, "edge": {"target": [], "time": []}}}, "displayed_time": "16.03", "trialTime": 18080, "trial_type": "mouselab-mdp", "trial_index": 15, "time_elapsed": 612229, "internal_node_id": "0.0-4.0-1.0-6.0"}}, {"uniqueid": "w77984285:a14902636", "current_trial": 16, "dateTime": 1691159860405, "trialdata": {"revealed_states": [], "clicked_states": ["26"], "num_clicks_accrued": [0, 0, 0, 0, 0, 0, 0, 0, 0, 0, 0, 0, 0], "stateRewards": ["", 1, -1, 8, -3, 38, 85, -20, -4, 8, 23, 73, 2, -4, 6, -13, 44, 7, -28, -11, -77, 45, -69, 1, -1, -7, -11, 75, -51, -87, 7, 36, -53, -26], "withholdReward": false, "trial_id": "mdp_trial_8", "block": "test", "trialIndex": 9, "score": 34.6, "costs": -1.4, "simulationMode": [null, null, null, null, null], "rewards": [1, -1, -7, 7, 36], "path": ["0", "0", "23", "24", "25", "30", "31"], "rt": [5333, 743, 1437, 1337, 950], "actions": ["left", "left", "left", "down", "right"], "actionTimes": [9095, 10378, 12364, 14232, 15725], "queries": {"click": {"state": {"target": ["26"], "time": [5580]}, "edge": {"target": [], "time": []}}, "mouseover": {"state": {"target": ["23", "24", "26", "28", "2"], "time": [4785, 4902, 5316, 6881, 6943]}, "edge": {"target": [], "time": []}}, "mouseout": {"state": {"target": ["14", "13", "12", "0", "23", "24", "26", "28", "2"], "time": [2169, 2190, 2219, 4734, 4818, 4934, 6875, 6909, 6978]}, "edge": {"target": [], "time": []}}}, "displayed_time": "17.77", "trialTime": 20078, "trial_type": "mouselab-mdp", "trial_index": 16, "time_elapsed": 634281, "internal_node_id": "0.0-4.0-1.0-7.0"}}, {"uniqueid": "w77984285:a14902636", "current_trial": 17, "dateTime": 1691159896164, "trialdata": {"revealed_states": [], "clicked_states": [], "num_clicks_accrued": [0, 0, 0, 0, 0, 0, 0, 0, 0, 0, 0, 0, 0], "stateRewards": ["", -1, 2, 5, -6, 13, -64, -47, 8, -79, -80, -33, 1, 2, -2, -16, 56, -71, -10, 3, 29, 44, 85, -1, 4, 5, 4, -36, -56, 19, 8, 52, -13, -2], "withholdReward": false, "trial_id": "mdp_trial_9", "block": "test", "trialIndex": 10, "score": 3, "costs": 0, "simulationMode": [null, null, null, null, null], "rewards": [-1, 4, 5, 8, -13], "path": ["0", "0", "23", "24", "25", "30", "32"], "rt": [4340, 426, 869, 305, 56], "actions": ["left", "left", "left", "down", "down"], "actionTimes": [22184, 23159, 24560, 25403, 26003], "queries": {"click": {"state": {"target": [], "time": []}, "edge": {"target": [], "time": []}}, "mouseover": {"state": {"target": ["23", "23", "10", "2", "7", "16", "14", "22", "22", "19"], "time": [18002, 18182, 18964, 19251, 19297, 19332, 20449, 21017, 21231, 21264]}, "edge": {"target": [], "time": []}}, "mouseout": {"state": {"target": ["6", "10", "10", "1", "23", "23", "10", "2", "7", "16", "14", "22", "22", "19", "20", "19"], "time": [11128, 15804, 15968, 16351, 18037, 18632, 19233, 19288, 19313, 19514, 20997, 21066, 21250, 27116, 33534, 33602]}, "edge": {"target": [], "time": []}}}, "displayed_time": "31.85", "trialTime": 34138, "trial_type": "mouselab-mdp", "trial_index": 17, "time_elapsed": 670041, "internal_node_id": "0.0-4.0-1.0-8.0"}}, {"uniqueid": "w77984285:a14902636", "current_trial": 18, "dateTime": 1691159921170, "trialdata": {"revealed_states": [], "clicked_states": [], "num_clicks_accrued": [0, 0, 0, 0, 0, 0, 0, 0, 0, 0, 0, 0, 0], "stateRewards": ["", -2, 4, -5, -12, 85, -24, -18, -15, -78, -22, 26, -1, -1, 2, 14, -45, 52, -23, 7, -33, 24, -6, -2, -4, 5, -7, -16, 36, -39, 5, 71, -87, -23], "withholdReward": false, "trial_id": "mdp_trial_10", "block": "test", "trialIndex": 11, "score": -47, "costs": 0, "simulationMode": [null, null, null, null, null], "rewards": [-2, -4, 5, -7, -39], "path": ["0", "0", "23", "24", "25", "26", "29"], "rt": [6351, 356, 490, 81, 87], "actions": ["left", "left", "left", "up", "left"], "actionTimes": [12681, 13588, 14613, 15226, 15831], "queries": {"click": {"state": {"target": [], "time": []}, "edge": {"target": [], "time": []}}, "mouseover": {"state": {"target": ["23", "25", "29", "26"], "time": [8615, 8653, 9074, 10306]}, "edge": {"target": [], "time": []}}, "mouseout": {"state": {"target": ["23", "25", "29", "26", "2"], "time": [8647, 8679, 9124, 16718, 16750]}, "edge": {"target": [], "time": []}}}, "displayed_time": "20.33", "trialTime": 23077, "trial_type": "mouselab-mdp", "trial_index": 18, "time_elapsed": 695047, "internal_node_id": "0.0-4.0-1.0-9.0"}}, {"uniqueid": "w77984285:a14902636", "current_trial": 19, "dateTime": 1691159944534, "trialdata": {"revealed_states": [], "clicked_states": ["19"], "num_clicks_accrued": [0, 0, 0, 0, 0, 0, 0, 0, 0, 0, 0, 0, 0], "stateRewards": ["", -1, -2, -8, 8, -27, -82, 19, -14, -62, 4, 1, -2, 2, 6, 10, 73, -51, -2, 2, 73, -48, 54, -1, 2, -4, 11, -25, 47, 86, 15, 33, 43, -42], "withholdReward": false, "trial_id": "mdp_trial_11", "block": "test", "trialIndex": 12, "score": -36.4, "costs": -1.4, "simulationMode": [null, null, null, null, null], "rewards": [-2, 2, 6, 10, -51], "path": ["0", "0", "12", "13", "14", "15", "17"], "rt": [5314, 549, 657, 389, 575], "actions": ["right", "right", "right", "up", "right"], "actionTimes": [11174, 12263, 13483, 14410, 15520], "queries": {"click": {"state": {"target": ["19"], "time": [7670]}, "edge": {"target": [], "time": []}}, "mouseover": {"state": {"target": ["12", "13", "19", "19"], "time": [6641, 6668, 6712, 7306]}, "edge": {"target": [], "time": []}}, "mouseout": {"state": {"target": ["12", "1", "7", "17", "12", "12", "13", "19", "19"], "time": [545, 762, 928, 4240, 4607, 6661, 6694, 6775, 17097]}, "edge": {"target": [], "time": []}}}, "displayed_time": "19.86", "trialTime": 21730, "trial_type": "mouselab-mdp", "trial_index": 19, "time_elapsed": 718411, "internal_node_id": "0.0-4.0-1.0-10.0"}}, {"uniqueid": "w77984285:a14902636", "current_trial": 20, "dateTime": 1691159975084, "trialdata": {"revealed_states": [], "clicked_states": ["30"], "num_clicks_accrued": [0, 0, 0, 0, 0, 0, 0, 0, 0, 0, 0, 0, 0], "stateRewards": ["", -1, 1, -5, -6, -78, 47, -13, 12, 48, -88, 20, 2, -3, -2, 13, -20, 37, -57, 14, -38, 30, 31, -2, -2, 8, 2, -23, 78, 28, 12, -74, -88, 8], "withholdReward": false, "trial_id": "mdp_trial_12", "block": "test", "trialIndex": 13, "score": 22.6, "costs": -1.4, "simulationMode": [null, null, null, null, null], "rewards": [-2, -2, 8, 12, 8], "path": ["0", "0", "23", "24", "25", "30", "33"], "rt": [4693, 438, 939, 120, 667], "actions": ["left", "left", "left", "down", "left"], "actionTimes": [14492, 15466, 16957, 17624, 18861], "queries": {"click": {"state": {"target": ["30"], "time": [11090]}, "edge": {"target": [], "time": []}}, "mouseover": {"state": {"target": ["23", "24", "30"], "time": [10235, 10290, 10725]}, "edge": {"target": [], "time": []}}, "mouseout": {"state": {"target": ["14", "13", "12", "23", "24", "30", "14"], "time": [8135, 8187, 8286, 10269, 10318, 11284, 22740]}, "edge": {"target": [], "time": []}}}, "displayed_time": "23.80", "trialTime": 28718, "trial_type": "mouselab-mdp", "trial_index": 20, "time_elapsed": 748960, "internal_node_id": "0.0-4.0-1.0-11.0"}}, {"uniqueid": "w77984285:a14902636", "current_trial": 21, "dateTime": 1691160000049, "trialdata": {"revealed_states": [], "clicked_states": ["26"], "num_clicks_accrued": [0, 0, 0, 0, 0, 0, 0, 0, 0, 0, 0, 0, 0], "stateRewards": ["", 1, -2, 4, 7, -43, -83, -60, -5, -86, -80, 83, -1, -2, 6, 11, -15, 21, 13, 9, 29, -49, 11, -1, 4, -6, -11, 87, 40, 63, -8, -39, -11, 62], "withholdReward": false, "trial_id": "mdp_trial_13", "block": "test", "trialIndex": 14, "score": -51.4, "costs": -1.4, "simulationMode": [null, null, null, null, null], "rewards": [-1, 4, -6, -8, -39], "path": ["0", "0", "23", "24", "25", "30", "31"], "rt": [5728, 255, 273, 42, 215], "actions": ["left", "left", "left", "down", "right"], "actionTimes": [10108, 10891, 11697, 12300, 13073], "queries": {"click": {"state": {"target": ["26"], "time": [5557]}, "edge": {"target": [], "time": []}}, "mouseover": {"state": {"target": ["23", "24", "26"], "time": [4849, 4906, 5162]}, "edge": {"target": [], "time": []}}, "mouseout": {"state": {"target": ["0", "23", "24", "26"], "time": [4829, 4887, 4929, 13976]}, "edge": {"target": [], "time": []}}}, "displayed_time": "18.38", "trialTime": 23201, "trial_type": "mouselab-mdp", "trial_index": 21, "time_elapsed": 773925, "internal_node_id": "0.0-4.0-1.0-12.0"}}, {"uniqueid": "w77984285:a14902636", "current_trial": 22, "dateTime": 1691160024536, "trialdata": {"revealed_states": [], "clicked_states": ["17"], "num_clicks_accrued": [0, 0, 0, 0, 0, 0, 0, 0, 0, 0, 0, 0, 0], "stateRewards": ["", 2, -3, -4, -1, 25, -16, 16, 10, -71, -20, -55, 1, 3, -4, -9, 1, 32, 11, -6, 32, -50, -41, -1, 4, 4, -8, 7, -81, 70, 2, -52, 45, -10], "withholdReward": false, "trial_id": "mdp_trial_14", "block": "test", "trialIndex": 15, "score": 21.6, "costs": -1.4, "simulationMode": [null, null, null, null, null], "rewards": [1, 3, -4, -9, 32], "path": ["0", "0", "12", "13", "14", "15", "17"], "rt": [5159, 239, 1254, 195, 100], "actions": ["right", "right", "right", "up", "right"], "actionTimes": [8423, 9216, 11051, 11789, 12425], "queries": {"click": {"state": {"target": ["17"], "time": [5046]}, "edge": {"target": [], "time": []}}, "mouseover": {"state": {"target": ["18", "15", "15", "17", "15"], "time": [3597, 3633, 4149, 4513, 7655]}, "edge": {"target": [], "time": []}}, "mouseout": {"state": {"target": ["17", "15", "18", "0", "18", "15", "15", "17", "17", "15", "15"], "time": [1381, 1403, 1433, 3533, 3619, 3694, 4480, 5243, 7627, 7738, 18533]}, "edge": {"target": [], "time": []}}}, "displayed_time": "17.27", "trialTime": 22647, "trial_type": "mouselab-mdp", "trial_index": 22, "time_elapsed": 798412, "internal_node_id": "0.0-4.0-1.0-13.0"}}, {"uniqueid": "w77984285:a14902636", "current_trial": 23, "dateTime": 1691160045623, "trialdata": {"revealed_states": [], "clicked_states": ["4"], "num_clicks_accrued": [0, 0, 0, 0, 0, 0, 0, 0, 0, 0, 0, 0, 0], "stateRewards": ["", 1, 2, 7, 13, 88, -71, 27, 3, 60, 5, -53, -2, 2, -6, -1, -30, 79, 47, -4, -14, 46, 68, 1, 1, 8, 10, -14, 86, 48, -11, -67, -44, 5], "withholdReward": false, "trial_id": "mdp_trial_15", "block": "test", "trialIndex": 16, "score": 71.6, "costs": -1.4, "simulationMode": [null, null, null, null, null], "rewards": [1, 2, 7, 3, 60], "path": ["0", "0", "1", "2", "3", "8", "9"], "rt": [4046, 312, 531, 634, 26], "actions": ["up", "up", "up", "left", "up"], "actionTimes": [6828, 7680, 8731, 9888, 10465], "queries": {"click": {"state": {"target": ["4"], "time": [4074]}, "edge": {"target": [], "time": []}}, "mouseover": {"state": {"target": ["1", "4"], "time": [3385, 3616]}, "edge": {"target": [], "time": []}}, "mouseout": {"state": {"target": ["18", "0", "0", "1", "4", "6"], "time": [1112, 1318, 1500, 3405, 15038, 15072]}, "edge": {"target": [], "time": []}}}, "displayed_time": "16.78", "trialTime": 19127, "trial_type": "mouselab-mdp", "trial_index": 23, "time_elapsed": 819499, "internal_node_id": "0.0-4.0-1.0-14.0"}}, {"uniqueid": "w77984285:a14902636", "current_trial": 24, "dateTime": 1691160067511, "trialdata": {"revealed_states": [], "clicked_states": ["4"], "num_clicks_accrued": [0, 0, 0, 0, 0, 0, 0, 0, 0, 0, 0, 0, 0], "stateRewards": ["", -2, -4, -2, -13, -15, 87, -19, -6, -80, 30, 12, 1, 1, -8, 2, 55, 56, 15, 11, -68, -7, 55, -2, 3, -3, -3, 48, 62, 4, 1, -3, 69, -33], "withholdReward": false, "trial_id": "mdp_trial_16", "block": "test", "trialIndex": 17, "score": -2.4000000000000004, "costs": -1.4, "simulationMode": [null, null, null, null, null], "rewards": [-2, 3, -3, -3, 4], "path": ["0", "0", "23", "24", "25", "26", "29"], "rt": [5665, 267, 994, 150, 100], "actions": ["left", "left", "left", "up", "left"], "actionTimes": [8676, 9481, 11003, 11682, 12308], "queries": {"click": {"state": {"target": ["4"], "time": [4722]}, "edge": {"target": [], "time": []}}, "mouseover": {"state": {"target": ["1", "4", "2", "24", "25"], "time": [3886, 3951, 7266, 7696, 7795]}, "edge": {"target": [], "time": []}}, "mouseout": {"state": {"target": ["16", "1", "4", "4", "2", "24", "25", "15", "18", "12"], "time": [1053, 3912, 4914, 7230, 7288, 7728, 8128, 18884, 19200, 19302]}, "edge": {"target": [], "time": []}}}, "displayed_time": "17.02", "trialTime": 19787, "trial_type": "mouselab-mdp", "trial_index": 24, "time_elapsed": 841387, "internal_node_id": "0.0-4.0-1.0-15.0"}}, {"uniqueid": "w77984285:a14902636", "current_trial": 25, "dateTime": 1691160091228, "trialdata": {"revealed_states": [], "clicked_states": [], "num_clicks_accrued": [0, 0, 0, 0, 0, 0, 0, 0, 0, 0, 0, 0, 0], "stateRewards": ["", -2, -4, -8, 8, 63, -50, -19, -7, -17, -31, 31, 1, 3, -5, 12, -35, -63, -29, -4, -17, -75, -79, -2, -3, -2, 8, -3, -85, 10, -2, -82, -82, 56], "withholdReward": false, "trial_id": "mdp_trial_17", "block": "test", "trialIndex": 18, "score": -38, "costs": 0, "simulationMode": [null, null, null, null, null], "rewards": [-2, -4, -8, -7, -17], "path": ["0", "0", "1", "2", "3", "8", "9"], "rt": [9321, 149, 660, 582, 344], "actions": ["up", "up", "up", "left", "up"], "actionTimes": [13701, 14408, 15600, 16748, 17668], "queries": {"click": {"state": {"target": [], "time": []}, "edge": {"target": [], "time": []}}, "mouseover": {"state": {"target": ["7", "1", "0", "18", "16", "4", "3", "8", "5"], "time": [6116, 6160, 6413, 7612, 7744, 8097, 8139, 8325, 10008]}, "edge": {"target": [], "time": []}}, "mouseout": {"state": {"target": ["0", "7", "1", "0", "18", "16", "4", "3", "8", "5", "20"], "time": [4674, 6147, 6210, 7580, 7645, 7803, 8121, 8183, 9981, 10024, 21062]}, "edge": {"target": [], "time": []}}}, "displayed_time": "18.38", "trialTime": 21472, "trial_type": "mouselab-mdp", "trial_index": 25, "time_elapsed": 865104, "internal_node_id": "0.0-4.0-1.0-16.0"}}], "questiondata": {"params": {"CODE": "C6DMOQA6", "MIN_TIME": 14, "inspectCost": 1, "startTime": "Fri Aug 04 2023 16:27:03 GMT+0200 (South Africa Standard Time)", "bonusRate": 0.002, "variance": "1_2_4_8_44", "branching": "31123"}}, "eventdata": [{"eventtype": "initialized", "value": null, "timestamp": 1691159222430, "interval": 0}, {"eventtype": "window_resize", "value": [1024, 658], "timestamp": 1691159222430, "interval": 0}, {"eventtype": "window_resize", "value": [1024, 658], "timestamp": 1691159222974, "interval": 544}, {"eventtype": "window_resize", "value": [1366, 768], "timestamp": 1691159235381, "interval": 12407}, {"eventtype": "window_resize", "value": [1024, 658], "timestamp": 1691159865923, "interval": 630542}, {"eventtype": "window_resize", "value": [1366, 674], "timestamp": 1691159868459, "interval": 2536}, {"eventtype": "window_resize", "value": [1024, 658], "timestamp": 1691159900077, "interval": 31618}, {"eventtype": "window_resize", "value": [1366, 674], "timestamp": 1691159902155, "interval": 2078}], "useragent": "Mozilla/5.0 (Windows NT 10.0; Win64; x64) AppleWebKit/537.36 (KHTML, like Gecko) Chrome/115.0.0.0 Safari/537.36 Edg/115.0.1901.188", "mode": "live", "id": "w77984285:a14902636", "status": "user data saved", "Beginhit": "2023-08-04 14:27:01.028639", "Beginexp": "2023-08-04 14:27:19.11171", "Endhit": null, "psiturkStatus": 2, "browser": "<redacted>", "platform": "windows", "language": "en-GB", "excludeReason": "dataincomplete"}