{"condition": 0, "counterbalance": 0, "assignmentId": "a38609414", "workerId": "w59007684", "hitId": "h25494447", "currenttrial": 55, "bonus": 0, "data": [{"uniqueid": "w59007684:a38609414", "current_trial": 0, "dateTime": 1693660307494, "trialdata": {"success": true, "trial_type": "fullscreen", "trial_index": 0, "time_elapsed": 7519, "internal_node_id": "0.0-0.0"}}, {"uniqueid": "w59007684:a38609414", "current_trial": 1, "dateTime": 1693660380393, "trialdata": {"view_history": [{"page_index": 0, "viewing_time": 72896}], "rt": 72896, "trial_id": "exp_instructions_control", "trial_type": "instructions", "trial_index": 1, "time_elapsed": 80418, "internal_node_id": "0.0-1.0"}}, {"uniqueid": "w59007684:a38609414", "current_trial": 2, "dateTime": 1693660693207, "trialdata": {"view_history": [{"page_index": 0, "viewing_time": 104675}, {"page_index": 1, "viewing_time": 113464}, {"page_index": 2, "viewing_time": 42407}, {"page_index": 3, "viewing_time": 52267}], "rt": 312812, "trial_id": "mouselab_instructions_1_control", "trial_type": "instructions", "trial_index": 2, "time_elapsed": 393232, "internal_node_id": "0.0-2.0-1.0"}}, {"uniqueid": "w59007684:a38609414", "current_trial": 3, "dateTime": 1693660722207, "trialdata": {"revealed_states": [], "clicked_states": ["17", "18", "14", "19", "20"], "num_clicks_accrued": [0, 0, 0, 0, 0, 0, 0, 0, 0, 0, 0, 0, 0], "stateRewards": ["", 10, 10, 10, 10, -10, -10, 10, -10, -10, -10, -10, 10, 10, -10, 10, -10, -10, -10, 10, -10, -10, -10, 10, -10, 10, 10, -10, -10, -10, -10, 10, -10, -10], "withholdReward": false, "trial_id": "practice_1", "block": "test", "trialIndex": 0, "score": 11, "costs": -2.5, "simulationMode": [null, null, null, null, null], "rewards": [10, 10, -10, 10, -10], "path": ["0", "0", "12", "13", "14", "19", "21"], "rt": [13743, 572, 348, 481, 3030], "actions": ["right", "right", "right", "down", "down"], "actionTimes": [17905, 18986, 19843, 20825, 24373], "queries": {"click": {"state": {"target": ["17", "18", "14", "19", "20"], "time": [6774, 8117, 9212, 11557, 12674]}, "edge": {"target": [], "time": []}}, "mouseover": {"state": {"target": ["1", "18", "15", "17", "15", "18", "14", "19", "20", "22", "12", "12", "13", "14", "19", "22"], "time": [5662, 5845, 6012, 6264, 7463, 7812, 8962, 9828, 12344, 13711, 13826, 14093, 14743, 15059, 15628, 16359]}, "edge": {"target": [], "time": []}}, "mouseout": {"state": {"target": ["0", "1", "18", "15", "17", "15", "18", "14", "19", "20", "19", "22", "12", "12", "13", "14", "19", "22"], "time": [5565, 5696, 5963, 6112, 7429, 7646, 8728, 9745, 12311, 13544, 13694, 13727, 13895, 14643, 15026, 15343, 16326, 16376]}, "edge": {"target": [], "time": []}}}, "displayed_time": "24.89", "trialTime": 28583, "trial_type": "mouselab-mdp", "trial_index": 3, "time_elapsed": 422230, "internal_node_id": "0.0-2.0-2.0-0.0"}}, {"uniqueid": "w59007684:a38609414", "current_trial": 4, "dateTime": 1693660772289, "trialdata": {"revealed_states": [], "clicked_states": ["28", "30", "33", "8", "14", "21", "22", "15", "17", "19", "4", "26", "32", "7"], "num_clicks_accrued": [0, 0, 0, 0, 0, 0, 0, 0, 0, 0, 0, 0, 0], "stateRewards": ["", -10, 10, -10, 10, 10, -10, 10, 10, 10, 10, -10, -10, -10, 10, -10, -10, 10, 10, -10, 10, -10, 10, -10, -10, -10, 10, -10, -10, 10, -10, -10, -10, -10], "withholdReward": false, "trial_id": "practice_2", "block": "test", "trialIndex": 1, "score": -13.5, "costs": -7, "simulationMode": [null, null, null, null, null], "rewards": [-10, -10, 10, -10, 10], "path": ["0", "0", "12", "13", "14", "19", "22"], "rt": [39216, 294, 157, 429, 1306], "actions": ["right", "right", "right", "down", "left"], "actionTimes": [41843, 42654, 43318, 44256, 46100], "queries": {"click": {"state": {"target": ["28", "30", "33", "8", "14", "21", "22", "15", "17", "19", "4", "26", "32", "7"], "time": [3992, 6439, 7550, 9807, 12224, 17323, 18661, 19962, 21917, 24908, 29068, 31177, 33462, 38026]}, "edge": {"target": [], "time": []}}, "mouseover": {"state": {"target": ["0", "23", "24", "28", "26", "25", "30", "33", "24", "23", "1", "2", "3", "8", "2", "13", "14", "19", "21", "22", "13", "15", "17", "12", "12", "13", "14", "19", "12", "1", "2", "3", "3", "8", "3", "4", "3", "2", "28", "26", "25", "30", "32", "25", "31", "0", "12", "12", "2", "7", "1", "1", "2", "7", "18", "13", "19", "22"], "time": [3069, 3118, 3252, 3518, 4619, 5651, 5917, 7268, 8186, 8252, 8733, 8833, 9150, 9466, 11033, 11817, 11949, 12836, 16933, 18049, 19333, 19500, 21380, 22864, 23033, 23546, 24063, 24598, 25831, 26246, 26312, 26579, 27379, 27547, 28563, 28795, 29912, 30129, 30528, 30845, 31912, 33065, 33178, 34610, 34712, 35060, 35111, 35611, 35944, 36111, 36977, 37177, 37326, 37693, 38694, 38728, 39459, 40793]}, "edge": {"target": [], "time": []}}, "mouseout": {"state": {"target": ["0", "0", "23", "24", "28", "26", "25", "30", "30", "33", "24", "23", "1", "2", "3", "8", "2", "13", "14", "19", "21", "22", "13", "15", "17", "15", "12", "12", "13", "14", "19", "12", "1", "2", "3", "3", "8", "3", "4", "3", "2", "28", "26", "25", "30", "32", "25", "31", "0", "12", "12", "2", "7", "1", "1", "2", "7", "18", "13", "19"], "time": [2068, 3085, 3202, 3369, 4602, 5618, 5785, 6662, 7084, 8068, 8218, 8318, 8784, 9017, 9450, 10934, 11433, 11833, 12783, 15832, 17549, 19317, 19382, 21314, 22581, 22631, 22964, 23496, 24030, 24563, 25797, 25898, 26280, 26513, 26963, 27413, 28529, 28696, 29729, 30029, 30247, 30628, 31846, 32079, 33111, 33995, 34644, 34893, 35094, 35243, 35643, 36061, 36893, 37010, 37293, 37510, 38678, 38713, 39076, 40759]}, "edge": {"target": [], "time": []}}}, "displayed_time": "46.61", "trialTime": 49829, "trial_type": "mouselab-mdp", "trial_index": 4, "time_elapsed": 472314, "internal_node_id": "0.0-2.0-2.0-1.0"}}, {"uniqueid": "w59007684:a38609414", "current_trial": 5, "dateTime": 1693660884643, "trialdata": {"view_history": [{"page_index": 0, "viewing_time": 102209}, {"page_index": 1, "viewing_time": 10140}], "rt": 112350, "trial_id": "mouselab_instructions_2_control", "trial_type": "instructions", "trial_index": 5, "time_elapsed": 584668, "internal_node_id": "0.0-2.0-3.0"}}, {"uniqueid": "w59007684:a38609414", "current_trial": 6, "dateTime": 1693660928187, "trialdata": {"rt": 43540, "response": {"Q0": "The cost for clicking on nodes may vary between nodes.", "Q1": "The better I perform the higher my bonus will be.", "Q2": "No, the amount of cash at each node of the web may be different each time.", "Q3": "To get the highest total score.", "Q4": "Only before moving the spider.", "Q5": "3 seconds"}, "question_order": [0, 1, 2, 3, 4, 5], "correct": {"Q0": "The cost for clicking on nodes may vary between nodes.", "Q1": "The better I perform the higher my bonus will be.", "Q2": "No, the amount of cash at each node of the web may be different each time.", "Q3": "To get the highest total score.", "Q4": "Only before moving the spider.", "Q5": "3 seconds"}, "trial_id": "mouselab_quiz_control", "trial_type": "survey-multi-choice", "trial_index": 6, "time_elapsed": 628211, "internal_node_id": "0.0-2.0-4.0"}}, {"uniqueid": "w59007684:a38609414", "current_trial": 7, "dateTime": 1693660935366, "trialdata": {"rt": 7174, "response": {"Q0": "No"}, "question_order": [0], "trial_id": "repeat_check", "trial_type": "survey-multi-choice", "trial_index": 7, "time_elapsed": 635391, "internal_node_id": "0.0-4.0-0.0"}}, {"uniqueid": "w59007684:a38609414", "current_trial": 8, "dateTime": 1693660947474, "trialdata": {"rt": 12104, "stimulus": "\n<h1> Get ready to start the game! </h1>\n\nThank you for reading the instructions. Get ready start with the 40 rounds of this game.\n<br><br>\nIf you need to take a break, feel free to take one after the end of a round, before continuing to the next one.\n<br><br>\nRemember, the more money the spider gets, the bigger your bonus will be!\n<br><br>\n<div style='text-align: center;'>Press <code>space</code> to begin.</div>\n\n<br><br>\n(If, at any point, the <code>space</code> key does not take you to the next page, click once on the text and try again.)", "response": " ", "trial_id": "mdp_ready", "trial_type": "html-keyboard-response", "trial_index": 8, "time_elapsed": 647499, "internal_node_id": "0.0-6.0-0.0"}}, {"uniqueid": "w59007684:a38609414", "current_trial": 9, "dateTime": 1693660971986, "trialdata": {"revealed_states": [], "clicked_states": ["14", "15", "30", "31", "27"], "num_clicks_accrued": [0, 0, 0, 0, 0, 0, 0, 0, 0, 0, 0, 0, 0], "stateRewards": ["", 2, -4, -8, -15, 71, -43, -41, 7, -17, 20, 67, -1, -1, -4, 6, 37, -24, -47, 9, 34, 57, 45, 1, 2, -4, -5, -23, 88, -5, 13, -40, 43, 44], "withholdReward": false, "trial_id": "mdp_trial_1", "block": "test", "trialIndex": 2, "score": 49, "costs": -7, "simulationMode": [null, null, null, null, null], "rewards": [1, 2, -4, 13, 44], "path": ["0", "0", "23", "24", "25", "30", "33"], "rt": [13710, 308, 289, 247, 918], "actions": ["left", "left", "left", "down", "left"], "actionTimes": [15847, 16649, 17429, 18169, 19608], "queries": {"click": {"state": {"target": ["14", "15", "30", "31", "27"], "time": [3296, 5583, 8051, 9691, 11931]}, "edge": {"target": [], "time": []}}, "mouseover": {"state": {"target": ["12", "13", "14", "19", "15", "23", "24", "25", "30", "31", "24", "26", "27", "26", "28", "23"], "time": [2641, 2941, 3059, 4024, 5007, 6808, 7125, 7541, 7840, 9442, 10524, 11306, 11656, 13323, 13406, 14272]}, "edge": {"target": [], "time": []}}, "mouseout": {"state": {"target": ["0", "12", "13", "14", "19", "14", "15", "23", "24", "25", "30", "31", "24", "26", "27", "26", "28", "23"], "time": [2626, 2726, 2976, 3942, 4943, 4974, 6292, 7093, 7307, 7574, 8924, 10441, 10940, 11556, 12923, 13358, 13693, 15155]}, "edge": {"target": [], "time": []}}}, "displayed_time": "20.11", "trialTime": 24222, "trial_type": "mouselab-mdp", "trial_index": 9, "time_elapsed": 672011, "internal_node_id": "0.0-6.0-1.0-0.0"}}, {"uniqueid": "w59007684:a38609414", "current_trial": 10, "dateTime": 1693660991243, "trialdata": {"revealed_states": [], "clicked_states": ["26", "33"], "num_clicks_accrued": [0, 0, 0, 0, 0, 0, 0, 0, 0, 0, 0, 0, 0], "stateRewards": ["", -2, -3, -5, 8, 27, 11, 43, -6, -24, -87, 69, -2, 1, 1, 9, 19, 48, -37, 9, -14, 45, 62, 1, 2, 1, 16, -81, -41, 22, 4, -6, -63, 47], "withholdReward": false, "trial_id": "mdp_trial_2", "block": "test", "trialIndex": 3, "score": -23.8, "costs": -2.8, "simulationMode": [null, null, null, null, null], "rewards": [1, 2, 1, 16, -41], "path": ["0", "0", "23", "24", "25", "26", "28"], "rt": [6714, 284, 160, 1492, 710], "actions": ["left", "left", "left", "up", "right"], "actionTimes": [8594, 9385, 10042, 12057, 13256], "queries": {"click": {"state": {"target": ["26", "33"], "time": [3307, 5496]}, "edge": {"target": [], "time": []}}, "mouseover": {"state": {"target": ["23", "24", "25", "26", "25", "33", "30", "31", "0"], "time": [2414, 2514, 2747, 3063, 3881, 4098, 6130, 6296, 6797]}, "edge": {"target": [], "time": []}}, "mouseout": {"state": {"target": ["0", "23", "24", "25", "26", "25", "33", "30", "31"], "time": [2364, 2481, 2581, 2930, 3865, 3903, 6113, 6230, 6380]}, "edge": {"target": [], "time": []}}}, "displayed_time": "15.88", "trialTime": 19007, "trial_type": "mouselab-mdp", "trial_index": 10, "time_elapsed": 691268, "internal_node_id": "0.0-6.0-1.0-1.0"}}, {"uniqueid": "w59007684:a38609414", "current_trial": 11, "dateTime": 1693661019358, "trialdata": {"revealed_states": [], "clicked_states": ["19", "17", "25", "33", "31", "4", "7", "10", "16"], "num_clicks_accrued": [0, 0, 0, 0, 0, 0, 0, 0, 0, 0, 0, 0, 0], "stateRewards": ["", 1, -1, -7, -7, -22, 15, -13, 13, 26, -32, 38, -1, 1, -7, -4, 16, -62, 86, 12, -54, 56, 64, -2, -1, 6, 14, -57, 37, 62, -6, -25, 50, -70], "withholdReward": false, "trial_id": "mdp_trial_3", "block": "test", "trialIndex": 4, "score": -7.600000000000001, "costs": -12.600000000000001, "simulationMode": [null, null, null, null, null], "rewards": [-1, 1, -7, -4, 16], "path": ["0", "0", "12", "13", "14", "15", "16"], "rt": [20001, 310, 188, 715, 143], "actions": ["right", "right", "right", "up", "up"], "actionTimes": [21427, 22254, 22948, 24175, 24836], "queries": {"click": {"state": {"target": ["19", "17", "25", "33", "31", "4", "7", "10", "16"], "time": [3547, 5391, 7054, 9921, 11668, 13226, 14820, 16760, 19217]}, "edge": {"target": [], "time": []}}, "mouseover": {"state": {"target": ["12", "13", "14", "19", "14", "15", "15", "17", "23", "24", "25", "26", "27", "26", "33", "30", "31", "23", "2", "3", "4", "7", "2", "10", "2", "15", "16", "15", "17"], "time": [1880, 1946, 2196, 2396, 4179, 4346, 4832, 5179, 6113, 6296, 6533, 7812, 8298, 8777, 9230, 10512, 10662, 12161, 12294, 12745, 12945, 14047, 15394, 15710, 17344, 18027, 18975, 19843, 20110]}, "edge": {"target": [], "time": []}}, "mouseout": {"state": {"target": ["0", "12", "13", "14", "19", "14", "15", "15", "17", "23", "24", "25", "26", "27", "26", "25", "33", "30", "31", "23", "2", "3", "4", "7", "2", "10", "10", "2", "15", "16", "15", "17"], "time": [1863, 1914, 2047, 2263, 4096, 4246, 4479, 5063, 5964, 6229, 6414, 7274, 8214, 8762, 8811, 8978, 10478, 10562, 12128, 12177, 12478, 12827, 13860, 15361, 15561, 16985, 17343, 17376, 18692, 19759, 19893, 20242]}, "edge": {"target": [], "time": []}}}, "displayed_time": "25.34", "trialTime": 27826, "trial_type": "mouselab-mdp", "trial_index": 11, "time_elapsed": 719383, "internal_node_id": "0.0-6.0-1.0-2.0"}}, {"uniqueid": "w59007684:a38609414", "current_trial": 12, "dateTime": 1693661041698, "trialdata": {"revealed_states": [], "clicked_states": ["16", "21"], "num_clicks_accrued": [0, 0, 0, 0, 0, 0, 0, 0, 0, 0, 0, 0, 0], "stateRewards": ["", 2, -2, -8, 9, -20, 55, -58, 14, 42, 2, 36, 1, -3, -5, 5, -58, 57, 60, 16, 57, 30, -70, -2, 1, 3, 10, 59, 23, 77, -13, -26, 88, -72], "withholdReward": false, "trial_id": "mdp_trial_4", "block": "test", "trialIndex": 5, "score": 36.2, "costs": -2.8, "simulationMode": [null, null, null, null, null], "rewards": [1, -3, -5, 16, 30], "path": ["0", "0", "12", "13", "14", "19", "21"], "rt": [7082, 210, 118, 138, 163], "actions": ["right", "right", "right", "down", "down"], "actionTimes": [8872, 9582, 10206, 10862, 11518], "queries": {"click": {"state": {"target": ["16", "21"], "time": [3065, 4610]}, "edge": {"target": [], "time": []}}, "mouseover": {"state": {"target": ["12", "13", "14", "15", "16", "15", "14", "19", "21", "32", "30", "31"], "time": [2221, 2271, 2438, 2622, 2821, 3706, 3871, 3973, 4255, 5338, 6736, 7603]}, "edge": {"target": [], "time": []}}, "mouseout": {"state": {"target": ["13", "12", "0", "12", "13", "14", "15", "16", "15", "14", "19", "21", "32", "30", "31"], "time": [655, 722, 2204, 2255, 2338, 2521, 2722, 3656, 3806, 3938, 4122, 5155, 6704, 7586, 7637]}, "edge": {"target": [], "time": []}}}, "displayed_time": "15.79", "trialTime": 21998, "trial_type": "mouselab-mdp", "trial_index": 12, "time_elapsed": 741723, "internal_node_id": "0.0-6.0-1.0-3.0"}}, {"uniqueid": "w59007684:a38609414", "current_trial": 13, "dateTime": 1693661060576, "trialdata": {"revealed_states": [], "clicked_states": ["21", "29", "31"], "num_clicks_accrued": [0, 0, 0, 0, 0, 0, 0, 0, 0, 0, 0, 0, 0], "stateRewards": ["", -1, 2, 5, -6, 13, -64, -47, 8, -79, -80, -33, 1, 2, -2, -16, 56, -71, -10, 3, 29, 44, 85, -1, 4, 5, 4, -36, -56, 19, 8, 52, -13, -2], "withholdReward": false, "trial_id": "mdp_trial_5", "block": "test", "trialIndex": 6, "score": 26.8, "costs": -4.199999999999999, "simulationMode": [null, null, null, null, null], "rewards": [-1, 4, 5, 4, 19], "path": ["0", "0", "23", "24", "25", "26", "29"], "rt": [7121, 136, 135, 456, 185], "actions": ["left", "left", "left", "up", "left"], "actionTimes": [8176, 8815, 9446, 10417, 11096], "queries": {"click": {"state": {"target": ["21", "29", "31"], "time": [2276, 3836, 5767]}, "edge": {"target": [], "time": []}}, "mouseover": {"state": {"target": ["0", "12", "22", "21", "29", "32", "31"], "time": [1489, 1512, 1628, 2012, 3312, 4696, 5511]}, "edge": {"target": [], "time": []}}, "mouseout": {"state": {"target": ["0", "0", "12", "22", "21", "29", "32", "31"], "time": [678, 1496, 1546, 1696, 2504, 4397, 5247, 6912]}, "edge": {"target": [], "time": []}}}, "displayed_time": "15.06", "trialTime": 18604, "trial_type": "mouselab-mdp", "trial_index": 13, "time_elapsed": 760600, "internal_node_id": "0.0-6.0-1.0-4.0"}}, {"uniqueid": "w59007684:a38609414", "current_trial": 14, "dateTime": 1693661079200, "trialdata": {"revealed_states": [], "clicked_states": ["4", "8", "10", "7"], "num_clicks_accrued": [0, 0, 0, 0, 0, 0, 0, 0, 0, 0, 0, 0, 0], "stateRewards": ["", 2, 4, -6, -13, -75, -81, 30, 7, 5, 59, -65, -1, -1, 7, 14, -38, 36, -41, 1, -54, -5, 64, 2, -1, 5, 6, -19, 79, 11, 16, -33, -50, 58], "withholdReward": false, "trial_id": "mdp_trial_6", "block": "test", "trialIndex": 7, "score": 60.4, "costs": -5.6, "simulationMode": [null, null, null, null, null], "rewards": [2, 4, -6, 7, 59], "path": ["0", "0", "1", "2", "3", "8", "10"], "rt": [8989, 218, 197, 427, 193], "actions": ["up", "up", "up", "left", "down"], "actionTimes": [10245, 10962, 11675, 12623, 13322], "queries": {"click": {"state": {"target": ["4", "8", "10", "7"], "time": [2402, 4092, 5672, 7467]}, "edge": {"target": [], "time": []}}, "mouseover": {"state": {"target": ["1", "2", "3", "4", "3", "8", "10", "2", "7"], "time": [1661, 1728, 1929, 2145, 3061, 3278, 4865, 6244, 6611]}, "edge": {"target": [], "time": []}}, "mouseout": {"state": {"target": ["0", "1", "2", "3", "4", "3", "8", "10", "2", "7", "7"], "time": [1628, 1695, 1827, 2061, 3045, 3145, 4711, 5888, 6294, 7684, 9576]}, "edge": {"target": [], "time": []}}}, "displayed_time": "15.26", "trialTime": 18349, "trial_type": "mouselab-mdp", "trial_index": 14, "time_elapsed": 779224, "internal_node_id": "0.0-6.0-1.0-5.0"}}, {"uniqueid": "w59007684:a38609414", "current_trial": 15, "dateTime": 1693661098930, "trialdata": {"revealed_states": [], "clicked_states": ["10", "7"], "num_clicks_accrued": [0, 0, 0, 0, 0, 0, 0, 0, 0, 0, 0, 0, 0], "stateRewards": ["", -1, 1, 8, -3, -24, 11, -65, -6, -77, 48, 44, -2, 1, -2, -7, -55, -35, 33, 8, -28, 19, -53, -1, -1, -5, -5, -70, 10, 44, 8, -58, -70, 51], "withholdReward": false, "trial_id": "mdp_trial_7", "block": "test", "trialIndex": 8, "score": 47.2, "costs": -2.8, "simulationMode": [null, null, null, null, null, null], "rewards": [-1, 1, 8, -6, 48], "path": ["0", "0", "1", "2", "3", "8", "10"], "rt": [3875, 621, 92, 79, 206, 69], "actions": ["up", "up", "up", "up", "left", "down"], "actionTimes": [5454, 6077, 6683, 7253, 7963, 8544], "queries": {"click": {"state": {"target": ["10", "7"], "time": [2336, 4174]}, "edge": {"target": [], "time": []}}, "mouseover": {"state": {"target": ["1", "10", "2", "7", "1"], "time": [1891, 2108, 2909, 3042, 4824]}, "edge": {"target": [], "time": []}}, "mouseout": {"state": {"target": ["1", "10", "2", "7", "1"], "time": [1907, 2563, 2958, 4393, 4841]}, "edge": {"target": [], "time": []}}}, "displayed_time": "15.58", "trialTime": 19464, "trial_type": "mouselab-mdp", "trial_index": 15, "time_elapsed": 798955, "internal_node_id": "0.0-6.0-1.0-6.0"}}, {"uniqueid": "w59007684:a38609414", "current_trial": 16, "dateTime": 1693661118171, "trialdata": {"revealed_states": [], "clicked_states": ["10", "7"], "num_clicks_accrued": [0, 0, 0, 0, 0, 0, 0, 0, 0, 0, 0, 0, 0], "stateRewards": ["", -1, -3, -5, -14, -13, -47, 79, 8, -60, -64, 41, -1, 2, 3, 13, -46, 61, -79, -11, -64, -65, 23, 1, -2, 6, -14, 46, 32, 21, 7, 75, -66, 15], "withholdReward": false, "trial_id": "mdp_trial_8", "block": "test", "trialIndex": 9, "score": 53.2, "costs": -2.8, "simulationMode": [null, null, null, null, null], "rewards": [-1, -3, -5, -14, 79], "path": ["0", "0", "1", "2", "3", "4", "7"], "rt": [5595, 82, 103, 199, 180], "actions": ["up", "up", "up", "right", "down"], "actionTimes": [6866, 7467, 8072, 8785, 9481], "queries": {"click": {"state": {"target": ["10", "7"], "time": [1980, 4097]}, "edge": {"target": [], "time": []}}, "mouseover": {"state": {"target": ["1", "10", "2", "7", "18"], "time": [1568, 1685, 2619, 2769, 5485]}, "edge": {"target": [], "time": []}}, "mouseout": {"state": {"target": ["1", "10", "2", "7", "7", "18", "0"], "time": [1585, 2603, 2669, 4322, 5453, 5884, 17415]}, "edge": {"target": [], "time": []}}}, "displayed_time": "15.27", "trialTime": 18871, "trial_type": "mouselab-mdp", "trial_index": 16, "time_elapsed": 818196, "internal_node_id": "0.0-6.0-1.0-7.0"}}, {"uniqueid": "w59007684:a38609414", "current_trial": 17, "dateTime": 1693661136807, "trialdata": {"revealed_states": [], "clicked_states": ["7"], "num_clicks_accrued": [0, 0, 0, 0, 0, 0, 0, 0, 0, 0, 0, 0, 0], "stateRewards": ["", -2, -3, 7, -13, 60, 9, 37, -6, 37, 20, 1, 2, -2, -8, 6, -80, -31, -10, -7, 70, -65, -44, -1, 1, 7, 6, -11, 73, -85, 16, -21, 47, 34], "withholdReward": false, "trial_id": "mdp_trial_9", "block": "test", "trialIndex": 10, "score": 24.6, "costs": -1.4, "simulationMode": [null, null, null, null, null], "rewards": [-2, -3, 7, -13, 37], "path": ["0", "0", "1", "2", "3", "4", "7"], "rt": [3429, 83, 65, 585, 76], "actions": ["up", "up", "up", "right", "down"], "actionTimes": [4401, 4995, 5560, 6664, 7238], "queries": {"click": {"state": {"target": ["7"], "time": [1619]}, "edge": {"target": [], "time": []}}, "mouseover": {"state": {"target": ["7", "2", "10"], "time": [1361, 2212, 2312]}, "edge": {"target": [], "time": []}}, "mouseout": {"state": {"target": ["0", "7", "2", "10", "23"], "time": [1220, 2182, 2245, 16124, 16457]}, "edge": {"target": [], "time": []}}}, "displayed_time": "14.97", "trialTime": 18287, "trial_type": "mouselab-mdp", "trial_index": 17, "time_elapsed": 836832, "internal_node_id": "0.0-6.0-1.0-8.0"}}, {"uniqueid": "w59007684:a38609414", "current_trial": 18, "dateTime": 1693661157118, "trialdata": {"revealed_states": [], "clicked_states": ["7", "10", "29"], "num_clicks_accrued": [0, 0, 0, 0, 0, 0, 0, 0, 0, 0, 0, 0, 0], "stateRewards": ["", -2, 1, -7, -8, -37, -76, -87, 11, 30, -63, 80, -1, 4, 2, -1, 42, 17, 52, -3, -75, -80, -68, 2, -3, -5, -15, -48, 82, 24, -7, 5, -22, -71], "withholdReward": false, "trial_id": "mdp_trial_10", "block": "test", "trialIndex": 11, "score": -1.1999999999999993, "costs": -4.199999999999999, "simulationMode": [null, null, null, null, null], "rewards": [2, -3, -5, -15, 24], "path": ["0", "0", "23", "24", "25", "26", "29"], "rt": [7488, 79, 67, 738, 76], "actions": ["left", "left", "left", "up", "left"], "actionTimes": [9006, 9577, 10165, 11420, 11991], "queries": {"click": {"state": {"target": ["7", "10", "29"], "time": [2263, 4276, 6255]}, "edge": {"target": [], "time": []}}, "mouseover": {"state": {"target": ["7", "2", "10", "28", "26", "29", "25", "30", "33", "30", "31"], "time": [1936, 2916, 3114, 4981, 5282, 5486, 6948, 7815, 8015, 8263, 8347]}, "edge": {"target": [], "time": []}}, "mouseout": {"state": {"target": ["0", "7", "2", "10", "28", "26", "29", "25", "30", "33", "30", "31"], "time": [514, 2884, 2983, 4899, 5265, 5350, 6848, 7614, 7847, 8246, 8297, 8380]}, "edge": {"target": [], "time": []}}}, "displayed_time": "15.52", "trialTime": 20023, "trial_type": "mouselab-mdp", "trial_index": 18, "time_elapsed": 857143, "internal_node_id": "0.0-6.0-1.0-9.0"}}, {"uniqueid": "w59007684:a38609414", "current_trial": 19, "dateTime": 1693661175324, "trialdata": {"revealed_states": [], "clicked_states": ["29"], "num_clicks_accrued": [0, 0, 0, 0, 0, 0, 0, 0, 0, 0, 0, 0, 0], "stateRewards": ["", -1, -3, -7, -4, -85, -70, 79, 8, 84, -66, 42, 2, -2, -3, -16, -54, -66, 68, -3, 21, -14, 7, -2, -1, -3, -8, 75, 80, 86, -7, -84, 73, -16], "withholdReward": false, "trial_id": "mdp_trial_11", "block": "test", "trialIndex": 12, "score": 70.6, "costs": -1.4, "simulationMode": [null, null, null, null, null], "rewards": [-2, -1, -3, -8, 86], "path": ["0", "0", "23", "24", "25", "26", "29"], "rt": [3984, 32, 12, 157, 38], "actions": ["left", "left", "left", "up", "left"], "actionTimes": [5791, 6342, 6871, 7532, 8080], "queries": {"click": {"state": {"target": ["29"], "time": [3062]}, "edge": {"target": [], "time": []}}, "mouseover": {"state": {"target": ["23", "24", "26", "29", "10"], "time": [2458, 2525, 2742, 2891, 3825]}, "edge": {"target": [], "time": []}}, "mouseout": {"state": {"target": ["31", "0", "23", "24", "26", "29", "10", "1"], "time": [759, 2427, 2493, 2575, 2793, 3692, 17274, 17339]}, "edge": {"target": [], "time": []}}}, "displayed_time": "15.81", "trialTime": 17928, "trial_type": "mouselab-mdp", "trial_index": 19, "time_elapsed": 875349, "internal_node_id": "0.0-6.0-1.0-10.0"}}, {"uniqueid": "w59007684:a38609414", "current_trial": 20, "dateTime": 1693661196774, "trialdata": {"revealed_states": [], "clicked_states": ["29"], "num_clicks_accrued": [0, 0, 0, 0, 0, 0, 0, 0, 0, 0, 0, 0, 0], "stateRewards": ["", -1, -3, 1, 13, -64, -29, 12, -4, -33, 50, 56, 2, -3, 4, 11, -64, -58, -55, 12, 47, 38, -25, -2, 2, 5, -15, 85, 7, 84, 10, 8, 57, 26], "withholdReward": false, "trial_id": "mdp_trial_12", "block": "test", "trialIndex": 13, "score": 72.6, "costs": -1.4, "simulationMode": [null, null, null, null, null], "rewards": [-2, 2, 5, -15, 84], "path": ["0", "0", "23", "24", "25", "26", "29"], "rt": [3528, 3, 18, 1103, 13], "actions": ["left", "left", "left", "up", "left"], "actionTimes": [4618, 5124, 5672, 7290, 7816], "queries": {"click": {"state": {"target": ["29"], "time": [1954]}, "edge": {"target": [], "time": []}}, "mouseover": {"state": {"target": ["23", "26", "29", "26", "10"], "time": [1387, 1470, 1770, 2553, 2654]}, "edge": {"target": [], "time": []}}, "mouseout": {"state": {"target": ["12", "23", "26", "29", "26", "10", "0", "0"], "time": [369, 1403, 1586, 2536, 2570, 16949, 17933, 19188]}, "edge": {"target": [], "time": []}}}, "displayed_time": "15.09", "trialTime": 21110, "trial_type": "mouselab-mdp", "trial_index": 20, "time_elapsed": 896798, "internal_node_id": "0.0-6.0-1.0-11.0"}}, {"uniqueid": "w59007684:a38609414", "current_trial": 21, "dateTime": 1693661213449, "trialdata": {"revealed_states": [], "clicked_states": ["29", "10", "7"], "num_clicks_accrued": [0, 0, 0, 0, 0, 0, 0, 0, 0, 0, 0, 0, 0], "stateRewards": ["", -1, 1, 6, -6, 70, 66, 67, -16, -75, -35, 37, -1, 4, 4, -6, 47, -9, 63, 15, 21, -63, 13, 1, 3, -6, 10, 79, -29, 18, -15, 9, -67, -19], "withholdReward": false, "trial_id": "mdp_trial_13", "block": "test", "trialIndex": 14, "score": 62.8, "costs": -4.199999999999999, "simulationMode": [null, null, null, null, null], "rewards": [-1, 1, 6, -6, 67], "path": ["0", "0", "1", "2", "3", "4", "7"], "rt": [8035, 26, 31, 482, 44], "actions": ["up", "up", "up", "right", "down"], "actionTimes": [9092, 9610, 10164, 11182, 11726], "queries": {"click": {"state": {"target": ["29", "10", "7"], "time": [1890, 4220, 6294]}, "edge": {"target": [], "time": []}}, "mouseover": {"state": {"target": ["24", "26", "29", "26", "10", "2", "7", "15"], "time": [1387, 1467, 1684, 2501, 2733, 4901, 4984, 7982]}, "edge": {"target": [], "time": []}}, "mouseout": {"state": {"target": ["0", "24", "26", "29", "26", "10", "2", "7", "15"], "time": [1337, 1403, 1517, 2484, 2523, 4441, 4946, 7882, 8349]}, "edge": {"target": [], "time": []}}}, "displayed_time": "15.06", "trialTime": 16371, "trial_type": "mouselab-mdp", "trial_index": 21, "time_elapsed": 913474, "internal_node_id": "0.0-6.0-1.0-12.0"}}, {"uniqueid": "w59007684:a38609414", "current_trial": 22, "dateTime": 1693661231938, "trialdata": {"revealed_states": [], "clicked_states": ["17", "20", "29", "33", "31"], "num_clicks_accrued": [0, 0, 0, 0, 0, 0, 0, 0, 0, 0, 0, 0, 0], "stateRewards": ["", 2, 3, 3, 10, 19, -21, 6, 9, 54, 68, 16, 2, 2, -6, -8, 40, -2, -75, -2, -42, 55, 59, -1, 2, 4, -14, 11, -34, -30, -6, 61, -53, 13], "withholdReward": false, "trial_id": "mdp_trial_14", "block": "test", "trialIndex": 15, "score": 53, "costs": -7, "simulationMode": [null, null, null, null, null], "rewards": [-1, 2, 4, -6, 61], "path": ["0", "0", "23", "24", "25", "30", "31"], "rt": [11915, 469, 122, 63, 124], "actions": ["left", "left", "left", "down", "right"], "actionTimes": [13169, 14152, 14768, 15343, 15987], "queries": {"click": {"state": {"target": ["17", "20", "29", "33", "31"], "time": [2299, 4264, 6219, 8177, 10365]}, "edge": {"target": [], "time": []}}, "mouseover": {"state": {"target": ["15", "17", "17", "20", "19", "23", "29", "33", "30", "31"], "time": [1581, 1647, 2081, 3215, 4766, 4830, 5266, 7130, 9314, 9448]}, "edge": {"target": [], "time": []}}, "mouseout": {"state": {"target": ["14", "13", "12", "0", "15", "17", "17", "20", "19", "23", "29", "33", "30", "31"], "time": [531, 581, 664, 1523, 1615, 1748, 2949, 4764, 4781, 4849, 6782, 9298, 9348, 12363]}, "edge": {"target": [], "time": []}}}, "displayed_time": "16.48", "trialTime": 18178, "trial_type": "mouselab-mdp", "trial_index": 22, "time_elapsed": 931962, "internal_node_id": "0.0-6.0-1.0-13.0"}}, {"uniqueid": "w59007684:a38609414", "current_trial": 23, "dateTime": 1693661250803, "trialdata": {"revealed_states": [], "clicked_states": ["32", "33", "29", "10"], "num_clicks_accrued": [0, 0, 0, 0, 0, 0, 0, 0, 0, 0, 0, 0, 0], "stateRewards": ["", -1, 4, 3, 12, -27, 34, -33, 3, -63, 1, 6, 2, 2, -6, -11, -77, -85, 68, -6, 51, 81, -60, -2, -2, 1, 15, 20, 15, 68, -10, -14, 6, -4], "withholdReward": false, "trial_id": "mdp_trial_15", "block": "test", "trialIndex": 16, "score": 74.4, "costs": -5.6, "simulationMode": [null, null, null, null, null, null], "rewards": [-2, -2, 1, 15, 68], "path": ["0", "0", "23", "24", "25", "26", "29"], "rt": [7824, 531, 49, 48, 1252, 214], "actions": ["left", "left", "left", "left", "up", "left"], "actionTimes": [9169, 9703, 10271, 10836, 12624, 13351], "queries": {"click": {"state": {"target": ["32", "33", "29", "10"], "time": [2227, 4292, 6225, 7951]}, "edge": {"target": [], "time": []}}, "mouseover": {"state": {"target": ["31", "32", "33", "29", "26", "2", "10", "24"], "time": [1755, 1939, 3022, 5139, 6788, 7254, 7521, 8571]}, "edge": {"target": [], "time": []}}, "mouseout": {"state": {"target": ["0", "31", "32", "33", "29", "26", "2", "10", "24"], "time": [1698, 1808, 2806, 4856, 6771, 6838, 7488, 8522, 8621]}, "edge": {"target": [], "time": []}}}, "displayed_time": "15.35", "trialTime": 18572, "trial_type": "mouselab-mdp", "trial_index": 23, "time_elapsed": 950827, "internal_node_id": "0.0-6.0-1.0-14.0"}}, {"uniqueid": "w59007684:a38609414", "current_trial": 24, "dateTime": 1693661268035, "trialdata": {"revealed_states": [], "clicked_states": ["29"], "num_clicks_accrued": [0, 0, 0, 0, 0, 0, 0, 0, 0, 0, 0, 0, 0], "stateRewards": ["", -2, -3, -3, 9, 79, 67, 22, -15, -56, 27, -85, -2, 4, -4, -15, -20, -32, 60, 15, 71, 57, 17, 1, 2, -8, 15, -37, -81, 82, 15, 21, -3, 2], "withholdReward": false, "trial_id": "mdp_trial_16", "block": "test", "trialIndex": 17, "score": 90.6, "costs": -1.4, "simulationMode": [null, null, null, null, null], "rewards": [1, 2, -8, 15, 82], "path": ["0", "0", "23", "24", "25", "26", "29"], "rt": [3282, 286, 80, 259, 42], "actions": ["left", "left", "left", "up", "left"], "actionTimes": [4656, 5438, 6032, 6810, 7361], "queries": {"click": {"state": {"target": ["29"], "time": [2098]}, "edge": {"target": [], "time": []}}, "mouseover": {"state": {"target": ["23", "24", "29", "33"], "time": [1601, 1651, 1836, 2754]}, "edge": {"target": [], "time": []}}, "mouseout": {"state": {"target": ["0", "23", "24", "29", "33", "30"], "time": [1585, 1635, 1684, 2586, 8837, 8867]}, "edge": {"target": [], "time": []}}}, "displayed_time": "15.38", "trialTime": 16921, "trial_type": "mouselab-mdp", "trial_index": 24, "time_elapsed": 968060, "internal_node_id": "0.0-6.0-1.0-15.0"}}, {"uniqueid": "w59007684:a38609414", "current_trial": 25, "dateTime": 1693661285662, "trialdata": {"revealed_states": [], "clicked_states": ["9", "5", "29", "33", "31"], "num_clicks_accrued": [0, 0, 0, 0, 0, 0, 0, 0, 0, 0, 0, 0, 0], "stateRewards": ["", -2, -2, -3, -6, -15, -11, 41, -12, -63, -76, 2, -2, -3, 8, 9, -36, -2, -18, -16, -32, -85, -17, -2, 1, 5, -16, 82, 35, -88, -1, 80, -82, -20], "withholdReward": false, "trial_id": "mdp_trial_17", "block": "test", "trialIndex": 18, "score": 76, "costs": -7, "simulationMode": [null, null, null, null, null], "rewards": [-2, 1, 5, -1, 80], "path": ["0", "0", "23", "24", "25", "30", "31"], "rt": [11453, 72, 69, 39, 9], "actions": ["left", "left", "left", "down", "right"], "actionTimes": [12836, 13405, 13969, 14523, 15041], "queries": {"click": {"state": {"target": ["9", "5", "29", "33", "31"], "time": [2149, 4219, 6629, 8621, 10517]}, "edge": {"target": [], "time": []}}, "mouseover": {"state": {"target": ["10", "8", "9", "5", "2", "29", "25", "30", "33", "31"], "time": [1684, 1734, 1902, 2854, 4967, 6450, 7501, 7651, 7900, 9733]}, "edge": {"target": [], "time": []}}, "mouseout": {"state": {"target": ["0", "10", "8", "9", "5", "2", "29", "25", "30", "33", "31"], "time": [1568, 1701, 1768, 2770, 4917, 5968, 7434, 7568, 7702, 9185, 11400]}, "edge": {"target": [], "time": []}}}, "displayed_time": "15.57", "trialTime": 17319, "trial_type": "mouselab-mdp", "trial_index": 25, "time_elapsed": 985687, "internal_node_id": "0.0-6.0-1.0-16.0"}}, {"uniqueid": "w59007684:a38609414", "current_trial": 26, "dateTime": 1693661305417, "trialdata": {"revealed_states": [], "clicked_states": ["31"], "num_clicks_accrued": [0, 0, 0, 0, 0, 0, 0, 0, 0, 0, 0, 0, 0], "stateRewards": ["", 2, -1, 8, -2, -16, 69, -39, -7, -13, -27, -86, 2, -2, 2, 13, -34, -16, -20, -5, 19, 81, 32, -2, -1, 2, -14, 20, 80, 58, 4, 70, 12, 73], "withholdReward": false, "trial_id": "mdp_trial_18", "block": "test", "trialIndex": 19, "score": 71.6, "costs": -1.4, "simulationMode": [null, null, null, null, null], "rewards": [-2, -1, 2, 4, 70], "path": ["0", "0", "23", "24", "25", "30", "31"], "rt": [3573, 21, 7, 1052, 119], "actions": ["left", "left", "left", "down", "right"], "actionTimes": [6803, 7335, 7857, 9418, 10033], "queries": {"click": {"state": {"target": ["31"], "time": [4159]}, "edge": {"target": [], "time": []}}, "mouseover": {"state": {"target": ["31", "25", "29", "24"], "time": [3881, 4883, 5099, 6314]}, "edge": {"target": [], "time": []}}, "mouseout": {"state": {"target": ["0", "0", "31", "25", "29", "24"], "time": [2015, 3632, 4815, 4933, 6288, 6331]}, "edge": {"target": [], "time": []}}}, "displayed_time": "17.23", "trialTime": 19441, "trial_type": "mouselab-mdp", "trial_index": 26, "time_elapsed": 1005441, "internal_node_id": "0.0-6.0-1.0-17.0"}}, {"uniqueid": "w59007684:a38609414", "current_trial": 27, "dateTime": 1693661322742, "trialdata": {"revealed_states": [], "clicked_states": ["22"], "num_clicks_accrued": [0, 0, 0, 0, 0, 0, 0, 0, 0, 0, 0, 0, 0], "stateRewards": ["", 2, -4, 7, 3, 23, -42, 4, 7, -81, -33, 7, -2, -4, 5, -1, 50, -57, -14, -13, -14, 44, 55, -2, -2, 5, -2, 33, 1, 57, -13, -7, 58, 87], "withholdReward": false, "trial_id": "mdp_trial_19", "block": "test", "trialIndex": 20, "score": 39.6, "costs": -1.4, "simulationMode": [null, null, null, null, null], "rewards": [-2, -4, 5, -13, 55], "path": ["0", "0", "12", "13", "14", "19", "22"], "rt": [4062, 9, 8, 400, 68], "actions": ["right", "right", "right", "down", "left"], "actionTimes": [5423, 5950, 6482, 7410, 7992], "queries": {"click": {"state": {"target": ["22"], "time": [2218]}, "edge": {"target": [], "time": []}}, "mouseover": {"state": {"target": ["22", "19", "20"], "time": [1857, 2924, 3085]}, "edge": {"target": [], "time": []}}, "mouseout": {"state": {"target": ["0", "22", "19", "20", "19"], "time": [1657, 2907, 2991, 12771, 12821]}, "edge": {"target": [], "time": []}}}, "displayed_time": "15.36", "trialTime": 16748, "trial_type": "mouselab-mdp", "trial_index": 27, "time_elapsed": 1022767, "internal_node_id": "0.0-6.0-1.0-18.0"}}, {"uniqueid": "w59007684:a38609414", "current_trial": 28, "dateTime": 1693661340783, "trialdata": {"revealed_states": [], "clicked_states": ["10"], "num_clicks_accrued": [0, 0, 0, 0, 0, 0, 0, 0, 0, 0, 0, 0, 0], "stateRewards": ["", 2, 3, 8, 11, 25, -80, 6, -4, -56, 84, -23, -2, -4, -3, 4, -51, -9, -61, -15, -64, 67, -35, 1, -1, -7, -6, 83, 59, -15, 12, -79, 56, 41], "withholdReward": false, "trial_id": "mdp_trial_20", "block": "test", "trialIndex": 21, "score": 91.6, "costs": -1.4, "simulationMode": [null, null, null, null, null], "rewards": [2, 3, 8, -4, 84], "path": ["0", "0", "1", "2", "3", "8", "10"], "rt": [3809, 66, 40, 92, 33], "actions": ["up", "up", "up", "left", "down"], "actionTimes": [4935, 5515, 6072, 6691, 7238], "queries": {"click": {"state": {"target": ["10"], "time": [2342]}, "edge": {"target": [], "time": []}}, "mouseover": {"state": {"target": ["1", "10", "2", "7"], "time": [1832, 2083, 3118, 3332]}, "edge": {"target": [], "time": []}}, "mouseout": {"state": {"target": ["0", "1", "10", "2", "7"], "time": [1749, 1882, 3092, 3166, 16679]}, "edge": {"target": [], "time": []}}}, "displayed_time": "15.13", "trialTime": 17634, "trial_type": "mouselab-mdp", "trial_index": 28, "time_elapsed": 1040807, "internal_node_id": "0.0-6.0-1.0-19.0"}}, {"uniqueid": "w59007684:a38609414", "current_trial": 29, "dateTime": 1693661357249, "trialdata": {"revealed_states": [], "clicked_states": ["10", "29", "31"], "num_clicks_accrued": [0, 0, 0, 0, 0, 0, 0, 0, 0, 0, 0, 0, 0], "stateRewards": ["", -1, 3, 2, 9, 41, 4, -46, -12, -54, -87, -25, 2, 3, -1, 11, -77, 12, -33, -9, -32, 35, 72, 1, 3, -7, 4, 37, 65, -73, 6, 77, -43, 8], "withholdReward": false, "trial_id": "mdp_trial_21", "block": "test", "trialIndex": 22, "score": 75.8, "costs": -4.199999999999999, "simulationMode": [null, null, null, null, null], "rewards": [1, 3, -7, 6, 77], "path": ["0", "0", "23", "24", "25", "30", "31"], "rt": [7623, 81, 11, 13, 418], "actions": ["left", "left", "left", "down", "right"], "actionTimes": [8576, 9149, 9679, 10215, 11135], "queries": {"click": {"state": {"target": ["10", "29", "31"], "time": [1967, 4069, 5995]}, "edge": {"target": [], "time": []}}, "mouseover": {"state": {"target": ["10", "26", "29", "25", "30", "31", "22"], "time": [1769, 2752, 2953, 5018, 5068, 5437, 7035]}, "edge": {"target": [], "time": []}}, "mouseout": {"state": {"target": ["0", "10", "26", "29", "25", "30", "31"], "time": [1318, 2635, 2819, 4951, 5034, 5369, 6602]}, "edge": {"target": [], "time": []}}}, "displayed_time": "14.96", "trialTime": 16125, "trial_type": "mouselab-mdp", "trial_index": 29, "time_elapsed": 1057274, "internal_node_id": "0.0-6.0-1.0-20.0"}}, {"uniqueid": "w59007684:a38609414", "current_trial": 30, "dateTime": 1693661376290, "trialdata": {"revealed_states": [], "clicked_states": ["22", "17", "20", "18", "29"], "num_clicks_accrued": [0, 0, 0, 0, 0, 0, 0, 0, 0, 0, 0, 0, 0], "stateRewards": ["", 2, -1, 4, -9, -43, 7, 54, -13, 38, -40, -83, -1, 2, -8, -10, 34, -33, 11, -14, -79, 65, 26, 1, 2, 4, 10, 21, 1, 86, 4, -53, 28, -29], "withholdReward": false, "trial_id": "mdp_trial_22", "block": "test", "trialIndex": 23, "score": 96, "costs": -7, "simulationMode": [null, null, null, null, null], "rewards": [1, 2, 4, 10, 86], "path": ["0", "0", "23", "24", "25", "26", "29"], "rt": [11624, 3, 533, 399, 81], "actions": ["left", "left", "left", "up", "left"], "actionTimes": [13006, 13515, 14580, 15496, 16088], "queries": {"click": {"state": {"target": ["22", "17", "20", "18", "29"], "time": [2101, 4196, 6327, 8280, 10362]}, "edge": {"target": [], "time": []}}, "mouseover": {"state": {"target": ["22", "14", "17", "20", "14", "13", "18", "28", "26", "29", "33"], "time": [1779, 2864, 3230, 5863, 7029, 7179, 7329, 9894, 9927, 10160, 11627]}, "edge": {"target": [], "time": []}}, "mouseout": {"state": {"target": ["22", "0", "22", "14", "17", "20", "14", "13", "18", "28", "26", "29"], "time": [429, 1665, 2320, 3080, 5482, 6879, 7097, 7196, 9480, 9910, 10046, 11061]}, "edge": {"target": [], "time": []}}}, "displayed_time": "16.59", "trialTime": 18697, "trial_type": "mouselab-mdp", "trial_index": 30, "time_elapsed": 1076314, "internal_node_id": "0.0-6.0-1.0-21.0"}}, {"uniqueid": "w59007684:a38609414", "current_trial": 31, "dateTime": 1693661396798, "trialdata": {"revealed_states": [], "clicked_states": ["29"], "num_clicks_accrued": [0, 0, 0, 0, 0, 0, 0, 0, 0, 0, 0, 0, 0], "stateRewards": ["", 2, 4, 7, -6, -76, -81, 2, 5, -66, -3, 36, -2, -4, 6, -2, -69, 4, -49, -6, 67, 38, -67, 2, 1, 1, 6, -68, -21, 52, -16, -16, 6, -70], "withholdReward": false, "trial_id": "mdp_trial_23", "block": "test", "trialIndex": 24, "score": 60.6, "costs": -1.4, "simulationMode": [null, null, null, null, null], "rewards": [2, 1, 1, 6, 52], "path": ["0", "0", "23", "24", "25", "26", "29"], "rt": [3637, 80, 436, 193, 67], "actions": ["left", "left", "left", "up", "left"], "actionTimes": [5316, 5886, 6841, 7532, 8106], "queries": {"click": {"state": {"target": ["29"], "time": [2467]}, "edge": {"target": [], "time": []}}, "mouseover": {"state": {"target": ["23", "24", "29", "33"], "time": [1971, 1989, 2121, 3138]}, "edge": {"target": [], "time": []}}, "mouseout": {"state": {"target": ["33", "30", "0", "23", "24", "29"], "time": [522, 538, 1954, 1987, 2022, 2871]}, "edge": {"target": [], "time": []}}}, "displayed_time": "15.68", "trialTime": 20118, "trial_type": "mouselab-mdp", "trial_index": 31, "time_elapsed": 1096823, "internal_node_id": "0.0-6.0-1.0-22.0"}}, {"uniqueid": "w59007684:a38609414", "current_trial": 32, "dateTime": 1693661413878, "trialdata": {"revealed_states": [], "clicked_states": ["10", "17"], "num_clicks_accrued": [0, 0, 0, 0, 0, 0, 0, 0, 0, 0, 0, 0, 0], "stateRewards": ["", -1, 4, -5, 9, 29, -75, -42, -16, 24, -28, -41, 2, -3, 1, 10, 60, 47, 55, -1, -53, 22, -40, 2, -3, -6, 4, -26, 44, 54, 15, -76, 42, 14], "withholdReward": false, "trial_id": "mdp_trial_24", "block": "test", "trialIndex": 25, "score": 54.2, "costs": -2.8, "simulationMode": [null, null, null, null, null], "rewards": [2, -3, 1, 10, 47], "path": ["0", "0", "12", "13", "14", "15", "17"], "rt": [5701, 33, 8, 254, 74], "actions": ["right", "right", "right", "up", "right"], "actionTimes": [7164, 7710, 8233, 9012, 9581], "queries": {"click": {"state": {"target": ["10", "17"], "time": [2155, 4366]}, "edge": {"target": [], "time": []}}, "mouseover": {"state": {"target": ["10", "18", "15", "17", "20"], "time": [1890, 3273, 3772, 3939, 5323]}, "edge": {"target": [], "time": []}}, "mouseout": {"state": {"target": ["33", "23", "10", "18", "15", "17"], "time": [472, 806, 3190, 3590, 3806, 5041]}, "edge": {"target": [], "time": []}}}, "displayed_time": "15.46", "trialTime": 16755, "trial_type": "mouselab-mdp", "trial_index": 32, "time_elapsed": 1113903, "internal_node_id": "0.0-6.0-1.0-23.0"}}, {"uniqueid": "w59007684:a38609414", "current_trial": 33, "dateTime": 1693661433623, "trialdata": {"revealed_states": [], "clicked_states": ["20", "17", "29", "10"], "num_clicks_accrued": [0, 0, 0, 0, 0, 0, 0, 0, 0, 0, 0, 0, 0], "stateRewards": ["", 1, -1, 1, 13, 31, -56, 72, 2, 41, 5, 63, -2, -3, -2, 3, -71, -26, 52, 13, -31, 24, -67, 2, -2, 5, 4, 66, 43, 72, 9, 86, -26, 44], "withholdReward": false, "trial_id": "mdp_trial_25", "block": "test", "trialIndex": 26, "score": 75.4, "costs": -5.6, "simulationMode": [null, null, null, null, null, null], "rewards": [2, -2, 5, 4, 72], "path": ["0", "0", "23", "24", "25", "26", "29"], "rt": [7367, 557, 85, 453, 242, 59], "actions": ["left", "left", "left", "left", "up", "left"], "actionTimes": [8490, 9049, 9636, 10604, 11361, 11930], "queries": {"click": {"state": {"target": ["20", "17", "29", "10"], "time": [1937, 3877, 5730, 7435]}, "edge": {"target": [], "time": []}}, "mouseover": {"state": {"target": ["19", "20", "17", "26", "29", "26", "10"], "time": [1501, 1535, 2802, 4418, 4702, 6171, 6568]}, "edge": {"target": [], "time": []}}, "mouseout": {"state": {"target": ["20", "12", "0", "19", "20", "17", "26", "29", "26"], "time": [408, 502, 551, 1518, 2585, 4318, 4668, 6168, 6185]}, "edge": {"target": [], "time": []}}}, "displayed_time": "15.12", "trialTime": 19366, "trial_type": "mouselab-mdp", "trial_index": 33, "time_elapsed": 1133648, "internal_node_id": "0.0-6.0-1.0-24.0"}}, {"uniqueid": "w59007684:a38609414", "current_trial": 34, "dateTime": 1693661459709, "trialdata": {"revealed_states": [], "clicked_states": ["29", "33", "31", "17"], "num_clicks_accrued": [0, 0, 0, 0, 0, 0, 0, 0, 0, 0, 0, 0, 0], "stateRewards": ["", -2, 4, -5, -12, 85, -24, -18, -15, -78, -22, 26, -1, -1, 2, 14, -45, 52, -23, 7, -33, 24, -6, -2, -4, 5, -7, -16, 36, -39, 5, 71, -87, -23], "withholdReward": false, "trial_id": "mdp_trial_26", "block": "test", "trialIndex": 27, "score": 69.4, "costs": -5.6, "simulationMode": [null, null, null, null, null, null], "rewards": [-2, -4, 5, 5, 71], "path": ["0", "0", "23", "24", "25", "30", "31"], "rt": [7860, 398, 71, 483, 50, 67], "actions": ["left", "left", "left", "left", "down", "right"], "actionTimes": [14607, 15007, 15584, 16595, 17145, 17745], "queries": {"click": {"state": {"target": ["29", "33", "31", "17"], "time": [7727, 9701, 11605, 13641]}, "edge": {"target": [], "time": []}}, "mouseover": {"state": {"target": ["28", "26", "29", "33", "30", "31", "12", "13", "17", "14"], "time": [7229, 7262, 7512, 8447, 10296, 10414, 12079, 12100, 12497, 14111]}, "edge": {"target": [], "time": []}}, "mouseout": {"state": {"target": ["10", "0", "23", "23", "24", "23", "0", "23", "0", "28", "26", "29", "29", "33", "30", "31", "12", "13", "17", "14"], "time": [897, 2280, 2330, 2430, 2963, 3063, 4431, 4629, 7174, 7245, 7462, 7946, 8263, 10279, 10329, 12046, 12096, 12112, 14079, 14128]}, "edge": {"target": [], "time": []}}}, "displayed_time": "20.75", "trialTime": 25636, "trial_type": "mouselab-mdp", "trial_index": 34, "time_elapsed": 1159734, "internal_node_id": "0.0-6.0-1.0-25.0"}}, {"uniqueid": "w59007684:a38609414", "current_trial": 35, "dateTime": 1693661476329, "trialdata": {"revealed_states": [], "clicked_states": ["31", "29"], "num_clicks_accrued": [0, 0, 0, 0, 0, 0, 0, 0, 0, 0, 0, 0, 0], "stateRewards": ["", 2, 2, 3, -15, 23, -14, 73, -7, -32, -20, -6, 1, 1, -5, -12, 73, 6, -84, 11, -81, -57, 13, -2, -1, -4, -8, -52, -58, 49, 13, 5, -41, -41], "withholdReward": false, "trial_id": "mdp_trial_27", "block": "test", "trialIndex": 28, "score": 31.2, "costs": -2.8, "simulationMode": [null, null, null, null, null], "rewards": [-2, -1, -4, -8, 49], "path": ["0", "0", "23", "24", "25", "26", "29"], "rt": [5568, 17, 41, 490, 3], "actions": ["left", "left", "left", "up", "left"], "actionTimes": [7044, 7564, 8120, 9134, 9650], "queries": {"click": {"state": {"target": ["31", "29"], "time": [2633, 4641]}, "edge": {"target": [], "time": []}}, "mouseover": {"state": {"target": ["31", "31", "25", "29", "33"], "time": [1962, 2295, 3311, 3750, 5378]}, "edge": {"target": [], "time": []}}, "mouseout": {"state": {"target": ["13", "12", "0", "31", "31", "25", "29"], "time": [745, 828, 1897, 2045, 3262, 3411, 5295]}, "edge": {"target": [], "time": []}}}, "displayed_time": "15.48", "trialTime": 16227, "trial_type": "mouselab-mdp", "trial_index": 35, "time_elapsed": 1176354, "internal_node_id": "0.0-6.0-1.0-26.0"}}, {"uniqueid": "w59007684:a38609414", "current_trial": 36, "dateTime": 1693661493414, "trialdata": {"revealed_states": [], "clicked_states": ["10", "7", "17"], "num_clicks_accrued": [0, 0, 0, 0, 0, 0, 0, 0, 0, 0, 0, 0, 0], "stateRewards": ["", -1, -4, -3, 1, -45, -67, -24, 14, 32, 22, 22, -1, 1, -5, -7, 72, 84, -79, -5, 19, -40, -2, -1, -2, 8, -3, 84, -25, -28, 11, 64, -66, 77], "withholdReward": false, "trial_id": "mdp_trial_28", "block": "test", "trialIndex": 29, "score": 67.8, "costs": -4.199999999999999, "simulationMode": [null, null, null, null, null], "rewards": [-1, 1, -5, -7, 84], "path": ["0", "0", "12", "13", "14", "15", "17"], "rt": [7239, 230, 84, 168, 60], "actions": ["right", "right", "right", "up", "right"], "actionTimes": [8771, 9521, 10105, 10786, 11361], "queries": {"click": {"state": {"target": ["10", "7", "17"], "time": [2266, 4293, 6220]}, "edge": {"target": [], "time": []}}, "mouseover": {"state": {"target": ["10", "2", "7", "15", "17", "14", "13"], "time": [2052, 2754, 2802, 5168, 5222, 7034, 7100]}, "edge": {"target": [], "time": []}}, "mouseout": {"state": {"target": ["33", "23", "0", "10", "2", "7", "15", "17", "14", "13"], "time": [468, 634, 1885, 2752, 2785, 4836, 5195, 6934, 7067, 7135]}, "edge": {"target": [], "time": []}}}, "displayed_time": "15.53", "trialTime": 16673, "trial_type": "mouselab-mdp", "trial_index": 36, "time_elapsed": 1193439, "internal_node_id": "0.0-6.0-1.0-27.0"}}, {"uniqueid": "w59007684:a38609414", "current_trial": 37, "dateTime": 1693661510762, "trialdata": {"revealed_states": [], "clicked_states": ["17", "20", "10"], "num_clicks_accrued": [0, 0, 0, 0, 0, 0, 0, 0, 0, 0, 0, 0, 0], "stateRewards": ["", -2, 3, 8, -9, 59, 41, -50, -1, 82, 66, 33, 2, -2, 7, 8, 1, -38, 12, -16, 24, -37, 67, 1, 4, -2, 5, 35, -83, 28, 8, -27, 69, -64], "withholdReward": false, "trial_id": "mdp_trial_29", "block": "test", "trialIndex": 30, "score": 69.8, "costs": -4.199999999999999, "simulationMode": [null, null, null, null, null], "rewards": [-2, 3, 8, -1, 66], "path": ["0", "0", "1", "2", "3", "8", "10"], "rt": [6688, 3, 26, 43, 145], "actions": ["up", "up", "up", "left", "down"], "actionTimes": [8229, 8723, 9277, 9843, 10512], "queries": {"click": {"state": {"target": ["17", "20", "10"], "time": [2161, 4072, 5894]}, "edge": {"target": [], "time": []}}, "mouseover": {"state": {"target": ["12", "17", "20", "10", "2", "7"], "time": [1718, 1817, 3101, 4984, 6620, 6668]}, "edge": {"target": [], "time": []}}, "mouseout": {"state": {"target": ["14", "14", "13", "12", "0", "12", "17", "20", "10", "2"], "time": [370, 701, 718, 751, 1698, 1734, 2803, 4451, 6618, 6651]}, "edge": {"target": [], "time": []}}}, "displayed_time": "15.54", "trialTime": 16741, "trial_type": "mouselab-mdp", "trial_index": 37, "time_elapsed": 1210787, "internal_node_id": "0.0-6.0-1.0-28.0"}}, {"uniqueid": "w59007684:a38609414", "current_trial": 38, "dateTime": 1693661527312, "trialdata": {"revealed_states": [], "clicked_states": ["29", "33", "31"], "num_clicks_accrued": [0, 0, 0, 0, 0, 0, 0, 0, 0, 0, 0, 0, 0], "stateRewards": ["", 1, 2, 3, 16, 63, -25, 16, -4, -14, 82, -66, -1, -3, -3, -11, -14, 19, 46, 3, -34, -82, 66, -2, -3, 4, -5, -63, 77, -37, -1, -45, -41, 84], "withholdReward": false, "trial_id": "mdp_trial_30", "block": "test", "trialIndex": 31, "score": 77.8, "costs": -4.199999999999999, "simulationMode": [null, null, null, null, null, null], "rewards": [-2, -3, 4, -1, 84], "path": ["0", "0", "23", "24", "25", "30", "33"], "rt": [5466, 464, 403, 90, 7, 3], "actions": ["left", "left", "left", "left", "down", "left"], "actionTimes": [6683, 7149, 8078, 8664, 9198, 9731], "queries": {"click": {"state": {"target": ["29", "33", "31"], "time": [2159, 4102, 5981]}, "edge": {"target": [], "time": []}}, "mouseover": {"state": {"target": ["26", "29", "33", "30", "31"], "time": [1808, 1857, 2858, 4574, 4641]}, "edge": {"target": [], "time": []}}, "mouseout": {"state": {"target": ["7", "26", "29", "33", "30"], "time": [540, 1824, 2741, 4559, 4591]}, "edge": {"target": [], "time": []}}}, "displayed_time": "15.22", "trialTime": 16202, "trial_type": "mouselab-mdp", "trial_index": 38, "time_elapsed": 1227337, "internal_node_id": "0.0-6.0-1.0-29.0"}}, {"uniqueid": "w59007684:a38609414", "current_trial": 39, "dateTime": 1693661545174, "trialdata": {"revealed_states": [], "clicked_states": ["33", "32"], "num_clicks_accrued": [0, 0, 0, 0, 0, 0, 0, 0, 0, 0, 0, 0, 0], "stateRewards": ["", 1, 2, -8, 9, 18, -83, -11, 6, -64, -48, 17, -2, -2, -5, -3, -24, -3, -86, -2, 48, -41, -22, -2, 4, 7, 8, 81, 13, -48, 10, 61, 19, 57], "withholdReward": false, "trial_id": "mdp_trial_31", "block": "test", "trialIndex": 32, "score": 73.2, "costs": -2.8, "simulationMode": [null, null, null, null, null], "rewards": [-2, 4, 7, 10, 57], "path": ["0", "0", "23", "24", "25", "30", "33"], "rt": [5204, 470, 75, 30, 32], "actions": ["left", "left", "left", "down", "left"], "actionTimes": [6397, 7383, 7953, 8494, 9026], "queries": {"click": {"state": {"target": ["33", "32"], "time": [2196, 4496]}, "edge": {"target": [], "time": []}}, "mouseover": {"state": {"target": ["30", "33", "31", "32"], "time": [1594, 1910, 3461, 4077]}, "edge": {"target": [], "time": []}}, "mouseout": {"state": {"target": ["31", "0", "30", "33", "31", "32"], "time": [527, 1549, 1628, 3144, 3910, 4720]}, "edge": {"target": [], "time": []}}}, "displayed_time": "15.20", "trialTime": 17338, "trial_type": "mouselab-mdp", "trial_index": 39, "time_elapsed": 1245199, "internal_node_id": "0.0-6.0-1.0-30.0"}}, {"uniqueid": "w59007684:a38609414", "current_trial": 40, "dateTime": 1693661561983, "trialdata": {"revealed_states": [], "clicked_states": ["29", "10"], "num_clicks_accrued": [0, 0, 0, 0, 0, 0, 0, 0, 0, 0, 0, 0, 0], "stateRewards": ["", -2, -2, -7, -13, -10, 49, -68, -1, 84, 70, 88, 1, 4, 4, 12, -57, 25, 30, 8, -1, -77, 57, 2, 3, 2, 3, -18, -80, 23, -15, -41, 70, 11], "withholdReward": false, "trial_id": "mdp_trial_32", "block": "test", "trialIndex": 33, "score": 55.2, "costs": -2.8, "simulationMode": [null, null, null, null, null], "rewards": [-2, -2, -7, -1, 70], "path": ["0", "0", "1", "2", "3", "8", "10"], "rt": [5689, 4, 14, 374, 389], "actions": ["up", "up", "up", "left", "down"], "actionTimes": [7060, 7592, 8119, 9011, 9893], "queries": {"click": {"state": {"target": ["29", "10"], "time": [2433, 4513]}, "edge": {"target": [], "time": []}}, "mouseover": {"state": {"target": ["23", "26", "29", "10", "2", "7"], "time": [1837, 1954, 2238, 3005, 4988, 5055]}, "edge": {"target": [], "time": []}}, "mouseout": {"state": {"target": ["0", "23", "26", "29", "10", "2", "7"], "time": [1070, 1854, 2105, 2872, 4971, 5004, 16152]}, "edge": {"target": [], "time": []}}}, "displayed_time": "15.37", "trialTime": 16427, "trial_type": "mouselab-mdp", "trial_index": 40, "time_elapsed": 1262007, "internal_node_id": "0.0-6.0-1.0-31.0"}}, {"uniqueid": "w59007684:a38609414", "current_trial": 41, "dateTime": 1693661578574, "trialdata": {"revealed_states": [], "clicked_states": ["7"], "num_clicks_accrued": [0, 0, 0, 0, 0, 0, 0, 0, 0, 0, 0, 0, 0], "stateRewards": ["", -1, -3, -6, 14, 41, 18, 63, -14, 80, 21, 17, -2, -4, -2, -5, 13, 70, 8, -4, -64, -10, -20, 2, -1, 4, -1, -17, -55, 42, -7, 47, 54, 15], "withholdReward": false, "trial_id": "mdp_trial_33", "block": "test", "trialIndex": 34, "score": 65.6, "costs": -1.4, "simulationMode": [null, null, null, null, null], "rewards": [-1, -3, -6, 14, 63], "path": ["0", "0", "1", "2", "3", "4", "7"], "rt": [3179, 80, 462, 100, 94], "actions": ["up", "up", "up", "right", "down"], "actionTimes": [4192, 4772, 5754, 6357, 6951], "queries": {"click": {"state": {"target": ["7"], "time": [1750]}, "edge": {"target": [], "time": []}}, "mouseover": {"state": {"target": ["7", "17"], "time": [1408, 2708]}, "edge": {"target": [], "time": []}}, "mouseout": {"state": {"target": ["18", "0", "7", "17"], "time": [191, 1241, 2309, 15754]}, "edge": {"target": [], "time": []}}}, "displayed_time": "15.02", "trialTime": 16159, "trial_type": "mouselab-mdp", "trial_index": 41, "time_elapsed": 1278598, "internal_node_id": "0.0-6.0-1.0-32.0"}}, {"uniqueid": "w59007684:a38609414", "current_trial": 42, "dateTime": 1693661596408, "trialdata": {"revealed_states": [], "clicked_states": ["7", "10", "17"], "num_clicks_accrued": [0, 0, 0, 0, 0, 0, 0, 0, 0, 0, 0, 0, 0], "stateRewards": ["", -1, 1, -1, 2, 19, 85, -18, 2, -3, -26, 36, 2, 4, 7, -9, -18, 70, 72, -5, 35, -20, -28, 1, -2, -4, -3, -59, -11, -63, -2, -72, 59, -69], "withholdReward": false, "trial_id": "mdp_trial_34", "block": "test", "trialIndex": 35, "score": 69.8, "costs": -4.199999999999999, "simulationMode": [null, null, null, null, null], "rewards": [2, 4, 7, -9, 70], "path": ["0", "0", "12", "13", "14", "15", "17"], "rt": [7511, 318, 122, 114, 344], "actions": ["right", "right", "right", "up", "right"], "actionTimes": [8683, 9534, 10158, 10784, 11630], "queries": {"click": {"state": {"target": ["7", "10", "17"], "time": [2007, 3969, 5931]}, "edge": {"target": [], "time": []}}, "mouseover": {"state": {"target": ["7", "2", "10", "23", "17", "14", "22"], "time": [1770, 2570, 2837, 4636, 5216, 6487, 7103]}, "edge": {"target": [], "time": []}}, "mouseout": {"state": {"target": ["14", "13", "12", "7", "2", "10", "23", "17", "14", "22"], "time": [470, 486, 603, 2537, 2653, 4537, 4738, 6438, 6521, 8102]}, "edge": {"target": [], "time": []}}}, "displayed_time": "15.18", "trialTime": 17377, "trial_type": "mouselab-mdp", "trial_index": 42, "time_elapsed": 1296433, "internal_node_id": "0.0-6.0-1.0-33.0"}}, {"uniqueid": "w59007684:a38609414", "current_trial": 43, "dateTime": 1693661613099, "trialdata": {"revealed_states": [], "clicked_states": ["29", "33", "31", "10"], "num_clicks_accrued": [0, 0, 0, 0, 0, 0, 0, 0, 0, 0, 0, 0, 0], "stateRewards": ["", -1, -4, 8, 8, -68, 47, 24, -7, -61, 49, -69, -1, -1, 8, -7, 42, 1, -45, -11, 10, -63, -6, 1, 4, 6, -16, 79, -37, -58, -12, 81, 18, -53], "withholdReward": false, "trial_id": "mdp_trial_35", "block": "test", "trialIndex": 36, "score": 74.4, "costs": -5.6, "simulationMode": [null, null, null, null, null, null], "rewards": [1, 4, 6, -12, 81], "path": ["0", "0", "23", "24", "25", "30", "31"], "rt": [7206, 422, 430, 3, 23, 130], "actions": ["left", "left", "left", "left", "down", "right"], "actionTimes": [8323, 8747, 9684, 10207, 10759, 11402], "queries": {"click": {"state": {"target": ["29", "33", "31", "10"], "time": [1958, 3862, 5795, 7646]}, "edge": {"target": [], "time": []}}, "mouseover": {"state": {"target": ["23", "26", "29", "33", "30", "31", "23", "1", "2", "2", "10"], "time": [1502, 1620, 1669, 2536, 4270, 4320, 6319, 6353, 6386, 6688, 6736]}, "edge": {"target": [], "time": []}}, "mouseout": {"state": {"target": ["0", "23", "26", "29", "33", "30", "31", "23", "1", "2", "2", "10"], "time": [1487, 1519, 1635, 2420, 4253, 4303, 6286, 6336, 6369, 6436, 6704, 15950]}, "edge": {"target": [], "time": []}}}, "displayed_time": "15.12", "trialTime": 16204, "trial_type": "mouselab-mdp", "trial_index": 43, "time_elapsed": 1313123, "internal_node_id": "0.0-6.0-1.0-34.0"}}, {"uniqueid": "w59007684:a38609414", "current_trial": 44, "dateTime": 1693661629700, "trialdata": {"revealed_states": [], "clicked_states": ["22", "17"], "num_clicks_accrued": [0, 0, 0, 0, 0, 0, 0, 0, 0, 0, 0, 0, 0], "stateRewards": ["", 1, -3, 4, 13, -72, 52, 5, 5, -58, 5, 14, 2, 1, 3, -14, -86, -4, 73, 6, -58, -50, 49, 2, -3, -4, 2, 33, -41, 42, -11, 81, 45, 53], "withholdReward": false, "trial_id": "mdp_trial_36", "block": "test", "trialIndex": 37, "score": 58.2, "costs": -2.8, "simulationMode": [null, null, null, null, null], "rewards": [2, 1, 3, 6, 49], "path": ["0", "0", "12", "13", "14", "19", "22"], "rt": [4607, 44, 5, 395, 402], "actions": ["right", "right", "right", "down", "left"], "actionTimes": [5680, 6242, 6768, 7695, 8598], "queries": {"click": {"state": {"target": ["22", "17"], "time": [1859, 4159]}, "edge": {"target": [], "time": []}}, "mouseover": {"state": {"target": ["22", "22", "14", "17"], "time": [1495, 1681, 2446, 2714]}, "edge": {"target": [], "time": []}}, "mouseout": {"state": {"target": ["23", "23", "0", "22", "22", "14"], "time": [379, 613, 1396, 1512, 2430, 2497]}, "edge": {"target": [], "time": []}}}, "displayed_time": "15.07", "trialTime": 16169, "trial_type": "mouselab-mdp", "trial_index": 44, "time_elapsed": 1329724, "internal_node_id": "0.0-6.0-1.0-35.0"}}, {"uniqueid": "w59007684:a38609414", "current_trial": 45, "dateTime": 1693661646761, "trialdata": {"revealed_states": [], "clicked_states": ["10"], "num_clicks_accrued": [0, 0, 0, 0, 0, 0, 0, 0, 0, 0, 0, 0, 0], "stateRewards": ["", 2, 3, -1, 6, 44, -4, -59, -14, -3, 64, 16, 1, -3, 3, 6, 3, 49, 19, 3, -49, -14, -86, 1, 2, -3, -8, -33, 14, 32, -13, -77, -47, -67], "withholdReward": false, "trial_id": "mdp_trial_37", "block": "test", "trialIndex": 38, "score": 52.6, "costs": -1.4, "simulationMode": [null, null, null, null, null], "rewards": [2, 3, -1, -14, 64], "path": ["0", "0", "1", "2", "3", "8", "10"], "rt": [3265, 93, 108, 523, 9], "actions": ["up", "up", "up", "left", "down"], "actionTimes": [4513, 5138, 5753, 6768, 7296], "queries": {"click": {"state": {"target": ["10"], "time": [1972]}, "edge": {"target": [], "time": []}}, "mouseover": {"state": {"target": ["10", "2", "7"], "time": [1694, 2544, 3044]}, "edge": {"target": [], "time": []}}, "mouseout": {"state": {"target": ["17", "0", "10", "2"], "time": [394, 1566, 2528, 2578]}, "edge": {"target": [], "time": []}}}, "displayed_time": "15.25", "trialTime": 16682, "trial_type": "mouselab-mdp", "trial_index": 45, "time_elapsed": 1346785, "internal_node_id": "0.0-6.0-1.0-36.0"}}, {"uniqueid": "w59007684:a38609414", "current_trial": 46, "dateTime": 1693661665455, "trialdata": {"revealed_states": [], "clicked_states": ["31", "29", "33"], "num_clicks_accrued": [0, 0, 0, 0, 0, 0, 0, 0, 0, 0, 0, 0, 0], "stateRewards": ["", -2, -4, 6, 14, -34, 49, 36, -8, -3, 32, -4, 1, -2, 1, -8, -20, -71, -57, -7, -86, -62, -16, -2, -3, -5, 11, 23, -21, 53, 5, -5, 85, 73], "withholdReward": false, "trial_id": "mdp_trial_38", "block": "test", "trialIndex": 39, "score": 63.8, "costs": -4.199999999999999, "simulationMode": [null, null, null, null, null, null], "rewards": [-2, -3, -5, 5, 73], "path": ["0", "0", "23", "24", "25", "30", "33"], "rt": [5802, 479, 98, 73, 467, 69], "actions": ["left", "left", "left", "left", "down", "left"], "actionTimes": [6939, 7420, 8048, 8621, 9617, 10184], "queries": {"click": {"state": {"target": ["31", "29", "33"], "time": [2159, 4091, 6126]}, "edge": {"target": [], "time": []}}, "mouseover": {"state": {"target": ["23", "24", "31", "25", "29", "33"], "time": [1531, 1598, 1898, 2799, 2968, 4764]}, "edge": {"target": [], "time": []}}, "mouseout": {"state": {"target": ["7", "1", "0", "23", "24", "31", "25", "29", "33", "30"], "time": [530, 614, 1499, 1564, 1664, 2376, 2866, 4598, 17619, 17663]}, "edge": {"target": [], "time": []}}}, "displayed_time": "15.14", "trialTime": 18284, "trial_type": "mouselab-mdp", "trial_index": 46, "time_elapsed": 1365479, "internal_node_id": "0.0-6.0-1.0-37.0"}}, {"uniqueid": "w59007684:a38609414", "current_trial": 47, "dateTime": 1693661682596, "trialdata": {"revealed_states": [], "clicked_states": ["10", "7", "33", "31"], "num_clicks_accrued": [0, 0, 0, 0, 0, 0, 0, 0, 0, 0, 0, 0, 0], "stateRewards": ["", 2, 3, -3, 12, -43, 81, -82, -15, 58, -7, -75, -1, -1, 3, -5, 50, -25, -8, 4, 66, 65, -66, 2, -4, 2, -1, -10, 10, 37, 11, 88, -37, 8], "withholdReward": false, "trial_id": "mdp_trial_39", "block": "test", "trialIndex": 40, "score": 93.4, "costs": -5.6, "simulationMode": [null, null, null, null, null], "rewards": [2, -4, 2, 11, 88], "path": ["0", "0", "23", "24", "25", "30", "31"], "rt": [9142, 404, 69, 36, 338], "actions": ["left", "left", "left", "down", "right"], "actionTimes": [9821, 10718, 11300, 11848, 12724], "queries": {"click": {"state": {"target": ["10", "7", "33", "31"], "time": [1318, 3243, 5140, 7065]}, "edge": {"target": [], "time": []}}, "mouseover": {"state": {"target": ["10", "2", "7", "25", "33", "30", "31", "0", "12", "13", "14", "19", "22"], "time": [1114, 1865, 1916, 3831, 4266, 5600, 5763, 7769, 8041, 8087, 8397, 8997, 9215]}, "edge": {"target": [], "time": []}}, "mouseout": {"state": {"target": ["0", "10", "2", "7", "25", "33", "30", "31", "0", "12", "13", "14", "19"], "time": [964, 1848, 1898, 3781, 3865, 5597, 5647, 7686, 8036, 8066, 8381, 8864, 9115]}, "edge": {"target": [], "time": []}}}, "displayed_time": "14.68", "trialTime": 16646, "trial_type": "mouselab-mdp", "trial_index": 47, "time_elapsed": 1382620, "internal_node_id": "0.0-6.0-1.0-38.0"}}, {"uniqueid": "w59007684:a38609414", "current_trial": 48, "dateTime": 1693661702083, "trialdata": {"revealed_states": [], "clicked_states": ["10", "7", "29", "33", "31"], "num_clicks_accrued": [0, 0, 0, 0, 0, 0, 0, 0, 0, 0, 0, 0, 0], "stateRewards": ["", -2, 3, -5, -7, 66, 43, -60, -4, -70, -75, 4, -1, 2, 2, -13, 54, 11, -40, -1, 77, 32, 15, -2, 3, -8, -9, -35, 83, -27, 6, -74, -34, 44], "withholdReward": false, "trial_id": "mdp_trial_40", "block": "test", "trialIndex": 41, "score": 36, "costs": -7, "simulationMode": [null, null, null, null, null, null], "rewards": [-2, 3, -8, 6, 44], "path": ["0", "0", "23", "24", "25", "30", "33"], "rt": [9038, 487, 72, 45, 375, 36], "actions": ["left", "left", "left", "left", "down", "left"], "actionTimes": [10600, 11090, 11678, 12233, 13130, 13676], "queries": {"click": {"state": {"target": ["10", "7", "29", "33", "31"], "time": [2198, 4087, 5997, 8062, 9921]}, "edge": {"target": [], "time": []}}, "mouseover": {"state": {"target": ["1", "10", "2", "7", "28", "26", "29", "33", "30", "31"], "time": [1856, 1956, 2659, 2723, 4590, 4889, 5055, 6907, 8556, 8921]}, "edge": {"target": [], "time": []}}, "mouseout": {"state": {"target": ["22", "12", "0", "1", "10", "2", "7", "28", "26", "29", "33", "30"], "time": [522, 606, 1173, 1872, 2657, 2690, 4540, 4872, 4939, 6472, 8522, 8888]}, "edge": {"target": [], "time": []}}}, "displayed_time": "15.56", "trialTime": 19029, "trial_type": "mouselab-mdp", "trial_index": 48, "time_elapsed": 1402107, "internal_node_id": "0.0-6.0-1.0-39.0"}}, {"uniqueid": "w59007684:a38609414", "current_trial": 49, "dateTime": 1693661792721, "trialdata": {"rt": 90627, "response": {"Q0": "$-16 to 16", "Q1": "$-16 to $16", "Q2": "$-88 to $88", "Q3": "The cost was always $1.4.", "Q4": "Very motivated"}, "question_order": [0, 1, 2, 3, 4], "trial_id": "final_quiz_control", "trial_type": "survey-multi-choice", "trial_index": 49, "time_elapsed": 1492746, "internal_node_id": "0.0-6.0-2.0"}}, {"uniqueid": "w59007684:a38609414", "current_trial": 50, "dateTime": 1693661907798, "trialdata": {"rt": 115058, "response": {"Q0": "I sometimes randomised where i would click but sometimes returned to places where the node was profitable. ", "Q1": "I clicked as fast as i could and moved the spider quicker when i had clicked on a lot of nodes as i did not want time to run out. ", "Q2": "The 5 moves kind of limited ability but all in all i found it easy, i think. "}, "trial_id": "self_report_control", "trial_type": "survey-text", "trial_index": 50, "time_elapsed": 1607823, "internal_node_id": "0.0-6.0-3.0"}}, {"uniqueid": "w59007684:a38609414", "current_trial": 51, "dateTime": 1693661940513, "trialdata": {"rt": 32708, "response": {"gender": "male", "age": "35", "colorblind": "0", "effort": "0"}, "trial_type": "survey-html-form", "trial_index": 51, "time_elapsed": 1640538, "internal_node_id": "0.0-6.0-4.0"}}, {"uniqueid": "w59007684:a38609414", "current_trial": 52, "dateTime": 1693661966508, "trialdata": {"rt": 25988, "response": {"Q0": "no", "Q1": "i have never done this before. ", "Q2": ""}, "trial_type": "survey-text", "trial_index": 52, "time_elapsed": 1666533, "internal_node_id": "0.0-6.0-5.0"}}, {"uniqueid": "w59007684:a38609414", "current_trial": 53, "dateTime": 1693662018188, "trialdata": {"rt": 51671, "stimulus": "<h1>Completion Code Instructions (1/2)</h1>\n<br><br><br><br>\nYou have reached the end of the experiment! The completion code consists of two parts: (1) a code with 2 characters (2) a code with 6 characters. On this page, you will receive the second part of the code. The first part of the completion code will be on the next page.\n<br><br>\nThe second part of your completion code is: <b>EWEK22</b>\n<br><br>\nPlease note this down. Then, press 'Next' in order to find the first part of your completion code. Once the data has been saved, you will receive this code either in this window or in the original browser window where you started the experiment.\n <br><br>\n<h2 style='color: red;'>Note: this is <strong>NOT</strong> the full completion code. Copy this down and click 'Next' to get the full completion code on the next page.</h2>", "response": 0, "trial_type": "html-button-response", "trial_index": 53, "time_elapsed": 1718213, "internal_node_id": "0.0-6.0-6.0"}}, {"uniqueid": "w59007684:a38609414", "current_trial": 54, "dateTime": 1693662019195, "trialdata": {"success": true, "trial_type": "fullscreen", "trial_index": 54, "time_elapsed": 1719220, "internal_node_id": "0.0-7.0"}}], "questiondata": {"params": {"CODE": "C6DMOQA6", "MIN_TIME": 14, "inspectCost": 1, "startTime": "Sat Sep 02 2023 14:11:39 GMT+0100 (British Summer Time)", "bonusRate": 0.002, "variance": "1_2_4_8_44", "branching": "31123"}, "final_score": 2287.8}, "eventdata": [{"eventtype": "initialized", "value": null, "timestamp": 1693660298955, "interval": 0}, {"eventtype": "window_resize", "value": [1536, 758], "timestamp": 1693660298955, "interval": 0}, {"eventtype": "window_resize", "value": [1536, 758], "timestamp": 1693660299293, "interval": 338}, {"eventtype": "window_resize", "value": [1536, 864], "timestamp": 1693660306711, "interval": 7418}, {"eventtype": "window_resize", "value": [1536, 758], "timestamp": 1693662018425, "interval": 1711714}], "useragent": "Mozilla/5.0 (Windows NT 10.0; Win64; x64) AppleWebKit/537.36 (KHTML, like Gecko) Chrome/115.0.0.0 Safari/537.36", "mode": "live", "id": "w59007684:a38609414", "status": "user data saved", "Beginhit": "2023-09-02 13:11:38.157211", "Beginexp": "2023-09-02 13:11:47.869925", "Endhit": "2023-09-02 13:40:19.715606", "psiturkStatus": 3, "browser": "<redacted>", "platform": "windows", "language": "en-US"}