{"condition": 1, "counterbalance": 0, "assignmentId": "a32786255", "workerId": "w67371891", "hitId": "h91844905", "currenttrial": 56, "bonus": 0, "data": [{"uniqueid": "w67371891:a32786255", "current_trial": 0, "dateTime": 1693564837108, "trialdata": {"success": true, "trial_type": "fullscreen", "trial_index": 0, "time_elapsed": 10254, "internal_node_id": "0.0-0.0"}}, {"uniqueid": "w67371891:a32786255", "current_trial": 1, "dateTime": 1693564866348, "trialdata": {"view_history": [{"page_index": 0, "viewing_time": 29220}], "rt": 29221, "trial_id": "exp_instructions_misaligned", "trial_type": "instructions", "trial_index": 1, "time_elapsed": 39495, "internal_node_id": "0.0-1.0"}}, {"uniqueid": "w67371891:a32786255", "current_trial": 2, "dateTime": 1693565146989, "trialdata": {"view_history": [{"page_index": 0, "viewing_time": 96917}, {"page_index": 1, "viewing_time": 107127}, {"page_index": 2, "viewing_time": 33286}, {"page_index": 3, "viewing_time": 43287}], "rt": 280623, "trial_id": "mouselab_instructions_1_misaligned", "trial_type": "instructions", "trial_index": 2, "time_elapsed": 320135, "internal_node_id": "0.0-2.0-1.0"}}, {"uniqueid": "w67371891:a32786255", "current_trial": 3, "dateTime": 1693565186102, "trialdata": {"revealed_states": [], "clicked_states": ["1", "12", "23"], "num_clicks_accrued": [0, 0, 0, 0, 0, 0, 0, 0, 0, 0, 0, 0, 0], "stateRewards": ["", -10, -10, -10, -10, -10, 10, -10, -10, -10, -10, 10, -10, 10, 10, 10, 10, 10, 10, 10, 10, -10, 10, 10, -10, -10, -10, -10, -10, 10, -10, -10, -10, -10], "withholdReward": false, "trial_id": "practice_1", "block": "test", "trialIndex": 0, "score": -28, "costs": -1.5, "simulationMode": [null, null, null, null, null], "rewards": [10, -10, -10, -10, -10], "path": ["0", "0", "23", "24", "25", "26", "27"], "rt": [21299, 1961, 407, 945, 580], "actions": ["left", "left", "left", "up", "up"], "actionTimes": [26930, 29404, 30328, 31798, 32899], "queries": {"click": {"state": {"target": ["1", "12", "23"], "time": [13015, 18643, 21105]}, "edge": {"target": [], "time": []}}, "mouseover": {"state": {"target": ["12", "13", "12", "1", "2", "12", "23", "0", "23"], "time": [9738, 10144, 11383, 12596, 15066, 18072, 20642, 24372, 25636]}, "edge": {"target": [], "time": []}}, "mouseout": {"state": {"target": ["13", "18", "1", "0", "12", "13", "12", "1", "2", "12", "23", "23", "0", "23"], "time": [1678, 3024, 3305, 9539, 9933, 11285, 12372, 13174, 17230, 20224, 21281, 24337, 24440, 34894]}, "edge": {"target": [], "time": []}}}, "displayed_time": "33.42", "trialTime": 37834, "trial_type": "mouselab-mdp", "trial_index": 3, "time_elapsed": 359247, "internal_node_id": "0.0-2.0-2.0-0.0"}}, {"uniqueid": "w67371891:a32786255", "current_trial": 4, "dateTime": 1693565223032, "trialdata": {"revealed_states": [], "clicked_states": ["1", "12", "14", "24", "2", "25"], "num_clicks_accrued": [0, 0, 0, 0, 0, 0, 0, 0, 0, 0, 0, 0, 0], "stateRewards": ["", -10, -10, 10, 10, 10, -10, -10, -10, 10, 10, 10, 10, 10, 10, 10, 10, -10, -10, -10, 10, -10, -10, 10, -10, -10, 10, -10, 10, 10, 10, 10, -10, 10], "withholdReward": false, "trial_id": "practice_2", "block": "test", "trialIndex": 1, "score": -9.5, "costs": -3, "simulationMode": [null, null, null, null, null], "rewards": [-10, -10, 10, -10, 10], "path": ["0", "0", "1", "2", "3", "8", "11"], "rt": [18429, 757, 5917, 603, 1440], "actions": ["up", "up", "up", "left", "left"], "actionTimes": [21252, 22532, 28972, 30088, 32039], "queries": {"click": {"state": {"target": ["1", "12", "14", "24", "2", "25"], "time": [4128, 6257, 8761, 11467, 14951, 16814]}, "edge": {"target": [], "time": []}}, "mouseover": {"state": {"target": ["1", "23", "0", "12", "23", "14", "24", "23", "1", "18", "18", "2", "1", "23", "24", "25", "24", "23", "0", "12", "13", "18", "1"], "time": [3712, 4706, 5498, 5647, 7363, 8414, 10896, 12993, 13259, 13378, 13827, 14244, 15927, 16042, 16220, 16484, 18223, 18305, 18365, 18637, 19029, 19264, 19488]}, "edge": {"target": [], "time": []}}, "mouseout": {"state": {"target": ["0", "1", "23", "0", "12", "23", "14", "24", "23", "1", "18", "18", "2", "1", "23", "24", "25", "24", "23", "0", "12", "13", "18", "1", "0"], "time": [3451, 4557, 5468, 5519, 7137, 8010, 8937, 12943, 13091, 13297, 13445, 13911, 15880, 15971, 16153, 16376, 16997, 18262, 18342, 18603, 18739, 19237, 19354, 35149, 35788]}, "edge": {"target": [], "time": []}}}, "displayed_time": "32.56", "trialTime": 36345, "trial_type": "mouselab-mdp", "trial_index": 4, "time_elapsed": 396177, "internal_node_id": "0.0-2.0-2.0-1.0"}}, {"uniqueid": "w67371891:a32786255", "current_trial": 5, "dateTime": 1693565354313, "trialdata": {"view_history": [{"page_index": 0, "viewing_time": 85214}, {"page_index": 1, "viewing_time": 46050}], "rt": 131265, "trial_id": "mouselab_instructions_2_misaligned", "trial_type": "instructions", "trial_index": 5, "time_elapsed": 527460, "internal_node_id": "0.0-2.0-3.0"}}, {"uniqueid": "w67371891:a32786255", "current_trial": 6, "dateTime": 1693565403063, "trialdata": {"rt": 48730, "response": {"Q0": "The cost for clicking on nodes may vary between nodes.", "Q1": "The better I perform the higher my bonus will be.", "Q2": "No, the amount of cash at each node of the web may be different each time.", "Q3": "To get the highest total score.", "Q4": "Only before moving the spider.", "Q5": "3 seconds"}, "question_order": [0, 1, 2, 3, 4, 5], "correct": {"Q0": "The cost for clicking on nodes may vary between nodes.", "Q1": "The better I perform the higher my bonus will be.", "Q2": "No, the amount of cash at each node of the web may be different each time.", "Q3": "To get the highest total score.", "Q4": "Only before moving the spider.", "Q5": "3 seconds"}, "trial_id": "mouselab_quiz_misaligned", "trial_type": "survey-multi-choice", "trial_index": 6, "time_elapsed": 576210, "internal_node_id": "0.0-2.0-4.0"}}, {"uniqueid": "w67371891:a32786255", "current_trial": 7, "dateTime": 1693565410989, "trialdata": {"rt": 7893, "response": {"Q0": "No"}, "question_order": [0], "trial_id": "repeat_check", "trial_type": "survey-multi-choice", "trial_index": 7, "time_elapsed": 584135, "internal_node_id": "0.0-4.0-0.0"}}, {"uniqueid": "w67371891:a32786255", "current_trial": 8, "dateTime": 1693565665847, "trialdata": {"rt": 254832, "stimulus": "\n<h1> Get ready to start the game! </h1>\n\nThank you for reading the instructions. Get ready start with the 40 rounds of this game.\n<br><br>\nIf you need to take a break, feel free to take one after the end of a round, before continuing to the next one.\n<br><br>\nRemember, the more money the spider gets, the bigger your bonus will be!\n<br><br>\n<div style='text-align: center;'>Press <code>space</code> to begin.</div>\n\n<br><br>\n(If, at any point, the <code>space</code> key does not take you to the next page, click once on the text and try again.)", "response": " ", "trial_id": "mdp_ready", "trial_type": "html-keyboard-response", "trial_index": 8, "time_elapsed": 838994, "internal_node_id": "0.0-6.0-0.0"}}, {"uniqueid": "w67371891:a32786255", "current_trial": 9, "dateTime": 1693565695484, "trialdata": {"revealed_states": [], "clicked_states": [], "num_clicks_accrued": [0, 0, 0, 0, 0, 0, 0, 0, 0, 0, 0, 0, 0], "stateRewards": ["", 1, -1, 8, 4, 76, -33, -17, -3, -1, -54, -74, -2, 2, -5, 13, -51, 63, 83, 1, 84, 29, -36, 2, -1, 7, -12, -10, -44, -43, -14, 8, -69, 19], "withholdReward": false, "trial_id": "mdp_trial_1", "block": "test", "trialIndex": 2, "score": -14, "costs": 0, "simulationMode": [null, null, null, null, null], "rewards": [2, -1, 7, -12, -10], "path": ["0", "0", "23", "24", "25", "26", "27"], "rt": [16619, 1011, 310, 554, 265], "actions": ["left", "left", "left", "up", "up"], "actionTimes": [19254, 20779, 21608, 22684, 23460], "queries": {"click": {"state": {"target": [], "time": []}, "edge": {"target": [], "time": []}}, "mouseover": {"state": {"target": ["23", "24", "25", "0", "23", "24", "23", "1", "23"], "time": [5111, 5210, 5522, 10320, 14700, 14850, 15250, 15367, 17881]}, "edge": {"target": [], "time": []}}, "mouseout": {"state": {"target": ["1", "23", "24", "25", "0", "23", "24", "23", "1", "23", "23", "0", "13", "14"], "time": [1430, 5159, 5334, 7972, 10388, 14782, 15202, 15267, 17831, 17922, 28202, 28250, 28266, 28362]}, "edge": {"target": [], "time": []}}}, "displayed_time": "23.98", "trialTime": 29059, "trial_type": "mouselab-mdp", "trial_index": 9, "time_elapsed": 868629, "internal_node_id": "0.0-6.0-1.0-0.0"}}, {"uniqueid": "w67371891:a32786255", "current_trial": 10, "dateTime": 1693565718405, "trialdata": {"revealed_states": [], "clicked_states": ["23", "25", "1"], "num_clicks_accrued": [0, 0, 0, 0, 0, 0, 0, 0, 0, 0, 0, 0, 0], "stateRewards": ["", -2, 2, -1, -6, 22, 6, 6, -5, 70, -42, 65, 1, 3, 5, -6, -67, -9, 3, 14, 7, -62, -13, -2, 4, 1, 16, 42, -21, -52, -8, 32, 53, 81], "withholdReward": false, "trial_id": "mdp_trial_2", "block": "test", "trialIndex": 3, "score": -1.4500000000000002, "costs": -0.44999999999999996, "simulationMode": [null, null, null, null, null], "rewards": [-2, 2, -1, -6, 6], "path": ["0", "0", "1", "2", "3", "4", "6"], "rt": [6308, 854, 465, 519, 418], "actions": ["up", "up", "up", "right", "right"], "actionTimes": [9928, 11308, 12315, 13352, 14283], "queries": {"click": {"state": {"target": ["23", "25", "1"], "time": [4569, 5543, 6960]}, "edge": {"target": [], "time": []}}, "mouseover": {"state": {"target": ["23", "24", "25", "28", "1", "2"], "time": [4236, 4996, 5106, 6236, 6302, 8876]}, "edge": {"target": [], "time": []}}, "mouseout": {"state": {"target": ["0", "23", "24", "25", "28", "1", "2", "1"], "time": [4128, 4973, 5039, 5749, 6254, 8513, 9047, 9149]}, "edge": {"target": [], "time": []}}}, "displayed_time": "17.66", "trialTime": 22321, "trial_type": "mouselab-mdp", "trial_index": 10, "time_elapsed": 891550, "internal_node_id": "0.0-6.0-1.0-1.0"}}, {"uniqueid": "w67371891:a32786255", "current_trial": 11, "dateTime": 1693565740779, "trialdata": {"revealed_states": [], "clicked_states": [], "num_clicks_accrued": [0, 0, 0, 0, 0, 0, 0, 0, 0, 0, 0, 0, 0], "stateRewards": ["", 1, 1, -5, 10, -31, 73, 14, -8, -23, 63, -70, -1, 2, 8, 7, 25, -59, 27, -10, -40, -71, -15, -2, 3, -8, -5, -19, 77, -34, 7, 67, 63, 19], "withholdReward": false, "trial_id": "mdp_trial_3", "block": "test", "trialIndex": 4, "score": -72, "costs": 0, "simulationMode": [null, null, null, null, null], "rewards": [-1, 2, 8, -10, -71], "path": ["0", "0", "12", "13", "14", "19", "21"], "rt": [10297, 402, 486, 694, 612], "actions": ["right", "right", "right", "down", "down"], "actionTimes": [13104, 14019, 15017, 16224, 17359], "queries": {"click": {"state": {"target": [], "time": []}, "edge": {"target": [], "time": []}}, "mouseover": {"state": {"target": ["12", "13", "15", "16", "18", "22", "19"], "time": [4240, 4284, 4799, 5089, 8217, 9698, 9891]}, "edge": {"target": [], "time": []}}, "mouseout": {"state": {"target": ["12", "13", "15", "16", "18", "22"], "time": [4279, 4298, 4887, 8183, 8296, 9751]}, "edge": {"target": [], "time": []}}}, "displayed_time": "17.88", "trialTime": 21766, "trial_type": "mouselab-mdp", "trial_index": 11, "time_elapsed": 913923, "internal_node_id": "0.0-6.0-1.0-2.0"}}, {"uniqueid": "w67371891:a32786255", "current_trial": 12, "dateTime": 1693565764614, "trialdata": {"revealed_states": [], "clicked_states": [], "num_clicks_accrued": [0, 0, 0, 0, 0, 0, 0, 0, 0, 0, 0, 0, 0], "stateRewards": ["", 2, -1, -1, -9, -81, -30, 55, -6, 78, 25, 62, 2, 4, -1, 9, -85, 1, -19, 1, -60, 12, -34, 1, 4, -1, -13, -24, -16, -83, -8, 16, 43, 9], "withholdReward": false, "trial_id": "mdp_trial_4", "block": "test", "trialIndex": 5, "score": 56, "costs": 0, "simulationMode": [null, null, null, null, null], "rewards": [2, -1, -1, -6, 62], "path": ["0", "0", "1", "2", "3", "8", "11"], "rt": [6610, 249, 278, 453, 1009], "actions": ["up", "up", "up", "left", "left"], "actionTimes": [11850, 12623, 13423, 14392, 15914], "queries": {"click": {"state": {"target": [], "time": []}, "edge": {"target": [], "time": []}}, "mouseover": {"state": {"target": ["23", "23"], "time": [7458, 8848]}, "edge": {"target": [], "time": []}}, "mouseout": {"state": {"target": ["19", "22", "0", "23", "23"], "time": [1565, 1659, 7422, 7584, 9070]}, "edge": {"target": [], "time": []}}}, "displayed_time": "19.28", "trialTime": 23080, "trial_type": "mouselab-mdp", "trial_index": 12, "time_elapsed": 937758, "internal_node_id": "0.0-6.0-1.0-3.0"}}, {"uniqueid": "w67371891:a32786255", "current_trial": 13, "dateTime": 1693565796790, "trialdata": {"revealed_states": [], "clicked_states": ["26"], "num_clicks_accrued": [0, 0, 0, 0, 0, 0, 0, 0, 0, 0, 0, 0, 0], "stateRewards": ["", 2, -3, -2, 14, -4, 85, 46, 15, -28, 41, 31, -1, -1, -1, 5, 62, 79, 57, 12, -73, -64, 86, -1, 1, -3, -5, 68, 11, -32, 8, -80, -21, -56], "withholdReward": false, "trial_id": "mdp_trial_5", "block": "test", "trialIndex": 6, "score": -17.55, "costs": -1.55, "simulationMode": [null, null, null, null, null], "rewards": [2, -3, -2, 15, -28], "path": ["0", "0", "1", "2", "3", "8", "9"], "rt": [6490, 10890, 621, 733, 402], "actions": ["up", "up", "up", "left", "up"], "actionTimes": [10907, 22314, 23436, 24699, 25651], "queries": {"click": {"state": {"target": ["26"], "time": [6662]}, "edge": {"target": [], "time": []}}, "mouseover": {"state": {"target": ["23", "24", "26", "24", "23"], "time": [5844, 5931, 6266, 8935, 9031]}, "edge": {"target": [], "time": []}}, "mouseout": {"state": {"target": ["23", "24", "26", "24", "23"], "time": [5891, 5976, 8852, 9001, 9137]}, "edge": {"target": [], "time": []}}}, "displayed_time": "26.19", "trialTime": 31445, "trial_type": "mouselab-mdp", "trial_index": 13, "time_elapsed": 969935, "internal_node_id": "0.0-6.0-1.0-4.0"}}, {"uniqueid": "w67371891:a32786255", "current_trial": 14, "dateTime": 1693565828306, "trialdata": {"revealed_states": [], "clicked_states": ["25", "32", "8", "27", "14"], "num_clicks_accrued": [0, 0, 0, 0, 0, 0, 0, 0, 0, 0, 0, 0, 0], "stateRewards": ["", -1, 3, 1, -11, -22, -36, 19, -5, -70, -52, 50, -2, -4, 4, -2, -41, -83, 29, -2, 22, 10, -6, -2, 3, -2, 14, 54, 44, 77, -9, -65, -37, -40], "withholdReward": false, "trial_id": "mdp_trial_6", "block": "test", "trialIndex": 7, "score": -52.75, "costs": -7.749999999999999, "simulationMode": [null, null, null, null, null], "rewards": [-2, -4, 4, -2, -41], "path": ["0", "0", "12", "13", "14", "15", "16"], "rt": [14111, 580, 519, 1219, 377], "actions": ["right", "right", "right", "up", "up"], "actionTimes": [18363, 19457, 20492, 22225, 23120], "queries": {"click": {"state": {"target": ["25", "32", "8", "27", "14"], "time": [6245, 7651, 10666, 12434, 15760]}, "edge": {"target": [], "time": []}}, "mouseover": {"state": {"target": ["23", "24", "25", "26", "30", "32", "30", "28", "10", "8", "27", "10", "16", "15", "14", "13"], "time": [5481, 5600, 5891, 6934, 7052, 7163, 8450, 8605, 8653, 8914, 12042, 13600, 13704, 14049, 14226, 17268]}, "edge": {"target": [], "time": []}}, "mouseout": {"state": {"target": ["0", "0", "0", "23", "24", "25", "26", "25", "30", "32", "30", "25", "28", "10", "8", "27", "10", "16", "15", "14", "13"], "time": [1457, 2853, 5450, 5550, 5782, 6427, 7001, 7034, 7133, 8415, 8483, 8533, 8630, 8672, 11736, 13580, 13619, 13727, 14128, 17237, 17380]}, "edge": {"target": [], "time": []}}}, "displayed_time": "23.65", "trialTime": 30818, "trial_type": "mouselab-mdp", "trial_index": 14, "time_elapsed": 1001451, "internal_node_id": "0.0-6.0-1.0-5.0"}}, {"uniqueid": "w67371891:a32786255", "current_trial": 15, "dateTime": 1693565848822, "trialdata": {"revealed_states": [], "clicked_states": [], "num_clicks_accrued": [0, 0, 0, 0, 0, 0, 0, 0, 0, 0, 0, 0, 0], "stateRewards": ["", -2, -1, -2, -15, 87, 57, 29, -10, 77, -80, -7, 1, -3, 6, 14, -11, 87, -59, 4, -71, 16, -11, 2, 2, -7, 2, -47, 61, 50, 14, -20, 17, 81], "withholdReward": false, "trial_id": "mdp_trial_7", "block": "test", "trialIndex": 8, "score": 62, "costs": 0, "simulationMode": [null, null, null, null, null], "rewards": [-2, -1, -2, -10, 77], "path": ["0", "0", "1", "2", "3", "8", "9"], "rt": [5729, 138, 263, 342, 368], "actions": ["up", "up", "up", "left", "up"], "actionTimes": [7934, 8583, 9359, 10220, 11111], "queries": {"click": {"state": {"target": [], "time": []}, "edge": {"target": [], "time": []}}, "mouseover": {"state": {"target": ["22"], "time": [5942]}, "edge": {"target": [], "time": []}}, "mouseout": {"state": {"target": ["12", "0", "0"], "time": [875, 1046, 5510]}, "edge": {"target": [], "time": []}}}, "displayed_time": "16.22", "trialTime": 19727, "trial_type": "mouselab-mdp", "trial_index": 15, "time_elapsed": 1021968, "internal_node_id": "0.0-6.0-1.0-6.0"}}, {"uniqueid": "w67371891:a32786255", "current_trial": 16, "dateTime": 1693565873653, "trialdata": {"revealed_states": [], "clicked_states": [], "num_clicks_accrued": [0, 0, 0, 0, 0, 0, 0, 0, 0, 0, 0, 0, 0], "stateRewards": ["", -1, -2, -8, 8, -27, -82, 19, -14, -62, 4, 1, -2, 2, 6, 10, 73, -51, -2, 2, 73, -48, 54, -1, 2, -4, 11, -25, 47, 86, 15, 33, 43, -42], "withholdReward": false, "trial_id": "mdp_trial_8", "block": "test", "trialIndex": 9, "score": -85, "costs": 0, "simulationMode": [null, null, null, null, null], "rewards": [-1, -2, -8, 8, -82], "path": ["0", "0", "1", "2", "3", "4", "6"], "rt": [4261, 114, 313, 407, 1357], "actions": ["up", "up", "up", "right", "right"], "actionTimes": [7541, 8172, 9003, 9929, 11812], "queries": {"click": {"state": {"target": [], "time": []}, "edge": {"target": [], "time": []}}, "mouseover": {"state": {"target": [], "time": []}, "edge": {"target": [], "time": []}}, "mouseout": {"state": {"target": ["22", "0"], "time": [2118, 2465]}, "edge": {"target": [], "time": []}}}, "displayed_time": "17.31", "trialTime": 24122, "trial_type": "mouselab-mdp", "trial_index": 16, "time_elapsed": 1046798, "internal_node_id": "0.0-6.0-1.0-7.0"}}, {"uniqueid": "w67371891:a32786255", "current_trial": 17, "dateTime": 1693565904000, "trialdata": {"revealed_states": [], "clicked_states": [], "num_clicks_accrued": [0, 0, 0, 0, 0, 0, 0, 0, 0, 0, 0, 0, 0], "stateRewards": ["", 2, 3, 6, -12, -29, 12, 87, 4, 35, -30, 67, 2, 3, -5, -9, 44, 69, -8, 1, 45, -8, 28, -2, -1, -8, 11, -12, -5, 81, 9, 87, 82, 88], "withholdReward": false, "trial_id": "mdp_trial_9", "block": "test", "trialIndex": 10, "score": 82, "costs": 0, "simulationMode": [null, null, null, null, null], "rewards": [2, 3, 6, 4, 67], "path": ["0", "0", "1", "2", "3", "8", "11"], "rt": [3595, 305, 488, 1581, 402], "actions": ["up", "up", "up", "left", "left"], "actionTimes": [10570, 11399, 12412, 14522, 15423], "queries": {"click": {"state": {"target": [], "time": []}, "edge": {"target": [], "time": []}}, "mouseover": {"state": {"target": [], "time": []}, "edge": {"target": [], "time": []}}, "mouseout": {"state": {"target": ["0", "0"], "time": [2852, 3134]}, "edge": {"target": [], "time": []}}}, "displayed_time": "21.01", "trialTime": 29613, "trial_type": "mouselab-mdp", "trial_index": 17, "time_elapsed": 1077145, "internal_node_id": "0.0-6.0-1.0-8.0"}}, {"uniqueid": "w67371891:a32786255", "current_trial": 18, "dateTime": 1693565933930, "trialdata": {"revealed_states": [], "clicked_states": ["30", "27", "8"], "num_clicks_accrued": [0, 0, 0, 0, 0, 0, 0, 0, 0, 0, 0, 0, 0], "stateRewards": ["", -2, -3, 1, -7, 39, -67, 16, 5, -20, 73, 66, -1, 4, 5, -3, 23, -68, -87, -8, 3, -3, 17, 1, -4, -2, -13, -32, 34, 61, -5, -11, -18, 12], "withholdReward": false, "trial_id": "mdp_trial_10", "block": "test", "trialIndex": 11, "score": 22.75, "costs": -5.25, "simulationMode": [null, null, null, null, null], "rewards": [-1, 4, 5, -3, 23], "path": ["0", "0", "12", "13", "14", "15", "16"], "rt": [13315, 208, 632, 76, 411], "actions": ["right", "right", "right", "up", "up"], "actionTimes": [18309, 19026, 20182, 20774, 21708], "queries": {"click": {"state": {"target": ["30", "27", "8"], "time": [7295, 8871, 11884]}, "edge": {"target": [], "time": []}}, "mouseover": {"state": {"target": ["23", "24", "30", "25", "26", "27", "6", "4", "3", "8", "1", "18", "13"], "time": [5988, 6656, 6765, 8025, 8062, 8185, 9837, 9891, 9943, 10138, 14166, 14499, 14616]}, "edge": {"target": [], "time": []}}, "mouseout": {"state": {"target": ["0", "23", "24", "30", "25", "26", "27", "6", "4", "3", "8", "1", "18", "13"], "time": [4098, 6621, 6673, 8006, 8043, 8115, 9609, 9873, 9911, 9989, 13586, 14366, 14517, 15315]}, "edge": {"target": [], "time": []}}}, "displayed_time": "22.23", "trialTime": 29088, "trial_type": "mouselab-mdp", "trial_index": 18, "time_elapsed": 1107075, "internal_node_id": "0.0-6.0-1.0-9.0"}}, {"uniqueid": "w67371891:a32786255", "current_trial": 19, "dateTime": 1693565974029, "trialdata": {"revealed_states": [], "clicked_states": [], "num_clicks_accrued": [0, 0, 0, 0, 0, 0, 0, 0, 0, 0, 0, 0, 0], "stateRewards": ["", 1, 2, -3, 6, -88, 74, -45, 7, -46, 40, -77, 1, -4, 4, 3, 22, -25, -59, 8, -83, 19, -60, -1, -1, -1, -8, 26, -29, 64, -7, -88, -51, -55], "withholdReward": false, "trial_id": "mdp_trial_11", "block": "test", "trialIndex": 12, "score": -61, "costs": 0, "simulationMode": [null, null, null, null, null], "rewards": [-1, -1, -1, -7, -51], "path": ["0", "0", "23", "24", "25", "30", "32"], "rt": [12468, 2296, 404, 691, 325], "actions": ["left", "left", "left", "down", "down"], "actionTimes": [23381, 26186, 27089, 28293, 29142], "queries": {"click": {"state": {"target": [], "time": []}, "edge": {"target": [], "time": []}}, "mouseover": {"state": {"target": [], "time": []}, "edge": {"target": [], "time": []}}, "mouseout": {"state": {"target": [], "time": []}, "edge": {"target": [], "time": []}}}, "displayed_time": "29.67", "trialTime": 39245, "trial_type": "mouselab-mdp", "trial_index": 19, "time_elapsed": 1147174, "internal_node_id": "0.0-6.0-1.0-10.0"}}, {"uniqueid": "w67371891:a32786255", "current_trial": 20, "dateTime": 1693565997495, "trialdata": {"revealed_states": [], "clicked_states": [], "num_clicks_accrued": [0, 0, 0, 0, 0, 0, 0, 0, 0, 0, 0, 0, 0], "stateRewards": ["", 1, 4, -8, -5, -15, -7, 21, 13, -30, 40, -65, 1, 1, 5, -14, 35, 27, -38, -11, 36, -58, -47, -2, 4, -3, 13, -16, -49, 22, 15, -56, -44, -10], "withholdReward": false, "trial_id": "mdp_trial_12", "block": "test", "trialIndex": 13, "score": -20, "costs": 0, "simulationMode": [null, null, null, null, null], "rewards": [1, 4, -8, 13, -30], "path": ["0", "0", "1", "2", "3", "8", "9"], "rt": [3200, 278, 129, 442, 740], "actions": ["up", "up", "up", "left", "up"], "actionTimes": [6853, 7674, 8346, 9302, 10567], "queries": {"click": {"state": {"target": [], "time": []}, "edge": {"target": [], "time": []}}, "mouseover": {"state": {"target": ["23", "1"], "time": [5174, 5627]}, "edge": {"target": [], "time": []}}, "mouseout": {"state": {"target": ["0", "23"], "time": [4482, 5541]}, "edge": {"target": [], "time": []}}}, "displayed_time": "17.69", "trialTime": 22709, "trial_type": "mouselab-mdp", "trial_index": 20, "time_elapsed": 1170641, "internal_node_id": "0.0-6.0-1.0-11.0"}}, {"uniqueid": "w67371891:a32786255", "current_trial": 21, "dateTime": 1693566018042, "trialdata": {"revealed_states": [], "clicked_states": [], "num_clicks_accrued": [0, 0, 0, 0, 0, 0, 0, 0, 0, 0, 0, 0, 0], "stateRewards": ["", 1, 3, 1, -13, 52, -28, 67, -14, 3, 63, -70, -1, -4, 7, -11, -10, 47, -18, 6, 69, -9, -61, 2, 3, -6, 10, 63, -34, 40, -6, -79, -35, -32], "withholdReward": false, "trial_id": "mdp_trial_13", "block": "test", "trialIndex": 14, "score": -6, "costs": 0, "simulationMode": [null, null, null, null, null], "rewards": [1, 3, 1, -14, 3], "path": ["0", "0", "1", "2", "3", "8", "9"], "rt": [713, 173, 123, 202, 287], "actions": ["up", "up", "up", "left", "up"], "actionTimes": [3011, 3700, 4347, 5093, 5897], "queries": {"click": {"state": {"target": [], "time": []}, "edge": {"target": [], "time": []}}, "mouseover": {"state": {"target": [], "time": []}, "edge": {"target": [], "time": []}}, "mouseout": {"state": {"target": ["1"], "time": [1271]}, "edge": {"target": [], "time": []}}}, "displayed_time": "16.32", "trialTime": 19604, "trial_type": "mouselab-mdp", "trial_index": 21, "time_elapsed": 1191187, "internal_node_id": "0.0-6.0-1.0-12.0"}}, {"uniqueid": "w67371891:a32786255", "current_trial": 22, "dateTime": 1693566056115, "trialdata": {"revealed_states": [], "clicked_states": ["29", "25", "32", "8", "14", "19", "6"], "num_clicks_accrued": [0, 0, 0, 0, 0, 0, 0, 0, 0, 0, 0, 0, 0], "stateRewards": ["", 2, -1, -3, 16, -3, -16, -62, -1, 13, -26, 43, -1, 4, 3, -9, -54, -37, -3, -12, -71, -68, -57, 1, -3, 2, -9, 2, -2, -9, -11, 84, -52, 55], "withholdReward": false, "trial_id": "mdp_trial_14", "block": "test", "trialIndex": 15, "score": -13.450000000000001, "costs": -11.450000000000001, "simulationMode": [null, null, null, null, null], "rewards": [2, -1, -3, 16, -16], "path": ["0", "0", "1", "2", "3", "4", "6"], "rt": [19554, 1016, 140, 856, 594], "actions": ["up", "up", "up", "right", "right"], "actionTimes": [26223, 27752, 28408, 29791, 30911], "queries": {"click": {"state": {"target": ["29", "25", "32", "8", "14", "19", "6"], "time": [8501, 11396, 13607, 16576, 18759, 20024, 22829]}, "edge": {"target": [], "time": []}}, "mouseover": {"state": {"target": ["23", "26", "29", "26", "25", "26", "26", "24", "31", "30", "32", "2", "5", "8", "3", "7", "18", "14", "19", "13", "6", "7"], "time": [7615, 7734, 8115, 9268, 10950, 12496, 12779, 12847, 12962, 13108, 13225, 14328, 14630, 14963, 17624, 17675, 17786, 18283, 19509, 21832, 22371, 24486]}, "edge": {"target": [], "time": []}}, "mouseout": {"state": {"target": ["0", "0", "0", "23", "26", "29", "26", "25", "26", "26", "24", "31", "30", "32", "2", "5", "8", "3", "7", "18", "14", "19", "13", "6", "7"], "time": [2368, 4862, 7598, 7651, 7916, 9068, 10772, 12397, 12629, 12819, 12897, 12984, 13143, 14264, 14352, 14699, 17592, 17642, 17693, 17821, 19407, 20214, 21872, 24420, 24521]}, "edge": {"target": [], "time": []}}}, "displayed_time": "31.43", "trialTime": 37048, "trial_type": "mouselab-mdp", "trial_index": 22, "time_elapsed": 1229260, "internal_node_id": "0.0-6.0-1.0-13.0"}}, {"uniqueid": "w67371891:a32786255", "current_trial": 23, "dateTime": 1693566079258, "trialdata": {"revealed_states": [], "clicked_states": [], "num_clicks_accrued": [0, 0, 0, 0, 0, 0, 0, 0, 0, 0, 0, 0, 0], "stateRewards": ["", -1, 3, 8, 9, -53, 20, -84, 2, -28, -62, -31, -1, -2, -7, 2, 51, 58, 45, -4, -17, -41, 36, 2, -2, -7, -15, 29, -54, -37, -16, -43, 65, -17], "withholdReward": false, "trial_id": "mdp_trial_15", "block": "test", "trialIndex": 16, "score": -59, "costs": 0, "simulationMode": [null, null, null, null, null], "rewards": [2, -2, -7, -15, -37], "path": ["0", "0", "23", "24", "25", "26", "29"], "rt": [7009, 462, 336, 226, 243], "actions": ["left", "left", "left", "up", "left"], "actionTimes": [11273, 12238, 13093, 13834, 14598], "queries": {"click": {"state": {"target": [], "time": []}, "edge": {"target": [], "time": []}}, "mouseover": {"state": {"target": [], "time": []}, "edge": {"target": [], "time": []}}, "mouseout": {"state": {"target": [], "time": []}, "edge": {"target": [], "time": []}}}, "displayed_time": "18.30", "trialTime": 22369, "trial_type": "mouselab-mdp", "trial_index": 23, "time_elapsed": 1252404, "internal_node_id": "0.0-6.0-1.0-14.0"}}, {"uniqueid": "w67371891:a32786255", "current_trial": 24, "dateTime": 1693566106704, "trialdata": {"revealed_states": [], "clicked_states": [], "num_clicks_accrued": [0, 0, 0, 0, 0, 0, 0, 0, 0, 0, 0, 0, 0], "stateRewards": ["", 2, -3, -4, -1, 25, -16, 16, 10, -71, -20, -55, 1, 3, -4, -9, 1, 32, 11, -6, 32, -50, -41, -1, 4, 4, -8, 7, -81, 70, 2, -52, 45, -10], "withholdReward": false, "trial_id": "mdp_trial_16", "block": "test", "trialIndex": 17, "score": -82, "costs": 0, "simulationMode": [null, null, null, null, null], "rewards": [-1, 4, 4, -8, -81], "path": ["0", "0", "23", "24", "25", "26", "28"], "rt": [2035, 320, 2504, 514, 1404], "actions": ["left", "left", "left", "up", "right"], "actionTimes": [6280, 7198, 10224, 11248, 13186], "queries": {"click": {"state": {"target": [], "time": []}, "edge": {"target": [], "time": []}}, "mouseover": {"state": {"target": [], "time": []}, "edge": {"target": [], "time": []}}, "mouseout": {"state": {"target": ["0", "0"], "time": [2043, 2154]}, "edge": {"target": [], "time": []}}}, "displayed_time": "18.27", "trialTime": 26562, "trial_type": "mouselab-mdp", "trial_index": 24, "time_elapsed": 1279849, "internal_node_id": "0.0-6.0-1.0-15.0"}}, {"uniqueid": "w67371891:a32786255", "current_trial": 25, "dateTime": 1693566129924, "trialdata": {"revealed_states": [], "clicked_states": [], "num_clicks_accrued": [0, 0, 0, 0, 0, 0, 0, 0, 0, 0, 0, 0, 0], "stateRewards": ["", -1, 4, -8, 12, 14, 69, -8, 5, -72, -14, 56, -1, -1, -1, 9, 67, 19, 11, -9, -88, -58, 3, 2, -4, -8, 4, 62, 77, -74, 5, -31, 65, 88], "withholdReward": false, "trial_id": "mdp_trial_17", "block": "test", "trialIndex": 18, "score": 56, "costs": 0, "simulationMode": [null, null, null, null, null], "rewards": [2, -4, -8, 4, 62], "path": ["0", "0", "23", "24", "25", "26", "27"], "rt": [2292, 300, 264, 282, 821], "actions": ["left", "left", "left", "up", "up"], "actionTimes": [5587, 6413, 7190, 7991, 9329], "queries": {"click": {"state": {"target": [], "time": []}, "edge": {"target": [], "time": []}}, "mouseover": {"state": {"target": [], "time": []}, "edge": {"target": [], "time": []}}, "mouseout": {"state": {"target": ["0"], "time": [1387]}, "edge": {"target": [], "time": []}}}, "displayed_time": "17.31", "trialTime": 22313, "trial_type": "mouselab-mdp", "trial_index": 25, "time_elapsed": 1303069, "internal_node_id": "0.0-6.0-1.0-16.0"}}, {"uniqueid": "w67371891:a32786255", "current_trial": 26, "dateTime": 1693566163451, "trialdata": {"revealed_states": [], "clicked_states": [], "num_clicks_accrued": [0, 0, 0, 0, 0, 0, 0, 0, 0, 0, 0, 0, 0], "stateRewards": ["", 2, 4, -6, -13, -75, -81, 30, 7, 5, 59, -65, -1, -1, 7, 14, -38, 36, -41, 1, -54, -5, 64, 2, -1, 5, 6, -19, 79, 11, 16, -33, -50, 58], "withholdReward": false, "trial_id": "mdp_trial_18", "block": "test", "trialIndex": 19, "score": -19, "costs": 0, "simulationMode": [null, null, null, null, null], "rewards": [-1, -1, 7, 14, -38], "path": ["0", "0", "12", "13", "14", "15", "16"], "rt": [9313, 232, 160, 470, 474], "actions": ["right", "right", "right", "up", "up"], "actionTimes": [18207, 18952, 19628, 20620, 21606], "queries": {"click": {"state": {"target": [], "time": []}, "edge": {"target": [], "time": []}}, "mouseover": {"state": {"target": [], "time": []}, "edge": {"target": [], "time": []}}, "mouseout": {"state": {"target": ["0", "0"], "time": [7482, 31657]}, "edge": {"target": [], "time": []}}}, "displayed_time": "22.90", "trialTime": 32482, "trial_type": "mouselab-mdp", "trial_index": 26, "time_elapsed": 1336596, "internal_node_id": "0.0-6.0-1.0-17.0"}}, {"uniqueid": "w67371891:a32786255", "current_trial": 27, "dateTime": 1693566191639, "trialdata": {"revealed_states": [], "clicked_states": ["14", "15", "16"], "num_clicks_accrued": [0, 0, 0, 0, 0, 0, 0, 0, 0, 0, 0, 0, 0], "stateRewards": ["", 1, 4, -4, 14, 35, 51, 19, -13, 54, 78, -74, -2, -1, -3, 13, -11, -42, -73, -15, -24, -3, -69, 2, -1, 5, 16, -27, 73, 58, 9, -60, 5, -60], "withholdReward": false, "trial_id": "mdp_trial_19", "block": "test", "trialIndex": 20, "score": -39.65, "costs": -4.65, "simulationMode": [null, null, null, null, null, null], "rewards": [-2, -1, -3, 13, -42], "path": ["0", "0", "12", "13", "14", "15", "17"], "rt": [7630, 1320, 442, 395, 410, 571], "actions": ["right", "right", "right", "right", "up", "right"], "actionTimes": [15136, 16463, 17423, 18342, 19270, 20364], "queries": {"click": {"state": {"target": ["14", "15", "16"], "time": [10170, 11421, 12727]}, "edge": {"target": [], "time": []}}, "mouseover": {"state": {"target": ["12", "13", "14", "15", "16"], "time": [9478, 9615, 9811, 11000, 12388]}, "edge": {"target": [], "time": []}}, "mouseout": {"state": {"target": ["0", "12", "13", "14", "15"], "time": [9434, 9498, 9724, 10948, 12101]}, "edge": {"target": [], "time": []}}}, "displayed_time": "21.52", "trialTime": 27280, "trial_type": "mouselab-mdp", "trial_index": 27, "time_elapsed": 1364784, "internal_node_id": "0.0-6.0-1.0-18.0"}}, {"uniqueid": "w67371891:a32786255", "current_trial": 28, "dateTime": 1693566217403, "trialdata": {"revealed_states": [], "clicked_states": [], "num_clicks_accrued": [0, 0, 0, 0, 0, 0, 0, 0, 0, 0, 0, 0, 0], "stateRewards": ["", 2, -1, 5, 6, 10, 86, 55, 10, -45, 63, -71, 1, -2, 5, -8, -50, -72, 36, 15, 61, 12, 33, -1, -4, 6, 5, 79, -56, -21, -16, -87, 60, -81], "withholdReward": false, "trial_id": "mdp_trial_20", "block": "test", "trialIndex": 21, "score": 98, "costs": 0, "simulationMode": [null, null, null, null, null], "rewards": [2, -1, 5, 6, 86], "path": ["0", "0", "1", "2", "3", "4", "6"], "rt": [3325, 639, 444, 282, 938], "actions": ["up", "up", "up", "right", "right"], "actionTimes": [7725, 8889, 9857, 10661, 12132], "queries": {"click": {"state": {"target": [], "time": []}, "edge": {"target": [], "time": []}}, "mouseover": {"state": {"target": [], "time": []}, "edge": {"target": [], "time": []}}, "mouseout": {"state": {"target": ["16", "0", "23", "23", "0"], "time": [2332, 2408, 2481, 2664, 2814]}, "edge": {"target": [], "time": []}}}, "displayed_time": "18.45", "trialTime": 24853, "trial_type": "mouselab-mdp", "trial_index": 28, "time_elapsed": 1390550, "internal_node_id": "0.0-6.0-1.0-19.0"}}, {"uniqueid": "w67371891:a32786255", "current_trial": 29, "dateTime": 1693566246001, "trialdata": {"revealed_states": [], "clicked_states": [], "num_clicks_accrued": [0, 0, 0, 0, 0, 0, 0, 0, 0, 0, 0, 0, 0], "stateRewards": ["", -1, -4, 8, 8, -68, 47, 24, -7, -61, 49, -69, -1, -1, 8, -7, 42, 1, -45, -11, 10, -63, -6, 1, 4, 6, -16, 79, -37, -58, -12, 81, 18, -53], "withholdReward": false, "trial_id": "mdp_trial_21", "block": "test", "trialIndex": 22, "score": 17, "costs": 0, "simulationMode": [null, null, null, null, null], "rewards": [1, 4, 6, -12, 18], "path": ["0", "0", "23", "24", "25", "30", "32"], "rt": [4123, 410, 539, 1101, 654], "actions": ["left", "left", "left", "down", "down"], "actionTimes": [9121, 10057, 11118, 12746, 13914], "queries": {"click": {"state": {"target": [], "time": []}, "edge": {"target": [], "time": []}}, "mouseover": {"state": {"target": [], "time": []}, "edge": {"target": [], "time": []}}, "mouseout": {"state": {"target": ["0"], "time": [2776]}, "edge": {"target": [], "time": []}}}, "displayed_time": "19.01", "trialTime": 27627, "trial_type": "mouselab-mdp", "trial_index": 29, "time_elapsed": 1419147, "internal_node_id": "0.0-6.0-1.0-20.0"}}, {"uniqueid": "w67371891:a32786255", "current_trial": 30, "dateTime": 1693566271137, "trialdata": {"revealed_states": [], "clicked_states": [], "num_clicks_accrued": [0, 0, 0, 0, 0, 0, 0, 0, 0, 0, 0, 0, 0], "stateRewards": ["", -1, 2, 6, 11, 21, -21, -21, -6, 48, -71, 88, -1, -3, 3, 7, 64, 2, 9, -4, 37, -67, 72, 2, 2, -8, -8, -10, 71, -40, -3, 73, 80, 47], "withholdReward": false, "trial_id": "mdp_trial_22", "block": "test", "trialIndex": 23, "score": 49, "costs": 0, "simulationMode": [null, null, null, null, null], "rewards": [-1, 2, 6, -6, 48], "path": ["0", "0", "1", "2", "3", "8", "9"], "rt": [4505, 235, 288, 518, 145], "actions": ["up", "up", "up", "left", "up"], "actionTimes": [7624, 8380, 9181, 10226, 10911], "queries": {"click": {"state": {"target": [], "time": []}, "edge": {"target": [], "time": []}}, "mouseover": {"state": {"target": [], "time": []}, "edge": {"target": [], "time": []}}, "mouseout": {"state": {"target": ["0"], "time": [1396]}, "edge": {"target": [], "time": []}}}, "displayed_time": "17.14", "trialTime": 24180, "trial_type": "mouselab-mdp", "trial_index": 30, "time_elapsed": 1444282, "internal_node_id": "0.0-6.0-1.0-21.0"}}, {"uniqueid": "w67371891:a32786255", "current_trial": 31, "dateTime": 1693566293245, "trialdata": {"revealed_states": [], "clicked_states": [], "num_clicks_accrued": [0, 0, 0, 0, 0, 0, 0, 0, 0, 0, 0, 0, 0], "stateRewards": ["", 1, 1, -2, 7, -31, -6, 76, 1, -36, -16, -53, 2, 1, 7, 13, -47, -10, 47, -7, 72, 46, -56, -2, -2, -2, 11, -80, 44, 38, 16, 67, 85, -78], "withholdReward": false, "trial_id": "mdp_trial_23", "block": "test", "trialIndex": 24, "score": 49, "costs": 0, "simulationMode": [null, null, null, null, null], "rewards": [2, 1, 7, -7, 46], "path": ["0", "0", "12", "13", "14", "19", "21"], "rt": [606, 321, 167, 423, 587], "actions": ["right", "right", "right", "down", "down"], "actionTimes": [4857, 5723, 6477, 7411, 8527], "queries": {"click": {"state": {"target": [], "time": []}, "edge": {"target": [], "time": []}}, "mouseover": {"state": {"target": [], "time": []}, "edge": {"target": [], "time": []}}, "mouseout": {"state": {"target": ["0"], "time": [2733]}, "edge": {"target": [], "time": []}}}, "displayed_time": "18.27", "trialTime": 21174, "trial_type": "mouselab-mdp", "trial_index": 31, "time_elapsed": 1466389, "internal_node_id": "0.0-6.0-1.0-22.0"}}, {"uniqueid": "w67371891:a32786255", "current_trial": 32, "dateTime": 1693566326287, "trialdata": {"revealed_states": [], "clicked_states": [], "num_clicks_accrued": [0, 0, 0, 0, 0, 0, 0, 0, 0, 0, 0, 0, 0], "stateRewards": ["", -2, 3, -5, -7, 66, 43, -60, -4, -70, -75, 4, -1, 2, 2, -13, 54, 11, -40, -1, 77, 32, 15, -2, 3, -8, -9, -35, 83, -27, 6, -74, -34, 44], "withholdReward": false, "trial_id": "mdp_trial_24", "block": "test", "trialIndex": 25, "score": -4, "costs": 0, "simulationMode": [null, null, null, null, null], "rewards": [-2, 3, -5, -4, 4], "path": ["0", "0", "1", "2", "3", "8", "11"], "rt": [3171, 126, 55, 606, 172], "actions": ["up", "up", "up", "left", "left"], "actionTimes": [15171, 15826, 16443, 17567, 18267], "queries": {"click": {"state": {"target": [], "time": []}, "edge": {"target": [], "time": []}}, "mouseover": {"state": {"target": [], "time": []}, "edge": {"target": [], "time": []}}, "mouseout": {"state": {"target": ["0"], "time": [4296]}, "edge": {"target": [], "time": []}}}, "displayed_time": "26.03", "trialTime": 31890, "trial_type": "mouselab-mdp", "trial_index": 32, "time_elapsed": 1499433, "internal_node_id": "0.0-6.0-1.0-23.0"}}, {"uniqueid": "w67371891:a32786255", "current_trial": 33, "dateTime": 1693566367095, "trialdata": {"revealed_states": [], "clicked_states": ["21", "32", "27"], "num_clicks_accrued": [0, 0, 0, 0, 0, 0, 0, 0, 0, 0, 0, 0, 0], "stateRewards": ["", 2, -1, 4, -9, -43, 7, 54, -13, 38, -40, -83, -1, 2, -8, -10, 34, -33, 11, -14, -79, 65, 26, 1, 2, 4, 10, 21, 1, 86, 4, -53, 28, -29], "withholdReward": false, "trial_id": "mdp_trial_25", "block": "test", "trialIndex": 26, "score": 32.55, "costs": -6.449999999999999, "simulationMode": [null, null, null, null, null, null], "rewards": [1, 2, 4, 4, 28], "path": ["0", "0", "23", "24", "25", "30", "32"], "rt": [10360, 5156, 418, 7, 440, 358], "actions": ["left", "left", "left", "left", "down", "down"], "actionTimes": [24765, 29929, 30882, 31539, 32554, 33410], "queries": {"click": {"state": {"target": ["21", "32", "27"], "time": [16299, 20215, 23544]}, "edge": {"target": [], "time": []}}, "mouseover": {"state": {"target": ["1", "13", "21", "30", "32", "32", "30", "25", "26", "27", "26"], "time": [14630, 15159, 15539, 17070, 17382, 17814, 20989, 21146, 21470, 21676, 29038]}, "edge": {"target": [], "time": []}}, "mouseout": {"state": {"target": ["0", "0", "0", "0", "1", "13", "21", "30", "32", "32", "30", "25", "26", "27", "26"], "time": [1158, 4356, 8193, 14585, 14664, 15199, 16914, 17097, 17508, 20911, 21086, 21429, 21512, 28983, 29146]}, "edge": {"target": [], "time": []}}}, "displayed_time": "33.93", "trialTime": 39834, "trial_type": "mouselab-mdp", "trial_index": 33, "time_elapsed": 1540241, "internal_node_id": "0.0-6.0-1.0-24.0"}}, {"uniqueid": "w67371891:a32786255", "current_trial": 34, "dateTime": 1693566484403, "trialdata": {"revealed_states": [], "clicked_states": [], "num_clicks_accrued": [0, 0, 0, 0, 0, 0, 0, 0, 0, 0, 0, 0, 0], "stateRewards": ["", -1, -3, 1, -4, -48, -63, -49, -2, -84, -19, 65, 2, -2, -2, -12, -4, 59, 9, 6, 75, 69, -13, -1, -3, -3, -2, -37, -68, -36, 13, 32, 18, -14], "withholdReward": false, "trial_id": "mdp_trial_26", "block": "test", "trialIndex": 27, "score": -18, "costs": 0, "simulationMode": [null, null, null, null, null], "rewards": [2, -2, -2, -12, -4], "path": ["0", "0", "12", "13", "14", "15", "16"], "rt": [7215, 381, 143, 313, 104], "actions": ["right", "right", "right", "up", "up"], "actionTimes": [10314, 11199, 11856, 12677, 13313], "queries": {"click": {"state": {"target": [], "time": []}, "edge": {"target": [], "time": []}}, "mouseover": {"state": {"target": ["22", "14", "17", "15"], "time": [4616, 4757, 4889, 5644]}, "edge": {"target": [], "time": []}}, "mouseout": {"state": {"target": ["23", "0", "22", "14", "17", "15", "0", "0", "18"], "time": [1144, 4497, 4704, 4843, 5597, 27793, 28043, 34751, 35264]}, "edge": {"target": [], "time": []}}}, "displayed_time": "17.13", "trialTime": 116189, "trial_type": "mouselab-mdp", "trial_index": 34, "time_elapsed": 1657548, "internal_node_id": "0.0-6.0-1.0-25.0"}}, {"uniqueid": "w67371891:a32786255", "current_trial": 35, "dateTime": 1693566512302, "trialdata": {"revealed_states": [], "clicked_states": ["15", "21", "26"], "num_clicks_accrued": [0, 0, 0, 0, 0, 0, 0, 0, 0, 0, 0, 0, 0], "stateRewards": ["", -1, 4, -6, -5, -22, -38, -38, -2, -56, 88, 14, -1, -1, -7, -6, 61, -60, 21, 11, 57, 31, -30, -2, -2, 6, -9, -44, -70, -44, -15, 34, 16, -78], "withholdReward": false, "trial_id": "mdp_trial_27", "block": "test", "trialIndex": 28, "score": 27.75, "costs": -5.25, "simulationMode": [null, null, null, null, null], "rewards": [-1, -1, -7, 11, 31], "path": ["0", "0", "12", "13", "14", "19", "21"], "rt": [11611, 416, 291, 202, 263], "actions": ["right", "right", "right", "down", "down"], "actionTimes": [15284, 16229, 17061, 17792, 18590], "queries": {"click": {"state": {"target": ["15", "21", "26"], "time": [5561, 7348, 12665]}, "edge": {"target": [], "time": []}}, "mouseover": {"state": {"target": ["18", "15", "14", "19", "21", "30", "23", "0", "12", "12", "26", "26", "23", "0", "12", "13"], "time": [4747, 4862, 6430, 6575, 6726, 10987, 11120, 11156, 11234, 11696, 11851, 12216, 14249, 14369, 14458, 14552]}, "edge": {"target": [], "time": []}}, "mouseout": {"state": {"target": ["12", "18", "15", "14", "19", "21", "30", "23", "0", "12", "12", "26", "26", "23", "0", "12"], "time": [1676, 4795, 6398, 6502, 6673, 8012, 11074, 11138, 11204, 11325, 11734, 11904, 14135, 14317, 14434, 14505]}, "edge": {"target": [], "time": []}}}, "displayed_time": "19.10", "trialTime": 26713, "trial_type": "mouselab-mdp", "trial_index": 35, "time_elapsed": 1685447, "internal_node_id": "0.0-6.0-1.0-26.0"}}, {"uniqueid": "w67371891:a32786255", "current_trial": 36, "dateTime": 1693566556752, "trialdata": {"revealed_states": [], "clicked_states": ["3", "11", "30", "19", "26", "15", "32"], "num_clicks_accrued": [0, 0, 0, 0, 0, 0, 0, 0, 0, 0, 0, 0, 0], "stateRewards": ["", -1, 3, 2, 9, 41, 4, -46, -12, -54, -87, -25, 2, 3, -1, 11, -77, 12, -33, -9, -32, 35, 72, 1, 3, -7, 4, 37, 65, -73, 6, 77, -43, 8], "withholdReward": false, "trial_id": "mdp_trial_28", "block": "test", "trialIndex": 29, "score": 42.55, "costs": -11.45, "simulationMode": [null, null, null, null, null], "rewards": [-1, 3, 2, 9, 41], "path": ["0", "0", "1", "2", "3", "4", "5"], "rt": [20438, 414, 1041, 2136, 641], "actions": ["up", "up", "up", "right", "up"], "actionTimes": [25781, 26728, 28293, 31241, 32406], "queries": {"click": {"state": {"target": ["3", "11", "30", "19", "26", "15", "32"], "time": [7480, 8779, 12023, 14029, 16065, 18447, 20149]}, "edge": {"target": [], "time": []}}, "mouseover": {"state": {"target": ["1", "2", "3", "8", "11", "26", "25", "30", "22", "19", "14", "18", "10", "26", "18", "15", "12", "32"], "time": [6744, 6801, 7077, 8165, 8417, 9625, 9998, 10372, 13432, 13577, 14938, 15035, 15270, 15636, 17303, 17796, 19305, 19698]}, "edge": {"target": [], "time": []}}, "mouseout": {"state": {"target": ["13", "12", "0", "1", "1", "2", "3", "8", "11", "26", "25", "30", "22", "19", "14", "18", "10", "26", "18", "15", "12"], "time": [1848, 1883, 3506, 3938, 6778, 6961, 8135, 8252, 9399, 9752, 10194, 13249, 13535, 14907, 14962, 15073, 15320, 17270, 17320, 19272, 19335]}, "edge": {"target": [], "time": []}}}, "displayed_time": "32.93", "trialTime": 43162, "trial_type": "mouselab-mdp", "trial_index": 36, "time_elapsed": 1729897, "internal_node_id": "0.0-6.0-1.0-27.0"}}, {"uniqueid": "w67371891:a32786255", "current_trial": 37, "dateTime": 1693566583327, "trialdata": {"revealed_states": [], "clicked_states": [], "num_clicks_accrued": [0, 0, 0, 0, 0, 0, 0, 0, 0, 0, 0, 0, 0], "stateRewards": ["", -2, 1, -3, -16, -39, -52, 30, -7, -41, -59, 11, 2, 1, 8, 2, -11, -26, -42, -13, 87, -59, -48, -1, -1, -1, 16, -79, 31, 50, -1, -84, 34, -82], "withholdReward": false, "trial_id": "mdp_trial_29", "block": "test", "trialIndex": 30, "score": -66, "costs": 0, "simulationMode": [null, null, null, null, null], "rewards": [-1, -1, -1, 16, -79], "path": ["0", "0", "23", "24", "25", "26", "27"], "rt": [9455, 200, 160, 946, 248], "actions": ["left", "left", "left", "up", "up"], "actionTimes": [15537, 16260, 16953, 18413, 19186], "queries": {"click": {"state": {"target": [], "time": []}, "edge": {"target": [], "time": []}}, "mouseover": {"state": {"target": ["23", "24", "25", "23", "12", "13", "14"], "time": [8905, 9088, 9357, 12449, 12569, 12721, 12856]}, "edge": {"target": [], "time": []}}, "mouseout": {"state": {"target": ["32", "31", "0", "23", "24", "25", "23", "12", "13"], "time": [4271, 4555, 8822, 9006, 9205, 12400, 12473, 12669, 12786]}, "edge": {"target": [], "time": []}}}, "displayed_time": "20.08", "trialTime": 25526, "trial_type": "mouselab-mdp", "trial_index": 37, "time_elapsed": 1756471, "internal_node_id": "0.0-6.0-1.0-28.0"}}, {"uniqueid": "w67371891:a32786255", "current_trial": 38, "dateTime": 1693566611205, "trialdata": {"revealed_states": [], "clicked_states": ["21", "32"], "num_clicks_accrued": [0, 0, 0, 0, 0, 0, 0, 0, 0, 0, 0, 0, 0], "stateRewards": ["", 2, 1, -3, 7, 46, 11, -36, 16, 71, 5, 1, 2, -2, -8, -3, -4, 6, 55, 7, 68, -54, 2, 1, 1, 6, -6, 42, -4, -84, -11, -65, 63, 25], "withholdReward": false, "trial_id": "mdp_trial_30", "block": "test", "trialIndex": 31, "score": 55.7, "costs": -4.3, "simulationMode": [null, null, null, null, null], "rewards": [1, 1, 6, -11, 63], "path": ["0", "0", "23", "24", "25", "30", "32"], "rt": [9868, 345, 399, 350, 517], "actions": ["left", "left", "left", "down", "down"], "actionTimes": [12318, 13188, 14102, 14971, 16020], "queries": {"click": {"state": {"target": ["21", "32"], "time": [3932, 7602]}, "edge": {"target": [], "time": []}}, "mouseover": {"state": {"target": ["22", "19", "21", "31", "32", "30", "25", "26", "25"], "time": [3135, 3240, 3507, 4756, 5147, 8411, 8651, 8776, 11548]}, "edge": {"target": [], "time": []}}, "mouseout": {"state": {"target": ["14", "12", "0", "22", "19", "21", "31", "32", "30", "25", "26", "25"], "time": [1017, 1283, 3089, 3159, 3357, 4457, 4783, 7792, 8611, 8725, 11250, 11666]}, "edge": {"target": [], "time": []}}}, "displayed_time": "16.55", "trialTime": 26627, "trial_type": "mouselab-mdp", "trial_index": 38, "time_elapsed": 1784350, "internal_node_id": "0.0-6.0-1.0-29.0"}}, {"uniqueid": "w67371891:a32786255", "current_trial": 39, "dateTime": 1693566638327, "trialdata": {"revealed_states": [], "clicked_states": ["3", "14", "26", "32"], "num_clicks_accrued": [0, 0, 0, 0, 0, 0, 0, 0, 0, 0, 0, 0, 0], "stateRewards": ["", 2, 4, -5, 7, 81, 35, 6, 11, 14, -72, 42, -1, 2, 3, -7, -77, -44, -40, -15, -85, 51, -32, -2, -1, -5, 7, -74, 47, 52, 16, -49, 48, -46], "withholdReward": false, "trial_id": "mdp_trial_31", "block": "test", "trialIndex": 32, "score": 50.4, "costs": -5.6, "simulationMode": [null, null, null, null, null], "rewards": [-2, -1, -5, 16, 48], "path": ["0", "0", "23", "24", "25", "30", "32"], "rt": [11676, 425, 177, 281, 282], "actions": ["left", "left", "left", "down", "down"], "actionTimes": [15389, 16334, 17034, 17838, 18636], "queries": {"click": {"state": {"target": ["3", "14", "26", "32"], "time": [5516, 6908, 8538, 9903]}, "edge": {"target": [], "time": []}}, "mouseover": {"state": {"target": ["1", "2", "3", "15", "14", "13", "23", "26", "25", "30", "32", "21", "23"], "time": [4940, 5017, 5062, 6361, 6514, 7747, 7895, 8164, 9127, 9253, 9472, 11400, 13850]}, "edge": {"target": [], "time": []}}, "mouseout": {"state": {"target": ["24", "1", "1", "2", "3", "15", "14", "13", "23", "26", "25", "30", "32", "21", "23"], "time": [1204, 1320, 4995, 5057, 6166, 6398, 7720, 7778, 7925, 9102, 9180, 9382, 10777, 13749, 13966]}, "edge": {"target": [], "time": []}}}, "displayed_time": "19.15", "trialTime": 25696, "trial_type": "mouselab-mdp", "trial_index": 39, "time_elapsed": 1811472, "internal_node_id": "0.0-6.0-1.0-30.0"}}, {"uniqueid": "w67371891:a32786255", "current_trial": 40, "dateTime": 1693566681700, "trialdata": {"revealed_states": [], "clicked_states": ["3", "17", "9", "32", "21", "27", "16"], "num_clicks_accrued": [0, 0, 0, 0, 0, 0, 0, 0, 0, 0, 0, 0, 0], "stateRewards": ["", 1, 2, -6, -13, -51, 22, -4, -12, -44, -12, 6, -2, -2, -2, -14, -46, -4, -77, -2, 36, -79, 41, 2, -4, 2, -6, -55, 59, 70, -5, 39, -19, 24], "withholdReward": false, "trial_id": "mdp_trial_32", "block": "test", "trialIndex": 33, "score": -37.85, "costs": -13.850000000000001, "simulationMode": [null, null, null, null, null], "rewards": [-2, -2, -2, -14, -4], "path": ["0", "0", "12", "13", "14", "15", "17"], "rt": [27991, 252, 335, 126, 489], "actions": ["right", "right", "right", "up", "right"], "actionTimes": [31784, 32558, 33408, 34068, 35079], "queries": {"click": {"state": {"target": ["3", "17", "9", "32", "21", "27", "16"], "time": [5478, 6975, 10292, 14382, 18525, 22943, 27094]}, "edge": {"target": [], "time": []}}, "mouseover": {"state": {"target": ["1", "2", "3", "17", "4", "9", "8", "28", "32", "21", "23", "24", "26", "27", "28", "23", "13", "15", "16"], "time": [4800, 4849, 5026, 6468, 7701, 7884, 11222, 12937, 13613, 18181, 22008, 22031, 22066, 22574, 24160, 24301, 26138, 26288, 26704]}, "edge": {"target": [], "time": []}}, "mouseout": {"state": {"target": ["23", "0", "1", "2", "3", "17", "4", "9", "8", "28", "32", "21", "23", "24", "26", "27", "28", "23", "13", "15", "16"], "time": [1828, 4760, 4822, 4920, 6150, 7516, 7749, 11135, 11386, 12963, 14571, 21942, 22027, 22060, 22091, 24108, 24211, 25830, 26221, 26306, 27308]}, "edge": {"target": [], "time": []}}}, "displayed_time": "35.61", "trialTime": 42201, "trial_type": "mouselab-mdp", "trial_index": 40, "time_elapsed": 1854847, "internal_node_id": "0.0-6.0-1.0-31.0"}}, {"uniqueid": "w67371891:a32786255", "current_trial": 41, "dateTime": 1693566714686, "trialdata": {"revealed_states": [], "clicked_states": ["27", "28", "11"], "num_clicks_accrued": [0, 0, 0, 0, 0, 0, 0, 0, 0, 0, 0, 0, 0], "stateRewards": ["", -1, 1, -1, 2, 19, 85, -18, 2, -3, -26, 36, 2, 4, 7, -9, -18, 70, 72, -5, 35, -20, -28, 1, -2, -4, -3, -59, -11, -63, -2, -72, 59, -69], "withholdReward": false, "trial_id": "mdp_trial_33", "block": "test", "trialIndex": 34, "score": 30.55, "costs": -6.449999999999999, "simulationMode": [null, null, null, null, null], "rewards": [-1, 1, -1, 2, 36], "path": ["0", "0", "1", "2", "3", "8", "11"], "rt": [13000, 68, 4540, 599, 218], "actions": ["up", "up", "up", "left", "left"], "actionTimes": [16743, 17346, 22395, 23516, 24267], "queries": {"click": {"state": {"target": ["27", "28", "11"], "time": [5916, 9119, 12346]}, "edge": {"target": [], "time": []}}, "mouseover": {"state": {"target": ["28", "26", "27", "26", "28", "8", "11", "5", "2"], "time": [4771, 5013, 5520, 6672, 7594, 10003, 10303, 13517, 16128]}, "edge": {"target": [], "time": []}}, "mouseout": {"state": {"target": ["16", "0", "28", "26", "27", "26", "28", "8", "11", "5", "2"], "time": [925, 4660, 4855, 5404, 6528, 7566, 9881, 10114, 13015, 16011, 16211]}, "edge": {"target": [], "time": []}}}, "displayed_time": "24.80", "trialTime": 31838, "trial_type": "mouselab-mdp", "trial_index": 41, "time_elapsed": 1887831, "internal_node_id": "0.0-6.0-1.0-32.0"}}, {"uniqueid": "w67371891:a32786255", "current_trial": 42, "dateTime": 1693566739188, "trialdata": {"revealed_states": [], "clicked_states": ["17", "6"], "num_clicks_accrued": [0, 0, 0, 0, 0, 0, 0, 0, 0, 0, 0, 0, 0], "stateRewards": ["", -2, 3, 8, -9, 59, 41, -50, -1, 82, 66, 33, 2, -2, 7, 8, 1, -38, 12, -16, 24, -37, 67, 1, 4, -2, 5, 35, -83, 28, 8, -27, 69, -64], "withholdReward": false, "trial_id": "mdp_trial_34", "block": "test", "trialIndex": 35, "score": 36.7, "costs": -4.3, "simulationMode": [null, null, null, null, null], "rewards": [-2, 3, 8, -9, 41], "path": ["0", "0", "1", "2", "3", "4", "6"], "rt": [10796, 116, 104, 123, 333], "actions": ["up", "up", "up", "right", "right"], "actionTimes": [13945, 14607, 15230, 15883, 16743], "queries": {"click": {"state": {"target": ["17", "6"], "time": [4891, 9397]}, "edge": {"target": [], "time": []}}, "mouseover": {"state": {"target": ["12", "15", "17", "15", "16", "4", "6", "2", "28", "29", "33", "33", "23"], "time": [4110, 4244, 4463, 5663, 5785, 6631, 9015, 10128, 10643, 10845, 11053, 11443, 13207]}, "edge": {"target": [], "time": []}}, "mouseout": {"state": {"target": ["1", "12", "15", "17", "15", "16", "4", "6", "2", "28", "29", "33", "33", "23"], "time": [1089, 4158, 4410, 5537, 5734, 6058, 7232, 10103, 10160, 10712, 10959, 11126, 13134, 13251]}, "edge": {"target": [], "time": []}}}, "displayed_time": "17.27", "trialTime": 23410, "trial_type": "mouselab-mdp", "trial_index": 42, "time_elapsed": 1912333, "internal_node_id": "0.0-6.0-1.0-33.0"}}, {"uniqueid": "w67371891:a32786255", "current_trial": 43, "dateTime": 1693566765817, "trialdata": {"revealed_states": [], "clicked_states": ["32", "27"], "num_clicks_accrued": [0, 0, 0, 0, 0, 0, 0, 0, 0, 0, 0, 0, 0], "stateRewards": ["", -1, 2, -2, 13, -56, -28, 10, 14, 53, -80, -29, 1, -3, -3, -14, 14, 9, -40, -9, 18, 18, 48, 1, 1, 1, -9, 64, -39, -9, 7, -52, -78, 7], "withholdReward": false, "trial_id": "mdp_trial_35", "block": "test", "trialIndex": 36, "score": 53.7, "costs": -4.3, "simulationMode": [null, null, null, null, null], "rewards": [1, 1, 1, -9, 64], "path": ["0", "0", "23", "24", "25", "26", "27"], "rt": [9746, 271, 421, 191, 220], "actions": ["left", "left", "left", "up", "up"], "actionTimes": [14325, 15199, 16151, 16870, 17629], "queries": {"click": {"state": {"target": ["32", "27"], "time": [5828, 9305]}, "edge": {"target": [], "time": []}}, "mouseover": {"state": {"target": ["31", "32", "30", "25", "26", "27", "27", "11", "9"], "time": [5183, 5453, 6675, 6707, 6740, 6818, 7137, 10223, 10634]}, "edge": {"target": [], "time": []}}, "mouseout": {"state": {"target": ["0", "31", "32", "30", "25", "26", "27", "27", "11"], "time": [5154, 5217, 6646, 6702, 6735, 6790, 6933, 10193, 10249]}, "edge": {"target": [], "time": []}}}, "displayed_time": "18.58", "trialTime": 25584, "trial_type": "mouselab-mdp", "trial_index": 43, "time_elapsed": 1938962, "internal_node_id": "0.0-6.0-1.0-34.0"}}, {"uniqueid": "w67371891:a32786255", "current_trial": 44, "dateTime": 1693566791560, "trialdata": {"revealed_states": [], "clicked_states": ["21"], "num_clicks_accrued": [0, 0, 0, 0, 0, 0, 0, 0, 0, 0, 0, 0, 0], "stateRewards": ["", 1, -2, 7, -14, 88, -56, -44, -14, 64, -51, -57, -2, 3, -4, -9, -11, 19, -77, -1, 68, 75, -67, -1, 1, -2, 5, -37, 70, -34, -10, -72, 63, -41], "withholdReward": false, "trial_id": "mdp_trial_36", "block": "test", "trialIndex": 37, "score": 68.85, "costs": -2.15, "simulationMode": [null, null, null, null, null], "rewards": [-2, 3, -4, -1, 75], "path": ["0", "0", "12", "13", "14", "19", "21"], "rt": [5865, 243, 151, 60, 195], "actions": ["right", "right", "right", "down", "down"], "actionTimes": [13515, 14277, 14951, 15562, 16276], "queries": {"click": {"state": {"target": ["21"], "time": [9233]}, "edge": {"target": [], "time": []}}, "mouseover": {"state": {"target": ["22", "21", "19", "14", "16"], "time": [8598, 8812, 10003, 10044, 10773]}, "edge": {"target": [], "time": []}}, "mouseout": {"state": {"target": ["9", "10", "0", "22", "21", "19", "14"], "time": [5594, 5681, 8505, 8635, 9969, 10035, 10075]}, "edge": {"target": [], "time": []}}}, "displayed_time": "21.66", "trialTime": 24674, "trial_type": "mouselab-mdp", "trial_index": 44, "time_elapsed": 1964705, "internal_node_id": "0.0-6.0-1.0-35.0"}}, {"uniqueid": "w67371891:a32786255", "current_trial": 45, "dateTime": 1693566830891, "trialdata": {"revealed_states": [], "clicked_states": ["27", "9", "5", "32", "33"], "num_clicks_accrued": [0, 0, 0, 0, 0, 0, 0, 0, 0, 0, 0, 0, 0], "stateRewards": ["", 1, -1, 4, -2, -75, -75, 84, -9, -60, -79, 59, 2, -4, 8, 9, -17, -82, 80, 14, -4, 49, 49, -1, 3, 6, -11, -33, 34, 55, 9, -57, 5, 59], "withholdReward": false, "trial_id": "mdp_trial_37", "block": "test", "trialIndex": 38, "score": 65.25, "costs": -10.75, "simulationMode": [null, null, null, null, null], "rewards": [-1, 3, 6, 9, 59], "path": ["0", "0", "23", "24", "25", "30", "33"], "rt": [21865, 171, 147, 88, 450], "actions": ["left", "left", "left", "down", "left"], "actionTimes": [25759, 26455, 27129, 27719, 28702], "queries": {"click": {"state": {"target": ["27", "9", "5", "32", "33"], "time": [5479, 9190, 13093, 17531, 21282]}, "edge": {"target": [], "time": []}}, "mouseover": {"state": {"target": ["28", "27", "11", "9", "3", "5", "24", "32", "31", "30", "33", "30", "21", "21"], "time": [4793, 5071, 6306, 6644, 10034, 12629, 16622, 17068, 19832, 20096, 20295, 21903, 22013, 22317]}, "edge": {"target": [], "time": []}}, "mouseout": {"state": {"target": ["16", "1", "28", "27", "11", "9", "3", "5", "5", "24", "32", "31", "30", "33", "30", "21"], "time": [1835, 2196, 4904, 6062, 6407, 10003, 10112, 13276, 16545, 16687, 18553, 19885, 20124, 21897, 21934, 22066]}, "edge": {"target": [], "time": []}}}, "displayed_time": "29.24", "trialTime": 38151, "trial_type": "mouselab-mdp", "trial_index": 45, "time_elapsed": 2004036, "internal_node_id": "0.0-6.0-1.0-36.0"}}, {"uniqueid": "w67371891:a32786255", "current_trial": 46, "dateTime": 1693566868270, "trialdata": {"revealed_states": [], "clicked_states": ["17", "21", "27", "9", "5"], "num_clicks_accrued": [0, 0, 0, 0, 0, 0, 0, 0, 0, 0, 0, 0, 0], "stateRewards": ["", -1, 3, 1, -7, 56, 76, 57, 3, 11, -9, 14, 1, -2, 2, 8, -77, -3, 79, -5, 88, 24, -66, -2, -1, 7, -7, -30, 14, -76, 11, -36, 28, -6], "withholdReward": false, "trial_id": "mdp_trial_38", "block": "test", "trialIndex": 39, "score": 41.25, "costs": -10.75, "simulationMode": [null, null, null, null, null], "rewards": [-1, 3, 1, -7, 56], "path": ["0", "0", "1", "2", "3", "4", "5"], "rt": [20617, 825, 420, 346, 401], "actions": ["up", "up", "up", "right", "up"], "actionTimes": [25285, 26682, 27609, 28487, 29410], "queries": {"click": {"state": {"target": ["17", "21", "27", "9", "5"], "time": [6220, 9689, 13329, 17150, 21219]}, "edge": {"target": [], "time": []}}, "mouseover": {"state": {"target": ["17", "21", "10", "27", "11", "9", "5", "14"], "time": [5777, 7424, 10583, 11320, 16209, 16726, 20867, 22338]}, "edge": {"target": [], "time": []}}, "mouseout": {"state": {"target": ["21", "0", "17", "21", "10", "27", "11", "9", "5"], "time": [2679, 5445, 7000, 10409, 10889, 16144, 16426, 20586, 21991]}, "edge": {"target": [], "time": []}}}, "displayed_time": "29.94", "trialTime": 36248, "trial_type": "mouselab-mdp", "trial_index": 46, "time_elapsed": 2041416, "internal_node_id": "0.0-6.0-1.0-37.0"}}, {"uniqueid": "w67371891:a32786255", "current_trial": 47, "dateTime": 1693566907406, "trialdata": {"revealed_states": [], "clicked_states": ["25", "27", "6", "9", "21", "32"], "num_clicks_accrued": [0, 0, 0, 0, 0, 0, 0, 0, 0, 0, 0, 0, 0], "stateRewards": ["", 2, 4, 4, -8, -36, -33, 38, 16, -51, 57, 57, 1, 3, 4, -6, 45, 68, 87, 1, 63, 24, -55, -2, 2, -6, -13, -63, -50, 8, 2, 80, 6, 60], "withholdReward": false, "trial_id": "mdp_trial_39", "block": "test", "trialIndex": 40, "score": -42.7, "costs": -11.700000000000001, "simulationMode": [null, null, null, null, null], "rewards": [2, 4, 4, -8, -33], "path": ["0", "0", "1", "2", "3", "4", "6"], "rt": [24248, 577, 144, 148, 324], "actions": ["up", "up", "up", "right", "right"], "actionTimes": [27744, 28857, 29552, 30227, 31076], "queries": {"click": {"state": {"target": ["25", "27", "6", "9", "21", "32"], "time": [5059, 7470, 10888, 14245, 17864, 21168]}, "edge": {"target": [], "time": []}}, "mouseover": {"state": {"target": ["24", "25", "26", "27", "5", "6", "9", "7", "13", "21", "31", "32", "16", "6"], "time": [4441, 4557, 5892, 6153, 8432, 8741, 12079, 14836, 14945, 15284, 18928, 19152, 22028, 22295]}, "edge": {"target": [], "time": []}}, "mouseout": {"state": {"target": ["14", "13", "12", "0", "24", "25", "26", "27", "5", "6", "9", "7", "13", "21", "31", "32", "16"], "time": [1591, 1662, 1689, 4389, 4504, 5861, 5922, 7654, 8480, 11088, 14783, 14869, 14998, 18047, 19004, 21764, 22196]}, "edge": {"target": [], "time": []}}}, "displayed_time": "31.61", "trialTime": 37941, "trial_type": "mouselab-mdp", "trial_index": 47, "time_elapsed": 2080552, "internal_node_id": "0.0-6.0-1.0-38.0"}}, {"uniqueid": "w67371891:a32786255", "current_trial": 48, "dateTime": 1693566944173, "trialdata": {"revealed_states": [], "clicked_states": ["17", "21", "32", "27"], "num_clicks_accrued": [0, 0, 0, 0, 0, 0, 0, 0, 0, 0, 0, 0, 0], "stateRewards": ["", 2, -4, 1, -12, -59, -53, -74, 16, -88, -66, 66, 1, -2, 8, -9, -14, 22, 25, -1, -39, 47, -14, -1, -1, -2, 1, -4, 52, -26, 15, -7, 46, 43], "withholdReward": false, "trial_id": "mdp_trial_40", "block": "test", "trialIndex": 41, "score": 44.4, "costs": -8.6, "simulationMode": [null, null, null, null, null], "rewards": [1, -2, 8, -1, 47], "path": ["0", "0", "12", "13", "14", "19", "21"], "rt": [17205, 30, 155, 160, 284], "actions": ["right", "right", "right", "down", "down"], "actionTimes": [19997, 20666, 21360, 22046, 22858], "queries": {"click": {"state": {"target": ["17", "21", "32", "27"], "time": [4694, 8206, 12207, 16166]}, "edge": {"target": [], "time": []}}, "mouseover": {"state": {"target": ["23", "24", "26", "16", "17", "4", "7", "18", "21", "21", "31", "30", "32", "30", "26", "27", "24"], "time": [3558, 3609, 3786, 4067, 4274, 5555, 5821, 5854, 5938, 6321, 10805, 11018, 11799, 12824, 12890, 13138, 16926]}, "edge": {"target": [], "time": []}}, "mouseout": {"state": {"target": ["6", "7", "1", "23", "24", "26", "16", "17", "4", "7", "18", "21", "21", "31", "30", "32", "30", "26", "27", "24"], "time": [838, 976, 1126, 3604, 3632, 3825, 4116, 4875, 5613, 5849, 5882, 5970, 10086, 10838, 11197, 12390, 12858, 12941, 16848, 16956]}, "edge": {"target": [], "time": []}}}, "displayed_time": "23.39", "trialTime": 35448, "trial_type": "mouselab-mdp", "trial_index": 48, "time_elapsed": 2117318, "internal_node_id": "0.0-6.0-1.0-39.0"}}, {"uniqueid": "w67371891:a32786255", "current_trial": 49, "dateTime": 1693567018771, "trialdata": {"rt": 74501, "response": {"Q0": "$-2 to $2", "Q1": "$-16 to $16", "Q2": "$-32 to $32", "Q3": "The cost for clicking on nodes varied between nodes.", "Q4": "Very motivated"}, "question_order": [0, 1, 2, 3, 4], "trial_id": "final_quiz_control", "trial_type": "survey-multi-choice", "trial_index": 49, "time_elapsed": 2191917, "internal_node_id": "0.0-6.0-2.0"}}, {"uniqueid": "w67371891:a32786255", "current_trial": 50, "dateTime": 1693567267804, "trialdata": {"rt": 247945, "response": {"Q0": "after multiple rounds i realised it would be better to use a node checker to check the nodes at the end of the web. I was looking for a node with the highest number so that the use of the node checker would not affect my total score.", "Q1": "yes, by looking choosing the node with the highest number at the end of the web", "Q2": "The difficulty was only in the beginning of the game with trying to find a strategy. Also sometimes the node checker would reveal negative points and that made it difficult in choosing the suitable direction for the spider. \n\n "}, "trial_id": "self_report_control", "trial_type": "survey-text", "trial_index": 50, "time_elapsed": 2440950, "internal_node_id": "0.0-6.0-3.0"}}, {"uniqueid": "w67371891:a32786255", "current_trial": 51, "dateTime": 1693567344021, "trialdata": {"rt": 76195, "response": {"Q0": "Disagree", "Q1": "Disagree", "Q2": "Agree", "Q3": "Agree", "Q4": "Disagree", "Q5": "Strongly agree", "Q6": "Strongly disagree"}, "question_order": [0, 1, 2, 3, 4, 5, 6], "trial_id": "self_report_2", "trial_type": "survey-multi-choice", "trial_index": 51, "time_elapsed": 2517168, "internal_node_id": "0.0-6.0-4.0"}}, {"uniqueid": "w67371891:a32786255", "current_trial": 52, "dateTime": 1693567363475, "trialdata": {"rt": 19362, "response": {"gender": "female", "age": "22", "colorblind": "0", "effort": "0"}, "trial_type": "survey-html-form", "trial_index": 52, "time_elapsed": 2536622, "internal_node_id": "0.0-6.0-5.0"}}, {"uniqueid": "w67371891:a32786255", "current_trial": 53, "dateTime": 1693567443827, "trialdata": {"rt": 80319, "response": {"Q0": "Initially i was confused as to what the numbers of the nodes meant", "Q1": "Mo", "Q2": "enjoyed the game"}, "trial_type": "survey-text", "trial_index": 53, "time_elapsed": 2616974, "internal_node_id": "0.0-6.0-6.0"}}, {"uniqueid": "w67371891:a32786255", "current_trial": 54, "dateTime": 1693567478837, "trialdata": {"rt": 34938, "stimulus": "<h1>Completion Code Instructions (1/2)</h1>\n<br><br><br><br>\nYou have reached the end of the experiment! The completion code consists of two parts: (1) a code with 2 characters (2) a code with 6 characters. On this page, you will receive the second part of the code. The first part of the completion code will be on the next page.\n<br><br>\nThe second part of your completion code is: <b>EWEK22</b>\n<br><br>\nPlease note this down. Then, press 'Finish HIT' in order to find the first part of your completion code. Once the data has been saved, you will receive this code either in this window or in the original browser window where you started the experiment.\n", "response": 0, "trial_type": "html-button-response", "trial_index": 54, "time_elapsed": 2651984, "internal_node_id": "0.0-6.0-7.0"}}, {"uniqueid": "w67371891:a32786255", "current_trial": 55, "dateTime": 1693567479858, "trialdata": {"success": true, "trial_type": "fullscreen", "trial_index": 55, "time_elapsed": 2653005, "internal_node_id": "0.0-7.0"}}], "questiondata": {"params": {"CODE": "C6DMOQA6", "MIN_TIME": 14, "inspectCost": 1, "startTime": "Fri Sep 01 2023 12:40:24 GMT+0200 (South Africa Standard Time)", "bonusRate": 0.002, "variance": "1_2_4_8_44", "branching": "31123"}, "final_score": 330}, "eventdata": [{"eventtype": "initialized", "value": null, "timestamp": 1693564823307, "interval": 0}, {"eventtype": "window_resize", "value": [1024, 650], "timestamp": 1693564823307, "interval": 0}, {"eventtype": "window_resize", "value": [1024, 650], "timestamp": 1693564824356, "interval": 1049}, {"eventtype": "window_resize", "value": [1366, 768], "timestamp": 1693564836465, "interval": 12109}, {"eventtype": "focus", "value": "off", "timestamp": 1693566388255, "interval": 1551790}, {"eventtype": "focus", "value": "on", "timestamp": 1693566442711, "interval": 54456}, {"eventtype": "focus", "value": "off", "timestamp": 1693567260214, "interval": 817503}, {"eventtype": "window_resize", "value": [1366, 767], "timestamp": 1693567260486, "interval": 272}, {"eventtype": "focus", "value": "on", "timestamp": 1693567263452, "interval": 2966}, {"eventtype": "window_resize", "value": [1366, 768], "timestamp": 1693567263890, "interval": 438}], "useragent": "Mozilla/5.0 (Windows NT 10.0; Win64; x64) AppleWebKit/537.36 (KHTML, like Gecko) Chrome/116.0.0.0 Safari/537.36 Edg/116.0.1938.62", "mode": "live", "id": "w67371891:a32786255", "status": "user data saved", "Beginhit": "2023-09-01 10:40:20.303079", "Beginexp": "2023-09-01 10:40:38.071276", "Endhit": "2023-09-01 11:24:42.446163", "psiturkStatus": 3, "browser": "<redacted>", "platform": "windows", "language": "en-GB"}