{"condition": 1, "counterbalance": 0, "assignmentId": "a61758930", "workerId": "w19354974", "hitId": "h97736630", "currenttrial": 56, "bonus": 0, "data": [{"uniqueid": "w19354974:a61758930", "current_trial": 0, "dateTime": 1693660327184, "trialdata": {"success": true, "trial_type": "fullscreen", "trial_index": 0, "time_elapsed": 33459, "internal_node_id": "0.0-0.0"}}, {"uniqueid": "w19354974:a61758930", "current_trial": 1, "dateTime": 1693660356100, "trialdata": {"view_history": [{"page_index": 0, "viewing_time": 28906}], "rt": 28907, "trial_id": "exp_instructions_misaligned", "trial_type": "instructions", "trial_index": 1, "time_elapsed": 62374, "internal_node_id": "0.0-1.0"}}, {"uniqueid": "w19354974:a61758930", "current_trial": 2, "dateTime": 1693660652433, "trialdata": {"view_history": [{"page_index": 0, "viewing_time": 54182}, {"page_index": 1, "viewing_time": 123738}, {"page_index": 2, "viewing_time": 76968}, {"page_index": 3, "viewing_time": 41442}], "rt": 296331, "trial_id": "mouselab_instructions_1_misaligned", "trial_type": "instructions", "trial_index": 2, "time_elapsed": 358708, "internal_node_id": "0.0-2.0-1.0"}}, {"uniqueid": "w19354974:a61758930", "current_trial": 3, "dateTime": 1693660676116, "trialdata": {"revealed_states": [], "clicked_states": ["23", "24", "25", "12", "13", "14", "15", "19"], "num_clicks_accrued": [0, 0, 0, 0, 0, 0, 0, 0, 0, 0, 0, 0, 0], "stateRewards": ["", -10, -10, 10, -10, 10, -10, -10, 10, 10, -10, 10, 10, 10, 10, -10, 10, 10, 10, 10, -10, 10, 10, 10, -10, -10, 10, 10, -10, 10, -10, 10, -10, 10], "withholdReward": false, "trial_id": "practice_1", "block": "test", "trialIndex": 0, "score": 29.5, "costs": -4, "simulationMode": [null, null, null, null, null], "rewards": [10, 10, 10, 10, -10], "path": ["0", "0", "12", "13", "14", "19", "20"], "rt": [13914, 270, 262, 233, 240], "actions": ["right", "right", "right", "down", "right"], "actionTimes": [16199, 16987, 17761, 18514, 19271], "queries": {"click": {"state": {"target": ["23", "24", "25", "12", "13", "14", "15", "19"], "time": [2971, 4670, 6035, 7857, 9198, 10605, 12015, 13494]}, "edge": {"target": [], "time": []}}, "mouseover": {"state": {"target": ["0", "23", "24", "24", "25", "12", "13", "14", "15", "19", "13", "12"], "time": [2679, 2799, 3463, 4396, 5246, 7667, 8612, 10066, 11413, 13264, 14912, 14964]}, "edge": {"target": [], "time": []}}, "mouseout": {"state": {"target": ["0", "23", "24", "24", "25", "12", "13", "14", "15", "14", "19", "13", "12", "0", "23", "22"], "time": [2746, 3279, 4200, 5163, 6614, 8483, 9913, 11330, 12535, 12730, 13931, 14930, 15048, 20663, 20745, 21145]}, "edge": {"target": [], "time": []}}}, "displayed_time": "19.77", "trialTime": 23041, "trial_type": "mouselab-mdp", "trial_index": 3, "time_elapsed": 382390, "internal_node_id": "0.0-2.0-2.0-0.0"}}, {"uniqueid": "w19354974:a61758930", "current_trial": 4, "dateTime": 1693660705720, "trialdata": {"revealed_states": [], "clicked_states": ["12", "13", "14", "23", "24", "25", "30", "26"], "num_clicks_accrued": [0, 0, 0, 0, 0, 0, 0, 0, 0, 0, 0, 0, 0], "stateRewards": ["", -10, -10, 10, -10, 10, 10, -10, -10, 10, 10, 10, -10, -10, -10, 10, 10, -10, -10, 10, -10, 10, -10, 10, -10, 10, 10, -10, -10, 10, -10, 10, 10, 10], "withholdReward": false, "trial_id": "practice_2", "block": "test", "trialIndex": 1, "score": 29.5, "costs": -4, "simulationMode": [null, null, null, null, null], "rewards": [10, -10, 10, 10, 10], "path": ["0", "0", "23", "24", "25", "26", "29"], "rt": [15574, 131, 102, 3752, 792], "actions": ["left", "left", "left", "up", "left"], "actionTimes": [17721, 18355, 18975, 23244, 24534], "queries": {"click": {"state": {"target": ["12", "13", "14", "23", "24", "25", "30", "26"], "time": [2822, 5016, 6195, 7411, 8878, 10428, 11882, 13446]}, "edge": {"target": [], "time": []}}, "mouseover": {"state": {"target": ["12", "13", "14", "23", "23", "24", "25", "30", "26", "24", "25", "0"], "time": [2670, 3571, 5939, 6861, 7208, 8322, 9689, 11190, 12572, 14009, 14740, 17229]}, "edge": {"target": [], "time": []}}, "mouseout": {"state": {"target": ["16", "1", "12", "13", "14", "13", "23", "23", "24", "25", "30", "25", "26", "24", "25", "0", "0", "23", "24", "25", "26", "28", "1", "18", "15", "17"], "time": [254, 1237, 3322, 5589, 6789, 6807, 6892, 7959, 9507, 11123, 12339, 12441, 13974, 14722, 14757, 17271, 20888, 20937, 21188, 21664, 25570, 26454, 27473, 27555, 28388, 28406]}, "edge": {"target": [], "time": []}}}, "displayed_time": "25.04", "trialTime": 29172, "trial_type": "mouselab-mdp", "trial_index": 4, "time_elapsed": 411995, "internal_node_id": "0.0-2.0-2.0-1.0"}}, {"uniqueid": "w19354974:a61758930", "current_trial": 5, "dateTime": 1693660812993, "trialdata": {"view_history": [{"page_index": 0, "viewing_time": 97369}, {"page_index": 1, "viewing_time": 9899}], "rt": 107269, "trial_id": "mouselab_instructions_2_misaligned", "trial_type": "instructions", "trial_index": 5, "time_elapsed": 519267, "internal_node_id": "0.0-2.0-3.0"}}, {"uniqueid": "w19354974:a61758930", "current_trial": 6, "dateTime": 1693660913834, "trialdata": {"rt": 100835, "response": {"Q0": "The cost for clicking on nodes may vary between nodes.", "Q1": "The better I perform the higher my bonus will be.", "Q2": "No, the amount of cash at each node of the web may be different each time.", "Q3": "To get the highest total score.", "Q4": "Only before moving the spider.", "Q5": "3 seconds"}, "question_order": [0, 1, 2, 3, 4, 5], "correct": {"Q0": "The cost for clicking on nodes may vary between nodes.", "Q1": "The better I perform the higher my bonus will be.", "Q2": "No, the amount of cash at each node of the web may be different each time.", "Q3": "To get the highest total score.", "Q4": "Only before moving the spider.", "Q5": "3 seconds"}, "trial_id": "mouselab_quiz_misaligned", "trial_type": "survey-multi-choice", "trial_index": 6, "time_elapsed": 620109, "internal_node_id": "0.0-2.0-4.0"}}, {"uniqueid": "w19354974:a61758930", "current_trial": 7, "dateTime": 1693660919504, "trialdata": {"rt": 5661, "response": {"Q0": "No"}, "question_order": [0], "trial_id": "repeat_check", "trial_type": "survey-multi-choice", "trial_index": 7, "time_elapsed": 625779, "internal_node_id": "0.0-4.0-0.0"}}, {"uniqueid": "w19354974:a61758930", "current_trial": 8, "dateTime": 1693660930092, "trialdata": {"rt": 10581, "stimulus": "\n<h1> Get ready to start the game! </h1>\n\nThank you for reading the instructions. Get ready start with the 40 rounds of this game.\n<br><br>\nIf you need to take a break, feel free to take one after the end of a round, before continuing to the next one.\n<br><br>\nRemember, the more money the spider gets, the bigger your bonus will be!\n<br><br>\n<div style='text-align: center;'>Press <code>space</code> to begin.</div>\n\n<br><br>\n(If, at any point, the <code>space</code> key does not take you to the next page, click once on the text and try again.)", "response": " ", "trial_id": "mdp_ready", "trial_type": "html-keyboard-response", "trial_index": 8, "time_elapsed": 636366, "internal_node_id": "0.0-6.0-0.0"}}, {"uniqueid": "w19354974:a61758930", "current_trial": 9, "dateTime": 1693660955252, "trialdata": {"revealed_states": [], "clicked_states": ["12", "13", "14", "23", "24", "25", "1", "2", "3", "30"], "num_clicks_accrued": [0, 0, 0, 0, 0, 0, 0, 0, 0, 0, 0, 0, 0], "stateRewards": ["", -1, -3, -3, 1, -38, 2, -53, -2, -1, -81, 70, -1, 1, -5, -9, 46, 15, 35, -1, -22, 38, 59, -2, 4, -8, 13, 1, -83, -43, 4, 76, 13, 48], "withholdReward": false, "trial_id": "mdp_trial_1", "block": "test", "trialIndex": 2, "score": 6.300000000000001, "costs": -4.699999999999999, "simulationMode": [null, null, null, null, null], "rewards": [-2, 4, -8, 4, 13], "path": ["0", "0", "23", "24", "25", "30", "32"], "rt": [14623, 277, 418, 418, 499], "actions": ["left", "left", "left", "down", "down"], "actionTimes": [16281, 17076, 18016, 18933, 19932], "queries": {"click": {"state": {"target": ["12", "13", "14", "23", "24", "25", "1", "2", "3", "30"], "time": [2418, 3314, 4335, 5822, 6641, 7607, 9302, 9992, 10780, 13200]}, "edge": {"target": [], "time": []}}, "mouseover": {"state": {"target": ["12", "13", "14", "25", "25", "24", "23", "24", "25", "1", "2", "3", "10", "24", "30", "31", "0"], "time": [2229, 2997, 4130, 5035, 5314, 5365, 5713, 6365, 7399, 9096, 9698, 10380, 11863, 12730, 13046, 13864, 14630]}, "edge": {"target": [], "time": []}}, "mouseout": {"state": {"target": ["1", "0", "12", "13", "14", "25", "25", "24", "23", "24", "25", "24", "1", "2", "3", "10", "24", "30", "31", "0", "15"], "time": [911, 2179, 2880, 3983, 4948, 5054, 5351, 5463, 6296, 7315, 8547, 8615, 9647, 10106, 11647, 11928, 12764, 13848, 13882, 21113, 21629]}, "edge": {"target": [], "time": []}}}, "displayed_time": "20.45", "trialTime": 24711, "trial_type": "mouselab-mdp", "trial_index": 9, "time_elapsed": 661526, "internal_node_id": "0.0-6.0-1.0-0.0"}}, {"uniqueid": "w19354974:a61758930", "current_trial": 10, "dateTime": 1693660978631, "trialdata": {"revealed_states": [], "clicked_states": ["23", "24", "25", "30", "26", "12", "13", "14", "19"], "num_clicks_accrued": [0, 0, 0, 0, 0, 0, 0, 0, 0, 0, 0, 0, 0], "stateRewards": ["", 2, -1, -1, -9, -81, -30, 55, -6, 78, 25, 62, 2, 4, -1, 9, -85, 1, -19, 1, -60, 12, -34, 1, 4, -1, -13, -24, -16, -83, -8, 16, 43, 9], "withholdReward": false, "trial_id": "mdp_trial_2", "block": "test", "trialIndex": 3, "score": 11.25, "costs": -6.749999999999999, "simulationMode": [null, null, null, null, null], "rewards": [2, 4, -1, 1, 12], "path": ["0", "0", "12", "13", "14", "19", "21"], "rt": [10782, 77, 123, 165, 175], "actions": ["right", "right", "right", "down", "down"], "actionTimes": [12796, 13379, 14029, 14704, 15378], "queries": {"click": {"state": {"target": ["23", "24", "25", "30", "26", "12", "13", "14", "19"], "time": [3313, 4284, 5246, 6287, 7168, 8721, 9399, 10033, 10870]}, "edge": {"target": [], "time": []}}, "mouseover": {"state": {"target": ["23", "24", "25", "30", "26", "12", "13", "14", "19"], "time": [3166, 4071, 5102, 6133, 6951, 8533, 9184, 9785, 10633]}, "edge": {"target": [], "time": []}}, "mouseout": {"state": {"target": ["0", "0", "0", "23", "24", "25", "30", "25", "26", "26", "25", "12", "13", "14", "19", "20", "16"], "time": [265, 1198, 2865, 3395, 4885, 6008, 6816, 6884, 7282, 7751, 8068, 9134, 9754, 10567, 14466, 16132, 19034]}, "edge": {"target": [], "time": []}}}, "displayed_time": "16.01", "trialTime": 22943, "trial_type": "mouselab-mdp", "trial_index": 10, "time_elapsed": 684905, "internal_node_id": "0.0-6.0-1.0-1.0"}}, {"uniqueid": "w19354974:a61758930", "current_trial": 11, "dateTime": 1693661002662, "trialdata": {"revealed_states": [], "clicked_states": ["23", "24", "25", "12", "13", "14", "1", "2", "3", "8", "9"], "num_clicks_accrued": [0, 0, 0, 0, 0, 0, 0, 0, 0, 0, 0, 0, 0], "stateRewards": ["", -1, 2, -2, 5, 80, -61, -27, 12, 44, -26, -75, -2, -4, 1, -16, 42, -49, -50, 4, -44, 2, 80, -2, -2, 5, -2, 59, 10, 24, 7, -48, -86, -44], "withholdReward": false, "trial_id": "mdp_trial_3", "block": "test", "trialIndex": 4, "score": 48.15, "costs": -6.85, "simulationMode": [null, null, null, null, null], "rewards": [-1, 2, -2, 12, 44], "path": ["0", "0", "1", "2", "3", "8", "9"], "rt": [14777, 36, 82, 28, 103], "actions": ["up", "up", "up", "left", "up"], "actionTimes": [16346, 16902, 17493, 18039, 18681], "queries": {"click": {"state": {"target": ["23", "24", "25", "12", "13", "14", "1", "2", "3", "8", "9"], "time": [2501, 3211, 3890, 4987, 5623, 6228, 7807, 8521, 9431, 10613, 12948]}, "edge": {"target": [], "time": []}}, "mouseover": {"state": {"target": ["0", "23", "24", "25", "0", "12", "13", "14", "0", "23", "1", "2", "3", "8", "1", "9", "11", "2", "1", "0"], "time": [2224, 2391, 3009, 3725, 4526, 4576, 5475, 6003, 7077, 7123, 7659, 8359, 9361, 10403, 11397, 12574, 13442, 15030, 15213, 16174]}, "edge": {"target": [], "time": []}}, "mouseout": {"state": {"target": ["12", "0", "23", "24", "25", "24", "23", "0", "12", "13", "14", "13", "0", "23", "1", "2", "3", "8", "3", "2", "1", "9", "11", "2", "1", "0", "12", "18"], "time": [224, 2258, 2943, 3661, 4310, 4425, 4509, 4546, 5409, 5960, 7009, 7044, 7096, 7424, 8259, 9093, 10295, 10914, 10976, 11296, 11636, 13264, 14618, 15113, 15408, 16878, 19608, 19674]}, "edge": {"target": [], "time": []}}}, "displayed_time": "19.20", "trialTime": 23550, "trial_type": "mouselab-mdp", "trial_index": 11, "time_elapsed": 708936, "internal_node_id": "0.0-6.0-1.0-2.0"}}, {"uniqueid": "w19354974:a61758930", "current_trial": 12, "dateTime": 1693661032405, "trialdata": {"revealed_states": [], "clicked_states": ["12", "13", "14", "15", "19", "16", "20", "23", "24", "25", "1", "2", "3", "4", "8", "9"], "num_clicks_accrued": [0, 0, 0, 0, 0, 0, 0, 0, 0, 0, 0, 0, 0], "stateRewards": ["", -2, -1, -3, -1, -78, -6, 2, -1, 22, -88, 32, 2, 2, -7, -8, -51, -17, 54, 2, -44, 54, 75, 2, -2, -8, -15, -29, 12, -67, 15, -1, -47, -47], "withholdReward": false, "trial_id": "mdp_trial_4", "block": "test", "trialIndex": 5, "score": -0.7999999999999972, "costs": -15.799999999999999, "simulationMode": [null, null, null, null, null], "rewards": [-2, -1, -3, -1, 22], "path": ["0", "0", "1", "2", "3", "8", "9"], "rt": [22613, 36, 92, 34, 44], "actions": ["up", "up", "up", "left", "up"], "actionTimes": [24216, 24769, 25356, 25914, 26476], "queries": {"click": {"state": {"target": ["12", "13", "14", "15", "19", "16", "20", "23", "24", "25", "1", "2", "3", "4", "8", "9"], "time": [2058, 2746, 3411, 4373, 5039, 6096, 9326, 13167, 13997, 14713, 16347, 17012, 17642, 18430, 19188, 20094]}, "edge": {"target": [], "time": []}}, "mouseover": {"state": {"target": ["12", "13", "14", "15", "19", "16", "14", "20", "19", "20", "22", "0", "23", "24", "25", "26", "28", "10", "1", "2", "3", "4", "8", "9", "5", "2"], "time": [1946, 2628, 3266, 4111, 4812, 5911, 6779, 6961, 8337, 9029, 10050, 10411, 10486, 13897, 14503, 15388, 15760, 15818, 16187, 16866, 17461, 18262, 18963, 19914, 20638, 24159]}, "edge": {"target": [], "time": []}}, "mouseout": {"state": {"target": ["14", "13", "12", "0", "12", "13", "14", "15", "14", "19", "15", "16", "15", "14", "20", "19", "20", "22", "0", "23", "24", "25", "26", "28", "10", "1", "2", "3", "4", "3", "8", "9", "5", "2", "7", "17", "20", "20"], "time": [743, 760, 991, 1761, 2477, 3178, 4061, 4712, 4777, 5671, 5762, 6447, 6494, 6846, 8310, 8904, 9896, 10399, 10454, 13806, 14451, 15315, 15735, 15780, 16081, 16668, 17404, 18217, 18888, 18911, 19864, 20537, 24076, 27280, 27310, 28326, 28376, 28644]}, "edge": {"target": [], "time": []}}}, "displayed_time": "26.99", "trialTime": 29311, "trial_type": "mouselab-mdp", "trial_index": 12, "time_elapsed": 738679, "internal_node_id": "0.0-6.0-1.0-3.0"}}, {"uniqueid": "w19354974:a61758930", "current_trial": 13, "dateTime": 1693661051291, "trialdata": {"revealed_states": [], "clicked_states": ["23", "24", "25", "26", "27"], "num_clicks_accrued": [0, 0, 0, 0, 0, 0, 0, 0, 0, 0, 0, 0, 0], "stateRewards": ["", -1, -2, 8, -6, -79, -6, 87, 9, -5, -66, -38, 2, 2, 5, -6, -82, 74, 85, -8, 67, -30, -15, 1, -2, -2, -2, 87, 64, 49, 7, 2, -38, -9], "withholdReward": false, "trial_id": "mdp_trial_5", "block": "test", "trialIndex": 6, "score": 77.25, "costs": -4.75, "simulationMode": [null, null, null, null, null], "rewards": [1, -2, -2, -2, 87], "path": ["0", "0", "23", "24", "25", "26", "27"], "rt": [9297, 101, 57, 83, 32], "actions": ["left", "left", "left", "up", "up"], "actionTimes": [11771, 12392, 12966, 13555, 14105], "queries": {"click": {"state": {"target": ["23", "24", "25", "26", "27"], "time": [3853, 4876, 5669, 6586, 7569]}, "edge": {"target": [], "time": []}}, "mouseover": {"state": {"target": ["23", "24", "25", "26", "27", "1", "14", "14", "13"], "time": [3636, 4637, 5452, 6353, 7471, 8540, 10405, 11186, 11421]}, "edge": {"target": [], "time": []}}, "mouseout": {"state": {"target": ["17", "15", "18", "12", "0", "23", "24", "25", "26", "27", "1", "14", "14", "13", "12", "18", "13", "17"], "time": [635, 1035, 1052, 1384, 3369, 4537, 5403, 6290, 7337, 8471, 8574, 10454, 11418, 11453, 14936, 15052, 17087, 17936]}, "edge": {"target": [], "time": []}}}, "displayed_time": "16.48", "trialTime": 18473, "trial_type": "mouselab-mdp", "trial_index": 13, "time_elapsed": 757565, "internal_node_id": "0.0-6.0-1.0-4.0"}}, {"uniqueid": "w19354974:a61758930", "current_trial": 14, "dateTime": 1693661069035, "trialdata": {"revealed_states": [], "clicked_states": ["27", "32"], "num_clicks_accrued": [0, 0, 0, 0, 0, 0, 0, 0, 0, 0, 0, 0, 0], "stateRewards": ["", 2, 4, -5, 7, 81, 35, 6, 11, 14, -72, 42, -1, 2, 3, -7, -77, -44, -40, -15, -85, 51, -32, -2, -1, -5, 7, -74, 47, 52, 16, -49, 48, -46], "withholdReward": false, "trial_id": "mdp_trial_6", "block": "test", "trialIndex": 7, "score": 51.7, "costs": -4.3, "simulationMode": [null, null, null, null, null], "rewards": [-2, -1, -5, 16, 48], "path": ["0", "0", "23", "24", "25", "30", "32"], "rt": [8416, 24, 87, 51, 63], "actions": ["left", "left", "left", "down", "down"], "actionTimes": [9947, 10467, 11061, 11625, 12219], "queries": {"click": {"state": {"target": ["27", "32"], "time": [2398, 5951]}, "edge": {"target": [], "time": []}}, "mouseover": {"state": {"target": ["28", "27", "18", "31", "30", "32", "30", "25"], "time": [1987, 2304, 3155, 3723, 3758, 4356, 7056, 7691]}, "edge": {"target": [], "time": []}}, "mouseout": {"state": {"target": ["16", "28", "27", "18", "31", "30", "32", "30", "25", "0", "12", "18", "15"], "time": [502, 2004, 3088, 3671, 3740, 3775, 6538, 7089, 9205, 13437, 13471, 13520, 14221]}, "edge": {"target": [], "time": []}}}, "displayed_time": "15.53", "trialTime": 17352, "trial_type": "mouselab-mdp", "trial_index": 14, "time_elapsed": 775309, "internal_node_id": "0.0-6.0-1.0-5.0"}}, {"uniqueid": "w19354974:a61758930", "current_trial": 15, "dateTime": 1693661097092, "trialdata": {"revealed_states": [], "clicked_states": ["21", "16", "17", "20", "27"], "num_clicks_accrued": [0, 0, 0, 0, 0, 0, 0, 0, 0, 0, 0, 0, 0], "stateRewards": ["", 1, 1, -3, 2, 22, -25, -11, -5, 50, 49, 3, 1, -1, 8, 14, -85, -30, 57, -6, -39, -16, 59, -2, -1, 5, 5, 59, -16, 8, 4, 67, 56, -9], "withholdReward": false, "trial_id": "mdp_trial_7", "block": "test", "trialIndex": 8, "score": 55.25, "costs": -10.75, "simulationMode": [null, null, null, null, null], "rewards": [-2, -1, 5, 5, 59], "path": ["0", "0", "23", "24", "25", "26", "27"], "rt": [18446, 425, 187, 125, 64], "actions": ["left", "left", "left", "up", "up"], "actionTimes": [21873, 22818, 23529, 24172, 24740], "queries": {"click": {"state": {"target": ["21", "16", "17", "20", "27"], "time": [4295, 7704, 11092, 14393, 18257]}, "edge": {"target": [], "time": []}}, "mouseover": {"state": {"target": ["22", "21", "16", "16", "17", "20", "13", "12", "28", "26", "27", "29", "26"], "time": [3872, 4088, 5812, 6340, 8407, 11806, 14925, 14944, 15323, 15407, 15840, 19190, 21690]}, "edge": {"target": [], "time": []}}, "mouseout": {"state": {"target": ["17", "15", "18", "12", "0", "22", "21", "16", "16", "16", "17", "20", "13", "12", "28", "26", "27", "27", "29", "26", "1", "18", "15", "17"], "time": [521, 571, 638, 2755, 3806, 3922, 4957, 5831, 7800, 8260, 11607, 14907, 14941, 14958, 15341, 15625, 18347, 18890, 21666, 21706, 25389, 25440, 25489, 27189]}, "edge": {"target": [], "time": []}}}, "displayed_time": "25.24", "trialTime": 27628, "trial_type": "mouselab-mdp", "trial_index": 15, "time_elapsed": 803366, "internal_node_id": "0.0-6.0-1.0-6.0"}}, {"uniqueid": "w19354974:a61758930", "current_trial": 16, "dateTime": 1693661114110, "trialdata": {"revealed_states": [], "clicked_states": ["27"], "num_clicks_accrued": [0, 0, 0, 0, 0, 0, 0, 0, 0, 0, 0, 0, 0], "stateRewards": ["", -1, 3, 2, 9, 41, 4, -46, -12, -54, -87, -25, 2, 3, -1, 11, -77, 12, -33, -9, -32, 35, 72, 1, 3, -7, 4, 37, 65, -73, 6, 77, -43, 8], "withholdReward": false, "trial_id": "mdp_trial_8", "block": "test", "trialIndex": 9, "score": 35.85, "costs": -2.15, "simulationMode": [null, null, null, null, null], "rewards": [1, 3, -7, 4, 37], "path": ["0", "0", "23", "24", "25", "26", "27"], "rt": [4674, 58, 60, 49, 92], "actions": ["left", "left", "left", "up", "up"], "actionTimes": [6432, 6990, 7555, 8112, 8705], "queries": {"click": {"state": {"target": ["27"], "time": [2801]}, "edge": {"target": [], "time": []}}, "mouseover": {"state": {"target": ["28", "27", "29"], "time": [2225, 2624, 3844]}, "edge": {"target": [], "time": []}}, "mouseout": {"state": {"target": ["17", "15", "0", "28", "27", "29", "27", "10", "2"], "time": [725, 740, 2158, 2341, 3474, 6495, 9892, 9944, 10434]}, "edge": {"target": [], "time": []}}}, "displayed_time": "15.76", "trialTime": 16616, "trial_type": "mouselab-mdp", "trial_index": 16, "time_elapsed": 820385, "internal_node_id": "0.0-6.0-1.0-7.0"}}, {"uniqueid": "w19354974:a61758930", "current_trial": 17, "dateTime": 1693661140146, "trialdata": {"revealed_states": [], "clicked_states": ["27", "21", "16", "32", "33"], "num_clicks_accrued": [0, 0, 0, 0, 0, 0, 0, 0, 0, 0, 0, 0, 0], "stateRewards": ["", -2, -4, 2, 10, -17, 18, 73, 11, -32, 23, -13, -2, -4, 7, 12, -25, 66, -23, 15, 40, -76, -9, 1, 2, -7, -5, -20, 24, 3, -5, 16, -73, 70], "withholdReward": false, "trial_id": "mdp_trial_9", "block": "test", "trialIndex": 10, "score": 50.25, "costs": -10.75, "simulationMode": [null, null, null, null, null], "rewards": [1, 2, -7, -5, 70], "path": ["0", "0", "23", "24", "25", "30", "33"], "rt": [18760, 53, 107, 58, 145], "actions": ["left", "left", "left", "down", "left"], "actionTimes": [20465, 21015, 21635, 22237, 22904], "queries": {"click": {"state": {"target": ["27", "21", "16", "32", "33"], "time": [2483, 6492, 10271, 13538, 16932]}, "edge": {"target": [], "time": []}}, "mouseover": {"state": {"target": ["28", "27", "1", "18", "15", "0", "30", "32", "21", "19", "14", "15", "16", "32", "33", "26", "9", "29"], "time": [2005, 2388, 3124, 3592, 3616, 4176, 4211, 4959, 6089, 9806, 9841, 9874, 10106, 11209, 14125, 17326, 17391, 18554]}, "edge": {"target": [], "time": []}}, "mouseout": {"state": {"target": ["2", "1", "0", "28", "27", "1", "18", "15", "0", "30", "32", "21", "19", "14", "15", "16", "32", "33", "26", "9", "29", "29"], "time": [639, 938, 1839, 2108, 3057, 3158, 3611, 3633, 4194, 4661, 5993, 8327, 9823, 9857, 9939, 10758, 13993, 16994, 17343, 17826, 20365, 24309]}, "edge": {"target": [], "time": []}}}, "displayed_time": "23.43", "trialTime": 25582, "trial_type": "mouselab-mdp", "trial_index": 17, "time_elapsed": 846420, "internal_node_id": "0.0-6.0-1.0-8.0"}}, {"uniqueid": "w19354974:a61758930", "current_trial": 18, "dateTime": 1693661160516, "trialdata": {"revealed_states": [], "clicked_states": ["27", "29", "33"], "num_clicks_accrued": [0, 0, 0, 0, 0, 0, 0, 0, 0, 0, 0, 0, 0], "stateRewards": ["", 1, -3, -1, 9, -34, -40, 22, -7, 45, 53, -11, 2, 4, 5, 15, 21, 37, -49, -3, 80, -28, -34, 1, -3, 1, 1, -40, -6, -5, -16, -85, -86, 59], "withholdReward": false, "trial_id": "mdp_trial_10", "block": "test", "trialIndex": 11, "score": 35.55, "costs": -6.449999999999999, "simulationMode": [null, null, null, null, null], "rewards": [1, -3, 1, -16, 59], "path": ["0", "0", "23", "24", "25", "30", "33"], "rt": [10482, 121, 123, 124, 221], "actions": ["left", "left", "left", "down", "left"], "actionTimes": [13494, 14138, 14760, 15408, 16125], "queries": {"click": {"state": {"target": ["27", "29", "33"], "time": [3707, 6872, 10048]}, "edge": {"target": [], "time": []}}, "mouseover": {"state": {"target": ["28", "27", "26", "29", "33", "32"], "time": [3263, 3581, 4287, 4998, 7485, 10817]}, "edge": {"target": [], "time": []}}, "mouseout": {"state": {"target": ["18", "28", "27", "26", "29", "33", "33", "32", "7", "15", "17"], "time": [1114, 3331, 4232, 4849, 7283, 10108, 10734, 14232, 17530, 18880, 18897]}, "edge": {"target": [], "time": []}}}, "displayed_time": "17.01", "trialTime": 19926, "trial_type": "mouselab-mdp", "trial_index": 18, "time_elapsed": 866790, "internal_node_id": "0.0-6.0-1.0-9.0"}}, {"uniqueid": "w19354974:a61758930", "current_trial": 19, "dateTime": 1693661178396, "trialdata": {"revealed_states": [], "clicked_states": ["32"], "num_clicks_accrued": [0, 0, 0, 0, 0, 0, 0, 0, 0, 0, 0, 0, 0], "stateRewards": ["", -2, -4, -2, 10, -8, -15, -47, 7, -84, 53, 5, -1, 2, -7, 3, 83, 31, 47, -1, 30, -8, 69, 2, -4, -1, 8, -7, 12, -8, -8, -13, 30, -84], "withholdReward": false, "trial_id": "mdp_trial_11", "block": "test", "trialIndex": 12, "score": 16.85, "costs": -2.15, "simulationMode": [null, null, null, null, null], "rewards": [2, -4, -1, -8, 30], "path": ["0", "0", "23", "24", "25", "30", "32"], "rt": [8549, 105, 115, 29, 111], "actions": ["left", "left", "left", "down", "down"], "actionTimes": [10519, 11129, 11753, 12300, 12930], "queries": {"click": {"state": {"target": ["32"], "time": [3567]}, "edge": {"target": [], "time": []}}, "mouseover": {"state": {"target": ["23", "24", "25", "30", "32", "33", "24", "25", "33", "24", "23"], "time": [2700, 2867, 2985, 3270, 3350, 4171, 8033, 8484, 8766, 9586, 9606]}, "edge": {"target": [], "time": []}}, "mouseout": {"state": {"target": ["18", "0", "23", "24", "25", "30", "32", "33", "24", "25", "33", "24", "23", "0", "12"], "time": [849, 2351, 2800, 2934, 3101, 3317, 4086, 7968, 8451, 8502, 9551, 9603, 9635, 14718, 14753]}, "edge": {"target": [], "time": []}}}, "displayed_time": "15.97", "trialTime": 17427, "trial_type": "mouselab-mdp", "trial_index": 19, "time_elapsed": 884671, "internal_node_id": "0.0-6.0-1.0-10.0"}}, {"uniqueid": "w19354974:a61758930", "current_trial": 20, "dateTime": 1693661196147, "trialdata": {"revealed_states": [], "clicked_states": ["27"], "num_clicks_accrued": [0, 0, 0, 0, 0, 0, 0, 0, 0, 0, 0, 0, 0], "stateRewards": ["", 1, -3, -6, -5, 47, 80, -29, 11, -71, 10, -29, -2, 3, -6, 12, 2, -78, -6, 8, 34, -16, -5, -1, 3, 3, -13, 84, -36, -62, -3, -27, 66, 15], "withholdReward": false, "trial_id": "mdp_trial_12", "block": "test", "trialIndex": 13, "score": 73.85, "costs": -2.15, "simulationMode": [null, null, null, null, null], "rewards": [-1, 3, 3, -13, 84], "path": ["0", "0", "23", "24", "25", "26", "27"], "rt": [4524, 39, 60, 63, 48], "actions": ["left", "left", "left", "up", "up"], "actionTimes": [6023, 6588, 7155, 7726, 8277], "queries": {"click": {"state": {"target": ["27"], "time": [2675]}, "edge": {"target": [], "time": []}}, "mouseover": {"state": {"target": ["27", "27", "29"], "time": [2009, 2526, 5526]}, "edge": {"target": [], "time": []}}, "mouseout": {"state": {"target": ["13", "7", "0", "27", "27", "29", "11", "6", "17"], "time": [225, 658, 1927, 2043, 2944, 5925, 10091, 11760, 16377]}, "edge": {"target": [], "time": []}}}, "displayed_time": "15.50", "trialTime": 17320, "trial_type": "mouselab-mdp", "trial_index": 20, "time_elapsed": 902422, "internal_node_id": "0.0-6.0-1.0-11.0"}}, {"uniqueid": "w19354974:a61758930", "current_trial": 21, "dateTime": 1693661213415, "trialdata": {"revealed_states": [], "clicked_states": ["27", "29"], "num_clicks_accrued": [0, 0, 0, 0, 0, 0, 0, 0, 0, 0, 0, 0, 0], "stateRewards": ["", -1, 1, -2, 5, 73, 15, 61, 8, 7, 38, 76, 2, 2, -4, -6, -6, -26, 43, -5, -45, -85, -35, -2, 1, -4, 15, -10, 69, 72, -11, 84, -49, -38], "withholdReward": false, "trial_id": "mdp_trial_13", "block": "test", "trialIndex": 14, "score": 77.7, "costs": -4.3, "simulationMode": [null, null, null, null, null], "rewards": [-2, 1, -4, 15, 72], "path": ["0", "0", "23", "24", "25", "26", "29"], "rt": [7208, 93, 76, 90, 123], "actions": ["left", "left", "left", "up", "left"], "actionTimes": [8667, 9281, 9878, 10509, 11143], "queries": {"click": {"state": {"target": ["27", "29"], "time": [2175, 5410]}, "edge": {"target": [], "time": []}}, "mouseover": {"state": {"target": ["28", "27", "29", "33"], "time": [1683, 2084, 4154, 6103]}, "edge": {"target": [], "time": []}}, "mouseout": {"state": {"target": ["0", "28", "27", "29", "33", "29", "3"], "time": [1550, 1733, 2968, 5871, 9258, 13066, 13117]}, "edge": {"target": [], "time": []}}}, "displayed_time": "15.46", "trialTime": 16794, "trial_type": "mouselab-mdp", "trial_index": 21, "time_elapsed": 919690, "internal_node_id": "0.0-6.0-1.0-12.0"}}, {"uniqueid": "w19354974:a61758930", "current_trial": 22, "dateTime": 1693661230795, "trialdata": {"revealed_states": [], "clicked_states": ["27", "29", "33"], "num_clicks_accrued": [0, 0, 0, 0, 0, 0, 0, 0, 0, 0, 0, 0, 0], "stateRewards": ["", 1, -1, 4, 5, -32, 18, 20, 6, -88, -74, 9, -2, 1, -2, -14, 34, -77, -38, -1, 80, -36, 73, 2, 3, -8, 10, -48, -73, -71, -11, -22, 20, 54], "withholdReward": false, "trial_id": "mdp_trial_14", "block": "test", "trialIndex": 15, "score": 33.55, "costs": -6.449999999999999, "simulationMode": [null, null, null, null, null], "rewards": [2, 3, -8, -11, 54], "path": ["0", "0", "23", "24", "25", "30", "33"], "rt": [10881, 137, 84, 16, 130], "actions": ["left", "left", "left", "down", "left"], "actionTimes": [12044, 12686, 13284, 13818, 14469], "queries": {"click": {"state": {"target": ["27", "29", "33"], "time": [2100, 5368, 8568]}, "edge": {"target": [], "time": []}}, "mouseover": {"state": {"target": ["23", "28", "27", "29", "33", "32", "32"], "time": [1662, 1713, 1911, 2732, 5931, 9015, 9449]}, "edge": {"target": [], "time": []}}, "mouseout": {"state": {"target": ["23", "28", "27", "29", "33", "32", "32", "2", "15", "17"], "time": [1680, 1745, 2632, 5865, 8965, 9348, 12563, 16012, 16380, 16413]}, "edge": {"target": [], "time": []}}}, "displayed_time": "15.16", "trialTime": 16920, "trial_type": "mouselab-mdp", "trial_index": 22, "time_elapsed": 937070, "internal_node_id": "0.0-6.0-1.0-13.0"}}, {"uniqueid": "w19354974:a61758930", "current_trial": 23, "dateTime": 1693661248553, "trialdata": {"revealed_states": [], "clicked_states": ["27", "29"], "num_clicks_accrued": [0, 0, 0, 0, 0, 0, 0, 0, 0, 0, 0, 0, 0], "stateRewards": ["", 1, 2, 7, 13, 88, -71, 27, 3, 60, 5, -53, -2, 2, -6, -1, -30, 79, 47, -4, -14, 46, 68, 1, 1, 8, 10, -14, 86, 48, -11, -67, -44, 5], "withholdReward": false, "trial_id": "mdp_trial_15", "block": "test", "trialIndex": 16, "score": 63.7, "costs": -4.3, "simulationMode": [null, null, null, null, null], "rewards": [1, 1, 8, 10, 48], "path": ["0", "0", "23", "24", "25", "26", "29"], "rt": [7823, 43, 40, 136, 62], "actions": ["left", "left", "left", "up", "left"], "actionTimes": [9316, 9883, 10447, 11076, 11654], "queries": {"click": {"state": {"target": ["27", "29"], "time": [2777, 5988]}, "edge": {"target": [], "time": []}}, "mouseover": {"state": {"target": ["28", "27", "29", "33"], "time": [2133, 2568, 3286, 6542]}, "edge": {"target": [], "time": []}}, "mouseout": {"state": {"target": ["15", "18", "0", "0", "28", "27", "29", "33"], "time": [683, 700, 750, 2063, 2168, 3253, 6456, 10021]}, "edge": {"target": [], "time": []}}}, "displayed_time": "15.49", "trialTime": 17300, "trial_type": "mouselab-mdp", "trial_index": 23, "time_elapsed": 954827, "internal_node_id": "0.0-6.0-1.0-14.0"}}, {"uniqueid": "w19354974:a61758930", "current_trial": 24, "dateTime": 1693661266819, "trialdata": {"revealed_states": [], "clicked_states": ["27", "29", "33"], "num_clicks_accrued": [0, 0, 0, 0, 0, 0, 0, 0, 0, 0, 0, 0, 0], "stateRewards": ["", 2, -2, -3, 10, -4, -1, -11, -8, -9, -36, -78, 2, 1, 7, -7, 44, -1, -31, -1, 26, 47, 83, 2, -4, -4, -6, -52, -76, -81, -1, -59, 45, 67], "withholdReward": false, "trial_id": "mdp_trial_16", "block": "test", "trialIndex": 17, "score": 53.55, "costs": -6.449999999999999, "simulationMode": [null, null, null, null, null], "rewards": [2, -4, -4, -1, 67], "path": ["0", "0", "23", "24", "25", "30", "33"], "rt": [10469, 95, 116, 89, 157], "actions": ["left", "left", "left", "down", "left"], "actionTimes": [12224, 12836, 13456, 14043, 14724], "queries": {"click": {"state": {"target": ["27", "29", "33"], "time": [2481, 5679, 8904]}, "edge": {"target": [], "time": []}}, "mouseover": {"state": {"target": ["27", "29", "33", "32"], "time": [2363, 3620, 6533, 9467]}, "edge": {"target": [], "time": []}}, "mouseout": {"state": {"target": ["0", "27", "29", "33", "32", "11"], "time": [1856, 3231, 6199, 9369, 12668, 16464]}, "edge": {"target": [], "time": []}}}, "displayed_time": "15.76", "trialTime": 17729, "trial_type": "mouselab-mdp", "trial_index": 24, "time_elapsed": 973093, "internal_node_id": "0.0-6.0-1.0-15.0"}}, {"uniqueid": "w19354974:a61758930", "current_trial": 25, "dateTime": 1693661296469, "trialdata": {"revealed_states": [], "clicked_states": ["27"], "num_clicks_accrued": [0, 0, 0, 0, 0, 0, 0, 0, 0, 0, 0, 0, 0], "stateRewards": ["", -1, -1, 7, -15, -43, -21, -84, -9, -45, -66, 2, 1, -2, 2, 8, -27, 44, -52, -5, -84, 11, 53, 1, 4, -4, 16, 83, -82, -15, -16, 68, -43, 81], "withholdReward": false, "trial_id": "mdp_trial_17", "block": "test", "trialIndex": 18, "score": 97.85, "costs": -2.15, "simulationMode": [null, null, null, null, null], "rewards": [1, 4, -4, 16, 83], "path": ["0", "0", "23", "24", "25", "26", "27"], "rt": [4218, 56, 60, 69, 75], "actions": ["left", "left", "left", "up", "up"], "actionTimes": [6025, 6607, 7180, 7774, 8371], "queries": {"click": {"state": {"target": ["27"], "time": [2588]}, "edge": {"target": [], "time": []}}, "mouseover": {"state": {"target": ["27", "29"], "time": [2424, 3125]}, "edge": {"target": [], "time": []}}, "mouseout": {"state": {"target": ["15", "18", "0", "27", "29", "26", "15"], "time": [608, 641, 1908, 3016, 9610, 9626, 10143]}, "edge": {"target": [], "time": []}}}, "displayed_time": "15.81", "trialTime": 29191, "trial_type": "mouselab-mdp", "trial_index": 25, "time_elapsed": 1002744, "internal_node_id": "0.0-6.0-1.0-16.0"}}, {"uniqueid": "w19354974:a61758930", "current_trial": 26, "dateTime": 1693661314282, "trialdata": {"revealed_states": [], "clicked_states": ["27", "29"], "num_clicks_accrued": [0, 0, 0, 0, 0, 0, 0, 0, 0, 0, 0, 0, 0], "stateRewards": ["", -1, -4, -1, -11, 43, 69, 39, 4, 17, -20, -82, -2, -1, 4, 8, -79, 24, -79, 11, 36, 64, 41, 2, 4, -1, 11, -79, -47, 75, -3, 63, -36, -19], "withholdReward": false, "trial_id": "mdp_trial_18", "block": "test", "trialIndex": 19, "score": 86.7, "costs": -4.3, "simulationMode": [null, null, null, null, null], "rewards": [2, 4, -1, 11, 75], "path": ["0", "0", "23", "24", "25", "26", "29"], "rt": [7084, 47, 142, 119, 54], "actions": ["left", "left", "left", "up", "left"], "actionTimes": [8711, 9258, 9936, 10577, 11146], "queries": {"click": {"state": {"target": ["27", "29"], "time": [2220, 5418]}, "edge": {"target": [], "time": []}}, "mouseover": {"state": {"target": ["28", "27", "29", "33"], "time": [1771, 2204, 2923, 5923]}, "edge": {"target": [], "time": []}}, "mouseout": {"state": {"target": ["28", "27", "29", "33", "26", "11"], "time": [1837, 2755, 5859, 11888, 11937, 12677]}, "edge": {"target": [], "time": []}}}, "displayed_time": "15.63", "trialTime": 17283, "trial_type": "mouselab-mdp", "trial_index": 26, "time_elapsed": 1020556, "internal_node_id": "0.0-6.0-1.0-17.0"}}, {"uniqueid": "w19354974:a61758930", "current_trial": 27, "dateTime": 1693661331687, "trialdata": {"revealed_states": [], "clicked_states": ["27", "29", "33"], "num_clicks_accrued": [0, 0, 0, 0, 0, 0, 0, 0, 0, 0, 0, 0, 0], "stateRewards": ["", 1, 2, 3, 16, 63, -25, 16, -4, -14, 82, -66, -1, -3, -3, -11, -14, 19, 46, 3, -34, -82, 66, -2, -3, 4, -5, -63, 77, -37, -1, -45, -41, 84], "withholdReward": false, "trial_id": "mdp_trial_19", "block": "test", "trialIndex": 20, "score": 75.55, "costs": -6.449999999999999, "simulationMode": [null, null, null, null, null], "rewards": [-2, -3, 4, -1, 84], "path": ["0", "0", "23", "24", "25", "30", "33"], "rt": [10827, 114, 160, 127, 220], "actions": ["left", "left", "left", "down", "left"], "actionTimes": [11909, 12530, 13207, 13854, 14599], "queries": {"click": {"state": {"target": ["27", "29", "33"], "time": [2261, 5450, 8657]}, "edge": {"target": [], "time": []}}, "mouseover": {"state": {"target": ["26", "27", "29", "33", "32"], "time": [1475, 1808, 2843, 6293, 9199]}, "edge": {"target": [], "time": []}}, "mouseout": {"state": {"target": ["0", "26", "27", "29", "33", "32", "7"], "time": [640, 1624, 2727, 6044, 9164, 12430, 16126]}, "edge": {"target": [], "time": []}}}, "displayed_time": "15.11", "trialTime": 16908, "trial_type": "mouselab-mdp", "trial_index": 27, "time_elapsed": 1037962, "internal_node_id": "0.0-6.0-1.0-18.0"}}, {"uniqueid": "w19354974:a61758930", "current_trial": 28, "dateTime": 1693661350898, "trialdata": {"revealed_states": [], "clicked_states": ["27", "29", "33"], "num_clicks_accrued": [0, 0, 0, 0, 0, 0, 0, 0, 0, 0, 0, 0, 0], "stateRewards": ["", 2, -1, -4, -13, 74, 77, 3, 2, -43, -2, -11, 2, 3, 7, 11, -26, -29, -33, -3, -3, -13, -3, 1, 3, -7, 14, -59, 33, 9, -5, 34, 79, 68], "withholdReward": false, "trial_id": "mdp_trial_20", "block": "test", "trialIndex": 21, "score": 53.55, "costs": -6.449999999999999, "simulationMode": [null, null, null, null, null], "rewards": [1, 3, -7, -5, 68], "path": ["0", "0", "23", "24", "25", "30", "33"], "rt": [12261, 120, 48, 122, 257], "actions": ["left", "left", "left", "down", "left"], "actionTimes": [13581, 14215, 14777, 15417, 16169], "queries": {"click": {"state": {"target": ["27", "29", "33"], "time": [2044, 5268, 8619]}, "edge": {"target": [], "time": []}}, "mouseover": {"state": {"target": ["28", "27", "29", "33", "32", "0"], "time": [1389, 1906, 2975, 5843, 9143, 12973]}, "edge": {"target": [], "time": []}}, "mouseout": {"state": {"target": ["7", "1", "0", "28", "27", "29", "33", "32", "0", "10"], "time": [189, 572, 1335, 1558, 2709, 5760, 9125, 12590, 17089, 17791]}, "edge": {"target": [], "time": []}}}, "displayed_time": "16.69", "trialTime": 18735, "trial_type": "mouselab-mdp", "trial_index": 28, "time_elapsed": 1057173, "internal_node_id": "0.0-6.0-1.0-19.0"}}, {"uniqueid": "w19354974:a61758930", "current_trial": 29, "dateTime": 1693661386298, "trialdata": {"revealed_states": [], "clicked_states": ["27", "29", "33", "32", "9", "5", "16", "17"], "num_clicks_accrued": [0, 0, 0, 0, 0, 0, 0, 0, 0, 0, 0, 0, 0], "stateRewards": ["", -2, -1, -6, -14, -55, 78, -13, 11, 14, -71, 59, 2, 2, 6, -6, 9, 38, 14, 7, 85, 11, 68, 1, -4, -1, -3, -63, -85, 9, -2, 63, -86, -10], "withholdReward": false, "trial_id": "mdp_trial_21", "block": "test", "trialIndex": 22, "score": 24.8, "costs": -17.2, "simulationMode": [null, null, null, null, null], "rewards": [2, 2, 6, -6, 38], "path": ["0", "0", "12", "13", "14", "15", "17"], "rt": [27935, 32, 13, 106, 50], "actions": ["right", "right", "right", "up", "right"], "actionTimes": [29901, 30460, 30991, 31618, 32175], "queries": {"click": {"state": {"target": ["27", "29", "33", "32", "9", "5", "16", "17"], "time": [3266, 6434, 9850, 13077, 16303, 19790, 22997, 26474]}, "edge": {"target": [], "time": []}}, "mouseover": {"state": {"target": ["23", "24", "29", "27", "29", "33", "32", "10", "9", "5", "6", "16", "17", "20"], "time": [2692, 2712, 2992, 3025, 5325, 6991, 10321, 13625, 14042, 16908, 20328, 20761, 23799, 27595]}, "edge": {"target": [], "time": []}}, "mouseout": {"state": {"target": ["15", "0", "23", "24", "29", "27", "29", "33", "32", "10", "9", "9", "5", "5", "6", "16", "17", "20"], "time": [938, 2689, 2708, 2724, 3008, 5157, 6924, 10301, 13591, 13644, 16383, 16758, 19855, 20311, 20361, 23711, 27059, 33273]}, "edge": {"target": [], "time": []}}}, "displayed_time": "32.70", "trialTime": 34917, "trial_type": "mouselab-mdp", "trial_index": 29, "time_elapsed": 1092572, "internal_node_id": "0.0-6.0-1.0-20.0"}}, {"uniqueid": "w19354974:a61758930", "current_trial": 30, "dateTime": 1693661408706, "trialdata": {"revealed_states": [], "clicked_states": ["27"], "num_clicks_accrued": [0, 0, 0, 0, 0, 0, 0, 0, 0, 0, 0, 0, 0], "stateRewards": ["", 1, 4, 5, -5, 58, -80, 75, 6, 25, -39, 46, 2, -2, 4, 2, 59, 31, -22, -12, -61, 15, 72, 1, -2, -7, 8, 77, 76, -23, -7, 71, -15, -3], "withholdReward": false, "trial_id": "mdp_trial_22", "block": "test", "trialIndex": 23, "score": 74.85, "costs": -2.15, "simulationMode": [null, null, null, null, null], "rewards": [1, -2, -7, 8, 77], "path": ["0", "0", "23", "24", "25", "26", "27"], "rt": [4305, 6, 56, 128, 24], "actions": ["left", "left", "left", "up", "up"], "actionTimes": [5475, 6001, 6581, 7226, 7780], "queries": {"click": {"state": {"target": ["27"], "time": [2178]}, "edge": {"target": [], "time": []}}, "mouseover": {"state": {"target": ["23", "28", "27", "29"], "time": [1420, 1719, 2022, 2972]}, "edge": {"target": [], "time": []}}, "mouseout": {"state": {"target": ["18", "0", "23", "28", "27", "29", "29"], "time": [218, 1354, 1588, 1785, 2653, 8902, 21119]}, "edge": {"target": [], "time": []}}}, "displayed_time": "15.17", "trialTime": 21939, "trial_type": "mouselab-mdp", "trial_index": 30, "time_elapsed": 1114981, "internal_node_id": "0.0-6.0-1.0-21.0"}}, {"uniqueid": "w19354974:a61758930", "current_trial": 31, "dateTime": 1693661425260, "trialdata": {"revealed_states": [], "clicked_states": ["27"], "num_clicks_accrued": [0, 0, 0, 0, 0, 0, 0, 0, 0, 0, 0, 0, 0], "stateRewards": ["", 1, -4, -4, 8, 1, -79, 68, -10, -79, 8, -74, -1, -3, -6, 14, 43, 23, 9, 5, -51, 63, 61, -2, 4, 6, -10, 69, -32, 57, 15, -80, -80, -77], "withholdReward": false, "trial_id": "mdp_trial_23", "block": "test", "trialIndex": 24, "score": 64.85, "costs": -2.15, "simulationMode": [null, null, null, null, null], "rewards": [-2, 4, 6, -10, 69], "path": ["0", "0", "23", "24", "25", "26", "27"], "rt": [4122, 99, 62, 87, 95], "actions": ["left", "left", "left", "up", "up"], "actionTimes": [5628, 6242, 6803, 7408, 8018], "queries": {"click": {"state": {"target": ["27"], "time": [2059]}, "edge": {"target": [], "time": []}}, "mouseover": {"state": {"target": ["28", "26", "27", "29"], "time": [1619, 1753, 2036, 2605]}, "edge": {"target": [], "time": []}}, "mouseout": {"state": {"target": ["0", "28", "26", "27", "29", "26"], "time": [1135, 1686, 1836, 2520, 9268, 9288]}, "edge": {"target": [], "time": []}}}, "displayed_time": "15.51", "trialTime": 15993, "trial_type": "mouselab-mdp", "trial_index": 31, "time_elapsed": 1131534, "internal_node_id": "0.0-6.0-1.0-22.0"}}, {"uniqueid": "w19354974:a61758930", "current_trial": 32, "dateTime": 1693661445841, "trialdata": {"revealed_states": [], "clicked_states": ["27", "29"], "num_clicks_accrued": [0, 0, 0, 0, 0, 0, 0, 0, 0, 0, 0, 0, 0], "stateRewards": ["", 2, 3, 6, -12, -29, 12, 87, 4, 35, -30, 67, 2, 3, -5, -9, 44, 69, -8, 1, 45, -8, 28, -2, -1, -8, 11, -12, -5, 81, 9, 87, 82, 88], "withholdReward": false, "trial_id": "mdp_trial_24", "block": "test", "trialIndex": 25, "score": 76.7, "costs": -4.3, "simulationMode": [null, null, null, null, null], "rewards": [-2, -1, -8, 11, 81], "path": ["0", "0", "23", "24", "25", "26", "29"], "rt": [8087, 130, 80, 32, 58], "actions": ["left", "left", "left", "up", "left"], "actionTimes": [9997, 10639, 11238, 11792, 12366], "queries": {"click": {"state": {"target": ["27", "29"], "time": [3125, 6716]}, "edge": {"target": [], "time": []}}, "mouseover": {"state": {"target": ["27", "29", "29", "33"], "time": [3020, 3771, 4072, 7372]}, "edge": {"target": [], "time": []}}, "mouseout": {"state": {"target": ["15", "12", "0", "27", "29", "29", "33", "29", "27", "3", "15", "22", "22", "15"], "time": [986, 1302, 2103, 3673, 3822, 7255, 10587, 13220, 13269, 14020, 16636, 16703, 16954, 19703]}, "edge": {"target": [], "time": []}}}, "displayed_time": "15.91", "trialTime": 20057, "trial_type": "mouselab-mdp", "trial_index": 32, "time_elapsed": 1152115, "internal_node_id": "0.0-6.0-1.0-23.0"}}, {"uniqueid": "w19354974:a61758930", "current_trial": 33, "dateTime": 1693661463339, "trialdata": {"revealed_states": [], "clicked_states": ["27", "29"], "num_clicks_accrued": [0, 0, 0, 0, 0, 0, 0, 0, 0, 0, 0, 0, 0], "stateRewards": ["", -1, -4, -1, -5, -28, -23, -15, -15, -38, 59, -87, 2, 2, -5, 9, -55, -39, -71, -6, 85, -85, -11, -1, -2, 5, -10, 1, 25, 41, -4, 69, -35, 86], "withholdReward": false, "trial_id": "mdp_trial_25", "block": "test", "trialIndex": 26, "score": 28.7, "costs": -4.3, "simulationMode": [null, null, null, null, null], "rewards": [-1, -2, 5, -10, 41], "path": ["0", "0", "23", "24", "25", "26", "29"], "rt": [7611, 41, 625, 66, 159], "actions": ["left", "left", "left", "up", "left"], "actionTimes": [9186, 9753, 10903, 11494, 12155], "queries": {"click": {"state": {"target": ["27", "29"], "time": [2447, 5691]}, "edge": {"target": [], "time": []}}, "mouseover": {"state": {"target": ["27", "27", "29", "33"], "time": [2023, 2342, 2843, 6215]}, "edge": {"target": [], "time": []}}, "mouseout": {"state": {"target": ["0", "27", "27", "27", "29", "33", "10", "4", "6"], "time": [1958, 2058, 2534, 2793, 6146, 9316, 12891, 13390, 13424]}, "edge": {"target": [], "time": []}}}, "displayed_time": "15.58", "trialTime": 16842, "trial_type": "mouselab-mdp", "trial_index": 33, "time_elapsed": 1169614, "internal_node_id": "0.0-6.0-1.0-24.0"}}, {"uniqueid": "w19354974:a61758930", "current_trial": 34, "dateTime": 1693661479675, "trialdata": {"revealed_states": [], "clicked_states": ["27", "29"], "num_clicks_accrued": [0, 0, 0, 0, 0, 0, 0, 0, 0, 0, 0, 0, 0], "stateRewards": ["", 2, 4, 7, -6, -76, -81, 2, 5, -66, -3, 36, -2, -4, 6, -2, -69, 4, -49, -6, 67, 38, -67, 2, 1, 1, 6, -68, -21, 52, -16, -16, 6, -70], "withholdReward": false, "trial_id": "mdp_trial_26", "block": "test", "trialIndex": 27, "score": 57.7, "costs": -4.3, "simulationMode": [null, null, null, null, null], "rewards": [2, 1, 1, 6, 52], "path": ["0", "0", "23", "24", "25", "26", "29"], "rt": [7612, 70, 50, 81, 39], "actions": ["left", "left", "left", "up", "left"], "actionTimes": [9064, 9647, 10227, 10824, 11383], "queries": {"click": {"state": {"target": ["27", "29"], "time": [2404, 5761]}, "edge": {"target": [], "time": []}}, "mouseover": {"state": {"target": ["27", "29", "33"], "time": [2287, 3896, 6507]}, "edge": {"target": [], "time": []}}, "mouseout": {"state": {"target": ["15", "12", "27", "29", "33", "27", "8"], "time": [503, 820, 3833, 6239, 9592, 12072, 12090]}, "edge": {"target": [], "time": []}}}, "displayed_time": "15.45", "trialTime": 15809, "trial_type": "mouselab-mdp", "trial_index": 34, "time_elapsed": 1185949, "internal_node_id": "0.0-6.0-1.0-25.0"}}, {"uniqueid": "w19354974:a61758930", "current_trial": 35, "dateTime": 1693661503303, "trialdata": {"revealed_states": [], "clicked_states": ["27", "29", "33", "32"], "num_clicks_accrued": [0, 0, 0, 0, 0, 0, 0, 0, 0, 0, 0, 0, 0], "stateRewards": ["", 2, -3, 5, 11, -79, 54, 11, -9, -78, 33, 22, -2, -1, 2, 14, 43, 34, 1, 10, 49, -65, 39, -1, 1, -1, 3, -16, -2, 11, 2, 12, 48, -65], "withholdReward": false, "trial_id": "mdp_trial_27", "block": "test", "trialIndex": 28, "score": 40.4, "costs": -8.6, "simulationMode": [null, null, null, null, null], "rewards": [-1, 1, -1, 2, 48], "path": ["0", "0", "23", "24", "25", "30", "32"], "rt": [17377, 71, 162, 44, 83], "actions": ["left", "left", "left", "down", "down"], "actionTimes": [18778, 19359, 20018, 20583, 21202], "queries": {"click": {"state": {"target": ["27", "29", "33", "32"], "time": [2269, 5447, 8694, 11876]}, "edge": {"target": [], "time": []}}, "mouseover": {"state": {"target": ["27", "29", "33", "32", "8", "9", "9", "10", "0", "0"], "time": [2115, 2719, 6034, 9184, 12284, 12307, 12953, 15799, 16747, 18182]}, "edge": {"target": [], "time": []}}, "mouseout": {"state": {"target": ["7", "27", "29", "33", "32", "8", "9", "9", "10", "0", "0", "16"], "time": [498, 2684, 5900, 9151, 12233, 12303, 12325, 15567, 15816, 16767, 22149, 22632]}, "edge": {"target": [], "time": []}}}, "displayed_time": "21.73", "trialTime": 23132, "trial_type": "mouselab-mdp", "trial_index": 35, "time_elapsed": 1209578, "internal_node_id": "0.0-6.0-1.0-26.0"}}, {"uniqueid": "w19354974:a61758930", "current_trial": 36, "dateTime": 1693661520025, "trialdata": {"revealed_states": [], "clicked_states": ["27", "29"], "num_clicks_accrued": [0, 0, 0, 0, 0, 0, 0, 0, 0, 0, 0, 0, 0], "stateRewards": ["", -2, 4, -3, -13, 63, -36, 62, 11, 78, 34, -51, 2, -2, 8, -6, -40, -18, 31, 9, 64, 39, 79, 1, 4, -4, 15, -12, 76, 73, -10, -77, 86, -4], "withholdReward": false, "trial_id": "mdp_trial_28", "block": "test", "trialIndex": 29, "score": 84.7, "costs": -4.3, "simulationMode": [null, null, null, null, null], "rewards": [1, 4, -4, 15, 73], "path": ["0", "0", "23", "24", "25", "26", "29"], "rt": [7000, 8, 50, 76, 41], "actions": ["left", "left", "left", "up", "left"], "actionTimes": [8445, 8972, 9533, 10147, 10689], "queries": {"click": {"state": {"target": ["27", "29"], "time": [2058, 5262]}, "edge": {"target": [], "time": []}}, "mouseover": {"state": {"target": ["27", "29", "33"], "time": [1976, 2611, 5844]}, "edge": {"target": [], "time": []}}, "mouseout": {"state": {"target": ["16", "27", "29", "33", "2", "4"], "time": [776, 2494, 5711, 11626, 11693, 11710]}, "edge": {"target": [], "time": []}}}, "displayed_time": "15.45", "trialTime": 16264, "trial_type": "mouselab-mdp", "trial_index": 36, "time_elapsed": 1226300, "internal_node_id": "0.0-6.0-1.0-27.0"}}, {"uniqueid": "w19354974:a61758930", "current_trial": 37, "dateTime": 1693661537191, "trialdata": {"revealed_states": [], "clicked_states": ["27", "29"], "num_clicks_accrued": [0, 0, 0, 0, 0, 0, 0, 0, 0, 0, 0, 0, 0], "stateRewards": ["", 2, 3, -1, 6, 44, -4, -59, -14, -3, 64, 16, 1, -3, 3, 6, 3, 49, 19, 3, -49, -14, -86, 1, 2, -3, -8, -33, 14, 32, -13, -77, -47, -67], "withholdReward": false, "trial_id": "mdp_trial_29", "block": "test", "trialIndex": 30, "score": 19.7, "costs": -4.3, "simulationMode": [null, null, null, null, null], "rewards": [1, 2, -3, -8, 32], "path": ["0", "0", "23", "24", "25", "26", "29"], "rt": [8199, 129, 70, 100, 172], "actions": ["left", "left", "left", "up", "left"], "actionTimes": [9620, 10251, 10838, 11456, 12144], "queries": {"click": {"state": {"target": ["27", "29"], "time": [2776, 6015]}, "edge": {"target": [], "time": []}}, "mouseover": {"state": {"target": ["23", "24", "29", "27", "29", "33"], "time": [1768, 1917, 2435, 2550, 3386, 6588]}, "edge": {"target": [], "time": []}}, "mouseout": {"state": {"target": ["15", "18", "0", "23", "24", "29", "27", "27", "29", "33"], "time": [517, 550, 1734, 1900, 1951, 2467, 2876, 3247, 6506, 10233]}, "edge": {"target": [], "time": []}}}, "displayed_time": "15.42", "trialTime": 16671, "trial_type": "mouselab-mdp", "trial_index": 37, "time_elapsed": 1243466, "internal_node_id": "0.0-6.0-1.0-28.0"}}, {"uniqueid": "w19354974:a61758930", "current_trial": 38, "dateTime": 1693661554076, "trialdata": {"revealed_states": [], "clicked_states": ["27"], "num_clicks_accrued": [0, 0, 0, 0, 0, 0, 0, 0, 0, 0, 0, 0, 0], "stateRewards": ["", -1, 3, 1, -11, -22, -36, 19, -5, -70, -52, 50, -2, -4, 4, -2, -41, -83, 29, -2, 22, 10, -6, -2, 3, -2, 14, 54, 44, 77, -9, -65, -37, -40], "withholdReward": false, "trial_id": "mdp_trial_30", "block": "test", "trialIndex": 31, "score": 64.85, "costs": -2.15, "simulationMode": [null, null, null, null, null], "rewards": [-2, 3, -2, 14, 54], "path": ["0", "0", "23", "24", "25", "26", "27"], "rt": [4114, 35, 4, 12, 5], "actions": ["left", "left", "left", "up", "up"], "actionTimes": [5271, 5826, 6344, 6872, 7397], "queries": {"click": {"state": {"target": ["27"], "time": [1857]}, "edge": {"target": [], "time": []}}, "mouseover": {"state": {"target": ["28", "27", "29"], "time": [1436, 1719, 2456]}, "edge": {"target": [], "time": []}}, "mouseout": {"state": {"target": ["0", "28", "27", "29", "27", "10"], "time": [1374, 1469, 2252, 5807, 8587, 8623]}, "edge": {"target": [], "time": []}}}, "displayed_time": "15.16", "trialTime": 16392, "trial_type": "mouselab-mdp", "trial_index": 38, "time_elapsed": 1260350, "internal_node_id": "0.0-6.0-1.0-29.0"}}, {"uniqueid": "w19354974:a61758930", "current_trial": 39, "dateTime": 1693661572183, "trialdata": {"revealed_states": [], "clicked_states": ["27", "29", "33"], "num_clicks_accrued": [0, 0, 0, 0, 0, 0, 0, 0, 0, 0, 0, 0, 0], "stateRewards": ["", -1, 3, -5, -2, -13, -9, -34, -7, -81, 32, 35, -2, -2, 1, -14, -32, 81, 7, 4, 82, 56, -8, -1, 3, -8, 6, -24, -24, -53, 2, 38, 61, 54], "withholdReward": false, "trial_id": "mdp_trial_31", "block": "test", "trialIndex": 32, "score": 43.55, "costs": -6.449999999999999, "simulationMode": [null, null, null, null, null], "rewards": [-1, 3, -8, 2, 54], "path": ["0", "0", "23", "24", "25", "30", "33"], "rt": [10689, 74, 5, 55, 194], "actions": ["left", "left", "left", "down", "left"], "actionTimes": [12872, 13471, 14000, 14566, 15274], "queries": {"click": {"state": {"target": ["27", "29", "33"], "time": [2953, 6134, 9344]}, "edge": {"target": [], "time": []}}, "mouseover": {"state": {"target": ["27", "29", "33", "32"], "time": [2839, 3709, 6633, 9893]}, "edge": {"target": [], "time": []}}, "mouseout": {"state": {"target": ["0", "27", "29", "33", "32", "33", "3", "4"], "time": [2356, 3393, 6589, 9843, 12942, 13358, 16789, 16809]}, "edge": {"target": [], "time": []}}}, "displayed_time": "16.18", "trialTime": 17552, "trial_type": "mouselab-mdp", "trial_index": 39, "time_elapsed": 1278458, "internal_node_id": "0.0-6.0-1.0-30.0"}}, {"uniqueid": "w19354974:a61758930", "current_trial": 40, "dateTime": 1693661599343, "trialdata": {"revealed_states": [], "clicked_states": ["27", "29", "33", "32", "9"], "num_clicks_accrued": [0, 0, 0, 0, 0, 0, 0, 0, 0, 0, 0, 0, 0], "stateRewards": ["", -1, 2, 7, 8, 75, 67, -11, 6, 52, -17, 38, -1, 4, -8, 14, 74, -37, -17, -12, 52, 55, 71, -2, -1, -5, 2, 21, 6, -88, -14, 64, -61, -47], "withholdReward": false, "trial_id": "mdp_trial_32", "block": "test", "trialIndex": 33, "score": 55.25, "costs": -10.75, "simulationMode": [null, null, null, null, null], "rewards": [-1, 2, 7, 6, 52], "path": ["0", "0", "1", "2", "3", "8", "9"], "rt": [17733, 491, 79, 16, 78], "actions": ["up", "up", "up", "left", "up"], "actionTimes": [20797, 21810, 22395, 22933, 23531], "queries": {"click": {"state": {"target": ["27", "29", "33", "32", "9"], "time": [3930, 7866, 11084, 14247, 17453]}, "edge": {"target": [], "time": []}}, "mouseover": {"state": {"target": ["27", "29", "33", "32", "28", "9", "9", "5"], "time": [3763, 4632, 8317, 11484, 14602, 14640, 15302, 17833]}, "edge": {"target": [], "time": []}}, "mouseout": {"state": {"target": ["0", "27", "29", "33", "32", "28", "9", "9", "5"], "time": [3099, 4400, 8228, 11467, 14308, 14621, 14664, 17782, 24201]}, "edge": {"target": [], "time": []}}}, "displayed_time": "24.04", "trialTime": 26621, "trial_type": "mouselab-mdp", "trial_index": 40, "time_elapsed": 1305618, "internal_node_id": "0.0-6.0-1.0-31.0"}}, {"uniqueid": "w19354974:a61758930", "current_trial": 41, "dateTime": 1693661616378, "trialdata": {"revealed_states": [], "clicked_states": ["27", "29"], "num_clicks_accrued": [0, 0, 0, 0, 0, 0, 0, 0, 0, 0, 0, 0, 0], "stateRewards": ["", -1, -3, 3, 5, 56, 39, 50, -1, -80, 33, -46, 1, -2, -6, -8, 87, 48, 54, -11, -20, -64, -54, -2, 3, -7, -3, 12, 88, 35, -16, -46, -70, -3], "withholdReward": false, "trial_id": "mdp_trial_33", "block": "test", "trialIndex": 34, "score": 21.7, "costs": -4.3, "simulationMode": [null, null, null, null, null], "rewards": [-2, 3, -7, -3, 35], "path": ["0", "0", "23", "24", "25", "26", "29"], "rt": [7519, 4, 57, 24, 44], "actions": ["left", "left", "left", "up", "left"], "actionTimes": [9097, 9624, 10224, 10755, 11325], "queries": {"click": {"state": {"target": ["27", "29"], "time": [2293, 5796]}, "edge": {"target": [], "time": []}}, "mouseover": {"state": {"target": ["28", "27", "29", "33"], "time": [1942, 2176, 3045, 6448]}, "edge": {"target": [], "time": []}}, "mouseout": {"state": {"target": ["0", "28", "27", "29", "33", "25", "2", "4"], "time": [1893, 1992, 2779, 6316, 11910, 11927, 11977, 12431]}, "edge": {"target": [], "time": []}}}, "displayed_time": "15.58", "trialTime": 16485, "trial_type": "mouselab-mdp", "trial_index": 41, "time_elapsed": 1322653, "internal_node_id": "0.0-6.0-1.0-32.0"}}, {"uniqueid": "w19354974:a61758930", "current_trial": 42, "dateTime": 1693661633364, "trialdata": {"revealed_states": [], "clicked_states": ["27", "29"], "num_clicks_accrued": [0, 0, 0, 0, 0, 0, 0, 0, 0, 0, 0, 0, 0], "stateRewards": ["", -2, 2, 8, -6, -25, 3, 87, 2, -62, -2, 74, -2, -1, 2, -1, 79, 49, -37, -14, 5, 67, -9, -1, 2, -2, 5, 15, 38, 32, -14, -38, -38, 30], "withholdReward": false, "trial_id": "mdp_trial_34", "block": "test", "trialIndex": 35, "score": 31.7, "costs": -4.3, "simulationMode": [null, null, null, null, null], "rewards": [-1, 2, -2, 5, 32], "path": ["0", "0", "23", "24", "25", "26", "29"], "rt": [8182, 42, 7, 271, 31], "actions": ["left", "left", "left", "up", "left"], "actionTimes": [9495, 10052, 10567, 11348, 11895], "queries": {"click": {"state": {"target": ["27", "29"], "time": [2385, 5932]}, "edge": {"target": [], "time": []}}, "mouseover": {"state": {"target": ["27", "27", "29", "33"], "time": [1808, 2275, 2960, 6427]}, "edge": {"target": [], "time": []}}, "mouseout": {"state": {"target": ["16", "1", "27", "27", "29", "33", "11", "9"], "time": [474, 840, 1826, 2693, 6343, 9426, 12624, 12994]}, "edge": {"target": [], "time": []}}}, "displayed_time": "15.31", "trialTime": 16452, "trial_type": "mouselab-mdp", "trial_index": 42, "time_elapsed": 1339638, "internal_node_id": "0.0-6.0-1.0-33.0"}}, {"uniqueid": "w19354974:a61758930", "current_trial": 43, "dateTime": 1693661650951, "trialdata": {"revealed_states": [], "clicked_states": [], "num_clicks_accrued": [0, 0, 0, 0, 0, 0, 0, 0, 0, 0, 0, 0, 0], "stateRewards": ["", 2, -1, -1, 7, 11, -40, -22, -2, 69, 37, 8, -2, 4, -8, -12, -2, -72, -3, -12, 17, 63, 12, 1, 3, -7, 6, 25, 61, 61, -9, 28, -17, 27], "withholdReward": false, "trial_id": "mdp_trial_35", "block": "test", "trialIndex": 36, "score": 64, "costs": 0, "simulationMode": [null, null, null, null, null], "rewards": [1, 3, -7, 6, 61], "path": ["0", "0", "23", "24", "25", "26", "29"], "rt": [903, 476, 86, 84, 2649], "actions": ["left", "left", "left", "up", "left"], "actionTimes": [2351, 3357, 3954, 4570, 7719], "queries": {"click": {"state": {"target": [], "time": []}, "edge": {"target": [], "time": []}}, "mouseover": {"state": {"target": [], "time": []}, "edge": {"target": [], "time": []}}, "mouseout": {"state": {"target": ["18", "0", "14", "13", "29"], "time": [697, 1513, 5131, 5148, 6614]}, "edge": {"target": [], "time": []}}}, "displayed_time": "15.45", "trialTime": 17062, "trial_type": "mouselab-mdp", "trial_index": 43, "time_elapsed": 1357225, "internal_node_id": "0.0-6.0-1.0-34.0"}}, {"uniqueid": "w19354974:a61758930", "current_trial": 44, "dateTime": 1693661667868, "trialdata": {"revealed_states": [], "clicked_states": ["27"], "num_clicks_accrued": [0, 0, 0, 0, 0, 0, 0, 0, 0, 0, 0, 0, 0], "stateRewards": ["", -2, -3, -7, 7, -54, -69, -4, -14, -77, 22, 40, -2, -1, 5, 6, -35, 50, -60, 10, -28, 75, 57, 1, -4, -2, 2, 68, 34, -18, 12, 3, -21, -43], "withholdReward": false, "trial_id": "mdp_trial_36", "block": "test", "trialIndex": 37, "score": 62.85, "costs": -2.15, "simulationMode": [null, null, null, null, null], "rewards": [1, -4, -2, 2, 68], "path": ["0", "0", "23", "24", "25", "26", "27"], "rt": [4280, 61, 39, 61, 23], "actions": ["left", "left", "left", "up", "up"], "actionTimes": [5849, 6425, 6997, 7568, 8113], "queries": {"click": {"state": {"target": ["27"], "time": [2354]}, "edge": {"target": [], "time": []}}, "mouseover": {"state": {"target": ["10", "11", "27", "29"], "time": [1637, 1903, 2203, 3122]}, "edge": {"target": [], "time": []}}, "mouseout": {"state": {"target": ["2", "1", "10", "11", "27", "29", "8", "3", "4"], "time": [848, 901, 1670, 2069, 2873, 5941, 8754, 8773, 8794]}, "edge": {"target": [], "time": []}}}, "displayed_time": "15.57", "trialTime": 16351, "trial_type": "mouselab-mdp", "trial_index": 44, "time_elapsed": 1374143, "internal_node_id": "0.0-6.0-1.0-35.0"}}, {"uniqueid": "w19354974:a61758930", "current_trial": 45, "dateTime": 1693661687700, "trialdata": {"revealed_states": [], "clicked_states": ["27", "29", "33"], "num_clicks_accrued": [0, 0, 0, 0, 0, 0, 0, 0, 0, 0, 0, 0, 0], "stateRewards": ["", 2, 3, 8, 14, 69, -27, 17, 2, -71, -65, -10, 2, -3, 7, 8, 65, -10, 65, -12, 73, -12, 13, -2, -2, 6, 10, -79, -69, -18, 10, -85, 67, 74], "withholdReward": false, "trial_id": "mdp_trial_37", "block": "test", "trialIndex": 38, "score": 79.55, "costs": -6.449999999999999, "simulationMode": [null, null, null, null, null], "rewards": [-2, -2, 6, 10, 74], "path": ["0", "0", "23", "24", "25", "30", "33"], "rt": [11185, 103, 55, 44, 115], "actions": ["left", "left", "left", "down", "left"], "actionTimes": [12907, 13531, 14082, 14637, 15290], "queries": {"click": {"state": {"target": ["27", "29", "33"], "time": [2751, 6062, 9268]}, "edge": {"target": [], "time": []}}, "mouseover": {"state": {"target": ["28", "27", "29", "29", "33", "33", "32"], "time": [1821, 2290, 5308, 5720, 6578, 7174, 9695]}, "edge": {"target": [], "time": []}}, "mouseout": {"state": {"target": ["7", "28", "23", "0", "28", "27", "29", "29", "33", "33", "32", "1"], "time": [639, 988, 1088, 1774, 1872, 4626, 5542, 6527, 6665, 9628, 12847, 18907]}, "edge": {"target": [], "time": []}}}, "displayed_time": "15.82", "trialTime": 19235, "trial_type": "mouselab-mdp", "trial_index": 45, "time_elapsed": 1393975, "internal_node_id": "0.0-6.0-1.0-36.0"}}, {"uniqueid": "w19354974:a61758930", "current_trial": 46, "dateTime": 1693661703425, "trialdata": {"revealed_states": [], "clicked_states": ["27", "29"], "num_clicks_accrued": [0, 0, 0, 0, 0, 0, 0, 0, 0, 0, 0, 0, 0], "stateRewards": ["", 1, 2, -6, -13, -51, 22, -4, -12, -44, -12, 6, -2, -2, -2, -14, -46, -4, -77, -2, 36, -79, 41, 2, -4, 2, -6, -55, 59, 70, -5, 39, -19, 24], "withholdReward": false, "trial_id": "mdp_trial_38", "block": "test", "trialIndex": 39, "score": 59.7, "costs": -4.3, "simulationMode": [null, null, null, null, null], "rewards": [2, -4, 2, -6, 70], "path": ["0", "0", "23", "24", "25", "26", "29"], "rt": [7399, 5, 6, 73, 41], "actions": ["left", "left", "left", "up", "left"], "actionTimes": [8213, 8731, 9267, 9882, 10430], "queries": {"click": {"state": {"target": ["27", "29"], "time": [1788, 4984]}, "edge": {"target": [], "time": []}}, "mouseover": {"state": {"target": ["28", "27", "29", "33"], "time": [1287, 1670, 2289, 5609]}, "edge": {"target": [], "time": []}}, "mouseout": {"state": {"target": ["0", "28", "27", "29", "33", "29", "26", "2", "1", "0"], "time": [1104, 1304, 2189, 5340, 8875, 11120, 11738, 12420, 12486, 13203]}, "edge": {"target": [], "time": []}}}, "displayed_time": "14.82", "trialTime": 15174, "trial_type": "mouselab-mdp", "trial_index": 46, "time_elapsed": 1409699, "internal_node_id": "0.0-6.0-1.0-37.0"}}, {"uniqueid": "w19354974:a61758930", "current_trial": 47, "dateTime": 1693661731004, "trialdata": {"revealed_states": [], "clicked_states": ["27", "29", "33", "32", "9", "5"], "num_clicks_accrued": [0, 0, 0, 0, 0, 0, 0, 0, 0, 0, 0, 0, 0], "stateRewards": ["", 2, -4, 4, 9, 69, 9, -75, 12, -86, 66, 25, -1, 3, 2, -13, -88, -3, 1, 4, -69, 49, -84, 2, -1, 4, 2, -18, -81, -52, -15, -69, -54, 25], "withholdReward": false, "trial_id": "mdp_trial_39", "block": "test", "trialIndex": 40, "score": 67.1, "costs": -12.9, "simulationMode": [null, null, null, null, null], "rewards": [2, -4, 4, 9, 69], "path": ["0", "0", "1", "2", "3", "4", "5"], "rt": [20528, 5, 59, 394, 79], "actions": ["up", "up", "up", "right", "up"], "actionTimes": [21447, 21958, 22530, 23449, 24036], "queries": {"click": {"state": {"target": ["27", "29", "33", "32", "9", "5"], "time": [1795, 5292, 8458, 11812, 14988, 18147]}, "edge": {"target": [], "time": []}}, "mouseover": {"state": {"target": ["28", "27", "29", "33", "32", "10", "9", "5", "6", "16"], "time": [1333, 1668, 2236, 5759, 9187, 12270, 12603, 15503, 18624, 19357]}, "edge": {"target": [], "time": []}}, "mouseout": {"state": {"target": ["0", "28", "27", "27", "29", "33", "32", "10", "9", "5", "6", "16"], "time": [498, 1353, 1876, 2169, 5688, 8853, 12217, 12286, 15338, 18587, 18957, 24783]}, "edge": {"target": [], "time": []}}}, "displayed_time": "24.55", "trialTime": 27016, "trial_type": "mouselab-mdp", "trial_index": 47, "time_elapsed": 1437279, "internal_node_id": "0.0-6.0-1.0-38.0"}}, {"uniqueid": "w19354974:a61758930", "current_trial": 48, "dateTime": 1693661752699, "trialdata": {"revealed_states": [], "clicked_states": ["27", "29", "33", "32"], "num_clicks_accrued": [0, 0, 0, 0, 0, 0, 0, 0, 0, 0, 0, 0, 0], "stateRewards": ["", 1, -2, 7, -14, 88, -56, -44, -14, 64, -51, -57, -2, 3, -4, -9, -11, 19, -77, -1, 68, 75, -67, -1, 1, -2, 5, -37, 70, -34, -10, -72, 63, -41], "withholdReward": false, "trial_id": "mdp_trial_40", "block": "test", "trialIndex": 41, "score": 42.4, "costs": -8.6, "simulationMode": [null, null, null, null, null], "rewards": [-1, 1, -2, -10, 63], "path": ["0", "0", "23", "24", "25", "30", "32"], "rt": [13747, 69, 93, 157, 114], "actions": ["left", "left", "left", "down", "down"], "actionTimes": [15179, 15749, 16356, 17037, 17659], "queries": {"click": {"state": {"target": ["27", "29", "33", "32"], "time": [2128, 5302, 8473, 11676]}, "edge": {"target": [], "time": []}}, "mouseover": {"state": {"target": ["28", "27", "29", "33", "32", "24", "9"], "time": [1689, 1941, 2959, 6060, 9029, 12031, 12679]}, "edge": {"target": [], "time": []}}, "mouseout": {"state": {"target": ["6", "7", "28", "27", "29", "33", "32", "24", "9"], "time": [422, 723, 1724, 2860, 5676, 8812, 12012, 12052, 15024]}, "edge": {"target": [], "time": []}}}, "displayed_time": "18.18", "trialTime": 21152, "trial_type": "mouselab-mdp", "trial_index": 48, "time_elapsed": 1458973, "internal_node_id": "0.0-6.0-1.0-39.0"}}, {"uniqueid": "w19354974:a61758930", "current_trial": 49, "dateTime": 1693661788238, "trialdata": {"rt": 35533, "response": {"Q0": "$-2 to $2", "Q1": "$-16 to $16", "Q2": "$-88 to $88", "Q3": "The cost for clicking on nodes varied between nodes.", "Q4": "Very motivated"}, "question_order": [0, 1, 2, 3, 4], "trial_id": "final_quiz_control", "trial_type": "survey-multi-choice", "trial_index": 49, "time_elapsed": 1494513, "internal_node_id": "0.0-6.0-2.0"}}, {"uniqueid": "w19354974:a61758930", "current_trial": 50, "dateTime": 1693662095814, "trialdata": {"rt": 307565, "response": {"Q0": "In the first few turns I was clicking the nodes closest to the spider and trying to find the most profitable path. Quickly I realised that the most important node was the outermost nodes so I just started clicking on these. If one of theses nodes was +30 or higher I would accept and make the path towards it.", "Q1": "I only changed my strategy once after the first 5 or so turns (see above). After this my strategy remained the same.", "Q2": "It was quite obvious to me what the correct strategy was. As there was no information given on the real cash bonus I would receive I was happy to just make a of profit $30 and above on each turn."}, "trial_id": "self_report_control", "trial_type": "survey-text", "trial_index": 50, "time_elapsed": 1802089, "internal_node_id": "0.0-6.0-3.0"}}, {"uniqueid": "w19354974:a61758930", "current_trial": 51, "dateTime": 1693662138700, "trialdata": {"rt": 42879, "response": {"Q0": "Strongly disagree", "Q1": "Strongly disagree", "Q2": "Strongly agree", "Q3": "Strongly agree", "Q4": "Strongly disagree", "Q5": "Strongly agree", "Q6": "Strongly disagree"}, "question_order": [0, 1, 2, 3, 4, 5, 6], "trial_id": "self_report_2", "trial_type": "survey-multi-choice", "trial_index": 51, "time_elapsed": 1844975, "internal_node_id": "0.0-6.0-4.0"}}, {"uniqueid": "w19354974:a61758930", "current_trial": 52, "dateTime": 1693662156935, "trialdata": {"rt": 18227, "response": {"gender": "male", "age": "31", "colorblind": "0", "effort": "0"}, "trial_type": "survey-html-form", "trial_index": 52, "time_elapsed": 1863210, "internal_node_id": "0.0-6.0-5.0"}}, {"uniqueid": "w19354974:a61758930", "current_trial": 53, "dateTime": 1693662168476, "trialdata": {"rt": 11528, "response": {"Q0": "no", "Q1": "no", "Q2": ""}, "trial_type": "survey-text", "trial_index": 53, "time_elapsed": 1874750, "internal_node_id": "0.0-6.0-6.0"}}, {"uniqueid": "w19354974:a61758930", "current_trial": 54, "dateTime": 1693662197377, "trialdata": {"rt": 28895, "stimulus": "<h1>Completion Code Instructions (1/2)</h1>\n<br><br><br><br>\nYou have reached the end of the experiment! The completion code consists of two parts: (1) a code with 2 characters (2) a code with 6 characters. On this page, you will receive the second part of the code. The first part of the completion code will be on the next page.\n<br><br>\nThe second part of your completion code is: <b>EWEK22</b>\n<br><br>\nPlease note this down. Then, press 'Next' in order to find the first part of your completion code. Once the data has been saved, you will receive this code either in this window or in the original browser window where you started the experiment.\n <br><br>\n<h2 style='color: red;'>Note: this is <strong>NOT</strong> the full completion code. Copy this down and click 'Next' to get the full completion code on the next page.</h2>", "response": 0, "trial_type": "html-button-response", "trial_index": 54, "time_elapsed": 1903652, "internal_node_id": "0.0-6.0-7.0"}}, {"uniqueid": "w19354974:a61758930", "current_trial": 55, "dateTime": 1693662198394, "trialdata": {"success": true, "trial_type": "fullscreen", "trial_index": 55, "time_elapsed": 1904669, "internal_node_id": "0.0-7.0"}}], "questiondata": {"params": {"CODE": "C6DMOQA6", "MIN_TIME": 14, "inspectCost": 1, "startTime": "Sat Sep 02 2023 14:11:32 GMT+0100 (British Summer Time)", "bonusRate": 0.002, "variance": "1_2_4_8_44", "branching": "31123"}, "final_score": 2068.65}, "eventdata": [{"eventtype": "initialized", "value": null, "timestamp": 1693660292509, "interval": 0}, {"eventtype": "window_resize", "value": [1024, 767], "timestamp": 1693660292509, "interval": 0}, {"eventtype": "window_resize", "value": [1024, 767], "timestamp": 1693660292849, "interval": 340}, {"eventtype": "focus", "value": "off", "timestamp": 1693660297510, "interval": 4661}, {"eventtype": "focus", "value": "on", "timestamp": 1693660318739, "interval": 21229}, {"eventtype": "focus", "value": "off", "timestamp": 1693660322384, "interval": 3645}, {"eventtype": "focus", "value": "on", "timestamp": 1693660324935, "interval": 2551}, {"eventtype": "window_resize", "value": [1600, 900], "timestamp": 1693660326416, "interval": 1481}, {"eventtype": "window_resize", "value": [1024, 767], "timestamp": 1693660419552, "interval": 93136}, {"eventtype": "focus", "value": "off", "timestamp": 1693660423446, "interval": 3894}, {"eventtype": "focus", "value": "on", "timestamp": 1693660427511, "interval": 4065}, {"eventtype": "window_resize", "value": [1600, 794], "timestamp": 1693660428663, "interval": 1152}, {"eventtype": "focus", "value": "off", "timestamp": 1693660501133, "interval": 72470}, {"eventtype": "focus", "value": "on", "timestamp": 1693660506848, "interval": 5715}, {"eventtype": "focus", "value": "off", "timestamp": 1693660546240, "interval": 39392}, {"eventtype": "focus", "value": "on", "timestamp": 1693660549934, "interval": 3694}, {"eventtype": "focus", "value": "off", "timestamp": 1693660602942, "interval": 53008}, {"eventtype": "focus", "value": "on", "timestamp": 1693660610924, "interval": 7982}, {"eventtype": "focus", "value": "off", "timestamp": 1693660625498, "interval": 14574}, {"eventtype": "focus", "value": "on", "timestamp": 1693660628505, "interval": 3007}, {"eventtype": "focus", "value": "off", "timestamp": 1693660759303, "interval": 130798}, {"eventtype": "focus", "value": "on", "timestamp": 1693660759324, "interval": 21}, {"eventtype": "focus", "value": "off", "timestamp": 1693660759406, "interval": 82}, {"eventtype": "focus", "value": "on", "timestamp": 1693660762818, "interval": 3412}, {"eventtype": "focus", "value": "off", "timestamp": 1693660830903, "interval": 68085}, {"eventtype": "focus", "value": "on", "timestamp": 1693660839866, "interval": 8963}, {"eventtype": "focus", "value": "off", "timestamp": 1693660865210, "interval": 25344}, {"eventtype": "focus", "value": "on", "timestamp": 1693660877879, "interval": 12669}, {"eventtype": "focus", "value": "off", "timestamp": 1693660885308, "interval": 7429}, {"eventtype": "focus", "value": "on", "timestamp": 1693660894357, "interval": 9049}, {"eventtype": "focus", "value": "off", "timestamp": 1693662184385, "interval": 1290028}, {"eventtype": "focus", "value": "on", "timestamp": 1693662187905, "interval": 3520}], "useragent": "Mozilla/5.0 (Windows NT 10.0; Win64; x64) AppleWebKit/537.36 (KHTML, like Gecko) Chrome/116.0.0.0 Safari/537.36", "mode": "live", "id": "w19354974:a61758930", "status": "user data saved", "Beginhit": "2023-09-02 13:11:30.362997", "Beginexp": "2023-09-02 13:12:06.369864", "Endhit": "2023-09-02 13:43:17.99775", "psiturkStatus": 3, "browser": "<redacted>", "platform": "windows", "language": "en-GB"}