{"condition": 0, "counterbalance": 0, "assignmentId": "a22669364", "workerId": "w93649485", "hitId": "h47506563", "currenttrial": 10, "bonus": 0, "data": [{"uniqueid": "w93649485:a22669364", "current_trial": 0, "dateTime": 1693388074884, "trialdata": {"success": true, "trial_type": "fullscreen", "trial_index": 0, "time_elapsed": 2294, "internal_node_id": "0.0-0.0"}}, {"uniqueid": "w93649485:a22669364", "current_trial": 1, "dateTime": 1693388075702, "trialdata": {"view_history": [{"page_index": 0, "viewing_time": 815}], "rt": 816, "trial_id": "exp_instructions_control", "trial_type": "instructions", "trial_index": 1, "time_elapsed": 3113, "internal_node_id": "0.0-1.0"}}, {"uniqueid": "w93649485:a22669364", "current_trial": 2, "dateTime": 1693388080667, "trialdata": {"view_history": [{"page_index": 0, "viewing_time": 1369}, {"page_index": 1, "viewing_time": 1338}, {"page_index": 2, "viewing_time": 1481}, {"page_index": 3, "viewing_time": 776}], "rt": 4964, "trial_id": "mouselab_instructions_1_control", "trial_type": "instructions", "trial_index": 2, "time_elapsed": 8078, "internal_node_id": "0.0-2.0-1.0"}}, {"uniqueid": "w93649485:a22669364", "current_trial": 3, "dateTime": 1693388088043, "trialdata": {"revealed_states": [], "clicked_states": ["13", "18"], "num_clicks_accrued": [0, 0, 0, 0, 0, 0, 0, 0, 0, 0, 0, 0, 0], "stateRewards": ["", -10, -10, -10, 10, 10, -10, -10, 10, 10, 10, 10, 10, 10, -10, -10, 10, 10, 10, 10, -10, -10, 10, 10, -10, -10, -10, 10, 10, -10, 10, -10, -10, 10], "withholdReward": false, "trial_id": "practice_1", "block": "test", "trialIndex": 0, "score": 12.5, "costs": -1, "simulationMode": [null, null, null, null, null], "rewards": [10, 10, -10, -10, 10], "path": ["0", "0", "12", "13", "14", "15", "16"], "rt": [2739, 103, 104, 80, 120], "actions": ["right", "right", "right", "up", "up"], "actionTimes": [3973, 4596, 5212, 5804, 6444], "queries": {"click": {"state": {"target": ["13", "18"], "time": [1724, 2740]}, "edge": {"target": [], "time": []}}, "mouseover": {"state": {"target": ["12", "13", "18", "12"], "time": [1243, 1594, 1979, 3276]}, "edge": {"target": [], "time": []}}, "mouseout": {"state": {"target": ["26", "24", "23", "0", "12", "13", "18", "12"], "time": [345, 395, 429, 644, 1270, 1858, 3208, 3391]}, "edge": {"target": [], "time": []}}}, "displayed_time": "6.96", "trialTime": 6989, "trial_type": "mouselab-mdp", "trial_index": 3, "time_elapsed": 15454, "internal_node_id": "0.0-2.0-2.0-0.0"}}, {"uniqueid": "w93649485:a22669364", "current_trial": 4, "dateTime": 1693388095570, "trialdata": {"revealed_states": [], "clicked_states": ["12", "14", "19"], "num_clicks_accrued": [0, 0, 0, 0, 0, 0, 0, 0, 0, 0, 0, 0, 0], "stateRewards": ["", 10, 10, 10, 10, 10, 10, -10, -10, -10, -10, -10, -10, 10, 10, 10, 10, 10, 10, 10, -10, 10, -10, 10, 10, 10, 10, -10, -10, -10, 10, -10, 10, 10], "withholdReward": false, "trial_id": "practice_2", "block": "test", "trialIndex": 1, "score": 32, "costs": -1.5, "simulationMode": [null, null, null, null, null, null], "rewards": [-10, 10, 10, 10, 10], "path": ["0", "0", "12", "13", "14", "19", "21"], "rt": [3213, 149, 79, 104, 120, 95], "actions": ["right", "right", "right", "right", "down", "down"], "actionTimes": [4156, 4306, 4899, 5508, 6139, 6763], "queries": {"click": {"state": {"target": ["12", "14", "19"], "time": [1041, 2115, 3161]}, "edge": {"target": [], "time": []}}, "mouseover": {"state": {"target": ["12", "13", "14", "19", "19"], "time": [989, 1371, 1887, 2355, 2639]}, "edge": {"target": [], "time": []}}, "mouseout": {"state": {"target": ["12", "0", "12", "13", "14", "14", "19"], "time": [456, 951, 1288, 1655, 2167, 2337, 2372]}, "edge": {"target": [], "time": []}}}, "displayed_time": "7.27", "trialTime": 7315, "trial_type": "mouselab-mdp", "trial_index": 4, "time_elapsed": 22981, "internal_node_id": "0.0-2.0-2.0-1.0"}}, {"uniqueid": "w93649485:a22669364", "current_trial": 5, "dateTime": 1693388098708, "trialdata": {"view_history": [{"page_index": 0, "viewing_time": 1863}, {"page_index": 1, "viewing_time": 1272}], "rt": 3136, "trial_id": "mouselab_instructions_2_control", "trial_type": "instructions", "trial_index": 5, "time_elapsed": 26119, "internal_node_id": "0.0-2.0-3.0"}}, {"uniqueid": "w93649485:a22669364", "current_trial": 6, "dateTime": 1693388148629, "trialdata": {"rt": 49917, "response": {"Q0": "The cost for clicking on nodes may vary between nodes.", "Q1": "The better I perform the higher my bonus will be.", "Q2": "No, the amount of cash at each node of the web may be different each time.", "Q3": "To get the highest total score.", "Q4": "Only before moving the spider.", "Q5": "3 seconds"}, "question_order": [0, 1, 2, 3, 4, 5], "correct": {"Q0": "The cost for clicking on nodes may vary between nodes.", "Q1": "The better I perform the higher my bonus will be.", "Q2": "No, the amount of cash at each node of the web may be different each time.", "Q3": "To get the highest total score.", "Q4": "Only before moving the spider.", "Q5": "3 seconds"}, "trial_id": "mouselab_quiz_control", "trial_type": "survey-multi-choice", "trial_index": 6, "time_elapsed": 76040, "internal_node_id": "0.0-2.0-4.0"}}, {"uniqueid": "w93649485:a22669364", "current_trial": 7, "dateTime": 1693388150965, "trialdata": {"rt": 2326, "response": {"Q0": "No"}, "question_order": [0], "trial_id": "repeat_check", "trial_type": "survey-multi-choice", "trial_index": 7, "time_elapsed": 78375, "internal_node_id": "0.0-4.0-0.0"}}, {"uniqueid": "w93649485:a22669364", "current_trial": 8, "dateTime": 1693388152403, "trialdata": {"rt": 1433, "stimulus": "\n<h1> Get ready to start the game! </h1>\n\nThank you for reading the instructions. Get ready start with the 40 rounds of this game.\n<br><br>\nIf you need to take a break, feel free to take one after the end of a round, before continuing to the next one.\n<br><br>\nRemember, the more money the spider gets, the bigger your bonus will be!\n<br><br>\n<div style='text-align: center;'>Press <code>space</code> to begin.</div>\n\n<br><br>\n(If, at any point, the <code>space</code> key does not take you to the next page, click once on the text and try again.)", "response": " ", "trial_id": "mdp_ready", "trial_type": "html-keyboard-response", "trial_index": 8, "time_elapsed": 79814, "internal_node_id": "0.0-6.0-0.0"}}, {"uniqueid": "w93649485:a22669364", "current_trial": 9, "dateTime": 1693388167504, "trialdata": {"revealed_states": [], "clicked_states": ["23", "28"], "num_clicks_accrued": [0, 0, 0, 0, 0, 0, 0, 0, 0, 0, 0, 0, 0], "stateRewards": ["", -2, -2, -3, -6, -15, -11, 41, -12, -63, -76, 2, -2, -3, 8, 9, -36, -2, -18, -16, -32, -85, -17, -2, 1, 5, -16, 82, 35, -88, -1, 80, -82, -20], "withholdReward": false, "trial_id": "mdp_trial_1", "block": "test", "trialIndex": 2, "score": 20.2, "costs": -2.8, "simulationMode": [null, null, null, null, null, null], "rewards": [-2, 1, 5, -16, 35], "path": ["0", "0", "23", "24", "25", "26", "28"], "rt": [3168, 213, 164, 203, 125, 132], "actions": ["left", "left", "left", "left", "up", "right"], "actionTimes": [3972, 4187, 4880, 5600, 6223, 6875], "queries": {"click": {"state": {"target": ["23", "28"], "time": [1582, 3114]}, "edge": {"target": [], "time": []}}, "mouseover": {"state": {"target": ["23", "23", "24", "28"], "time": [1097, 1450, 1811, 1895]}, "edge": {"target": [], "time": []}}, "mouseout": {"state": {"target": ["8", "2", "1", "0", "23", "23", "24", "28", "24"], "time": [82, 147, 532, 1081, 1202, 1779, 1846, 7609, 8511]}, "edge": {"target": [], "time": []}}}, "displayed_time": "14.81", "trialTime": 14847, "trial_type": "mouselab-mdp", "trial_index": 9, "time_elapsed": 94914, "internal_node_id": "0.0-6.0-1.0-0.0"}}], "questiondata": {"params": {"CODE": "C6DMOQA6", "MIN_TIME": 14, "inspectCost": 1, "startTime": "Wed Aug 30 2023 11:34:29 GMT+0200 (Central European Summer Time)", "bonusRate": 0.002, "variance": "1_2_4_8_44", "branching": "31123"}}, "eventdata": [{"eventtype": "initialized", "value": null, "timestamp": 1693388069004, "interval": 0}, {"eventtype": "window_resize", "value": [1024, 741], "timestamp": 1693388069004, "interval": 0}, {"eventtype": "window_resize", "value": [1024, 741], "timestamp": 1693388069335, "interval": 331}, {"eventtype": "focus", "value": "off", "timestamp": 1693388072451, "interval": 3116}, {"eventtype": "focus", "value": "on", "timestamp": 1693388072451, "interval": 0}, {"eventtype": "window_resize", "value": [1440, 900], "timestamp": 1693388074119, "interval": 1668}, {"eventtype": "window_resize", "value": [1024, 741], "timestamp": 1693388107289, "interval": 33170}, {"eventtype": "focus", "value": "off", "timestamp": 1693388108647, "interval": 1358}, {"eventtype": "focus", "value": "on", "timestamp": 1693388138283, "interval": 29636}], "useragent": "Mozilla/5.0 (Macintosh; Intel Mac OS X 10_15_7) AppleWebKit/537.36 (KHTML, like Gecko) Chrome/115.0.0.0 Safari/537.36", "mode": "debug", "id": "w93649485:a22669364", "status": "user data saved", "Beginhit": "2023-08-30 09:34:24.440662", "Beginexp": "2023-08-30 09:34:34.957578", "Endhit": null, "psiturkStatus": 2, "browser": "<redacted>", "platform": "macos", "language": "en-US", "excludeReason": "dataincomplete"}