{"condition": 0, "counterbalance": 0, "assignmentId": "a15254098", "workerId": "w84300886", "hitId": "h39910789", "currenttrial": 9, "bonus": 0, "data": [{"uniqueid": "w84300886:a15254098", "current_trial": 0, "dateTime": 1691070013982, "trialdata": {"success": true, "trial_type": "fullscreen", "trial_index": 0, "time_elapsed": 2497, "internal_node_id": "0.0-0.0"}}, {"uniqueid": "w84300886:a15254098", "current_trial": 1, "dateTime": 1691070014760, "trialdata": {"view_history": [{"page_index": 0, "viewing_time": 771}], "rt": 772, "trial_id": "exp_instructions_control", "trial_type": "instructions", "trial_index": 1, "time_elapsed": 3276, "internal_node_id": "0.0-1.0"}}, {"uniqueid": "w84300886:a15254098", "current_trial": 2, "dateTime": 1691070016828, "trialdata": {"success": true, "trial_type": "fullscreen", "trial_index": 2, "time_elapsed": 5344, "internal_node_id": "0.0-2.0-0.0"}}, {"uniqueid": "w84300886:a15254098", "current_trial": 3, "dateTime": 1691070021210, "trialdata": {"view_history": [{"page_index": 0, "viewing_time": 1283}, {"page_index": 1, "viewing_time": 1262}, {"page_index": 2, "viewing_time": 1290}, {"page_index": 3, "viewing_time": 547}], "rt": 4382, "trial_id": "mouselab_instructions_1_control", "trial_type": "instructions", "trial_index": 3, "time_elapsed": 9726, "internal_node_id": "0.0-2.0-1.0"}}, {"uniqueid": "w84300886:a15254098", "current_trial": 4, "dateTime": 1691070026289, "trialdata": {"revealed_states": [], "clicked_states": [], "num_clicks_accrued": [0, 0, 0, 0, 0, 0, 0, 0, 0, 0, 0, 0, 0], "stateRewards": ["", 10, -10, 10, 10, -10, -10, -10, -10, -10, -10, 10, -10, 10, 10, 10, 10, 10, 10, 10, 10, 10, -10, -10, 10, 10, -10, 10, -10, -10, -10, 10, 10, -10], "withholdReward": false, "trial_id": "practice_1", "block": "test", "trialIndex": 0, "score": 13.5, "costs": 0, "simulationMode": [null, null, null, null, null], "rewards": [-10, 10, 10, -10, 10], "path": ["0", "0", "23", "24", "25", "30", "32"], "rt": [522, 64, 16, 157, 9], "actions": ["left", "left", "left", "down", "down"], "actionTimes": [1634, 2216, 2751, 3425, 3943], "queries": {"click": {"state": {"target": [], "time": []}, "edge": {"target": [], "time": []}}, "mouseover": {"state": {"target": [], "time": []}, "edge": {"target": [], "time": []}}, "mouseout": {"state": {"target": ["0"], "time": [485]}, "edge": {"target": [], "time": []}}}, "displayed_time": "4.47", "trialTime": 4640, "trial_type": "mouselab-mdp", "trial_index": 4, "time_elapsed": 14805, "internal_node_id": "0.0-2.0-2.0-0.0"}}, {"uniqueid": "w84300886:a15254098", "current_trial": 5, "dateTime": 1691070034505, "trialdata": {"revealed_states": [], "clicked_states": ["12", "13", "14"], "num_clicks_accrued": [0, 0, 0, 0, 0, 0, 0, 0, 0, 0, 0, 0, 0], "stateRewards": ["", 10, -10, -10, -10, 10, -10, 10, 10, 10, -10, -10, -10, -10, 10, 10, 10, -10, 10, 10, -10, 10, 10, -10, -10, 10, -10, -10, -10, 10, -10, 10, -10, 10], "withholdReward": false, "trial_id": "practice_2", "block": "test", "trialIndex": 1, "score": 12, "costs": -1.5, "simulationMode": [null, null, null, null, null], "rewards": [-10, -10, 10, 10, 10], "path": ["0", "0", "12", "13", "14", "15", "16"], "rt": [4170, 93, 148, 147, 26], "actions": ["right", "right", "right", "up", "up"], "actionTimes": [4742, 5349, 6005, 6669, 7212], "queries": {"click": {"state": {"target": ["12", "13", "14"], "time": [1010, 2095, 3241]}, "edge": {"target": [], "time": []}}, "mouseover": {"state": {"target": ["12", "13", "14", "15"], "time": [758, 1423, 2257, 3539]}, "edge": {"target": [], "time": []}}, "mouseout": {"state": {"target": ["0", "12", "0", "12", "13", "14"], "time": [43, 340, 724, 1241, 2239, 3371]}, "edge": {"target": [], "time": []}}}, "displayed_time": "7.72", "trialTime": 7981, "trial_type": "mouselab-mdp", "trial_index": 5, "time_elapsed": 23020, "internal_node_id": "0.0-2.0-2.0-1.0"}}, {"uniqueid": "w84300886:a15254098", "current_trial": 6, "dateTime": 1691070037118, "trialdata": {"view_history": [{"page_index": 0, "viewing_time": 1625}, {"page_index": 1, "viewing_time": 986}], "rt": 2612, "trial_id": "mouselab_instructions_2_control", "trial_type": "instructions", "trial_index": 6, "time_elapsed": 25634, "internal_node_id": "0.0-2.0-3.0"}}, {"uniqueid": "w84300886:a15254098", "current_trial": 7, "dateTime": 1691070043514, "trialdata": {"rt": 6393, "response": {"Q0": "The cost for clicking on nodes may vary between nodes.", "Q1": "The better I perform the higher my bonus will be.", "Q2": "No, the amount of cash at each node of the web may be different each time.", "Q3": "To get the highest total score.", "Q4": "Only before moving the spider.", "Q5": "3 seconds"}, "question_order": [0, 1, 2, 3, 4, 5], "correct": {"Q0": "The cost for clicking on nodes may vary between nodes.", "Q1": "The better I perform the higher my bonus will be.", "Q2": "No, the amount of cash at each node of the web may be different each time.", "Q3": "To get the highest total score.", "Q4": "Only before moving the spider.", "Q5": "3 seconds"}, "trial_id": "mouselab_quiz_control", "trial_type": "survey-multi-choice", "trial_index": 7, "time_elapsed": 32030, "internal_node_id": "0.0-2.0-4.0"}}, {"uniqueid": "w84300886:a15254098", "current_trial": 8, "dateTime": 1691070044993, "trialdata": {"rt": 1471, "stimulus": "\n<h1> Get ready to start the game! </h1>\n\nThank you for reading the instructions. Get ready start with the 40 rounds of this game.\n<br><br>\nIf you need to take a break, feel free to take one after the end of a round, before continuing to the next one.\n<br><br>\nRemember, the more money the spider gets, the bigger your bonus will be!\n<br><br>\n<div style='text-align: center;'>Press <code>space</code> to begin.</div>\n\n<br><br>\n(If, at any point, the <code>space</code> key does not take you to the next page, click once on the text and try again.)", "response": " ", "trial_id": "mdp_ready", "trial_type": "html-keyboard-response", "trial_index": 8, "time_elapsed": 33509, "internal_node_id": "0.0-4.0-0.0"}}], "questiondata": {"params": {"CODE": "C6DMOQA6", "MIN_TIME": 14, "inspectCost": 1, "startTime": "Thu Aug 03 2023 15:40:08 GMT+0200 (Central European Summer Time)", "bonusRate": 0.002, "variance": "1_2_4_8_44", "branching": "31123"}}, "eventdata": [{"eventtype": "initialized", "value": null, "timestamp": 1691070008415, "interval": 0}, {"eventtype": "window_resize", "value": [1024, 731], "timestamp": 1691070008415, "interval": 0}, {"eventtype": "window_resize", "value": [1024, 731], "timestamp": 1691070008741, "interval": 326}, {"eventtype": "window_resize", "value": [1440, 900], "timestamp": 1691070013269, "interval": 4528}], "useragent": "Mozilla/5.0 (Macintosh; Intel Mac OS X 10_15_7) AppleWebKit/537.36 (KHTML, like Gecko) Chrome/115.0.0.0 Safari/537.36", "mode": "debug", "id": "w84300886:a15254098", "status": "user data saved", "Beginhit": "2023-08-03 13:40:07.268254", "Beginexp": "2023-08-03 13:40:14.217636", "Endhit": null, "psiturkStatus": 2, "browser": "<redacted>", "platform": "macos", "language": "en-US", "excludeReason": "quizfail"}