{"condition": 0, "counterbalance": 0, "assignmentId": "a72084388", "workerId": "w87101981", "hitId": "h98859292", "currenttrial": 55, "bonus": 0, "data": [{"uniqueid": "w87101981:a72084388", "current_trial": 0, "dateTime": 1691160180137, "trialdata": {"success": true, "trial_type": "fullscreen", "trial_index": 0, "time_elapsed": 6643, "internal_node_id": "0.0-0.0"}}, {"uniqueid": "w87101981:a72084388", "current_trial": 1, "dateTime": 1691160251072, "trialdata": {"view_history": [{"page_index": 0, "viewing_time": 70919}], "rt": 70922, "trial_id": "exp_instructions_control", "trial_type": "instructions", "trial_index": 1, "time_elapsed": 77580, "internal_node_id": "0.0-1.0"}}, {"uniqueid": "w87101981:a72084388", "current_trial": 2, "dateTime": 1691160254787, "trialdata": {"success": true, "trial_type": "fullscreen", "trial_index": 2, "time_elapsed": 81295, "internal_node_id": "0.0-2.0-0.0"}}, {"uniqueid": "w87101981:a72084388", "current_trial": 3, "dateTime": 1691160527181, "trialdata": {"view_history": [{"page_index": 0, "viewing_time": 77985}, {"page_index": 1, "viewing_time": 98272}, {"page_index": 2, "viewing_time": 48400}, {"page_index": 3, "viewing_time": 47732}], "rt": 272391, "trial_id": "mouselab_instructions_1_control", "trial_type": "instructions", "trial_index": 3, "time_elapsed": 353689, "internal_node_id": "0.0-2.0-1.0"}}, {"uniqueid": "w87101981:a72084388", "current_trial": 4, "dateTime": 1691160557156, "trialdata": {"revealed_states": [], "clicked_states": ["26", "30", "19", "15"], "num_clicks_accrued": [0, 0, 0, 0, 0, 0, 0, 0, 0, 0, 0, 0, 0], "stateRewards": ["", 10, -10, -10, 10, 10, -10, 10, 10, 10, -10, -10, 10, 10, 10, 10, -10, 10, -10, 10, 10, -10, 10, 10, -10, -10, -10, -10, 10, 10, 10, 10, 10, -10], "withholdReward": false, "trial_id": "practice_1", "block": "test", "trialIndex": 0, "score": 51.5, "costs": -2, "simulationMode": [null, null, null, null, null], "rewards": [10, 10, 10, 10, 10], "path": ["0", "0", "12", "13", "14", "15", "17"], "rt": [13884, 634, 1193, 417, 1911], "actions": ["right", "right", "right", "up", "right"], "actionTimes": [17820, 18945, 20637, 21563, 23981], "queries": {"click": {"state": {"target": ["26", "30", "19", "15"], "time": [8021, 10226, 11536, 12654]}, "edge": {"target": [], "time": []}}, "mouseover": {"state": {"target": ["30", "29", "26", "28", "7", "27", "29", "29", "26", "29", "25", "31", "30", "31", "22", "19", "14", "15", "15", "10", "23"], "time": [6203, 6281, 6348, 6382, 6503, 6823, 6906, 7102, 7437, 8754, 9393, 9454, 9788, 10936, 11053, 11118, 12118, 12202, 12444, 14721, 14878]}, "edge": {"target": [], "time": []}}, "mouseout": {"state": {"target": ["4", "33", "24", "23", "0", "1", "23", "0", "32", "30", "0", "23", "0", "30", "29", "26", "28", "7", "27", "29", "29", "26", "29", "26", "25", "31", "30", "31", "22", "19", "14", "15", "15", "10", "23"], "time": [null, 1048, 1419, 1433, 1460, 1586, 1831, 2233, 2485, 2561, 2852, 3030, 5950, 6234, 6314, 6365, 6398, 6607, 6838, 6934, 7118, 8716, 9189, 9372, 9411, 9475, 10933, 10968, 11086, 12071, 12170, 12285, 13377, 14777, 15006]}, "edge": {"target": [], "time": []}}}, "displayed_time": "24.49", "trialTime": 29419, "trial_type": "mouselab-mdp", "trial_index": 4, "time_elapsed": 383663, "internal_node_id": "0.0-2.0-2.0-0.0"}}, {"uniqueid": "w87101981:a72084388", "current_trial": 5, "dateTime": 1691160580909, "trialdata": {"revealed_states": [], "clicked_states": ["3", "5"], "num_clicks_accrued": [0, 0, 0, 0, 0, 0, 0, 0, 0, 0, 0, 0, 0], "stateRewards": ["", -10, -10, 10, -10, 10, 10, -10, 10, 10, -10, 10, -10, -10, 10, -10, -10, -10, -10, -10, -10, 10, -10, 10, -10, 10, 10, -10, 10, -10, -10, 10, -10, 10], "withholdReward": false, "trial_id": "practice_2", "block": "test", "trialIndex": 1, "score": -7.5, "costs": -1, "simulationMode": [null, null, null, null, null], "rewards": [-10, -10, 10, -10, 10], "path": ["0", "0", "1", "2", "3", "4", "5"], "rt": [10499, 37, 127, 226, 166], "actions": ["up", "up", "up", "right", "up"], "actionTimes": [12953, 13492, 14157, 14882, 15567], "queries": {"click": {"state": {"target": ["3", "5"], "time": [5618, 10390]}, "edge": {"target": [], "time": []}}, "mouseover": {"state": {"target": ["12", "22", "21", "32", "2", "7", "3", "18", "13", "24", "11", "11", "8", "5", "4", "18", "13", "21"], "time": [3306, 3342, 3369, 3803, 4756, 4790, 5242, 7276, 7307, 7474, 7778, 8197, 9647, 10097, 10844, 10911, 10928, 10994]}, "edge": {"target": [], "time": []}}, "mouseout": {"state": {"target": ["0", "12", "22", "21", "32", "2", "7", "3", "18", "13", "24", "11", "11", "8", "5", "4", "18", "13", "21"], "time": [3288, 3319, 3355, 3388, 3943, 4773, 4923, 7168, 7293, 7360, 7491, 7828, 9627, 9692, 10812, 10859, 10926, 10945, 11077]}, "edge": {"target": [], "time": []}}}, "displayed_time": "16.09", "trialTime": 23506, "trial_type": "mouselab-mdp", "trial_index": 5, "time_elapsed": 407415, "internal_node_id": "0.0-2.0-2.0-1.0"}}, {"uniqueid": "w87101981:a72084388", "current_trial": 6, "dateTime": 1691160635532, "trialdata": {"view_history": [{"page_index": 0, "viewing_time": 39751}, {"page_index": 1, "viewing_time": 14863}], "rt": 54615, "trial_id": "mouselab_instructions_2_control", "trial_type": "instructions", "trial_index": 6, "time_elapsed": 462040, "internal_node_id": "0.0-2.0-3.0"}}, {"uniqueid": "w87101981:a72084388", "current_trial": 7, "dateTime": 1691160728015, "trialdata": {"rt": 92473, "response": {"Q0": "The cost for clicking on nodes may vary between nodes.", "Q1": "The better I perform the higher my bonus will be.", "Q2": "No, the amount of cash at each node of the web may be different each time.", "Q3": "To get the highest total score.", "Q4": "Only before moving the spider.", "Q5": "3 seconds"}, "question_order": [0, 1, 2, 3, 4, 5], "correct": {"Q0": "The cost for clicking on nodes may vary between nodes.", "Q1": "The better I perform the higher my bonus will be.", "Q2": "No, the amount of cash at each node of the web may be different each time.", "Q3": "To get the highest total score.", "Q4": "Only before moving the spider.", "Q5": "3 seconds"}, "trial_id": "mouselab_quiz_control", "trial_type": "survey-multi-choice", "trial_index": 7, "time_elapsed": 554522, "internal_node_id": "0.0-2.0-4.0"}}, {"uniqueid": "w87101981:a72084388", "current_trial": 8, "dateTime": 1691160741256, "trialdata": {"rt": 13221, "stimulus": "\n<h1> Get ready to start the game! </h1>\n\nThank you for reading the instructions. Get ready start with the 40 rounds of this game.\n<br><br>\nIf you need to take a break, feel free to take one after the end of a round, before continuing to the next one.\n<br><br>\nRemember, the more money the spider gets, the bigger your bonus will be!\n<br><br>\n<div style='text-align: center;'>Press <code>space</code> to begin.</div>\n\n<br><br>\n(If, at any point, the <code>space</code> key does not take you to the next page, click once on the text and try again.)", "response": " ", "trial_id": "mdp_ready", "trial_type": "html-keyboard-response", "trial_index": 8, "time_elapsed": 567764, "internal_node_id": "0.0-4.0-0.0"}}, {"uniqueid": "w87101981:a72084388", "current_trial": 9, "dateTime": 1691160762710, "trialdata": {"revealed_states": [], "clicked_states": ["25"], "num_clicks_accrued": [0, 0, 0, 0, 0, 0, 0, 0, 0, 0, 0, 0, 0], "stateRewards": ["", 1, 1, -5, 8, -6, 45, 16, -6, -7, -22, -38, -1, -4, 8, -11, -16, 21, -45, -15, -59, -32, 42, -1, 3, 6, 11, -7, 34, -27, -8, 85, 43, -9], "withholdReward": false, "trial_id": "mdp_trial_1", "block": "test", "trialIndex": 2, "score": -9.399999999999999, "costs": -1.4, "simulationMode": [null, null, null, null, null], "rewards": [-1, 3, 6, 11, -27], "path": ["0", "0", "23", "24", "25", "26", "29"], "rt": [8410, 1145, 526, 298, 1079], "actions": ["left", "left", "left", "up", "left"], "actionTimes": [11267, 12915, 13963, 14769, 16359], "queries": {"click": {"state": {"target": ["25"], "time": [5179]}, "edge": {"target": [], "time": []}}, "mouseover": {"state": {"target": ["12", "22", "12", "0", "23", "24", "25", "31"], "time": [3727, 4176, 4232, 4246, 4294, 4694, 5044, 8320]}, "edge": {"target": [], "time": []}}, "mouseout": {"state": {"target": ["27", "8", "3", "4", "26", "0", "12", "22", "12", "0", "23", "24", "25", "25", "31"], "time": [28, 410, 427, 446, 709, 3295, 3744, 4194, 4243, 4258, 4331, 4778, 5283, 5882, 8330]}, "edge": {"target": [], "time": []}}}, "displayed_time": "16.86", "trialTime": 21195, "trial_type": "mouselab-mdp", "trial_index": 9, "time_elapsed": 589217, "internal_node_id": "0.0-4.0-1.0-0.0"}}, {"uniqueid": "w87101981:a72084388", "current_trial": 10, "dateTime": 1691160813156, "trialdata": {"revealed_states": [], "clicked_states": [], "num_clicks_accrued": [0, 0, 0, 0, 0, 0, 0, 0, 0, 0, 0, 0, 0], "stateRewards": ["", -1, 3, -7, 16, -32, -74, -48, 2, 10, 15, -30, 1, 1, -2, 10, 12, -83, 67, 13, -66, 47, 65, -2, 4, 2, -14, -8, -57, 24, 9, 65, 12, 46], "withholdReward": false, "trial_id": "mdp_trial_2", "block": "test", "trialIndex": 3, "score": -33, "costs": 0, "simulationMode": [null, null, null, null, null], "rewards": [-1, 3, -7, 2, -30], "path": ["0", "0", "1", "2", "3", "8", "11"], "rt": [2992, 531, 543, 438, 152], "actions": ["up", "up", "up", "left", "left"], "actionTimes": [5285, 6308, 7356, 8304, 8948], "queries": {"click": {"state": {"target": [], "time": []}, "edge": {"target": [], "time": []}}, "mouseover": {"state": {"target": [], "time": []}, "edge": {"target": [], "time": []}}, "mouseout": {"state": {"target": ["12", "0", "32", "12"], "time": [1557, 2394, 45851, 46981]}, "edge": {"target": [], "time": []}}}, "displayed_time": "16.30", "trialTime": 50185, "trial_type": "mouselab-mdp", "trial_index": 10, "time_elapsed": 639662, "internal_node_id": "0.0-4.0-1.0-1.0"}}, {"uniqueid": "w87101981:a72084388", "current_trial": 11, "dateTime": 1691160850840, "trialdata": {"revealed_states": [], "clicked_states": ["12", "13", "14", "15", "18", "19", "21"], "num_clicks_accrued": [0, 0, 0, 0, 0, 0, 0, 0, 0, 0, 0, 0, 0], "stateRewards": ["", -2, -1, -6, -14, -55, 78, -13, 11, 14, -71, 59, 2, 2, 6, -6, 9, 38, 14, 7, 85, 11, 68, 1, -4, -1, -3, -63, -85, 9, -2, 63, -86, -10], "withholdReward": false, "trial_id": "mdp_trial_3", "block": "test", "trialIndex": 4, "score": 18.2, "costs": -9.8, "simulationMode": [null, null, null, null, null], "rewards": [2, 2, 6, 7, 11], "path": ["0", "0", "12", "13", "14", "19", "21"], "rt": [20980, 47, 242, 474, 219], "actions": ["right", "right", "right", "down", "down"], "actionTimes": [24566, 25138, 25903, 26892, 27616], "queries": {"click": {"state": {"target": ["12", "13", "14", "15", "18", "19", "21"], "time": [4932, 6792, 8943, 11121, 14258, 16161, 19702]}, "edge": {"target": [], "time": []}}, "mouseover": {"state": {"target": ["12", "25", "24", "23", "12", "13", "15", "15", "14", "13", "12", "13", "14", "15", "16", "15", "18", "18", "18", "13", "19", "21", "21", "31", "30", "33", "33", "30"], "time": [3604, 3909, 3925, 3937, 3966, 3998, 4033, 4099, 4255, 4552, 4624, 5551, 7504, 9222, 9270, 9538, 11724, 13007, 14091, 14619, 15094, 16396, 19468, 20022, 20050, 20098, 22823, 22837]}, "edge": {"target": [], "time": []}}, "mouseout": {"state": {"target": ["23", "0", "12", "25", "24", "23", "12", "13", "15", "15", "14", "13", "12", "13", "14", "15", "16", "15", "18", "15", "18", "15", "18", "13", "19", "21", "21", "31", "30", "33", "33", "30", "21", "32", "29"], "time": [1017, 3598, 3631, 3922, 3933, 3951, 3993, 4007, 4050, 4189, 4520, 4584, 5271, 7322, 9170, 9255, 9304, 11408, 12364, 12942, 13864, 14047, 14603, 14642, 16378, 16443, 19863, 20044, 20060, 20706, 22832, 22851, 33055, 35160, 35561]}, "edge": {"target": [], "time": []}}}, "displayed_time": "28.14", "trialTime": 37388, "trial_type": "mouselab-mdp", "trial_index": 11, "time_elapsed": 677346, "internal_node_id": "0.0-4.0-1.0-2.0"}}, {"uniqueid": "w87101981:a72084388", "current_trial": 12, "dateTime": 1691160887806, "trialdata": {"revealed_states": [], "clicked_states": ["1", "2", "3", "4", "6", "12", "13", "14", "15", "16"], "num_clicks_accrued": [0, 0, 0, 0, 0, 0, 0, 0, 0, 0, 0, 0, 0], "stateRewards": ["", 1, 2, -3, -6, 50, -7, 7, -7, -80, 21, -1, 2, 2, 4, -1, 33, 84, 1, 14, -53, 81, 6, -2, -2, -3, -9, -87, -38, -59, -5, -74, -3, -71], "withholdReward": false, "trial_id": "mdp_trial_4", "block": "test", "trialIndex": 5, "score": 26, "costs": -14.000000000000002, "simulationMode": [null, null, null, null, null], "rewards": [2, 2, 4, -1, 33], "path": ["0", "0", "12", "13", "14", "15", "16"], "rt": [23997, 207, 199, 258, 162], "actions": ["right", "right", "right", "up", "up"], "actionTimes": [25430, 26133, 26859, 27626, 28289], "queries": {"click": {"state": {"target": ["1", "2", "3", "4", "6", "12", "13", "14", "15", "16"], "time": [2793, 5022, 6893, 8677, 10581, 14086, 15664, 17499, 19548, 21378]}, "edge": {"target": [], "time": []}}, "mouseover": {"state": {"target": ["1", "2", "3", "4", "6", "5", "8", "11", "10", "1", "0", "12", "13", "14", "15", "16", "18", "18", "23", "32"], "time": [2670, 3532, 5385, 7338, 9160, 11125, 11576, 12714, 13363, 13475, 13643, 13929, 14743, 16461, 17819, 19998, 22008, 22437, 23734, 23806]}, "edge": {"target": [], "time": []}}, "mouseout": {"state": {"target": ["22", "0", "0", "1", "2", "3", "4", "6", "5", "8", "11", "10", "1", "0", "12", "13", "14", "15", "16", "18", "18", "23", "32", "21", "20", "19", "33", "30", "30", "33", "33"], "time": [134, 900, 2205, 3301, 5271, 7128, 9060, 10808, 11357, 12626, 13310, 13376, 13594, 13665, 14643, 16334, 17731, 19914, 21927, 22025, 23658, 23751, 23942, 31946, 32063, 32413, 33645, 33698, 34399, 34427, 34778]}, "edge": {"target": [], "time": []}}}, "displayed_time": "28.79", "trialTime": 36691, "trial_type": "mouselab-mdp", "trial_index": 12, "time_elapsed": 714312, "internal_node_id": "0.0-4.0-1.0-3.0"}}, {"uniqueid": "w87101981:a72084388", "current_trial": 13, "dateTime": 1691160941821, "trialdata": {"revealed_states": [], "clicked_states": ["21", "16", "20", "22", "17", "18", "15", "14", "13", "32", "33", "27", "29", "26", "25", "9", "11", "3", "2"], "num_clicks_accrued": [0, 0, 0, 0, 0, 0, 0, 0, 0, 0, 0, 0, 0], "stateRewards": ["", -1, -3, -6, -2, -7, 80, -45, -3, -38, -72, 76, 2, 1, 7, 4, -62, 14, -74, 14, -87, -21, -88, -2, 1, -7, -10, 66, 56, -76, 10, -29, -72, -70], "withholdReward": false, "trial_id": "mdp_trial_5", "block": "test", "trialIndex": 6, "score": 36.400000000000006, "costs": -26.59999999999999, "simulationMode": [null, null, null, null, null], "rewards": [-1, -3, -6, -3, 76], "path": ["0", "0", "1", "2", "3", "8", "11"], "rt": [42564, 233, 95, 44, 741], "actions": ["up", "up", "up", "left", "left"], "actionTimes": [44140, 44887, 45491, 46047, 47315], "queries": {"click": {"state": {"target": ["21", "16", "20", "22", "17", "18", "15", "14", "13", "32", "33", "27", "29", "26", "25", "9", "11", "3", "2"], "time": [2819, 5240, 7381, 9336, 11184, 13159, 15026, 17021, 18968, 21395, 23498, 25353, 27629, 29462, 31586, 33956, 35873, 38630, 41038]}, "edge": {"target": [], "time": []}}, "mouseover": {"state": {"target": ["23", "27", "1", "21", "19", "14", "15", "16", "15", "14", "19", "20", "22", "12", "13", "14", "15", "17", "15", "18", "23", "15", "14", "13", "12", "0", "23", "24", "25", "25", "24", "25", "30", "32", "33", "30", "31", "26", "27", "29", "26", "24", "26", "31", "31", "25", "24", "24", "28", "10", "8", "9", "11", "10", "3", "4", "6", "6", "4", "3", "3", "8", "2", "1", "16", "7", "1"], "time": [1592, 1920, 1953, 2458, 3260, 4646, 4689, 4957, 5672, 5789, 6186, 7046, 8158, 9944, 10002, 10144, 10195, 10362, 11394, 11580, 13638, 14664, 15418, 17333, 19183, 19222, 19236, 19267, 19290, 19666, 19752, 20287, 20484, 21204, 21973, 23822, 23892, 24122, 24415, 25899, 27976, 28511, 28959, 29712, 30112, 31248, 32127, 32414, 32518, 33480, 33551, 33616, 34485, 36416, 37622, 37640, 37689, 38001, 38067, 38154, 38451, 39117, 39600, 41336, 42122, 42186, 42740]}, "edge": {"target": [], "time": []}}, "mouseout": {"state": {"target": ["0", "1", "0", "23", "27", "1", "21", "19", "14", "15", "16", "15", "14", "19", "20", "22", "12", "13", "14", "15", "17", "15", "18", "23", "15", "14", "13", "12", "0", "23", "24", "25", "25", "24", "25", "30", "32", "33", "30", "31", "26", "27", "29", "26", "24", "26", "31", "31", "25", "24", "24", "28", "10", "8", "9", "11", "10", "3", "4", "6", "6", "4", "3", "3", "8", "2", "1", "16", "7", "1", "19", "21", "19", "10"], "time": [718, 885, 1590, 1597, 1937, 1970, 3152, 4611, 4667, 4908, 5605, 5746, 5984, 6896, 7607, 9592, 9976, 10095, 10163, 10210, 11347, 11479, 13428, 13870, 15275, 17265, 19167, 19218, 19234, 19251, 19287, 19305, 19701, 20087, 20454, 20557, 21594, 23806, 23853, 24041, 24189, 25589, 27910, 28124, 28744, 29642, 29777, 30811, 32094, 32180, 32447, 33449, 33516, 33583, 34196, 36115, 37582, 37637, 37650, 37700, 38051, 38115, 38267, 39001, 39234, 41302, 41685, 42141, 42205, 42820, 49674, 51994, 52026, 52135]}, "edge": {"target": [], "time": []}}}, "displayed_time": "47.81", "trialTime": 53763, "trial_type": "mouselab-mdp", "trial_index": 13, "time_elapsed": 768328, "internal_node_id": "0.0-4.0-1.0-4.0"}}, {"uniqueid": "w87101981:a72084388", "current_trial": 14, "dateTime": 1691160972579, "trialdata": {"revealed_states": [], "clicked_states": ["11", "6", "16", "21", "32", "33", "29"], "num_clicks_accrued": [0, 0, 0, 0, 0, 0, 0, 0, 0, 0, 0, 0, 0], "stateRewards": ["", 1, -4, -6, -1, -21, 17, -72, 10, 77, 67, -46, -1, 4, -2, 14, -66, -49, -45, -15, -52, 23, -67, 2, -2, -2, 15, -3, 45, -64, 5, -44, 83, 61], "withholdReward": false, "trial_id": "mdp_trial_6", "block": "test", "trialIndex": 7, "score": 76.2, "costs": -9.8, "simulationMode": [null, null, null, null, null], "rewards": [2, -2, -2, 5, 83], "path": ["0", "0", "23", "24", "25", "30", "32"], "rt": [19112, 6, 229, 116, 652], "actions": ["left", "left", "left", "down", "down"], "actionTimes": [20777, 21305, 22043, 22685, 23835], "queries": {"click": {"state": {"target": ["11", "6", "16", "21", "32", "33", "29"], "time": [4046, 6305, 8435, 10436, 12847, 14837, 17468]}, "edge": {"target": [], "time": []}}, "mouseover": {"state": {"target": ["0", "1", "2", "3", "8", "11", "8", "3", "4", "6", "6", "16", "17", "20", "31", "23", "12", "13", "14", "16", "17", "21", "32", "33", "29", "30", "25", "31"], "time": [2163, 2565, 2796, 2865, 3183, 3443, 4564, 4944, 5011, 5079, 5771, 6514, 6547, 6580, 6824, 6865, 6913, 6947, 6969, 7281, 8718, 9283, 11286, 13188, 15131, 18074, 18375, 19457]}, "edge": {"target": [], "time": []}}, "mouseout": {"state": {"target": ["23", "1", "0", "0", "1", "2", "3", "8", "11", "8", "3", "4", "6", "6", "16", "17", "20", "31", "23", "12", "13", "14", "16", "17", "21", "32", "33", "29", "29", "30", "25", "31", "24", "23", "10", "2", "12", "22", "19"], "time": [779, 926, 1691, 2214, 2763, 2846, 3063, 3397, 4479, 4896, 4978, 5049, 5162, 6480, 6529, 6563, 6597, 6837, 6880, 6932, 6967, 6980, 8683, 8731, 10685, 13087, 15016, 17579, 17910, 18289, 19413, 19576, 27477, 28186, 28554, 28568, 28620, 28666, 28800]}, "edge": {"target": [], "time": []}}}, "displayed_time": "24.34", "trialTime": 30502, "trial_type": "mouselab-mdp", "trial_index": 14, "time_elapsed": 799087, "internal_node_id": "0.0-4.0-1.0-5.0"}}, {"uniqueid": "w87101981:a72084388", "current_trial": 15, "dateTime": 1691160993897, "trialdata": {"revealed_states": [], "clicked_states": ["32"], "num_clicks_accrued": [0, 0, 0, 0, 0, 0, 0, 0, 0, 0, 0, 0, 0], "stateRewards": ["", -1, 3, -5, -2, -13, -9, -34, -7, -81, 32, 35, -2, -2, 1, -14, -32, 81, 7, 4, 82, 56, -8, -1, 3, -8, 6, -24, -24, -53, 2, 38, 61, 54], "withholdReward": false, "trial_id": "mdp_trial_7", "block": "test", "trialIndex": 8, "score": 55.6, "costs": -1.4, "simulationMode": [null, null, null, null, null], "rewards": [-1, 3, -8, 2, 61], "path": ["0", "0", "23", "24", "25", "30", "32"], "rt": [5584, 82, 141, 80, 56], "actions": ["left", "left", "left", "down", "down"], "actionTimes": [7755, 8359, 9023, 9627, 10189], "queries": {"click": {"state": {"target": ["32"], "time": [4028]}, "edge": {"target": [], "time": []}}, "mouseover": {"state": {"target": ["32", "33", "32", "32", "30", "32", "33", "30"], "time": [2689, 2759, 2961, 3141, 3540, 3789, 4575, 6454]}, "edge": {"target": [], "time": []}}, "mouseout": {"state": {"target": ["31", "24", "23", "0", "0", "32", "33", "32", "32", "30", "32", "32", "33", "30", "30", "32", "25", "31"], "time": [953, 1173, 1440, 1605, 2180, 2728, 2889, 3005, 3524, 3723, 4132, 4306, 6447, 6467, 13716, 14699, 15053, 15067]}, "edge": {"target": [], "time": []}}}, "displayed_time": "16.18", "trialTime": 21070, "trial_type": "mouselab-mdp", "trial_index": 15, "time_elapsed": 820403, "internal_node_id": "0.0-4.0-1.0-6.0"}}, {"uniqueid": "w87101981:a72084388", "current_trial": 16, "dateTime": 1691161025069, "trialdata": {"revealed_states": [], "clicked_states": ["8", "6", "5", "9"], "num_clicks_accrued": [0, 0, 0, 0, 0, 0, 0, 0, 0, 0, 0, 0, 0], "stateRewards": ["", 2, -1, 5, 8, 75, -35, -77, 1, -9, -81, -58, 1, 2, -7, 5, 77, -16, 19, 16, -10, -18, 40, -2, 3, 7, -5, 64, 1, -62, 10, 27, 10, 65], "withholdReward": false, "trial_id": "mdp_trial_8", "block": "test", "trialIndex": 9, "score": 83.4, "costs": -5.6, "simulationMode": [null, null, null, null, null], "rewards": [2, -1, 5, 8, 75], "path": ["0", "0", "1", "2", "3", "4", "5"], "rt": [12274, 34, 102, 18, 626], "actions": ["up", "up", "up", "right", "up"], "actionTimes": [14680, 15219, 15835, 16355, 17506], "queries": {"click": {"state": {"target": ["8", "6", "5", "9"], "time": [4926, 7362, 9378, 11244]}, "edge": {"target": [], "time": []}}, "mouseover": {"state": {"target": ["1", "2", "3", "3", "8", "8", "3", "4", "6", "6", "6", "16", "17", "15", "4", "5", "9", "3"], "time": [3289, 3323, 3343, 3760, 4342, 4557, 5913, 5951, 5980, 6378, 6664, 7748, 7828, 8060, 8313, 8428, 9864, 12063]}, "edge": {"target": [], "time": []}}, "mouseout": {"state": {"target": ["19", "19", "12", "0", "1", "2", "3", "3", "8", "8", "3", "4", "6", "6", "6", "16", "17", "15", "4", "5", "9", "3", "7", "18", "19", "21", "31"], "time": [1604, 1755, 1875, 3264, 3311, 3340, 3372, 4160, 4376, 5893, 5929, 5977, 6149, 6527, 7678, 7780, 8013, 8081, 8361, 9563, 11816, 21907, 21936, 21971, 22022, 22039, 23573]}, "edge": {"target": [], "time": []}}}, "displayed_time": "18.00", "trialTime": 30842, "trial_type": "mouselab-mdp", "trial_index": 16, "time_elapsed": 851576, "internal_node_id": "0.0-4.0-1.0-7.0"}}, {"uniqueid": "w87101981:a72084388", "current_trial": 17, "dateTime": 1691161052546, "trialdata": {"revealed_states": [], "clicked_states": ["21", "20", "17", "19", "16"], "num_clicks_accrued": [0, 0, 0, 0, 0, 0, 0, 0, 0, 0, 0, 0, 0], "stateRewards": ["", 1, -3, -1, 9, -34, -40, 22, -7, 45, 53, -11, 2, 4, 5, 15, 21, 37, -49, -3, 80, -28, -34, 1, -3, 1, 1, -40, -6, -5, -16, -85, -86, 59], "withholdReward": false, "trial_id": "mdp_trial_9", "block": "test", "trialIndex": 10, "score": 81, "costs": -7, "simulationMode": [null, null, null, null, null], "rewards": [2, 4, 5, -3, 80], "path": ["0", "0", "12", "13", "14", "19", "20"], "rt": [12384, 129, 234, 191, 57], "actions": ["right", "right", "right", "down", "right"], "actionTimes": [17712, 18338, 19081, 19788, 20352], "queries": {"click": {"state": {"target": ["21", "20", "17", "19", "16"], "time": [6494, 8364, 10349, 12614, 14527]}, "edge": {"target": [], "time": []}}, "mouseover": {"state": {"target": ["32", "23", "0", "19", "21", "20", "17", "16", "15", "14", "19", "14", "16", "15", "14", "20", "22"], "time": [5449, 5613, 5633, 5816, 6084, 6995, 9034, 10999, 11666, 11820, 12124, 12854, 13138, 14853, 14923, 15004, 16438]}, "edge": {"target": [], "time": []}}, "mouseout": {"state": {"target": ["25", "23", "0", "32", "23", "0", "19", "21", "20", "17", "16", "15", "14", "19", "14", "16", "15", "14", "20", "19", "22", "17"], "time": [3158, 3445, 5338, 5461, 5629, 5644, 5888, 6698, 8529, 10532, 11634, 11761, 12041, 12822, 12867, 14828, 14894, 14971, 15371, 15504, 16527, 24810]}, "edge": {"target": [], "time": []}}}, "displayed_time": "20.87", "trialTime": 27180, "trial_type": "mouselab-mdp", "trial_index": 17, "time_elapsed": 879052, "internal_node_id": "0.0-4.0-1.0-8.0"}}, {"uniqueid": "w87101981:a72084388", "current_trial": 18, "dateTime": 1691161078557, "trialdata": {"revealed_states": [], "clicked_states": ["21"], "num_clicks_accrued": [0, 0, 0, 0, 0, 0, 0, 0, 0, 0, 0, 0, 0], "stateRewards": ["", -2, -3, -7, 7, -54, -69, -4, -14, -77, 22, 40, -2, -1, 5, 6, -35, 50, -60, 10, -28, 75, 57, 1, -4, -2, 2, 68, 34, -18, 12, 3, -21, -43], "withholdReward": false, "trial_id": "mdp_trial_10", "block": "test", "trialIndex": 11, "score": 85.6, "costs": -1.4, "simulationMode": [null, null, null, null, null], "rewards": [-2, -1, 5, 10, 75], "path": ["0", "0", "12", "13", "14", "19", "21"], "rt": [4009, 71, 132, 21, 31], "actions": ["right", "right", "right", "down", "down"], "actionTimes": [7823, 8404, 9047, 9570, 10116], "queries": {"click": {"state": {"target": ["21"], "time": [4768]}, "edge": {"target": [], "time": []}}, "mouseover": {"state": {"target": ["29", "3", "15", "21", "21", "20"], "time": [3868, 4026, 4076, 4272, 4522, 5170]}, "edge": {"target": [], "time": []}}, "mouseout": {"state": {"target": ["30", "31", "32", "12", "1", "27", "29", "26", "28", "23", "29", "3", "15", "21", "21", "20", "7", "27"], "time": [832, 866, 1303, 1469, 1501, 1568, 1750, 1852, 2021, 2185, 3888, 4045, 4087, 4288, 4923, 14431, 14865, 14920]}, "edge": {"target": [], "time": []}}}, "displayed_time": "17.82", "trialTime": 25710, "trial_type": "mouselab-mdp", "trial_index": 18, "time_elapsed": 905063, "internal_node_id": "0.0-4.0-1.0-9.0"}}, {"uniqueid": "w87101981:a72084388", "current_trial": 19, "dateTime": 1691161100166, "trialdata": {"revealed_states": [], "clicked_states": ["32"], "num_clicks_accrued": [0, 0, 0, 0, 0, 0, 0, 0, 0, 0, 0, 0, 0], "stateRewards": ["", 2, 3, -2, -8, -8, -41, 74, 15, -23, -80, 1, 1, 3, 3, -15, -63, -78, 67, 13, 75, -41, 86, 2, -2, 6, -3, -8, -49, 50, -6, 83, 74, 80], "withholdReward": false, "trial_id": "mdp_trial_11", "block": "test", "trialIndex": 12, "score": 72.6, "costs": -1.4, "simulationMode": [null, null, null, null, null], "rewards": [2, -2, 6, -6, 74], "path": ["0", "0", "23", "24", "25", "30", "32"], "rt": [4866, 229, 74, 104, 592], "actions": ["left", "left", "left", "down", "down"], "actionTimes": [7877, 8603, 9208, 9812, 10899], "queries": {"click": {"state": {"target": ["32"], "time": [4591]}, "edge": {"target": [], "time": []}}, "mouseover": {"state": {"target": ["0", "12", "22", "32", "13", "7", "3", "9"], "time": [3439, 3608, 3666, 4358, 5604, 5672, 5818, 6592]}, "edge": {"target": [], "time": []}}, "mouseout": {"state": {"target": ["33", "10", "2", "1", "0", "0", "12", "22", "32", "13", "7", "3", "9", "28", "26"], "time": [633, 1820, 1840, 1897, 2671, 3568, 3642, 3732, 5121, 5618, 5686, 6071, 6908, 12392, 12410]}, "edge": {"target": [], "time": []}}}, "displayed_time": "17.02", "trialTime": 21315, "trial_type": "mouselab-mdp", "trial_index": 19, "time_elapsed": 926673, "internal_node_id": "0.0-4.0-1.0-10.0"}}, {"uniqueid": "w87101981:a72084388", "current_trial": 20, "dateTime": 1691161132802, "trialdata": {"revealed_states": [], "clicked_states": ["9", "6", "11", "10", "7", "27", "29", "28", "33", "32", "31"], "num_clicks_accrued": [0, 0, 0, 0, 0, 0, 0, 0, 0, 0, 0, 0, 0], "stateRewards": ["", 1, 1, 6, -14, -40, 37, 16, -13, 33, -68, 49, 2, 4, 3, 6, 55, 27, 32, 10, -65, 20, -87, 2, 1, -6, -5, -42, 12, 29, -8, 16, 76, -33], "withholdReward": false, "trial_id": "mdp_trial_12", "block": "test", "trialIndex": 13, "score": 49.599999999999994, "costs": -15.400000000000002, "simulationMode": [null, null, null, null, null], "rewards": [2, 1, -6, -8, 76], "path": ["0", "0", "23", "24", "25", "30", "32"], "rt": [24708, 59, 217, 8, 120], "actions": ["left", "left", "left", "down", "down"], "actionTimes": [25781, 26364, 27089, 27597, 28237], "queries": {"click": {"state": {"target": ["9", "6", "11", "10", "7", "27", "29", "28", "33", "32", "31"], "time": [1638, 3723, 5650, 7714, 10353, 12701, 14715, 17178, 19100, 21003, 22978]}, "edge": {"target": [], "time": []}}, "mouseover": {"state": {"target": ["9", "5", "4", "6", "10", "11", "2", "12", "0", "23", "24", "28", "10", "10", "29", "8", "27", "7", "2", "18", "7", "6", "5", "11", "27", "27", "29", "29", "25", "24", "28", "26", "25", "30", "31", "30", "33", "32", "32", "31"], "time": [1396, 2563, 3347, 3452, 4016, 4362, 5988, 6081, 6119, 6150, 6183, 6231, 6349, 6942, 8257, 9272, 9505, 9669, 9801, 9918, 10152, 10570, 10751, 11417, 11467, 11892, 13059, 13404, 15088, 15143, 15318, 17425, 17459, 17540, 17740, 17851, 18240, 19381, 19561, 21378]}, "edge": {"target": [], "time": []}}, "mouseout": {"state": {"target": ["0", "9", "5", "4", "6", "10", "11", "2", "12", "0", "23", "24", "28", "10", "10", "29", "8", "27", "7", "2", "18", "7", "6", "5", "11", "27", "27", "29", "29", "25", "24", "28", "26", "25", "30", "31", "30", "33", "32", "32", "31", "32", "32"], "time": [1083, 2211, 3301, 3397, 3915, 4028, 5931, 6026, 6103, 6131, 6167, 6196, 6297, 6598, 8049, 8384, 9318, 9534, 9701, 9856, 9934, 10501, 10584, 11285, 11436, 11485, 12971, 13136, 14954, 15132, 15171, 17393, 17439, 17472, 17558, 17837, 17892, 19326, 19474, 21193, 23265, 23351, 30052]}, "edge": {"target": [], "time": []}}}, "displayed_time": "28.73", "trialTime": 32326, "trial_type": "mouselab-mdp", "trial_index": 20, "time_elapsed": 959308, "internal_node_id": "0.0-4.0-1.0-11.0"}}, {"uniqueid": "w87101981:a72084388", "current_trial": 21, "dateTime": 1691161154659, "trialdata": {"revealed_states": [], "clicked_states": ["5"], "num_clicks_accrued": [0, 0, 0, 0, 0, 0, 0, 0, 0, 0, 0, 0, 0], "stateRewards": ["", 1, 1, -3, 7, 49, 78, 26, -5, 26, 48, -43, -1, -3, 2, -5, 4, -1, -60, 10, -35, 51, 81, -2, 1, -7, -5, -39, -86, -54, 4, -3, 74, 77], "withholdReward": false, "trial_id": "mdp_trial_13", "block": "test", "trialIndex": 14, "score": 53.6, "costs": -1.4, "simulationMode": [null, null, null, null, null], "rewards": [1, 1, -3, 7, 49], "path": ["0", "0", "1", "2", "3", "4", "5"], "rt": [4474, 386, 214, 33, 488], "actions": ["up", "up", "up", "right", "up"], "actionTimes": [7258, 8141, 8865, 9408, 10397], "queries": {"click": {"state": {"target": ["5"], "time": [3901]}, "edge": {"target": [], "time": []}}, "mouseover": {"state": {"target": ["12", "4", "5", "6", "15", "14", "20", "19", "22"], "time": [3048, 3162, 3368, 4264, 4399, 4506, 4779, 6202, 6230]}, "edge": {"target": [], "time": []}}, "mouseout": {"state": {"target": ["32", "21", "32", "0", "12", "4", "5", "6", "15", "14", "20", "19", "22", "14", "0"], "time": [1009, 1512, 1730, 3013, 3064, 3185, 4164, 4314, 4466, 4532, 6189, 6217, 6268, 14961, 15024]}, "edge": {"target": [], "time": []}}}, "displayed_time": "16.79", "trialTime": 21558, "trial_type": "mouselab-mdp", "trial_index": 21, "time_elapsed": 981166, "internal_node_id": "0.0-4.0-1.0-12.0"}}, {"uniqueid": "w87101981:a72084388", "current_trial": 22, "dateTime": 1691161188562, "trialdata": {"revealed_states": [], "clicked_states": ["19", "21", "20", "22"], "num_clicks_accrued": [0, 0, 0, 0, 0, 0, 0, 0, 0, 0, 0, 0, 0], "stateRewards": ["", -2, -3, -6, -7, 9, 16, 65, 5, -41, 20, -25, -1, -4, 1, -11, -49, -4, 71, 1, 39, -62, 52, -2, -3, 7, -9, -28, -70, 84, 8, 24, -58, 82], "withholdReward": false, "trial_id": "mdp_trial_14", "block": "test", "trialIndex": 15, "score": 43.4, "costs": -5.6, "simulationMode": [null, null, null, null, null], "rewards": [-1, -4, 1, 1, 52], "path": ["0", "0", "12", "13", "14", "19", "22"], "rt": [10521, 497, 245, 76, 5], "actions": ["right", "right", "right", "down", "left"], "actionTimes": [12792, 13795, 14540, 15125, 15649], "queries": {"click": {"state": {"target": ["19", "21", "20", "22"], "time": [3389, 5390, 7863, 9576]}, "edge": {"target": [], "time": []}}, "mouseover": {"state": {"target": ["12", "19", "20", "21", "32", "32", "20", "20", "22", "32", "33", "13", "14", "17", "17"], "time": [2856, 2973, 3736, 4134, 6306, 7177, 7439, 7704, 8324, 10156, 10208, 10412, 10429, 10799, 11012]}, "edge": {"target": [], "time": []}}, "mouseout": {"state": {"target": ["33", "31", "0", "12", "19", "20", "21", "32", "32", "20", "20", "22", "32", "33", "13", "14", "17", "17", "15", "13", "12", "25", "26", "25", "30"], "time": [1149, 1268, 2836, 2879, 3623, 4068, 5619, 6445, 7309, 7456, 8038, 10024, 10175, 10277, 10427, 10444, 10821, 17964, 18164, 18199, 18217, 18686, 27418, 27462, 27513]}, "edge": {"target": [], "time": []}}}, "displayed_time": "16.28", "trialTime": 33598, "trial_type": "mouselab-mdp", "trial_index": 22, "time_elapsed": 1015069, "internal_node_id": "0.0-4.0-1.0-13.0"}}, {"uniqueid": "w87101981:a72084388", "current_trial": 23, "dateTime": 1691161227481, "trialdata": {"revealed_states": [], "clicked_states": ["32", "21", "16", "5", "9", "29", "33", "6"], "num_clicks_accrued": [0, 0, 0, 0, 0, 0, 0, 0, 0, 0, 0, 0, 0], "stateRewards": ["", -1, 3, 1, -7, 56, 76, 57, 3, 11, -9, 14, 1, -2, 2, 8, -77, -3, 79, -5, 88, 24, -66, -2, -1, 7, -7, -30, 14, -76, 11, -36, 28, -6], "withholdReward": false, "trial_id": "mdp_trial_15", "block": "test", "trialIndex": 16, "score": 60.8, "costs": -11.200000000000001, "simulationMode": [null, null, null, null, null], "rewards": [-1, 3, 1, -7, 76], "path": ["0", "0", "1", "2", "3", "4", "6"], "rt": [19309, 187, 122, 406, 378], "actions": ["up", "up", "up", "right", "right"], "actionTimes": [31954, 32655, 33281, 34187, 35093], "queries": {"click": {"state": {"target": ["32", "21", "16", "5", "9", "29", "33", "6"], "time": [14266, 16433, 18574, 20650, 22749, 24833, 26764, 28797]}, "edge": {"target": [], "time": []}}, "mouseover": {"state": {"target": ["30", "29", "32", "21", "21", "22", "13", "18", "16", "5", "9", "27", "29", "33", "30", "6", "6", "4", "3", "2", "2", "7", "7"], "time": [12972, 13255, 13856, 15357, 15861, 16980, 16998, 17024, 17608, 19128, 21061, 23078, 24451, 25496, 27064, 27231, 27806, 29017, 29117, 29200, 29283, 29651, 29860]}, "edge": {"target": [], "time": []}}, "mouseout": {"state": {"target": ["22", "13", "15", "17", "31", "22", "19", "13", "0", "32", "29", "26", "28", "23", "30", "33", "26", "18", "21", "29", "30", "29", "32", "21", "21", "21", "21", "22", "13", "18", "16", "5", "9", "27", "29", "29", "33", "30", "6", "6", "4", "3", "2", "2", "7"], "time": [3292, 3309, 3345, 3362, 3715, 3912, 4282, 4312, 4395, 4455, 5863, 10997, 11033, 11120, 11151, 11436, 11519, 11603, 11685, 11905, 12986, 13272, 15070, 15407, 16537, 16742, 16963, 16995, 17009, 17046, 18650, 20828, 22994, 23094, 24906, 25046, 27052, 27081, 27271, 28843, 29066, 29151, 29217, 29468, 29717]}, "edge": {"target": [], "time": []}}}, "displayed_time": "35.59", "trialTime": 38599, "trial_type": "mouselab-mdp", "trial_index": 23, "time_elapsed": 1053987, "internal_node_id": "0.0-4.0-1.0-14.0"}}, {"uniqueid": "w87101981:a72084388", "current_trial": 24, "dateTime": 1691161250851, "trialdata": {"revealed_states": [], "clicked_states": ["11", "29"], "num_clicks_accrued": [0, 0, 0, 0, 0, 0, 0, 0, 0, 0, 0, 0, 0], "stateRewards": ["", 2, -3, -4, -1, 25, -16, 16, 10, -71, -20, -55, 1, 3, -4, -9, 1, 32, 11, -6, 32, -50, -41, -1, 4, 4, -8, 7, -81, 70, 2, -52, 45, -10], "withholdReward": false, "trial_id": "mdp_trial_16", "block": "test", "trialIndex": 17, "score": 16.2, "costs": -2.8, "simulationMode": [null, null, null, null, null], "rewards": [2, -3, -4, -1, 25], "path": ["0", "0", "1", "2", "3", "4", "5"], "rt": [6285, 369, 390, 46, 86], "actions": ["up", "up", "up", "right", "up"], "actionTimes": [8209, 9074, 9963, 10502, 11110], "queries": {"click": {"state": {"target": ["11", "29"], "time": [3380, 5560]}, "edge": {"target": [], "time": []}}, "mouseover": {"state": {"target": ["1", "7", "6", "4", "3", "8", "11", "27", "29", "33"], "time": [2218, 2367, 2685, 2876, 2924, 2943, 3081, 3951, 4341, 6251]}, "edge": {"target": [], "time": []}}, "mouseout": {"state": {"target": ["7", "0", "1", "7", "6", "4", "3", "8", "11", "27", "29", "33", "32", "23", "24", "29", "29", "29", "25"], "time": [980, 2186, 2271, 2517, 2815, 2902, 2940, 2981, 3885, 3966, 5803, 21080, 21470, 22001, 22066, 22518, 22641, 22849, 22933]}, "edge": {"target": [], "time": []}}}, "displayed_time": "15.93", "trialTime": 23060, "trial_type": "mouselab-mdp", "trial_index": 24, "time_elapsed": 1077358, "internal_node_id": "0.0-4.0-1.0-15.0"}}, {"uniqueid": "w87101981:a72084388", "current_trial": 25, "dateTime": 1691161271578, "trialdata": {"revealed_states": [], "clicked_states": ["29", "33", "20", "6"], "num_clicks_accrued": [0, 0, 0, 0, 0, 0, 0, 0, 0, 0, 0, 0, 0], "stateRewards": ["", 1, -3, -6, -5, 47, 80, -29, 11, -71, 10, -29, -2, 3, -6, 12, 2, -78, -6, 8, 34, -16, -5, -1, 3, 3, -13, 84, -36, -62, -3, -27, 66, 15], "withholdReward": false, "trial_id": "mdp_trial_17", "block": "test", "trialIndex": 18, "score": 61.4, "costs": -5.6, "simulationMode": [null, null, null, null, null], "rewards": [1, -3, -6, -5, 80], "path": ["0", "0", "1", "2", "3", "4", "6"], "rt": [10287, 486, 185, 45, 82], "actions": ["up", "up", "up", "right", "right"], "actionTimes": [11512, 12496, 13180, 13724, 14327], "queries": {"click": {"state": {"target": ["29", "33", "20", "6"], "time": [1890, 4146, 6247, 8555]}, "edge": {"target": [], "time": []}}, "mouseover": {"state": {"target": ["23", "24", "29", "33", "33", "25", "24", "12", "13", "14", "14", "13", "12", "23", "24", "25", "33", "20", "20", "6", "4", "6", "4", "3", "8", "11"], "time": [1265, 1296, 1696, 2395, 2629, 2780, 2798, 2864, 2881, 2917, 3163, 3246, 3297, 3363, 3397, 3429, 3732, 4820, 4864, 6950, 7050, 7368, 8752, 8769, 8819, 9102]}, "edge": {"target": [], "time": []}}, "mouseout": {"state": {"target": ["24", "33", "25", "24", "0", "23", "24", "29", "33", "33", "25", "24", "12", "13", "14", "14", "13", "12", "23", "24", "25", "33", "20", "20", "6", "4", "6", "4", "3", "8"], "time": [98, 214, 432, 535, 1262, 1294, 1319, 2312, 2446, 2747, 2796, 2813, 2879, 2900, 2949, 3229, 3279, 3313, 3379, 3416, 3496, 4319, 4836, 6566, 6985, 7240, 8734, 8767, 8801, 8834]}, "edge": {"target": [], "time": []}}}, "displayed_time": "15.23", "trialTime": 20412, "trial_type": "mouselab-mdp", "trial_index": 25, "time_elapsed": 1098084, "internal_node_id": "0.0-4.0-1.0-16.0"}}, {"uniqueid": "w87101981:a72084388", "current_trial": 26, "dateTime": 1691161314239, "trialdata": {"revealed_states": [], "clicked_states": ["3", "11", "6"], "num_clicks_accrued": [0, 0, 0, 0, 0, 0, 0, 0, 0, 0, 0, 0, 0], "stateRewards": ["", 1, 2, -3, 6, -88, 74, -45, 7, -46, 40, -77, 1, -4, 4, 3, 22, -25, -59, 8, -83, 19, -60, -1, -1, -1, -8, 26, -29, 64, -7, -88, -51, -55], "withholdReward": false, "trial_id": "mdp_trial_18", "block": "test", "trialIndex": 19, "score": 75.8, "costs": -4.199999999999999, "simulationMode": [null, null, null, null, null], "rewards": [1, 2, -3, 6, 74], "path": ["0", "0", "1", "2", "3", "4", "6"], "rt": [9379, 80, 179, 423, 98], "actions": ["up", "up", "up", "right", "right"], "actionTimes": [10826, 11407, 12092, 13037, 13642], "queries": {"click": {"state": {"target": ["3", "11", "6"], "time": [2761, 5269, 7962]}, "edge": {"target": [], "time": []}}, "mouseover": {"state": {"target": ["1", "2", "3", "3", "8", "11", "11", "29", "29", "26", "10", "2", "6", "16", "17", "17"], "time": [2118, 2172, 2215, 2585, 3392, 3434, 4935, 5761, 7154, 7185, 7220, 7253, 7771, 8339, 8402, 8670]}, "edge": {"target": [], "time": []}}, "mouseout": {"state": {"target": ["23", "18", "18", "1", "2", "3", "3", "8", "11", "11", "29", "29", "26", "10", "2", "6", "16", "17", "17", "17", "21", "21", "22", "14", "15", "17", "5", "4", "13", "33", "23", "0", "12"], "time": [518, 568, 768, 2148, 2184, 2399, 3371, 3420, 3451, 5604, 5778, 7172, 7203, 7244, 7270, 8287, 8382, 8415, 10024, 35215, 37080, 37212, 37415, 37461, 37521, 37594, 40690, 41087, 41137, 41354, 41404, 41419, 41451]}, "edge": {"target": [], "time": []}}}, "displayed_time": "15.45", "trialTime": 42348, "trial_type": "mouselab-mdp", "trial_index": 26, "time_elapsed": 1140747, "internal_node_id": "0.0-4.0-1.0-17.0"}}, {"uniqueid": "w87101981:a72084388", "current_trial": 27, "dateTime": 1691161338302, "trialdata": {"revealed_states": [], "clicked_states": [], "num_clicks_accrued": [0, 0, 0, 0, 0, 0, 0, 0, 0, 0, 0, 0, 0], "stateRewards": ["", 2, 1, -3, 7, 46, 11, -36, 16, 71, 5, 1, 2, -2, -8, -3, -4, 6, 55, 7, 68, -54, 2, 1, 1, 6, -6, 42, -4, -84, -11, -65, 63, 25], "withholdReward": false, "trial_id": "mdp_trial_19", "block": "test", "trialIndex": 20, "score": 67, "costs": 0, "simulationMode": [null, null, null, null, null], "rewards": [2, -2, -8, 7, 68], "path": ["0", "0", "12", "13", "14", "19", "20"], "rt": [5753, 72, 239, 95, 87], "actions": ["right", "right", "right", "down", "right"], "actionTimes": [12396, 12979, 13718, 14322, 14912], "queries": {"click": {"state": {"target": [], "time": []}, "edge": {"target": [], "time": []}}, "mouseover": {"state": {"target": ["32", "25", "24", "23", "0", "12", "13", "6", "5", "6", "6", "18", "13"], "time": [7358, 7399, 7450, 7497, 7520, 7554, 7583, 8005, 9735, 9988, 10392, 10954, 10976]}, "edge": {"target": [], "time": []}}, "mouseout": {"state": {"target": ["12", "30", "10", "31", "30", "29", "26", "20", "33", "23", "13", "12", "0", "23", "0", "32", "25", "24", "23", "0", "12", "13", "6", "5", "6", "6", "18", "13"], "time": [934, 1382, 1565, 1797, 4116, 4518, 4537, 4650, 4851, 4982, 5168, 5449, 5486, 5770, 7168, 7381, 7433, 7489, 7510, 7551, 7567, 7606, 9691, 9954, 10055, 10905, 10971, 10987]}, "edge": {"target": [], "time": []}}}, "displayed_time": "20.64", "trialTime": 23719, "trial_type": "mouselab-mdp", "trial_index": 27, "time_elapsed": 1164809, "internal_node_id": "0.0-4.0-1.0-18.0"}}, {"uniqueid": "w87101981:a72084388", "current_trial": 28, "dateTime": 1691161359393, "trialdata": {"revealed_states": [], "clicked_states": ["20", "21", "32", "33", "29"], "num_clicks_accrued": [0, 0, 0, 0, 0, 0, 0, 0, 0, 0, 0, 0, 0], "stateRewards": ["", -2, -3, 8, 14, -73, 73, 84, -12, -2, -50, -17, 2, 1, -2, -9, -44, -27, -33, 16, -63, -47, -66, -2, 1, 4, -5, -33, -11, 50, 9, 38, -79, 31], "withholdReward": false, "trial_id": "mdp_trial_20", "block": "test", "trialIndex": 21, "score": 41, "costs": -7, "simulationMode": [null, null, null, null, null], "rewards": [-2, 1, 4, -5, 50], "path": ["0", "0", "23", "24", "25", "26", "29"], "rt": [12068, 124, 156, 147, 546], "actions": ["left", "left", "left", "up", "left"], "actionTimes": [14011, 14633, 15296, 15942, 16991], "queries": {"click": {"state": {"target": ["20", "21", "32", "33", "29"], "time": [2722, 4623, 6605, 8613, 10672]}, "edge": {"target": [], "time": []}}, "mouseover": {"state": {"target": ["12", "13", "14", "20", "21", "31", "30", "32", "33", "29", "29", "27"], "time": [2168, 2198, 2232, 2531, 3180, 5400, 5435, 5669, 7403, 9264, 9454, 11276]}, "edge": {"target": [], "time": []}}, "mouseout": {"state": {"target": ["0", "0", "12", "13", "14", "20", "21", "31", "30", "32", "33", "29", "29", "27", "1", "13", "19"], "time": [1379, 2151, 2179, 2212, 2246, 3014, 4840, 5415, 5469, 6861, 8821, 9279, 10894, 18466, 18526, 18582, 18644]}, "edge": {"target": [], "time": []}}}, "displayed_time": "17.50", "trialTime": 20757, "trial_type": "mouselab-mdp", "trial_index": 28, "time_elapsed": 1185899, "internal_node_id": "0.0-4.0-1.0-19.0"}}, {"uniqueid": "w87101981:a72084388", "current_trial": 29, "dateTime": 1691161391512, "trialdata": {"revealed_states": [], "clicked_states": ["9", "11", "6", "5", "7", "10", "27", "29"], "num_clicks_accrued": [0, 0, 0, 0, 0, 0, 0, 0, 0, 0, 0, 0, 0], "stateRewards": ["", -2, -1, -1, 5, -54, -87, 35, 2, -8, 20, -22, 1, 3, 6, 13, -75, -32, -55, -3, 56, 62, -22, -1, -4, -1, -7, -51, 84, 70, 7, -15, 5, 55], "withholdReward": false, "trial_id": "mdp_trial_21", "block": "test", "trialIndex": 22, "score": 45.8, "costs": -11.200000000000001, "simulationMode": [null, null, null, null, null], "rewards": [-1, -4, -1, -7, 70], "path": ["0", "0", "23", "24", "25", "26", "29"], "rt": [18331, 555, 164, 161, 121], "actions": ["left", "left", "left", "up", "left"], "actionTimes": [20363, 21432, 22080, 22745, 23371], "queries": {"click": {"state": {"target": ["9", "11", "6", "5", "7", "10", "27", "29"], "time": [2779, 4751, 6687, 8573, 10424, 12651, 15005, 16894]}, "edge": {"target": [], "time": []}}, "mouseover": {"state": {"target": ["1", "2", "3", "9", "11", "8", "3", "4", "6", "6", "5", "5", "4", "7", "2", "10", "27", "27", "29", "33"], "time": [2287, 2302, 2334, 2582, 3186, 5036, 5070, 5088, 5116, 5384, 6905, 7251, 8837, 9124, 10721, 11073, 13123, 14796, 15457, 17477]}, "edge": {"target": [], "time": []}}, "mouseout": {"state": {"target": ["21", "0", "1", "2", "3", "9", "11", "8", "3", "4", "6", "6", "5", "5", "4", "7", "7", "2", "10", "27", "27", "29"], "time": [1129, 2253, 2300, 2314, 2347, 3004, 5002, 5049, 5085, 5103, 5135, 6857, 6940, 8789, 8971, 10477, 10639, 10856, 13076, 13156, 15277, 17109]}, "edge": {"target": [], "time": []}}}, "displayed_time": "23.87", "trialTime": 31811, "trial_type": "mouselab-mdp", "trial_index": 29, "time_elapsed": 1218019, "internal_node_id": "0.0-4.0-1.0-20.0"}}, {"uniqueid": "w87101981:a72084388", "current_trial": 30, "dateTime": 1691161409023, "trialdata": {"revealed_states": [], "clicked_states": ["29", "33", "32"], "num_clicks_accrued": [0, 0, 0, 0, 0, 0, 0, 0, 0, 0, 0, 0, 0], "stateRewards": ["", -1, 3, 8, 9, -53, 20, -84, 2, -28, -62, -31, -1, -2, -7, 2, 51, 58, 45, -4, -17, -41, 36, 2, -2, -7, -15, 29, -54, -37, -16, -43, 65, -17], "withholdReward": false, "trial_id": "mdp_trial_22", "block": "test", "trialIndex": 23, "score": 37.8, "costs": -4.199999999999999, "simulationMode": [null, null, null, null, null], "rewards": [2, -2, -7, -16, 65], "path": ["0", "0", "23", "24", "25", "30", "32"], "rt": [8913, 572, 178, 356, 117], "actions": ["left", "left", "left", "down", "down"], "actionTimes": [10632, 11717, 12400, 13266, 13892], "queries": {"click": {"state": {"target": ["29", "33", "32"], "time": [2973, 5156, 7370]}, "edge": {"target": [], "time": []}}, "mouseover": {"state": {"target": ["0", "32", "29", "26", "28", "24", "31", "32", "33", "32", "31", "22", "19", "21"], "time": [2047, 2213, 2730, 3379, 3485, 3963, 4013, 4080, 4297, 5668, 7951, 8336, 8354, 8570]}, "edge": {"target": [], "time": []}}, "mouseout": {"state": {"target": ["33", "23", "0", "12", "0", "32", "29", "26", "28", "24", "31", "32", "33", "32", "31", "22", "19", "21"], "time": [744, 811, 828, 964, 2081, 2230, 3246, 3412, 3931, 3999, 4047, 4113, 5464, 7825, 8251, 8350, 8368, 9551]}, "edge": {"target": [], "time": []}}}, "displayed_time": "15.72", "trialTime": 17160, "trial_type": "mouselab-mdp", "trial_index": 30, "time_elapsed": 1235530, "internal_node_id": "0.0-4.0-1.0-21.0"}}, {"uniqueid": "w87101981:a72084388", "current_trial": 31, "dateTime": 1691161439217, "trialdata": {"revealed_states": [], "clicked_states": ["21", "16", "6", "11", "27", "29", "33", "32", "31"], "num_clicks_accrued": [0, 0, 0, 0, 0, 0, 0, 0, 0, 0, 0, 0, 0], "stateRewards": ["", 1, 3, -2, 15, 51, 15, -19, 11, 67, -45, -73, 2, 4, -2, -13, 36, 9, -28, 10, -30, 31, 16, 1, 2, -1, -16, 14, -22, 36, -1, 88, -5, 45], "withholdReward": false, "trial_id": "mdp_trial_23", "block": "test", "trialIndex": 24, "score": 76.4, "costs": -12.600000000000001, "simulationMode": [null, null, null, null, null], "rewards": [1, 2, -1, -1, 88], "path": ["0", "0", "23", "24", "25", "30", "31"], "rt": [21764, 116, 139, 83, 82], "actions": ["left", "left", "left", "down", "right"], "actionTimes": [23065, 23685, 24330, 24914, 25499], "queries": {"click": {"state": {"target": ["21", "16", "6", "11", "27", "29", "33", "32", "31"], "time": [2228, 4226, 7551, 9512, 11401, 13391, 15306, 17295, 19636]}, "edge": {"target": [], "time": []}}, "mouseover": {"state": {"target": ["12", "21", "18", "6", "16", "1", "7", "18", "15", "17", "7", "28", "1", "18", "18", "3", "5", "6", "4", "3", "8", "11", "11", "27", "29", "33", "32", "32", "31", "26", "28", "24"], "time": [1436, 1950, 2539, 2631, 2946, 4646, 4946, 5032, 5064, 5082, 5364, 5514, 5765, 5881, 6352, 6649, 6815, 7299, 7765, 7799, 7817, 7849, 8171, 10334, 11710, 14173, 15657, 15858, 18927, 20496, 20728, 21766]}, "edge": {"target": [], "time": []}}, "mouseout": {"state": {"target": ["0", "12", "21", "18", "6", "16", "1", "7", "18", "15", "17", "7", "28", "1", "18", "18", "3", "5", "6", "4", "3", "8", "11", "11", "27", "29", "33", "32", "32", "32", "31", "32", "26", "28", "24", "31"], "time": [1346, 1533, 2431, 2561, 2734, 4581, 4830, 4998, 5046, 5080, 5099, 5409, 5715, 5797, 5948, 6502, 6666, 7265, 7748, 7784, 7815, 7832, 7865, 9733, 11615, 13642, 15604, 15715, 17731, 18658, 19892, 19943, 20668, 21747, 21783, 21846]}, "edge": {"target": [], "time": []}}}, "displayed_time": "26.00", "trialTime": 29871, "trial_type": "mouselab-mdp", "trial_index": 31, "time_elapsed": 1265724, "internal_node_id": "0.0-4.0-1.0-22.0"}}, {"uniqueid": "w87101981:a72084388", "current_trial": 32, "dateTime": 1691161466171, "trialdata": {"revealed_states": [], "clicked_states": ["7", "17", "31", "33", "32"], "num_clicks_accrued": [0, 0, 0, 0, 0, 0, 0, 0, 0, 0, 0, 0, 0], "stateRewards": ["", -2, -4, -8, 8, 63, -50, -19, -7, -17, -31, 31, 1, 3, -5, 12, -35, -63, -29, -4, -17, -75, -79, -2, -3, -2, 8, -3, -85, 10, -2, -82, -82, 56], "withholdReward": false, "trial_id": "mdp_trial_24", "block": "test", "trialIndex": 25, "score": 40, "costs": -7, "simulationMode": [null, null, null, null, null], "rewards": [-2, -3, -2, -2, 56], "path": ["0", "0", "23", "24", "25", "30", "33"], "rt": [13643, 59, 118, 45, 119], "actions": ["left", "left", "left", "down", "left"], "actionTimes": [17921, 18481, 19105, 19648, 20273], "queries": {"click": {"state": {"target": ["7", "17", "31", "33", "32"], "time": [6534, 8631, 10573, 12702, 14780]}, "edge": {"target": [], "time": []}}, "mouseover": {"state": {"target": ["10", "3", "4", "6", "7", "15", "17", "21", "31", "31", "33", "33", "32"], "time": [4639, 4846, 5360, 5908, 6414, 7876, 8365, 9310, 9694, 10177, 11115, 11415, 13062]}, "edge": {"target": [], "time": []}}, "mouseout": {"state": {"target": ["31", "31", "23", "0", "10", "3", "4", "6", "7", "15", "17", "21", "31", "31", "33", "33", "32", "13", "21"], "time": [1170, 1452, 3656, 4407, 4709, 5327, 5843, 6241, 6663, 7910, 8812, 9363, 9760, 10812, 11145, 12963, 15050, 23388, 23455]}, "edge": {"target": [], "time": []}}}, "displayed_time": "20.78", "trialTime": 26660, "trial_type": "mouselab-mdp", "trial_index": 32, "time_elapsed": 1292677, "internal_node_id": "0.0-4.0-1.0-23.0"}}, {"uniqueid": "w87101981:a72084388", "current_trial": 33, "dateTime": 1691161483389, "trialdata": {"revealed_states": [], "clicked_states": ["9", "29", "33", "32"], "num_clicks_accrued": [0, 0, 0, 0, 0, 0, 0, 0, 0, 0, 0, 0, 0], "stateRewards": ["", 1, 1, -6, -2, 7, 77, 3, 16, -16, 66, 31, -1, 3, -8, -6, 33, -50, -48, 7, -60, -66, 36, 2, -3, 3, -7, -12, -61, -79, -4, 8, 74, -70], "withholdReward": false, "trial_id": "mdp_trial_25", "block": "test", "trialIndex": 26, "score": 66.4, "costs": -5.6, "simulationMode": [null, null, null, null, null], "rewards": [2, -3, 3, -4, 74], "path": ["0", "0", "23", "24", "25", "30", "32"], "rt": [10851, 39, 87, 49, 9], "actions": ["left", "left", "left", "down", "down"], "actionTimes": [12282, 12821, 13404, 13949, 14485], "queries": {"click": {"state": {"target": ["9", "29", "33", "32"], "time": [2501, 4498, 6844, 8907]}, "edge": {"target": [], "time": []}}, "mouseover": {"state": {"target": ["11", "9", "11", "11", "27", "26", "29", "33", "32", "21", "21"], "time": [1794, 1959, 2907, 3489, 3806, 3872, 4132, 5540, 7508, 9211, 9528]}, "edge": {"target": [], "time": []}}, "mouseout": {"state": {"target": ["30", "31", "0", "0", "11", "9", "11", "11", "27", "26", "29", "29", "33", "32", "21", "21"], "time": [454, 469, 818, 1221, 1836, 2755, 3007, 3773, 3839, 3973, 4609, 4775, 7193, 9083, 9259, 16284]}, "edge": {"target": [], "time": []}}}, "displayed_time": "15.43", "trialTime": 16907, "trial_type": "mouselab-mdp", "trial_index": 33, "time_elapsed": 1309895, "internal_node_id": "0.0-4.0-1.0-24.0"}}, {"uniqueid": "w87101981:a72084388", "current_trial": 34, "dateTime": 1691161542043, "trialdata": {"revealed_states": [], "clicked_states": ["5", "7", "10", "9", "27", "29", "28"], "num_clicks_accrued": [0, 0, 0, 0, 0, 0, 0, 0, 0, 0, 0, 0, 0], "stateRewards": ["", 2, 4, 7, -6, -76, -81, 2, 5, -66, -3, 36, -2, -4, 6, -2, -69, 4, -49, -6, 67, 38, -67, 2, 1, 1, 6, -68, -21, 52, -16, -16, 6, -70], "withholdReward": false, "trial_id": "mdp_trial_26", "block": "test", "trialIndex": 27, "score": 52.2, "costs": -9.8, "simulationMode": [null, null, null, null, null], "rewards": [2, 1, 1, 6, 52], "path": ["0", "0", "23", "24", "25", "26", "29"], "rt": [16050, 603, 228, 109, 62], "actions": ["left", "left", "left", "up", "left"], "actionTimes": [19177, 20283, 21008, 21632, 22195], "queries": {"click": {"state": {"target": ["5", "7", "10", "9", "27", "29", "28"], "time": [4257, 6227, 8297, 10176, 12139, 14211, 16332]}, "edge": {"target": [], "time": []}}, "mouseover": {"state": {"target": ["11", "8", "3", "4", "5", "16", "6", "4", "7", "6", "4", "3", "8", "10", "10", "8", "9", "9", "27", "26", "27", "29", "29", "26", "28", "28", "26"], "time": [3549, 3570, 3651, 3799, 3982, 4850, 5181, 5619, 5701, 6600, 6934, 6968, 7002, 7304, 7551, 8519, 8553, 8843, 10805, 11006, 11258, 12968, 13977, 14473, 14524, 14852, 16625]}, "edge": {"target": [], "time": []}}, "mouseout": {"state": {"target": ["21", "13", "12", "12", "0", "11", "8", "3", "4", "5", "16", "6", "5", "4", "7", "6", "4", "3", "8", "10", "10", "8", "9", "9", "27", "26", "27", "27", "29", "29", "26", "28", "28", "28", "26", "29", "9"], "time": [1197, 1297, 2214, 2563, 3214, 3567, 3604, 3782, 3898, 4634, 5149, 5199, 5565, 5652, 6398, 6921, 6954, 6987, 7034, 7338, 8486, 8538, 8571, 10420, 10888, 11217, 12232, 12389, 13795, 14440, 14507, 14559, 16439, 16577, 16681, 16778, 52478]}, "edge": {"target": [], "time": []}}}, "displayed_time": "22.71", "trialTime": 58356, "trial_type": "mouselab-mdp", "trial_index": 34, "time_elapsed": 1368550, "internal_node_id": "0.0-4.0-1.0-25.0"}}, {"uniqueid": "w87101981:a72084388", "current_trial": 35, "dateTime": 1691161572783, "trialdata": {"revealed_states": [], "clicked_states": ["20", "21", "32", "33", "22", "31", "29", "27", "28", "18", "16"], "num_clicks_accrued": [0, 0, 0, 0, 0, 0, 0, 0, 0, 0, 0, 0, 0], "stateRewards": ["", 2, 2, 3, -15, 23, -14, 73, -7, -32, -20, -6, 1, 1, -5, -12, 73, 6, -84, 11, -81, -57, 13, -2, -1, -4, -8, -52, -58, 49, 13, 5, -41, -41], "withholdReward": false, "trial_id": "mdp_trial_27", "block": "test", "trialIndex": 28, "score": 42.599999999999994, "costs": -15.400000000000002, "simulationMode": [null, null, null, null, null], "rewards": [1, 1, -5, -12, 73], "path": ["0", "0", "12", "13", "14", "15", "16"], "rt": [23623, 491, 121, 184, 65], "actions": ["right", "right", "right", "up", "up"], "actionTimes": [24949, 25954, 26579, 27264, 27826], "queries": {"click": {"state": {"target": ["20", "21", "32", "33", "22", "31", "29", "27", "28", "18", "16"], "time": [2077, 3914, 6169, 7939, 9776, 11619, 13625, 15734, 17597, 19458, 21350]}, "edge": {"target": [], "time": []}}, "mouseover": {"state": {"target": ["14", "20", "21", "22", "32", "33", "30", "21", "22", "31", "30", "29", "29", "27", "28", "16", "18", "16", "17", "17"], "time": [1554, 1857, 2356, 4305, 6011, 6455, 8243, 8923, 9191, 10345, 12343, 12498, 12711, 13954, 16081, 17965, 18598, 19843, 21654, 22068]}, "edge": {"target": [], "time": []}}, "mouseout": {"state": {"target": ["20", "0", "0", "14", "20", "21", "22", "32", "33", "33", "30", "21", "22", "31", "30", "29", "29", "27", "28", "16", "18", "16", "17", "17"], "time": [484, 750, 1337, 1640, 2268, 4073, 5039, 6389, 8051, 8224, 8257, 8943, 9912, 12000, 12411, 12516, 13823, 15997, 17851, 17982, 19593, 21602, 21737, 23786]}, "edge": {"target": [], "time": []}}}, "displayed_time": "28.33", "trialTime": 30386, "trial_type": "mouselab-mdp", "trial_index": 35, "time_elapsed": 1399290, "internal_node_id": "0.0-4.0-1.0-26.0"}}, {"uniqueid": "w87101981:a72084388", "current_trial": 36, "dateTime": 1691161606594, "trialdata": {"revealed_states": [], "clicked_states": ["5", "7", "10", "9", "18", "17", "22", "20", "33", "31", "29"], "num_clicks_accrued": [0, 0, 0, 0, 0, 0, 0, 0, 0, 0, 0, 0, 0], "stateRewards": ["", 1, 2, -6, -13, -51, 22, -4, -12, -44, -12, 6, -2, -2, -2, -14, -46, -4, -77, -2, 36, -79, 41, 2, -4, 2, -6, -55, 59, 70, -5, 39, -19, 24], "withholdReward": false, "trial_id": "mdp_trial_28", "block": "test", "trialIndex": 29, "score": 48.599999999999994, "costs": -15.400000000000002, "simulationMode": [null, null, null, null, null], "rewards": [2, -4, 2, -6, 70], "path": ["0", "0", "23", "24", "25", "26", "29"], "rt": [24945, 633, 162, 110, 88], "actions": ["left", "left", "left", "up", "left"], "actionTimes": [26657, 27793, 28454, 29078, 29663], "queries": {"click": {"state": {"target": ["5", "7", "10", "9", "18", "17", "22", "20", "33", "31", "29"], "time": [2850, 4761, 6808, 8741, 10909, 12661, 14559, 16261, 18930, 20808, 22709]}, "edge": {"target": [], "time": []}}, "mouseover": {"state": {"target": ["10", "9", "5", "7", "15", "15", "6", "4", "11", "10", "8", "9", "16", "18", "15", "17", "12", "12", "22", "19", "20", "19", "33", "30", "31", "29", "26", "28", "26"], "time": [2135, 2219, 2707, 3601, 5136, 5520, 5654, 5737, 5890, 6170, 7038, 7296, 9323, 10396, 11219, 11391, 13035, 13626, 14018, 14811, 14895, 16879, 18664, 19214, 19302, 21516, 23103, 23318, 24435]}, "edge": {"target": [], "time": []}}, "mouseout": {"state": {"target": ["12", "0", "10", "9", "5", "7", "15", "15", "6", "4", "11", "10", "8", "9", "16", "18", "15", "17", "12", "12", "22", "19", "20", "19", "33", "30", "31", "29", "26", "28", "26", "29"], "time": [1250, 2042, 2152, 2269, 3153, 4933, 5169, 5587, 5670, 5790, 5921, 6971, 7142, 8974, 10291, 11144, 11315, 12961, 13149, 13645, 14653, 14844, 16865, 16897, 19134, 19268, 21066, 23051, 23184, 24422, 24471, 24503]}, "edge": {"target": [], "time": []}}}, "displayed_time": "30.16", "trialTime": 33470, "trial_type": "mouselab-mdp", "trial_index": 36, "time_elapsed": 1433100, "internal_node_id": "0.0-4.0-1.0-27.0"}}, {"uniqueid": "w87101981:a72084388", "current_trial": 37, "dateTime": 1691161693900, "trialdata": {"revealed_states": [], "clicked_states": ["29", "28"], "num_clicks_accrued": [0, 0, 0, 0, 0, 0, 0, 0, 0, 0, 0, 0, 0], "stateRewards": ["", -1, 1, -5, -6, -78, 47, -13, 12, 48, -88, 20, 2, -3, -2, 13, -20, 37, -57, 14, -38, 30, 31, -2, -2, 8, 2, -23, 78, 28, 12, -74, -88, 8], "withholdReward": false, "trial_id": "mdp_trial_29", "block": "test", "trialIndex": 30, "score": 81.2, "costs": -2.8, "simulationMode": [null, null, null, null, null], "rewards": [-2, -2, 8, 2, 78], "path": ["0", "0", "23", "24", "25", "26", "28"], "rt": [6479, 113, 342, 109, 38], "actions": ["left", "left", "left", "up", "right"], "actionTimes": [8283, 8904, 9750, 10353, 10896], "queries": {"click": {"state": {"target": ["29", "28"], "time": [3130, 5134]}, "edge": {"target": [], "time": []}}, "mouseover": {"state": {"target": ["27", "1", "12", "25", "29", "26", "28", "1", "18"], "time": [2308, 2347, 2416, 2542, 2892, 3404, 4020, 5375, 5822]}, "edge": {"target": [], "time": []}}, "mouseout": {"state": {"target": ["29", "27", "28", "23", "27", "1", "12", "25", "29", "26", "28", "1", "18", "19", "21", "12", "1", "10", "13", "9", "16", "12", "25", "31"], "time": [881, 1116, 1203, 1281, 2333, 2358, 2444, 2577, 3371, 3469, 5322, 5395, 12176, 12234, 12255, 23045, 23061, 23077, 84571, 84959, 85175, 85221, 85554, 85575]}, "edge": {"target": [], "time": []}}}, "displayed_time": "15.81", "trialTime": 86967, "trial_type": "mouselab-mdp", "trial_index": 37, "time_elapsed": 1520407, "internal_node_id": "0.0-4.0-1.0-28.0"}}, {"uniqueid": "w87101981:a72084388", "current_trial": 38, "dateTime": 1691161723135, "trialdata": {"revealed_states": [], "clicked_states": ["5", "7", "18", "17", "22", "20"], "num_clicks_accrued": [0, 0, 0, 0, 0, 0, 0, 0, 0, 0, 0, 0, 0], "stateRewards": ["", 2, 4, -6, -13, -75, -81, 30, 7, 5, 59, -65, -1, -1, 7, 14, -38, 36, -41, 1, -54, -5, 64, 2, -1, 5, 6, -19, 79, 11, 16, -33, -50, 58], "withholdReward": false, "trial_id": "mdp_trial_30", "block": "test", "trialIndex": 31, "score": 61.6, "costs": -8.4, "simulationMode": [null, null, null, null, null], "rewards": [-1, -1, 7, 1, 64], "path": ["0", "0", "12", "13", "14", "19", "22"], "rt": [13203, 404, 112, 43, 205], "actions": ["right", "right", "right", "down", "left"], "actionTimes": [14639, 15562, 16186, 16730, 17456], "queries": {"click": {"state": {"target": ["5", "7", "18", "17", "22", "20"], "time": [2452, 4349, 6466, 8297, 10254, 12061]}, "edge": {"target": [], "time": []}}, "mouseover": {"state": {"target": ["0", "11", "5", "5", "4", "7", "15", "17", "15", "17", "18", "15", "17", "16", "15", "20", "19", "22", "19", "20"], "time": [1539, 1838, 1902, 2274, 2641, 2917, 4654, 4689, 4969, 5120, 5437, 6639, 6937, 8723, 8976, 9056, 9209, 9272, 10441, 10506]}, "edge": {"target": [], "time": []}}, "mouseout": {"state": {"target": ["0", "0", "11", "5", "5", "4", "7", "15", "17", "15", "17", "18", "15", "17", "16", "15", "20", "19", "22", "22", "19", "20", "12", "12", "26", "32"], "time": [834, 1575, 1872, 2127, 2622, 2702, 4589, 4670, 4763, 4986, 5287, 6515, 6687, 8371, 8961, 8995, 9173, 9239, 10305, 10425, 10474, 12345, 18233, 18472, 26166, 26860]}, "edge": {"target": [], "time": []}}}, "displayed_time": "17.95", "trialTime": 28879, "trial_type": "mouselab-mdp", "trial_index": 38, "time_elapsed": 1549641, "internal_node_id": "0.0-4.0-1.0-29.0"}}, {"uniqueid": "w87101981:a72084388", "current_trial": 39, "dateTime": 1691161767372, "trialdata": {"revealed_states": [], "clicked_states": ["14", "17", "16", "18"], "num_clicks_accrued": [0, 0, 0, 0, 0, 0, 0, 0, 0, 0, 0, 0, 0], "stateRewards": ["", -2, 2, 3, -7, 76, 63, 21, 15, 35, -8, -44, 1, 1, -2, -12, 23, 24, 76, -9, 46, 66, -49, -2, -1, 7, 12, 40, -71, -45, -6, 38, -49, 46], "withholdReward": false, "trial_id": "mdp_trial_31", "block": "test", "trialIndex": 32, "score": 58.4, "costs": -5.6, "simulationMode": [null, null, null, null, null], "rewards": [1, 1, -2, -12, 76], "path": ["0", "0", "12", "13", "14", "15", "18"], "rt": [10814, 436, 185, 140, 484], "actions": ["right", "right", "right", "up", "left"], "actionTimes": [36671, 37614, 38300, 38944, 39930], "queries": {"click": {"state": {"target": ["14", "17", "16", "18"], "time": [27380, 29465, 31471, 33264]}, "edge": {"target": [], "time": []}}, "mouseover": {"state": {"target": ["8", "7", "29", "2", "7", "15", "14", "17", "16", "18", "22", "22", "13"], "time": [26337, 26380, 26655, 26717, 26737, 26781, 27100, 27818, 29810, 31890, 33630, 34024, 35560]}, "edge": {"target": [], "time": []}}, "mouseout": {"state": {"target": ["28", "13", "30", "25", "28", "13", "0", "8", "7", "29", "2", "7", "15", "14", "17", "16", "18", "22", "22", "13"], "time": [23628, 23662, 24346, 24384, 24433, 24529, 26004, 26370, 26414, 26685, 26734, 26749, 26874, 27665, 29586, 31688, 33474, 33757, 35524, 35639]}, "edge": {"target": [], "time": []}}}, "displayed_time": "40.43", "trialTime": 43719, "trial_type": "mouselab-mdp", "trial_index": 39, "time_elapsed": 1593878, "internal_node_id": "0.0-4.0-1.0-30.0"}}, {"uniqueid": "w87101981:a72084388", "current_trial": 40, "dateTime": 1691161795212, "trialdata": {"revealed_states": [], "clicked_states": ["16", "21", "32", "27", "11", "6", "29", "28"], "num_clicks_accrued": [0, 0, 0, 0, 0, 0, 0, 0, 0, 0, 0, 0, 0], "stateRewards": ["", -2, 1, -8, 12, -65, -79, 16, 7, -80, -17, -45, -2, 2, -5, -2, -85, 23, -4, -7, 48, 27, -76, 2, 3, 5, 2, 43, 71, -13, 7, -49, 59, -31], "withholdReward": false, "trial_id": "mdp_trial_32", "block": "test", "trialIndex": 33, "score": 71.8, "costs": -11.200000000000001, "simulationMode": [null, null, null, null, null], "rewards": [2, 3, 5, 2, 71], "path": ["0", "0", "23", "24", "25", "26", "28"], "rt": [18205, 142, 99, 123, 895], "actions": ["left", "left", "left", "up", "right"], "actionTimes": [20509, 21150, 21754, 22380, 23769], "queries": {"click": {"state": {"target": ["16", "21", "32", "27", "11", "6", "29", "28"], "time": [3652, 5542, 7477, 9494, 11316, 13116, 15152, 17044]}, "edge": {"target": [], "time": []}}, "mouseover": {"state": {"target": ["12", "13", "14", "15", "16", "15", "21", "21", "33", "30", "32", "29", "29", "27", "11", "9", "9", "11", "8", "6", "4", "3", "8", "26", "29", "26", "28", "11", "9", "8"], "time": [2686, 2938, 2998, 3202, 3470, 4075, 4137, 4371, 6141, 6326, 6473, 7791, 8125, 8278, 9995, 10043, 10361, 10862, 11560, 12062, 13363, 13400, 13432, 14396, 14512, 15465, 15564, 17484, 17815, 19086]}, "edge": {"target": [], "time": []}}, "mouseout": {"state": {"target": ["12", "0", "23", "0", "12", "13", "14", "15", "16", "15", "21", "21", "33", "30", "32", "29", "29", "27", "11", "9", "9", "11", "8", "6", "4", "3", "8", "11", "26", "29", "26", "28", "11", "9", "8", "28"], "time": [1219, 1268, 1552, 1958, 2736, 2978, 3155, 3390, 4071, 4088, 4157, 5677, 6172, 6340, 7657, 7809, 8143, 9942, 10010, 10194, 10626, 11501, 11576, 13205, 13396, 13413, 13447, 13466, 14430, 15397, 15513, 17245, 17515, 19083, 19099, 19468]}, "edge": {"target": [], "time": []}}}, "displayed_time": "24.28", "trialTime": 27497, "trial_type": "mouselab-mdp", "trial_index": 40, "time_elapsed": 1621719, "internal_node_id": "0.0-4.0-1.0-31.0"}}, {"uniqueid": "w87101981:a72084388", "current_trial": 41, "dateTime": 1691161830815, "trialdata": {"revealed_states": [], "clicked_states": ["27", "33", "32", "31", "29", "28", "16", "18", "17", "20"], "num_clicks_accrued": [0, 0, 0, 0, 0, 0, 0, 0, 0, 0, 0, 0, 0], "stateRewards": ["", 1, -1, 4, 5, -32, 18, 20, 6, -88, -74, 9, -2, 1, -2, -14, 34, -77, -38, -1, 80, -36, 73, 2, 3, -8, 10, -48, -73, -71, -11, -22, 20, 54], "withholdReward": false, "trial_id": "mdp_trial_33", "block": "test", "trialIndex": 34, "score": 62, "costs": -14.000000000000002, "simulationMode": [null, null, null, null, null], "rewards": [-2, 1, -2, -1, 80], "path": ["0", "0", "12", "13", "14", "19", "20"], "rt": [22993, 419, 148, 62, 420], "actions": ["right", "right", "right", "down", "right"], "actionTimes": [25695, 26618, 27263, 27829, 28752], "queries": {"click": {"state": {"target": ["27", "33", "32", "31", "29", "28", "16", "18", "17", "20"], "time": [4389, 6945, 8837, 10857, 12796, 14676, 16547, 18766, 20712, 22782]}, "edge": {"target": [], "time": []}}, "mouseover": {"state": {"target": ["26", "1", "28", "29", "27", "26", "29", "29", "32", "32", "33", "32", "31", "29", "26", "28", "13", "14", "17", "16", "18", "15", "17", "17", "20", "21"], "time": [3083, 3331, 3394, 3861, 4160, 5111, 5294, 5746, 6015, 6462, 6729, 7563, 9165, 11865, 13100, 13166, 14967, 14992, 15336, 15788, 16936, 19008, 19115, 19746, 21275, 23075]}, "edge": {"target": [], "time": []}}, "mouseout": {"state": {"target": ["28", "1", "12", "33", "25", "24", "30", "24", "23", "26", "1", "28", "29", "27", "26", "29", "29", "32", "32", "33", "32", "31", "29", "26", "28", "13", "14", "17", "16", "18", "15", "17", "17", "20", "21", "19", "20", "21", "31", "31"], "time": [856, 991, 1009, 1545, 1662, 1724, 1995, 2049, 2190, 3112, 3362, 3441, 4128, 5045, 5128, 5443, 5944, 6117, 6662, 7278, 9046, 11064, 13052, 13148, 14887, 14987, 15004, 15434, 16756, 18976, 19055, 19427, 20968, 23027, 30902, 30946, 31148, 31382, 31633, 32221]}, "edge": {"target": [], "time": []}}}, "displayed_time": "29.25", "trialTime": 35250, "trial_type": "mouselab-mdp", "trial_index": 41, "time_elapsed": 1657322, "internal_node_id": "0.0-4.0-1.0-32.0"}}, {"uniqueid": "w87101981:a72084388", "current_trial": 42, "dateTime": 1691161850802, "trialdata": {"revealed_states": [], "clicked_states": ["9"], "num_clicks_accrued": [0, 0, 0, 0, 0, 0, 0, 0, 0, 0, 0, 0, 0], "stateRewards": ["", -2, -1, -5, 10, -36, -70, 68, -9, 86, 71, -10, 2, -4, 7, -7, 66, 44, -66, -13, -69, 43, 15, -2, 2, 6, -13, 62, 57, 50, -10, -69, 42, -72], "withholdReward": false, "trial_id": "mdp_trial_34", "block": "test", "trialIndex": 35, "score": 67.6, "costs": -1.4, "simulationMode": [null, null, null, null, null], "rewards": [-2, -1, -5, -9, 86], "path": ["0", "0", "1", "2", "3", "8", "9"], "rt": [4215, 117, 168, 146, 155], "actions": ["up", "up", "up", "left", "up"], "actionTimes": [5699, 6321, 6985, 7628, 8293], "queries": {"click": {"state": {"target": ["9"], "time": [2834]}, "edge": {"target": [], "time": []}}, "mouseover": {"state": {"target": ["9", "4", "14", "19", "29", "9", "9", "11", "11"], "time": [1832, 1862, 1926, 1946, 2128, 2233, 2546, 3095, 3379]}, "edge": {"target": [], "time": []}}, "mouseout": {"state": {"target": ["29", "13", "18", "9", "4", "14", "19", "29", "9", "9", "11"], "time": [413, 578, 676, 1856, 1877, 1943, 1959, 2148, 2252, 3062, 3114]}, "edge": {"target": [], "time": []}}}, "displayed_time": "15.49", "trialTime": 19658, "trial_type": "mouselab-mdp", "trial_index": 42, "time_elapsed": 1677308, "internal_node_id": "0.0-4.0-1.0-33.0"}}, {"uniqueid": "w87101981:a72084388", "current_trial": 43, "dateTime": 1691161869838, "trialdata": {"revealed_states": [], "clicked_states": ["6", "11"], "num_clicks_accrued": [0, 0, 0, 0, 0, 0, 0, 0, 0, 0, 0, 0, 0], "stateRewards": ["", -2, 2, -4, -4, -59, 88, 62, -3, 69, -15, -34, 1, -2, -5, 7, -54, -20, 78, -16, -74, -53, -21, 2, -4, 2, 13, -8, -44, 26, 9, 72, 4, 17], "withholdReward": false, "trial_id": "mdp_trial_35", "block": "test", "trialIndex": 36, "score": 77.2, "costs": -2.8, "simulationMode": [null, null, null, null, null], "rewards": [-2, 2, -4, -4, 88], "path": ["0", "0", "1", "2", "3", "4", "6"], "rt": [5493, 97, 102, 5, 33], "actions": ["up", "up", "up", "right", "right"], "actionTimes": [7206, 7810, 8414, 8917, 9461], "queries": {"click": {"state": {"target": ["6", "11"], "time": [2283, 4193]}, "edge": {"target": [], "time": []}}, "mouseover": {"state": {"target": ["6", "8", "11", "11", "2", "7", "4", "3"], "time": [1731, 2720, 2756, 3330, 4954, 4995, 5824, 5928]}, "edge": {"target": [], "time": []}}, "mouseout": {"state": {"target": ["25", "24", "0", "12", "17", "13", "12", "0", "0", "6", "8", "11", "11", "2", "7", "4", "3", "8", "26"], "time": [302, 327, 343, 353, 554, 616, 666, 823, 1725, 2367, 2738, 3036, 4891, 4974, 5021, 5871, 16547, 16605, 16679]}, "edge": {"target": [], "time": []}}}, "displayed_time": "15.72", "trialTime": 18669, "trial_type": "mouselab-mdp", "trial_index": 43, "time_elapsed": 1696344, "internal_node_id": "0.0-4.0-1.0-34.0"}}, {"uniqueid": "w87101981:a72084388", "current_trial": 44, "dateTime": 1691161887423, "trialdata": {"revealed_states": [], "clicked_states": ["11"], "num_clicks_accrued": [0, 0, 0, 0, 0, 0, 0, 0, 0, 0, 0, 0, 0], "stateRewards": ["", -1, 1, 3, -8, -23, -15, -14, -11, -23, 58, 68, 1, 3, 5, 12, -17, -41, -7, -10, -4, 82, 10, 1, 4, -4, 11, 73, 55, -55, -1, -86, -86, 54], "withholdReward": false, "trial_id": "mdp_trial_36", "block": "test", "trialIndex": 37, "score": 58.6, "costs": -1.4, "simulationMode": [null, null, null, null, null], "rewards": [-1, 1, 3, -11, 68], "path": ["0", "0", "1", "2", "3", "8", "11"], "rt": [3336, 21, 90, 321, 25], "actions": ["up", "up", "up", "left", "left"], "actionTimes": [5080, 5600, 6210, 7034, 7559], "queries": {"click": {"state": {"target": ["11"], "time": [2348]}, "edge": {"target": [], "time": []}}, "mouseover": {"state": {"target": ["11", "27"], "time": [2128, 2636]}, "edge": {"target": [], "time": []}}, "mouseout": {"state": {"target": ["21", "14", "15", "3", "11", "27", "28", "0", "11", "27", "24", "0", "3", "4"], "time": [100, 186, 220, 436, 503, 799, 887, 1755, 2538, 9910, 10367, 11709, 12135, 12983]}, "edge": {"target": [], "time": []}}}, "displayed_time": "15.75", "trialTime": 17207, "trial_type": "mouselab-mdp", "trial_index": 44, "time_elapsed": 1713930, "internal_node_id": "0.0-4.0-1.0-35.0"}}, {"uniqueid": "w87101981:a72084388", "current_trial": 45, "dateTime": 1691161917881, "trialdata": {"revealed_states": [], "clicked_states": ["17", "5", "9", "11", "10", "6", "7", "27", "28", "29"], "num_clicks_accrued": [0, 0, 0, 0, 0, 0, 0, 0, 0, 0, 0, 0, 0], "stateRewards": ["", -1, -2, -8, 8, -27, -82, 19, -14, -62, 4, 1, -2, 2, 6, 10, 73, -51, -2, 2, 73, -48, 54, -1, 2, -4, 11, -25, 47, 86, 15, 33, 43, -42], "withholdReward": false, "trial_id": "mdp_trial_37", "block": "test", "trialIndex": 38, "score": 80, "costs": -14.000000000000002, "simulationMode": [null, null, null, null, null], "rewards": [-1, 2, -4, 11, 86], "path": ["0", "0", "23", "24", "25", "26", "29"], "rt": [22111, 127, 209, 60, 32], "actions": ["left", "left", "left", "up", "left"], "actionTimes": [23815, 24455, 25161, 25725, 26269], "queries": {"click": {"state": {"target": ["17", "5", "9", "11", "10", "6", "7", "27", "28", "29"], "time": [2581, 4472, 6422, 8355, 10263, 12161, 14079, 16117, 17938, 20005]}, "edge": {"target": [], "time": []}}, "mouseover": {"state": {"target": ["12", "17", "16", "6", "5", "9", "9", "11", "10", "2", "7", "6", "7", "1", "28", "29", "27", "28", "28", "26", "29", "32"], "time": [1982, 2267, 3033, 3617, 3699, 4818, 5219, 6870, 8658, 10588, 10660, 11055, 12642, 14362, 14450, 14482, 14976, 16410, 16760, 18211, 18580, 21198]}, "edge": {"target": [], "time": []}}, "mouseout": {"state": {"target": ["0", "12", "17", "16", "6", "5", "9", "9", "11", "10", "2", "7", "6", "7", "1", "28", "29", "27", "28", "28", "26", "29", "32", "32", "22"], "time": [1366, 1997, 2816, 3598, 3633, 4719, 4934, 6704, 8571, 10521, 10607, 10774, 12422, 14326, 14395, 14478, 14503, 16375, 16461, 18177, 18329, 20281, 22069, 29004, 29121]}, "edge": {"target": [], "time": []}}}, "displayed_time": "26.77", "trialTime": 30097, "trial_type": "mouselab-mdp", "trial_index": 45, "time_elapsed": 1744388, "internal_node_id": "0.0-4.0-1.0-36.0"}}, {"uniqueid": "w87101981:a72084388", "current_trial": 46, "dateTime": 1691161936732, "trialdata": {"revealed_states": [], "clicked_states": ["29"], "num_clicks_accrued": [0, 0, 0, 0, 0, 0, 0, 0, 0, 0, 0, 0, 0], "stateRewards": ["", 2, -2, -8, 9, -20, 55, -58, 14, 42, 2, 36, 1, -3, -5, 5, -58, 57, 60, 16, 57, 30, -70, -2, 1, 3, 10, 59, 23, 77, -13, -26, 88, -72], "withholdReward": false, "trial_id": "mdp_trial_38", "block": "test", "trialIndex": 39, "score": 87.6, "costs": -1.4, "simulationMode": [null, null, null, null, null], "rewards": [-2, 1, 3, 10, 77], "path": ["0", "0", "23", "24", "25", "26", "29"], "rt": [3736, 58, 121, 131, 500], "actions": ["left", "left", "left", "up", "left"], "actionTimes": [5032, 5612, 6236, 6863, 7868], "queries": {"click": {"state": {"target": ["29"], "time": [1901]}, "edge": {"target": [], "time": []}}, "mouseover": {"state": {"target": ["25", "29", "23", "0", "19", "20"], "time": [1329, 1750, 2178, 2197, 2293, 2616]}, "edge": {"target": [], "time": []}}, "mouseout": {"state": {"target": ["30", "31", "22", "12", "0", "25", "29", "23", "0", "19", "20", "31", "30", "31", "20", "22"], "time": [213, 242, 392, 545, 1309, 1360, 2113, 2194, 2215, 2378, 9482, 9949, 11770, 11789, 12176, 12220]}, "edge": {"target": [], "time": []}}}, "displayed_time": "15.30", "trialTime": 18504, "trial_type": "mouselab-mdp", "trial_index": 46, "time_elapsed": 1763240, "internal_node_id": "0.0-4.0-1.0-37.0"}}, {"uniqueid": "w87101981:a72084388", "current_trial": 47, "dateTime": 1691161954589, "trialdata": {"revealed_states": [], "clicked_states": ["21", "32", "33", "31"], "num_clicks_accrued": [0, 0, 0, 0, 0, 0, 0, 0, 0, 0, 0, 0, 0], "stateRewards": ["", 2, -1, 3, -12, -83, 6, -33, 9, 28, 24, -50, -2, -1, -2, -5, -87, 37, 82, 12, 80, -5, 10, -2, -3, -6, 9, 22, -1, 16, 9, 77, -62, 58], "withholdReward": false, "trial_id": "mdp_trial_39", "block": "test", "trialIndex": 40, "score": 69.4, "costs": -5.6, "simulationMode": [null, null, null, null, null], "rewards": [-2, -3, -6, 9, 77], "path": ["0", "0", "23", "24", "25", "30", "31"], "rt": [10264, 10, 111, 343, 182], "actions": ["left", "left", "left", "down", "right"], "actionTimes": [11936, 12440, 13065, 13911, 14596], "queries": {"click": {"state": {"target": ["21", "32", "33", "31"], "time": [2655, 4550, 6393, 9102]}, "edge": {"target": [], "time": []}}, "mouseover": {"state": {"target": ["27", "14", "21", "32", "33", "30", "31", "19", "20"], "time": [2041, 2123, 2493, 3371, 5190, 6622, 6740, 9942, 10010]}, "edge": {"target": [], "time": []}}, "mouseout": {"state": {"target": ["11", "8", "3", "13", "31", "24", "0", "27", "14", "21", "32", "33", "30", "31", "19"], "time": [431, 449, 465, 565, 716, 765, 1685, 2074, 2138, 2905, 4770, 6607, 6690, 9479, 9976]}, "edge": {"target": [], "time": []}}}, "displayed_time": "15.68", "trialTime": 17517, "trial_type": "mouselab-mdp", "trial_index": 47, "time_elapsed": 1781095, "internal_node_id": "0.0-4.0-1.0-38.0"}}, {"uniqueid": "w87101981:a72084388", "current_trial": 48, "dateTime": 1691161974025, "trialdata": {"revealed_states": [], "clicked_states": ["9", "5", "6", "7"], "num_clicks_accrued": [0, 0, 0, 0, 0, 0, 0, 0, 0, 0, 0, 0, 0], "stateRewards": ["", 2, 3, 6, -12, -29, 12, 87, 4, 35, -30, 67, 2, 3, -5, -9, 44, 69, -8, 1, 45, -8, 28, -2, -1, -8, 11, -12, -5, 81, 9, 87, 82, 88], "withholdReward": false, "trial_id": "mdp_trial_40", "block": "test", "trialIndex": 41, "score": 80.4, "costs": -5.6, "simulationMode": [null, null, null, null, null], "rewards": [2, 3, 6, -12, 87], "path": ["0", "0", "1", "2", "3", "4", "7"], "rt": [9858, 111, 182, 161, 115], "actions": ["up", "up", "up", "right", "down"], "actionTimes": [12799, 13420, 14105, 14769, 15393], "queries": {"click": {"state": {"target": ["9", "5", "6", "7"], "time": [3997, 5987, 7881, 9765]}, "edge": {"target": [], "time": []}}, "mouseover": {"state": {"target": ["22", "11", "8", "8", "9", "5", "5", "5", "5", "6", "7", "2", "27", "10"], "time": [2951, 3301, 3326, 3562, 3815, 4446, 4731, 4950, 5247, 6581, 8301, 9967, 10101, 10368]}, "edge": {"target": [], "time": []}}, "mouseout": {"state": {"target": ["20", "33", "24", "23", "12", "19", "21", "22", "11", "8", "8", "9", "5", "5", "5", "5", "6", "7", "2", "27", "10", "18"], "time": [1809, 2061, 2092, 2110, 2143, 2179, 2313, 2961, 3322, 3412, 3595, 4398, 4465, 4749, 5014, 6214, 8083, 9935, 9984, 10268, 17309, 17759]}, "edge": {"target": [], "time": []}}}, "displayed_time": "16.94", "trialTime": 19098, "trial_type": "mouselab-mdp", "trial_index": 48, "time_elapsed": 1800532, "internal_node_id": "0.0-4.0-1.0-39.0"}}, {"uniqueid": "w87101981:a72084388", "current_trial": 49, "dateTime": 1691162049755, "trialdata": {"rt": 75714, "response": {"Q0": "$-2 to $2", "Q1": "$-16 to $16", "Q2": "$-88 to $88", "Q3": "The cost was always $1.4.", "Q4": "Very motivated"}, "question_order": [0, 1, 2, 3, 4], "trial_id": "final_quiz_control", "trial_type": "survey-multi-choice", "trial_index": 49, "time_elapsed": 1876262, "internal_node_id": "0.0-4.0-2.0"}}, {"uniqueid": "w87101981:a72084388", "current_trial": 50, "dateTime": 1691162191329, "trialdata": {"rt": 141558, "response": {"Q0": "I always checked the value of the end nodes as we always had to get there. So if the value of the final node was good enough then that is the route to be taken.", "Q1": "First two rounds I didn't want to check the nodes and then lose points for checking but when I found the value of deductions decided to check the route but still the cost of checking was high so then decided to check only the end node.", "Q2": "It was quite easy to improve in subsequent rounds."}, "trial_id": "self_report_control", "trial_type": "survey-text", "trial_index": 50, "time_elapsed": 2017837, "internal_node_id": "0.0-4.0-3.0"}}, {"uniqueid": "w87101981:a72084388", "current_trial": 51, "dateTime": 1691162220987, "trialdata": {"rt": 29644, "response": {"gender": "male", "age": "33", "colorblind": "0", "effort": "0"}, "trial_type": "survey-html-form", "trial_index": 51, "time_elapsed": 2047494, "internal_node_id": "0.0-4.0-4.0"}}, {"uniqueid": "w87101981:a72084388", "current_trial": 52, "dateTime": 1691162457706, "trialdata": {"rt": 236703, "response": {"Q0": "It was bit difficult to visualize when reading instructions, the practice round made it easier.", "Q1": "No, I haven't participated before.", "Q2": "It would have been nice to have same point for both practice and the actual rounds."}, "trial_type": "survey-text", "trial_index": 52, "time_elapsed": 2284214, "internal_node_id": "0.0-4.0-5.0"}}, {"uniqueid": "w87101981:a72084388", "current_trial": 53, "dateTime": 1691162465620, "trialdata": {"rt": 7900, "stimulus": "Press 'Finish HIT' in order to reach the completion code. Once the data has been saved, you will receive the code either in this window or in the original browser window where you started the experiment.\n", "response": 0, "trial_type": "html-button-response", "trial_index": 53, "time_elapsed": 2292127, "internal_node_id": "0.0-5.0"}}, {"uniqueid": "w87101981:a72084388", "current_trial": 54, "dateTime": 1691162466630, "trialdata": {"success": true, "trial_type": "fullscreen", "trial_index": 54, "time_elapsed": 2293138, "internal_node_id": "0.0-6.0"}}], "questiondata": {"params": {"CODE": "C6DMOQA6", "MIN_TIME": 14, "inspectCost": 1, "startTime": "Fri Aug 04 2023 17:42:52 GMT+0300 (Eastern European Summer Time)", "bonusRate": 0.002, "variance": "1_2_4_8_44", "branching": "31123"}, "final_score": 2227}, "eventdata": [{"eventtype": "initialized", "value": null, "timestamp": 1691160172277, "interval": 0}, {"eventtype": "window_resize", "value": [2048, 1062], "timestamp": 1691160172277, "interval": 0}, {"eventtype": "window_resize", "value": [2048, 1062], "timestamp": 1691160172622, "interval": 345}, {"eventtype": "window_resize", "value": [2048, 1152], "timestamp": 1691160179350, "interval": 6728}, {"eventtype": "focus", "value": "off", "timestamp": 1691160279110, "interval": 99760}, {"eventtype": "focus", "value": "on", "timestamp": 1691160279429, "interval": 319}, {"eventtype": "focus", "value": "off", "timestamp": 1691161079812, "interval": 800383}, {"eventtype": "focus", "value": "on", "timestamp": 1691161080833, "interval": 1021}, {"eventtype": "focus", "value": "off", "timestamp": 1691161092569, "interval": 11736}, {"eventtype": "focus", "value": "on", "timestamp": 1691161097356, "interval": 4787}, {"eventtype": "focus", "value": "off", "timestamp": 1691161311721, "interval": 214365}, {"eventtype": "focus", "value": "on", "timestamp": 1691161313389, "interval": 1668}, {"eventtype": "focus", "value": "off", "timestamp": 1691161510233, "interval": 196844}, {"eventtype": "focus", "value": "on", "timestamp": 1691161535731, "interval": 25498}, {"eventtype": "focus", "value": "off", "timestamp": 1691161631236, "interval": 95505}, {"eventtype": "focus", "value": "on", "timestamp": 1691161692872, "interval": 61636}, {"eventtype": "focus", "value": "off", "timestamp": 1691161713483, "interval": 20611}, {"eventtype": "focus", "value": "on", "timestamp": 1691161720689, "interval": 7206}, {"eventtype": "focus", "value": "off", "timestamp": 1691161725491, "interval": 4802}, {"eventtype": "focus", "value": "on", "timestamp": 1691161748768, "interval": 23277}, {"eventtype": "focus", "value": "off", "timestamp": 1691161881143, "interval": 132375}, {"eventtype": "focus", "value": "on", "timestamp": 1691161883679, "interval": 2536}, {"eventtype": "focus", "value": "off", "timestamp": 1691162246619, "interval": 362940}, {"eventtype": "focus", "value": "on", "timestamp": 1691162248822, "interval": 2203}, {"eventtype": "focus", "value": "off", "timestamp": 1691162331420, "interval": 82598}, {"eventtype": "focus", "value": "on", "timestamp": 1691162333415, "interval": 1995}, {"eventtype": "window_resize", "value": [2048, 1062], "timestamp": 1691162465854, "interval": 132439}], "useragent": "Mozilla/5.0 (X11; Linux x86_64) AppleWebKit/537.36 (KHTML, like Gecko) Chrome/115.0.0.0 Safari/537.36", "mode": "live", "id": "w87101981:a72084388", "status": "user data saved", "Beginhit": "2023-08-04 14:42:51.078906", "Beginexp": "2023-08-04 14:43:00.233415", "Endhit": "2023-08-04 15:21:07.479858", "psiturkStatus": 3, "browser": "<redacted>", "platform": "linux", "language": "en-US"}