{"condition": 1, "counterbalance": 0, "assignmentId": "a68859974", "workerId": "w42337564", "hitId": "h75173569", "currenttrial": 56, "bonus": 0, "data": [{"uniqueid": "w42337564:a68859974", "current_trial": 0, "dateTime": 1691142480127, "trialdata": {"success": true, "trial_type": "fullscreen", "trial_index": 0, "time_elapsed": 3686, "internal_node_id": "0.0-0.0"}}, {"uniqueid": "w42337564:a68859974", "current_trial": 1, "dateTime": 1691142494467, "trialdata": {"view_history": [{"page_index": 0, "viewing_time": 14332}], "rt": 14334, "trial_id": "exp_instructions_misaligned", "trial_type": "instructions", "trial_index": 1, "time_elapsed": 18025, "internal_node_id": "0.0-1.0"}}, {"uniqueid": "w42337564:a68859974", "current_trial": 2, "dateTime": 1691142498949, "trialdata": {"success": true, "trial_type": "fullscreen", "trial_index": 2, "time_elapsed": 22508, "internal_node_id": "0.0-2.0-0.0"}}, {"uniqueid": "w42337564:a68859974", "current_trial": 3, "dateTime": 1691142865790, "trialdata": {"view_history": [{"page_index": 0, "viewing_time": 227524}, {"page_index": 1, "viewing_time": 85239}, {"page_index": 2, "viewing_time": 28257}, {"page_index": 3, "viewing_time": 25816}], "rt": 366838, "trial_id": "mouselab_instructions_1_misaligned", "trial_type": "instructions", "trial_index": 3, "time_elapsed": 389349, "internal_node_id": "0.0-2.0-1.0"}}, {"uniqueid": "w42337564:a68859974", "current_trial": 4, "dateTime": 1691142881922, "trialdata": {"revealed_states": [], "clicked_states": [], "num_clicks_accrued": [0, 0, 0, 0, 0, 0, 0, 0, 0, 0, 0, 0, 0], "stateRewards": ["", 10, -10, -10, 10, -10, 10, 10, -10, 10, -10, -10, -10, 10, 10, -10, 10, 10, -10, -10, 10, 10, 10, -10, 10, 10, 10, -10, -10, -10, -10, -10, -10, -10], "withholdReward": false, "trial_id": "practice_1", "block": "test", "trialIndex": 0, "score": 13.5, "costs": 0, "simulationMode": [null, null, null, null, null], "rewards": [-10, 10, 10, 10, -10], "path": ["0", "0", "23", "24", "25", "26", "29"], "rt": [1869, 203, 300, 801, 117], "actions": ["left", "left", "left", "up", "left"], "actionTimes": [7028, 7726, 8539, 9839, 10472], "queries": {"click": {"state": {"target": [], "time": []}, "edge": {"target": [], "time": []}}, "mouseover": {"state": {"target": [], "time": []}, "edge": {"target": [], "time": []}}, "mouseout": {"state": {"target": ["0"], "time": [13804]}, "edge": {"target": [], "time": []}}}, "displayed_time": "10.97", "trialTime": 15674, "trial_type": "mouselab-mdp", "trial_index": 4, "time_elapsed": 405480, "internal_node_id": "0.0-2.0-2.0-0.0"}}, {"uniqueid": "w42337564:a68859974", "current_trial": 5, "dateTime": 1691142890111, "trialdata": {"revealed_states": [], "clicked_states": [], "num_clicks_accrued": [0, 0, 0, 0, 0, 0, 0, 0, 0, 0, 0, 0, 0], "stateRewards": ["", -10, -10, -10, 10, -10, 10, 10, 10, -10, -10, 10, -10, 10, 10, -10, 10, 10, 10, -10, -10, 10, 10, -10, -10, -10, -10, 10, 10, -10, -10, 10, 10, 10], "withholdReward": false, "trial_id": "practice_2", "block": "test", "trialIndex": 1, "score": 13.5, "costs": 0, "simulationMode": [null, null, null, null, null], "rewards": [-10, 10, 10, -10, 10], "path": ["0", "0", "12", "13", "14", "15", "17"], "rt": [1103, 65, 85, 211, 114], "actions": ["right", "right", "right", "up", "right"], "actionTimes": [2494, 3051, 3653, 4364, 4981], "queries": {"click": {"state": {"target": [], "time": []}, "edge": {"target": [], "time": []}}, "mouseover": {"state": {"target": [], "time": []}, "edge": {"target": [], "time": []}}, "mouseout": {"state": {"target": ["0"], "time": [6733]}, "edge": {"target": [], "time": []}}}, "displayed_time": "5.50", "trialTime": 7976, "trial_type": "mouselab-mdp", "trial_index": 5, "time_elapsed": 413668, "internal_node_id": "0.0-2.0-2.0-1.0"}}, {"uniqueid": "w42337564:a68859974", "current_trial": 6, "dateTime": 1691142942193, "trialdata": {"view_history": [{"page_index": 0, "viewing_time": 42601}, {"page_index": 1, "viewing_time": 9473}], "rt": 52077, "trial_id": "mouselab_instructions_2_misaligned", "trial_type": "instructions", "trial_index": 6, "time_elapsed": 465752, "internal_node_id": "0.0-2.0-3.0"}}, {"uniqueid": "w42337564:a68859974", "current_trial": 7, "dateTime": 1691142994492, "trialdata": {"rt": 52278, "response": {"Q0": "The cost for clicking on nodes may vary between nodes.", "Q1": "The better I perform the higher my bonus will be.", "Q2": "No, the amount of cash at each node of the web may be different each time.", "Q3": "To get the highest total score.", "Q4": "Only before moving the spider.", "Q5": "3 seconds"}, "question_order": [0, 1, 2, 3, 4, 5], "correct": {"Q0": "The cost for clicking on nodes may vary between nodes.", "Q1": "The better I perform the higher my bonus will be.", "Q2": "No, the amount of cash at each node of the web may be different each time.", "Q3": "To get the highest total score.", "Q4": "Only before moving the spider.", "Q5": "3 seconds"}, "trial_id": "mouselab_quiz_misaligned", "trial_type": "survey-multi-choice", "trial_index": 7, "time_elapsed": 518050, "internal_node_id": "0.0-2.0-4.0"}}, {"uniqueid": "w42337564:a68859974", "current_trial": 8, "dateTime": 1691143005427, "trialdata": {"rt": 10911, "stimulus": "\n<h1> Get ready to start the game! </h1>\n\nThank you for reading the instructions. Get ready start with the 40 rounds of this game.\n<br><br>\nIf you need to take a break, feel free to take one after the end of a round, before continuing to the next one.\n<br><br>\nRemember, the more money the spider gets, the bigger your bonus will be!\n<br><br>\n<div style='text-align: center;'>Press <code>space</code> to begin.</div>\n\n<br><br>\n(If, at any point, the <code>space</code> key does not take you to the next page, click once on the text and try again.)", "response": " ", "trial_id": "mdp_ready", "trial_type": "html-keyboard-response", "trial_index": 8, "time_elapsed": 528986, "internal_node_id": "0.0-4.0-0.0"}}, {"uniqueid": "w42337564:a68859974", "current_trial": 9, "dateTime": 1691143026416, "trialdata": {"revealed_states": [], "clicked_states": ["25"], "num_clicks_accrued": [0, 0, 0, 0, 0, 0, 0, 0, 0, 0, 0, 0, 0], "stateRewards": ["", -2, 2, 8, -6, -25, 3, 87, 2, -62, -2, 74, -2, -1, 2, -1, 79, 49, -37, -14, 5, 67, -9, -1, 2, -2, 5, 15, 38, 32, -14, -38, -38, 30], "withholdReward": false, "trial_id": "mdp_trial_1", "block": "test", "trialIndex": 2, "score": 46.05, "costs": -0.95, "simulationMode": [null, null, null, null, null], "rewards": [-2, -1, 2, -1, 49], "path": ["0", "0", "12", "13", "14", "15", "17"], "rt": [2311, 307, 341, 300, 246], "actions": ["right", "right", "right", "up", "right"], "actionTimes": [5742, 6570, 7420, 8212, 8957], "queries": {"click": {"state": {"target": ["25"], "time": [4641]}, "edge": {"target": [], "time": []}}, "mouseover": {"state": {"target": ["23", "24", "25"], "time": [3811, 3977, 4460]}, "edge": {"target": [], "time": []}}, "mouseout": {"state": {"target": ["1", "2", "10", "10", "0", "0", "23", "24", "25", "30", "32"], "time": [747, 895, 1027, 2360, 2561, 2845, 3894, 4244, 12527, 18143, 19744]}, "edge": {"target": [], "time": []}}}, "displayed_time": "17.43", "trialTime": 20757, "trial_type": "mouselab-mdp", "trial_index": 9, "time_elapsed": 549973, "internal_node_id": "0.0-4.0-1.0-0.0"}}, {"uniqueid": "w42337564:a68859974", "current_trial": 10, "dateTime": 1691143045857, "trialdata": {"revealed_states": [], "clicked_states": ["2"], "num_clicks_accrued": [0, 0, 0, 0, 0, 0, 0, 0, 0, 0, 0, 0, 0], "stateRewards": ["", -1, 1, 6, -6, 70, 66, 67, -16, -75, -35, 37, -1, 4, 4, -6, 47, -9, 63, 15, 21, -63, 13, 1, 3, -6, 10, 79, -29, 18, -15, 9, -67, -19], "withholdReward": false, "trial_id": "mdp_trial_2", "block": "test", "trialIndex": 3, "score": -36.35, "costs": -0.35, "simulationMode": [null, null, null, null, null], "rewards": [1, 3, -6, -15, -19], "path": ["0", "0", "23", "24", "25", "30", "33"], "rt": [2359, 264, 279, 241, 273], "actions": ["left", "left", "left", "down", "left"], "actionTimes": [4342, 5117, 5898, 6658, 7442], "queries": {"click": {"state": {"target": ["2"], "time": [2724]}, "edge": {"target": [], "time": []}}, "mouseover": {"state": {"target": ["1", "2", "1", "23"], "time": [2304, 2349, 3535, 3618]}, "edge": {"target": [], "time": []}}, "mouseout": {"state": {"target": ["31", "23", "0", "1", "2", "2", "1", "23"], "time": [784, 833, 2295, 2332, 2812, 3501, 3551, 3634]}, "edge": {"target": [], "time": []}}}, "displayed_time": "15.98", "trialTime": 19177, "trial_type": "mouselab-mdp", "trial_index": 10, "time_elapsed": 569415, "internal_node_id": "0.0-4.0-1.0-1.0"}}, {"uniqueid": "w42337564:a68859974", "current_trial": 11, "dateTime": 1691143064105, "trialdata": {"revealed_states": [], "clicked_states": ["26"], "num_clicks_accrued": [0, 0, 0, 0, 0, 0, 0, 0, 0, 0, 0, 0, 0], "stateRewards": ["", 1, 1, 7, -11, 80, -20, -53, -14, 3, 31, 27, 2, -1, -8, -10, 33, 41, 86, 9, 78, -37, -13, -1, -2, -6, -8, -80, 75, 4, -16, -49, -74, 24], "withholdReward": false, "trial_id": "mdp_trial_3", "block": "test", "trialIndex": 4, "score": -3.55, "costs": -1.55, "simulationMode": [null, null, null, null, null], "rewards": [1, 1, 7, -14, 3], "path": ["0", "0", "1", "2", "3", "8", "9"], "rt": [3081, 190, 216, 219, 718], "actions": ["up", "up", "up", "left", "up"], "actionTimes": [4688, 5398, 6109, 6843, 8059], "queries": {"click": {"state": {"target": ["26"], "time": [2906]}, "edge": {"target": [], "time": []}}, "mouseover": {"state": {"target": ["26"], "time": [2577]}, "edge": {"target": [], "time": []}}, "mouseout": {"state": {"target": ["23", "0", "26"], "time": [926, 1260, 12222]}, "edge": {"target": [], "time": []}}}, "displayed_time": "15.61", "trialTime": 18001, "trial_type": "mouselab-mdp", "trial_index": 11, "time_elapsed": 587664, "internal_node_id": "0.0-4.0-1.0-2.0"}}, {"uniqueid": "w42337564:a68859974", "current_trial": 12, "dateTime": 1691143085159, "trialdata": {"revealed_states": [], "clicked_states": ["7"], "num_clicks_accrued": [0, 0, 0, 0, 0, 0, 0, 0, 0, 0, 0, 0, 0], "stateRewards": ["", -1, 1, 3, -8, -23, -15, -14, -11, -23, 58, 68, 1, 3, 5, 12, -17, -41, -7, -10, -4, 82, 10, 1, 4, -4, 11, 73, 55, -55, -1, -86, -86, 54], "withholdReward": false, "trial_id": "mdp_trial_4", "block": "test", "trialIndex": 5, "score": 57.85, "costs": -2.15, "simulationMode": [null, null, null, null, null, null], "rewards": [-1, 1, 3, -11, 68], "path": ["0", "0", "1", "2", "3", "8", "11"], "rt": [4000, 1286, 395, 3576, 404, 364], "actions": ["up", "up", "up", "up", "left", "left"], "actionTimes": [5739, 7028, 7943, 12025, 12919, 13796], "queries": {"click": {"state": {"target": ["7"], "time": [3034]}, "edge": {"target": [], "time": []}}, "mouseover": {"state": {"target": ["7"], "time": [2731]}, "edge": {"target": [], "time": []}}, "mouseout": {"state": {"target": ["26", "28", "23", "0", "7", "7"], "time": [747, 881, 1097, 2152, 15163, 20228]}, "edge": {"target": [], "time": []}}}, "displayed_time": "15.74", "trialTime": 20794, "trial_type": "mouselab-mdp", "trial_index": 12, "time_elapsed": 608715, "internal_node_id": "0.0-4.0-1.0-3.0"}}, {"uniqueid": "w42337564:a68859974", "current_trial": 13, "dateTime": 1691143103771, "trialdata": {"revealed_states": [], "clicked_states": ["14"], "num_clicks_accrued": [0, 0, 0, 0, 0, 0, 0, 0, 0, 0, 0, 0, 0], "stateRewards": ["", 2, 2, 3, -15, 23, -14, 73, -7, -32, -20, -6, 1, 1, -5, -12, 73, 6, -84, 11, -81, -57, 13, -2, -1, -4, -8, -52, -58, 49, 13, 5, -41, -41], "withholdReward": false, "trial_id": "mdp_trial_5", "block": "test", "trialIndex": 6, "score": -35.95, "costs": -0.95, "simulationMode": [null, null, null, null, null], "rewards": [-2, -1, -4, 13, -41], "path": ["0", "0", "23", "24", "25", "30", "33"], "rt": [2612, 304, 350, 310, 234], "actions": ["left", "left", "left", "down", "left"], "actionTimes": [4868, 5679, 6543, 7368, 8109], "queries": {"click": {"state": {"target": ["14"], "time": [3315]}, "edge": {"target": [], "time": []}}, "mouseover": {"state": {"target": ["12", "13", "14"], "time": [2690, 2758, 3087]}, "edge": {"target": [], "time": []}}, "mouseout": {"state": {"target": ["7", "18", "1", "12", "13", "14"], "time": [1063, 1257, 1345, 2723, 2807, 12473]}, "edge": {"target": [], "time": []}}}, "displayed_time": "16.26", "trialTime": 18322, "trial_type": "mouselab-mdp", "trial_index": 13, "time_elapsed": 627330, "internal_node_id": "0.0-4.0-1.0-4.0"}}, {"uniqueid": "w42337564:a68859974", "current_trial": 14, "dateTime": 1691143122757, "trialdata": {"revealed_states": [], "clicked_states": ["27"], "num_clicks_accrued": [0, 0, 0, 0, 0, 0, 0, 0, 0, 0, 0, 0, 0], "stateRewards": ["", 1, 2, 8, -2, 23, -69, -18, -16, 54, -21, 71, -1, -4, 7, 11, 43, -6, 88, 6, -55, 72, 43, 1, -3, -2, -1, 68, -31, -54, 4, -8, 25, -2], "withholdReward": false, "trial_id": "mdp_trial_6", "block": "test", "trialIndex": 7, "score": -62.15, "costs": -2.15, "simulationMode": [null, null, null, null, null], "rewards": [1, 2, 8, -2, -69], "path": ["0", "0", "1", "2", "3", "4", "6"], "rt": [4536, 319, 353, 364, 378], "actions": ["up", "up", "up", "right", "right"], "actionTimes": [6789, 7610, 8478, 9339, 10236], "queries": {"click": {"state": {"target": ["27"], "time": [3647]}, "edge": {"target": [], "time": []}}, "mouseover": {"state": {"target": ["28", "27", "26", "29"], "time": [2958, 3357, 4106, 4639]}, "edge": {"target": [], "time": []}}, "mouseout": {"state": {"target": ["14", "13", "12", "0", "23", "0", "0", "28", "27", "26", "29"], "time": [890, 905, 939, 974, 1268, 1322, 2828, 3057, 4006, 4539, 13239]}, "edge": {"target": [], "time": []}}}, "displayed_time": "16.26", "trialTime": 18692, "trial_type": "mouselab-mdp", "trial_index": 14, "time_elapsed": 646315, "internal_node_id": "0.0-4.0-1.0-5.0"}}, {"uniqueid": "w42337564:a68859974", "current_trial": 15, "dateTime": 1691143141444, "trialdata": {"revealed_states": [], "clicked_states": [], "num_clicks_accrued": [0, 0, 0, 0, 0, 0, 0, 0, 0, 0, 0, 0, 0], "stateRewards": ["", 1, -2, -8, -3, 31, -84, -55, -14, 15, -58, 17, -2, -3, 7, 7, -12, 48, 67, 4, -44, -68, 46, 2, 3, -5, -7, 76, 27, 5, 11, 57, 52, 59], "withholdReward": false, "trial_id": "mdp_trial_7", "block": "test", "trialIndex": 8, "score": -8, "costs": 0, "simulationMode": [null, null, null, null, null], "rewards": [1, -2, -8, -14, 15], "path": ["0", "0", "1", "2", "3", "8", "9"], "rt": [728, 254, 258, 214, 270], "actions": ["up", "up", "up", "left", "up"], "actionTimes": [3403, 4177, 4947, 5671, 6442], "queries": {"click": {"state": {"target": [], "time": []}, "edge": {"target": [], "time": []}}, "mouseover": {"state": {"target": [], "time": []}, "edge": {"target": [], "time": []}}, "mouseout": {"state": {"target": ["29", "24", "23", "0", "0"], "time": [1570, 1637, 2005, 2338, 9953]}, "edge": {"target": [], "time": []}}}, "displayed_time": "16.68", "trialTime": 18376, "trial_type": "mouselab-mdp", "trial_index": 15, "time_elapsed": 665000, "internal_node_id": "0.0-4.0-1.0-6.0"}}, {"uniqueid": "w42337564:a68859974", "current_trial": 16, "dateTime": 1691143159235, "trialdata": {"revealed_states": [], "clicked_states": [], "num_clicks_accrued": [0, 0, 0, 0, 0, 0, 0, 0, 0, 0, 0, 0, 0], "stateRewards": ["", -2, 2, -2, -7, -50, -62, -45, 7, 36, -24, -72, -1, -1, 8, -1, -67, 20, -52, 2, 35, -50, 80, -1, 1, 6, -6, -70, 6, 88, 8, -47, 74, -19], "withholdReward": false, "trial_id": "mdp_trial_8", "block": "test", "trialIndex": 9, "score": -42, "costs": 0, "simulationMode": [null, null, null, null, null], "rewards": [-1, -1, 8, 2, -50], "path": ["0", "0", "12", "13", "14", "19", "21"], "rt": [1037, 214, 262, 251, 214], "actions": ["right", "right", "right", "down", "down"], "actionTimes": [2186, 2907, 3671, 4443, 5155], "queries": {"click": {"state": {"target": [], "time": []}, "edge": {"target": [], "time": []}}, "mouseover": {"state": {"target": [], "time": []}, "edge": {"target": [], "time": []}}, "mouseout": {"state": {"target": ["0", "0"], "time": [949, 6790]}, "edge": {"target": [], "time": []}}}, "displayed_time": "15.15", "trialTime": 17475, "trial_type": "mouselab-mdp", "trial_index": 16, "time_elapsed": 682793, "internal_node_id": "0.0-4.0-1.0-7.0"}}, {"uniqueid": "w42337564:a68859974", "current_trial": 17, "dateTime": 1691143177097, "trialdata": {"revealed_states": [], "clicked_states": [], "num_clicks_accrued": [0, 0, 0, 0, 0, 0, 0, 0, 0, 0, 0, 0, 0], "stateRewards": ["", -2, -1, -3, -1, -78, -6, 2, -1, 22, -88, 32, 2, 2, -7, -8, -51, -17, 54, 2, -44, 54, 75, 2, -2, -8, -15, -29, 12, -67, 15, -1, -47, -47], "withholdReward": false, "trial_id": "mdp_trial_9", "block": "test", "trialIndex": 10, "score": -11, "costs": 0, "simulationMode": [null, null, null, null, null], "rewards": [2, -2, -8, -15, 12], "path": ["0", "0", "23", "24", "25", "26", "28"], "rt": [1880, 72, 156, 117, 75], "actions": ["left", "left", "left", "up", "right"], "actionTimes": [2932, 3520, 4171, 4781, 5372], "queries": {"click": {"state": {"target": [], "time": []}, "edge": {"target": [], "time": []}}, "mouseover": {"state": {"target": [], "time": []}, "edge": {"target": [], "time": []}}, "mouseout": {"state": {"target": ["0", "0"], "time": [856, 6912]}, "edge": {"target": [], "time": []}}}, "displayed_time": "15.05", "trialTime": 17542, "trial_type": "mouselab-mdp", "trial_index": 17, "time_elapsed": 700653, "internal_node_id": "0.0-4.0-1.0-8.0"}}, {"uniqueid": "w42337564:a68859974", "current_trial": 18, "dateTime": 1691143195578, "trialdata": {"revealed_states": [], "clicked_states": [], "num_clicks_accrued": [0, 0, 0, 0, 0, 0, 0, 0, 0, 0, 0, 0, 0], "stateRewards": ["", 2, 4, 7, 7, -79, -2, -21, -5, -53, 47, -21, 1, -3, -1, 7, 83, 7, 84, -7, 80, -37, 69, 2, -4, 5, 2, 4, -20, -30, 7, 71, 44, -81], "withholdReward": false, "trial_id": "mdp_trial_10", "block": "test", "trialIndex": 11, "score": -1, "costs": 0, "simulationMode": [null, null, null, null, null], "rewards": [2, 4, 7, 7, -21], "path": ["0", "0", "1", "2", "3", "4", "7"], "rt": [2396, 182, 183, 439, 159], "actions": ["up", "up", "up", "right", "down"], "actionTimes": [4457, 5138, 5838, 6778, 7448], "queries": {"click": {"state": {"target": [], "time": []}, "edge": {"target": [], "time": []}}, "mouseover": {"state": {"target": [], "time": []}, "edge": {"target": [], "time": []}}, "mouseout": {"state": {"target": ["0", "0"], "time": [1299, 11519]}, "edge": {"target": [], "time": []}}}, "displayed_time": "16.06", "trialTime": 18153, "trial_type": "mouselab-mdp", "trial_index": 18, "time_elapsed": 719136, "internal_node_id": "0.0-4.0-1.0-9.0"}}, {"uniqueid": "w42337564:a68859974", "current_trial": 19, "dateTime": 1691143216754, "trialdata": {"revealed_states": [], "clicked_states": [], "num_clicks_accrued": [0, 0, 0, 0, 0, 0, 0, 0, 0, 0, 0, 0, 0], "stateRewards": ["", -2, 2, 3, -7, -31, -33, 29, -8, -57, 50, -83, -1, -1, 5, 13, -23, -62, 25, 5, -66, -85, 14, 1, -2, -1, 16, 71, 33, -19, -14, 5, -43, 79], "withholdReward": false, "trial_id": "mdp_trial_11", "block": "test", "trialIndex": 12, "score": 22, "costs": 0, "simulationMode": [null, null, null, null, null], "rewards": [-1, -1, 5, 5, 14], "path": ["0", "0", "12", "13", "14", "19", "22"], "rt": [1406, 77, 233, 139, 87], "actions": ["right", "right", "right", "down", "left"], "actionTimes": [3215, 3813, 4553, 5209, 5808], "queries": {"click": {"state": {"target": [], "time": []}, "edge": {"target": [], "time": []}}, "mouseover": {"state": {"target": [], "time": []}, "edge": {"target": [], "time": []}}, "mouseout": {"state": {"target": ["0", "0"], "time": [1045, 6785]}, "edge": {"target": [], "time": []}}}, "displayed_time": "15.81", "trialTime": 20863, "trial_type": "mouselab-mdp", "trial_index": 19, "time_elapsed": 740313, "internal_node_id": "0.0-4.0-1.0-10.0"}}, {"uniqueid": "w42337564:a68859974", "current_trial": 20, "dateTime": 1691143347359, "trialdata": {"revealed_states": [], "clicked_states": [], "num_clicks_accrued": [0, 0, 0, 0, 0, 0, 0, 0, 0, 0, 0, 0, 0], "stateRewards": ["", -2, -3, -6, -7, 9, 16, 65, 5, -41, 20, -25, -1, -4, 1, -11, -49, -4, 71, 1, 39, -62, 52, -2, -3, 7, -9, -28, -70, 84, 8, 24, -58, 82], "withholdReward": false, "trial_id": "mdp_trial_12", "block": "test", "trialIndex": 13, "score": -31, "costs": 0, "simulationMode": [null, null, null, null, null], "rewards": [-2, -3, -6, 5, -25], "path": ["0", "0", "1", "2", "3", "8", "11"], "rt": [1300, 63, 82, 149, 189], "actions": ["up", "up", "up", "left", "left"], "actionTimes": [3481, 4038, 4640, 5308, 6013], "queries": {"click": {"state": {"target": [], "time": []}, "edge": {"target": [], "time": []}}, "mouseover": {"state": {"target": [], "time": []}, "edge": {"target": [], "time": []}}, "mouseout": {"state": {"target": ["0"], "time": [9438]}, "edge": {"target": [], "time": []}}}, "displayed_time": "16.18", "trialTime": 130290, "trial_type": "mouselab-mdp", "trial_index": 20, "time_elapsed": 870916, "internal_node_id": "0.0-4.0-1.0-11.0"}}, {"uniqueid": "w42337564:a68859974", "current_trial": 21, "dateTime": 1691143366187, "trialdata": {"revealed_states": [], "clicked_states": [], "num_clicks_accrued": [0, 0, 0, 0, 0, 0, 0, 0, 0, 0, 0, 0, 0], "stateRewards": ["", -1, 4, -8, 12, 14, 69, -8, 5, -72, -14, 56, -1, -1, -1, 9, 67, 19, 11, -9, -88, -58, 3, 2, -4, -8, 4, 62, 77, -74, 5, -31, 65, 88], "withholdReward": false, "trial_id": "mdp_trial_13", "block": "test", "trialIndex": 14, "score": -100, "costs": 0, "simulationMode": [null, null, null, null, null], "rewards": [-1, -1, -1, -9, -88], "path": ["0", "0", "12", "13", "14", "19", "20"], "rt": [684, 202, 412, 186, 371], "actions": ["right", "right", "right", "down", "right"], "actionTimes": [2061, 2763, 3689, 4381, 5265], "queries": {"click": {"state": {"target": [], "time": []}, "edge": {"target": [], "time": []}}, "mouseover": {"state": {"target": [], "time": []}, "edge": {"target": [], "time": []}}, "mouseout": {"state": {"target": ["0"], "time": [6525]}, "edge": {"target": [], "time": []}}}, "displayed_time": "15.38", "trialTime": 18493, "trial_type": "mouselab-mdp", "trial_index": 21, "time_elapsed": 889745, "internal_node_id": "0.0-4.0-1.0-12.0"}}, {"uniqueid": "w42337564:a68859974", "current_trial": 22, "dateTime": 1691143382925, "trialdata": {"revealed_states": [], "clicked_states": [], "num_clicks_accrued": [0, 0, 0, 0, 0, 0, 0, 0, 0, 0, 0, 0, 0], "stateRewards": ["", 1, 1, -2, 7, -31, -6, 76, 1, -36, -16, -53, 2, 1, 7, 13, -47, -10, 47, -7, 72, 46, -56, -2, -2, -2, 11, -80, 44, 38, 16, 67, 85, -78], "withholdReward": false, "trial_id": "mdp_trial_14", "block": "test", "trialIndex": 15, "score": -15, "costs": 0, "simulationMode": [null, null, null, null, null], "rewards": [1, 1, -2, 1, -16], "path": ["0", "0", "1", "2", "3", "8", "10"], "rt": [1008, 7, 85, 318, 301], "actions": ["up", "up", "up", "left", "down"], "actionTimes": [1906, 2428, 3023, 3857, 4672], "queries": {"click": {"state": {"target": [], "time": []}, "edge": {"target": [], "time": []}}, "mouseover": {"state": {"target": [], "time": []}, "edge": {"target": [], "time": []}}, "mouseout": {"state": {"target": ["0"], "time": [8568]}, "edge": {"target": [], "time": []}}}, "displayed_time": "14.90", "trialTime": 16410, "trial_type": "mouselab-mdp", "trial_index": 22, "time_elapsed": 906484, "internal_node_id": "0.0-4.0-1.0-13.0"}}, {"uniqueid": "w42337564:a68859974", "current_trial": 23, "dateTime": 1691143400580, "trialdata": {"revealed_states": [], "clicked_states": ["7"], "num_clicks_accrued": [0, 0, 0, 0, 0, 0, 0, 0, 0, 0, 0, 0, 0], "stateRewards": ["", 2, 3, -3, 4, 72, -28, 34, -12, 57, -64, -15, 2, 1, -4, -15, 2, 49, 31, -1, -42, -58, 31, -2, 1, -2, -13, -75, -19, -22, -6, 61, 10, -56], "withholdReward": false, "trial_id": "mdp_trial_15", "block": "test", "trialIndex": 16, "score": 37.85, "costs": -2.15, "simulationMode": [null, null, null, null, null, null], "rewards": [2, 3, -3, 4, 34], "path": ["0", "0", "1", "2", "3", "4", "7"], "rt": [3460, 2128, 217, 195, 213, 196], "actions": ["left", "up", "up", "up", "right", "down"], "actionTimes": [4490, 6621, 7330, 8024, 8776, 9492], "queries": {"click": {"state": {"target": ["7"], "time": [1965]}, "edge": {"target": [], "time": []}}, "mouseover": {"state": {"target": ["7", "7", "2", "10"], "time": [1467, 1764, 2896, 3144]}, "edge": {"target": [], "time": []}}, "mouseout": {"state": {"target": ["0", "7", "7", "2", "10"], "time": [1343, 1513, 2878, 2944, 13592]}, "edge": {"target": [], "time": []}}}, "displayed_time": "15.03", "trialTime": 17323, "trial_type": "mouselab-mdp", "trial_index": 23, "time_elapsed": 924139, "internal_node_id": "0.0-4.0-1.0-14.0"}}, {"uniqueid": "w42337564:a68859974", "current_trial": 24, "dateTime": 1691143420159, "trialdata": {"revealed_states": [], "clicked_states": ["28"], "num_clicks_accrued": [0, 0, 0, 0, 0, 0, 0, 0, 0, 0, 0, 0, 0], "stateRewards": ["", 1, 1, -6, -2, 7, 77, 3, 16, -16, 66, 31, -1, 3, -8, -6, 33, -50, -48, 7, -60, -66, 36, 2, -3, 3, -7, -12, -61, -79, -4, 8, 74, -70], "withholdReward": false, "trial_id": "mdp_trial_16", "block": "test", "trialIndex": 17, "score": -62.15, "costs": -2.15, "simulationMode": [null, null, null, null, null], "rewards": [-1, 3, -8, -6, -48], "path": ["0", "0", "12", "13", "14", "15", "18"], "rt": [6054, 201, 226, 162, 152], "actions": ["right", "right", "right", "up", "left"], "actionTimes": [7805, 8519, 9259, 9929, 10602], "queries": {"click": {"state": {"target": ["28"], "time": [3138]}, "edge": {"target": [], "time": []}}, "mouseover": {"state": {"target": ["28"], "time": [2599]}, "edge": {"target": [], "time": []}}, "mouseout": {"state": {"target": ["10", "0", "0", "28"], "time": [773, 815, 2261, 14764]}, "edge": {"target": [], "time": []}}}, "displayed_time": "15.75", "trialTime": 19243, "trial_type": "mouselab-mdp", "trial_index": 24, "time_elapsed": 943718, "internal_node_id": "0.0-4.0-1.0-15.0"}}, {"uniqueid": "w42337564:a68859974", "current_trial": 25, "dateTime": 1691143440042, "trialdata": {"revealed_states": [], "clicked_states": ["9"], "num_clicks_accrued": [0, 0, 0, 0, 0, 0, 0, 0, 0, 0, 0, 0, 0], "stateRewards": ["", -1, 3, 1, -11, -22, -36, 19, -5, -70, -52, 50, -2, -4, 4, -2, -41, -83, 29, -2, 22, 10, -6, -2, 3, -2, 14, 54, 44, 77, -9, -65, -37, -40], "withholdReward": false, "trial_id": "mdp_trial_17", "block": "test", "trialIndex": 18, "score": -32.15, "costs": -2.15, "simulationMode": [null, null, null, null, null], "rewards": [-1, 3, 1, -11, -22], "path": ["0", "0", "1", "2", "3", "4", "5"], "rt": [6178, 130, 223, 87, 149], "actions": ["up", "up", "up", "right", "up"], "actionTimes": [7916, 8544, 9269, 9867, 10528], "queries": {"click": {"state": {"target": ["9"], "time": [3926]}, "edge": {"target": [], "time": []}}, "mouseover": {"state": {"target": ["1", "8", "9"], "time": [2410, 2595, 2745]}, "edge": {"target": [], "time": []}}, "mouseout": {"state": {"target": ["28", "0", "1", "8", "9", "8", "10", "23"], "time": [806, 2369, 2444, 2612, 17492, 18811, 18826, 19060]}, "edge": {"target": [], "time": []}}}, "displayed_time": "15.74", "trialTime": 19561, "trial_type": "mouselab-mdp", "trial_index": 25, "time_elapsed": 963601, "internal_node_id": "0.0-4.0-1.0-16.0"}}, {"uniqueid": "w42337564:a68859974", "current_trial": 26, "dateTime": 1691143458797, "trialdata": {"revealed_states": [], "clicked_states": [], "num_clicks_accrued": [0, 0, 0, 0, 0, 0, 0, 0, 0, 0, 0, 0, 0], "stateRewards": ["", 2, 4, -3, 16, -58, 30, -35, 11, -60, 47, 27, -2, -1, -7, -16, 23, -70, 68, -10, -65, -43, -34, -2, 1, 7, 9, -63, 34, -31, -8, -12, -86, 59], "withholdReward": false, "trial_id": "mdp_trial_18", "block": "test", "trialIndex": 19, "score": -85, "costs": 0, "simulationMode": [null, null, null, null, null], "rewards": [-2, -1, -7, -10, -65], "path": ["0", "0", "12", "13", "14", "19", "20"], "rt": [11534, 70, 81, 177, 50], "actions": ["right", "right", "right", "down", "right"], "actionTimes": [13135, 13702, 14281, 14976, 15533], "queries": {"click": {"state": {"target": [], "time": []}, "edge": {"target": [], "time": []}}, "mouseover": {"state": {"target": ["12", "13", "14", "17", "18", "12", "18", "17", "15", "16", "18", "14"], "time": [2417, 2500, 2799, 4417, 6933, 7648, 7681, 8386, 9698, 9848, 10699, 12015]}, "edge": {"target": [], "time": []}}, "mouseout": {"state": {"target": ["0", "12", "13", "14", "17", "18", "12", "18", "17", "15", "16", "18", "14"], "time": [2251, 2449, 2600, 4268, 6898, 6948, 7664, 7699, 9649, 9748, 10603, 11750, 16580]}, "edge": {"target": [], "time": []}}}, "displayed_time": "16.07", "trialTime": 18419, "trial_type": "mouselab-mdp", "trial_index": 26, "time_elapsed": 982355, "internal_node_id": "0.0-4.0-1.0-17.0"}}, {"uniqueid": "w42337564:a68859974", "current_trial": 27, "dateTime": 1691143476522, "trialdata": {"revealed_states": [], "clicked_states": ["28"], "num_clicks_accrued": [0, 0, 0, 0, 0, 0, 0, 0, 0, 0, 0, 0, 0], "stateRewards": ["", -1, 2, -6, 6, -82, -19, -39, -16, -83, 11, -33, -2, -2, 4, -6, -82, -1, -19, -6, -10, -67, -41, -2, 1, -7, 16, -23, -78, -52, 14, 31, -71, 74], "withholdReward": false, "trial_id": "mdp_trial_19", "block": "test", "trialIndex": 20, "score": 34.85, "costs": -2.15, "simulationMode": [null, null, null, null, null], "rewards": [-2, 1, -7, 14, 31], "path": ["0", "0", "23", "24", "25", "30", "31"], "rt": [7044, 76, 130, 93, 119], "actions": ["left", "left", "left", "down", "right"], "actionTimes": [8913, 9498, 10151, 10767, 11390], "queries": {"click": {"state": {"target": ["28"], "time": [3720]}, "edge": {"target": [], "time": []}}, "mouseover": {"state": {"target": ["23", "24", "26", "28"], "time": [2570, 2620, 3072, 3423]}, "edge": {"target": [], "time": []}}, "mouseout": {"state": {"target": ["14", "13", "12", "0", "23", "24", "26", "28"], "time": [722, 754, 1054, 2554, 2603, 2686, 3171, 15869]}, "edge": {"target": [], "time": []}}}, "displayed_time": "15.87", "trialTime": 17418, "trial_type": "mouselab-mdp", "trial_index": 27, "time_elapsed": 1000081, "internal_node_id": "0.0-4.0-1.0-18.0"}}, {"uniqueid": "w42337564:a68859974", "current_trial": 28, "dateTime": 1691143496201, "trialdata": {"revealed_states": [], "clicked_states": ["7"], "num_clicks_accrued": [0, 0, 0, 0, 0, 0, 0, 0, 0, 0, 0, 0, 0], "stateRewards": ["", -2, 2, -5, 1, 42, -63, -58, -6, 2, 16, 81, -2, 4, 7, -10, 33, 3, -33, -2, -52, -84, -27, 2, -3, -3, 15, -74, -14, -5, -5, -84, 79, -31], "withholdReward": false, "trial_id": "mdp_trial_20", "block": "test", "trialIndex": 21, "score": 2.8499999999999996, "costs": -2.15, "simulationMode": [null, null, null, null, null], "rewards": [-2, 2, -5, -6, 16], "path": ["0", "0", "1", "2", "3", "8", "10"], "rt": [7096, 64, 88, 24, 164], "actions": ["up", "up", "up", "left", "down"], "actionTimes": [9017, 9583, 10174, 10711, 11383], "queries": {"click": {"state": {"target": ["7"], "time": [4773]}, "edge": {"target": [], "time": []}}, "mouseover": {"state": {"target": ["1", "2", "7", "3", "2", "1", "1", "2", "3", "4", "7"], "time": [2518, 2685, 3135, 3488, 3619, 3669, 3870, 3935, 4119, 4336, 4468]}, "edge": {"target": [], "time": []}}, "mouseout": {"state": {"target": ["28", "23", "0", "1", "2", "7", "3", "2", "1", "1", "2", "3", "4", "7", "0"], "time": [811, 868, 2467, 2585, 2969, 3322, 3586, 3636, 3718, 3919, 4051, 4235, 4368, 17866, 18721]}, "edge": {"target": [], "time": []}}}, "displayed_time": "15.92", "trialTime": 19350, "trial_type": "mouselab-mdp", "trial_index": 28, "time_elapsed": 1019760, "internal_node_id": "0.0-4.0-1.0-19.0"}}, {"uniqueid": "w42337564:a68859974", "current_trial": 29, "dateTime": 1691143522604, "trialdata": {"revealed_states": [], "clicked_states": ["10"], "num_clicks_accrued": [0, 0, 0, 0, 0, 0, 0, 0, 0, 0, 0, 0, 0], "stateRewards": ["", 1, -1, 8, 4, 76, -33, -17, -3, -1, -54, -74, -2, 2, -5, 13, -51, 63, 83, 1, 84, 29, -36, 2, -1, 7, -12, -10, -44, -43, -14, 8, -69, 19], "withholdReward": false, "trial_id": "mdp_trial_21", "block": "test", "trialIndex": 22, "score": 85.85, "costs": -2.15, "simulationMode": [null, null, null, null, null], "rewards": [1, -1, 8, 4, 76], "path": ["0", "0", "1", "2", "3", "4", "5"], "rt": [6952, 2, 45, 832, 444], "actions": ["up", "up", "up", "right", "up"], "actionTimes": [8256, 8775, 9351, 10703, 11650], "queries": {"click": {"state": {"target": ["10"], "time": [4013]}, "edge": {"target": [], "time": []}}, "mouseover": {"state": {"target": ["28", "10", "10"], "time": [2488, 2907, 3722]}, "edge": {"target": [], "time": []}}, "mouseout": {"state": {"target": ["0", "28", "10", "10", "23"], "time": [977, 2505, 2989, 24268, 25487]}, "edge": {"target": [], "time": []}}}, "displayed_time": "15.31", "trialTime": 26024, "trial_type": "mouselab-mdp", "trial_index": 29, "time_elapsed": 1046162, "internal_node_id": "0.0-4.0-1.0-20.0"}}, {"uniqueid": "w42337564:a68859974", "current_trial": 30, "dateTime": 1691143542841, "trialdata": {"revealed_states": [], "clicked_states": [], "num_clicks_accrued": [0, 0, 0, 0, 0, 0, 0, 0, 0, 0, 0, 0, 0], "stateRewards": ["", -1, -3, 4, -10, -5, 79, -87, -2, 53, 29, -20, -2, -1, -5, 10, 27, 86, 46, -16, -29, 40, 3, 2, 4, -1, -6, 37, 79, -29, 7, 86, -62, 29], "withholdReward": false, "trial_id": "mdp_trial_22", "block": "test", "trialIndex": 23, "score": -97, "costs": 0, "simulationMode": [null, null, null, null, null], "rewards": [-1, -3, 4, -10, -87], "path": ["0", "0", "1", "2", "3", "4", "7"], "rt": [8889, 60, 105, 172, 106], "actions": ["up", "up", "up", "right", "down"], "actionTimes": [10861, 11436, 12048, 12731, 13349], "queries": {"click": {"state": {"target": [], "time": []}, "edge": {"target": [], "time": []}}, "mouseover": {"state": {"target": ["1", "1", "0", "1", "7", "1"], "time": [5774, 5875, 5958, 7090, 7525, 10124]}, "edge": {"target": [], "time": []}}, "mouseout": {"state": {"target": ["1", "12", "1", "1", "0", "1", "7", "1", "0"], "time": [1059, 1325, 5808, 5892, 7058, 7224, 10080, 10157, 18190]}, "edge": {"target": [], "time": []}}}, "displayed_time": "15.97", "trialTime": 19882, "trial_type": "mouselab-mdp", "trial_index": 30, "time_elapsed": 1066398, "internal_node_id": "0.0-4.0-1.0-21.0"}}, {"uniqueid": "w42337564:a68859974", "current_trial": 31, "dateTime": 1691143560981, "trialdata": {"revealed_states": [], "clicked_states": ["28"], "num_clicks_accrued": [0, 0, 0, 0, 0, 0, 0, 0, 0, 0, 0, 0, 0], "stateRewards": ["", 2, 3, -1, 16, -78, -11, 46, 2, -20, 79, -67, 2, 3, 2, 11, -83, -42, -58, -11, -67, -22, 55, 2, -1, -1, -16, -83, -82, 23, -11, -29, 13, 13], "withholdReward": false, "trial_id": "mdp_trial_23", "block": "test", "trialIndex": 24, "score": -26.15, "costs": -2.15, "simulationMode": [null, null, null, null, null], "rewards": [2, 3, 2, 11, -42], "path": ["0", "0", "12", "13", "14", "15", "17"], "rt": [6263, 65, 55, 734, 46], "actions": ["right", "right", "right", "up", "right"], "actionTimes": [8187, 8758, 9316, 10577, 11139], "queries": {"click": {"state": {"target": ["28"], "time": [3930]}, "edge": {"target": [], "time": []}}, "mouseover": {"state": {"target": ["23", "24", "25", "26", "28"], "time": [2425, 2509, 2675, 2942, 3527]}, "edge": {"target": [], "time": []}}, "mouseout": {"state": {"target": ["0", "23", "24", "25", "26", "28"], "time": [2403, 2475, 2625, 2813, 3409, 15657]}, "edge": {"target": [], "time": []}}}, "displayed_time": "15.93", "trialTime": 17776, "trial_type": "mouselab-mdp", "trial_index": 31, "time_elapsed": 1084540, "internal_node_id": "0.0-4.0-1.0-22.0"}}, {"uniqueid": "w42337564:a68859974", "current_trial": 32, "dateTime": 1691143600498, "trialdata": {"revealed_states": [], "clicked_states": ["22"], "num_clicks_accrued": [0, 0, 0, 0, 0, 0, 0, 0, 0, 0, 0, 0, 0], "stateRewards": ["", 2, 3, 3, 10, 19, -21, 6, 9, 54, 68, 16, 2, 2, -6, -8, 40, -2, -75, -2, -42, 55, 59, -1, 2, 4, -14, 11, -34, -30, -6, 61, -53, 13], "withholdReward": false, "trial_id": "mdp_trial_24", "block": "test", "trialIndex": 25, "score": 52.85, "costs": -2.15, "simulationMode": [null, null, null, null, null], "rewards": [2, 2, -6, -2, 59], "path": ["0", "0", "12", "13", "14", "19", "22"], "rt": [4590, 25, 26, 12, 25], "actions": ["right", "right", "right", "down", "left"], "actionTimes": [6357, 6885, 7403, 7921, 8451], "queries": {"click": {"state": {"target": ["22"], "time": [3081]}, "edge": {"target": [], "time": []}}, "mouseover": {"state": {"target": ["12", "13", "19", "22"], "time": [2309, 2409, 2642, 2777]}, "edge": {"target": [], "time": []}}, "mouseout": {"state": {"target": ["28", "23", "0", "12", "13", "19", "22"], "time": [908, 1193, 2264, 2359, 2442, 2744, 9908]}, "edge": {"target": [], "time": []}}}, "displayed_time": "15.77", "trialTime": 39165, "trial_type": "mouselab-mdp", "trial_index": 32, "time_elapsed": 1124056, "internal_node_id": "0.0-4.0-1.0-23.0"}}, {"uniqueid": "w42337564:a68859974", "current_trial": 33, "dateTime": 1691143619727, "trialdata": {"revealed_states": [], "clicked_states": ["18"], "num_clicks_accrued": [0, 0, 0, 0, 0, 0, 0, 0, 0, 0, 0, 0, 0], "stateRewards": ["", -1, -3, -6, 14, 41, 18, 63, -14, 80, 21, 17, -2, -4, -2, -5, 13, 70, 8, -4, -64, -10, -20, 2, -1, 4, -1, -17, -55, 42, -7, 47, 54, 15], "withholdReward": false, "trial_id": "mdp_trial_25", "block": "test", "trialIndex": 26, "score": -7.15, "costs": -2.15, "simulationMode": [null, null, null, null, null], "rewards": [-2, -4, -2, -5, 8], "path": ["0", "0", "12", "13", "14", "15", "18"], "rt": [4711, 560, 93, 149, 277], "actions": ["right", "right", "right", "up", "left"], "actionTimes": [6487, 7556, 8155, 8795, 9588], "queries": {"click": {"state": {"target": ["18"], "time": [3111]}, "edge": {"target": [], "time": []}}, "mouseover": {"state": {"target": ["12", "13", "18"], "time": [2376, 2560, 2846]}, "edge": {"target": [], "time": []}}, "mouseout": {"state": {"target": ["22", "0", "12", "13", "18"], "time": [995, 2329, 2477, 2706, 15392]}, "edge": {"target": [], "time": []}}}, "displayed_time": "15.78", "trialTime": 18866, "trial_type": "mouselab-mdp", "trial_index": 33, "time_elapsed": 1143286, "internal_node_id": "0.0-4.0-1.0-24.0"}}, {"uniqueid": "w42337564:a68859974", "current_trial": 34, "dateTime": 1691143640892, "trialdata": {"revealed_states": [], "clicked_states": [], "num_clicks_accrued": [0, 0, 0, 0, 0, 0, 0, 0, 0, 0, 0, 0, 0], "stateRewards": ["", -2, -3, 7, -13, 60, 9, 37, -6, 37, 20, 1, 2, -2, -8, 6, -80, -31, -10, -7, 70, -65, -44, -1, 1, 7, 6, -11, 73, -85, 16, -21, 47, 34], "withholdReward": false, "trial_id": "mdp_trial_26", "block": "test", "trialIndex": 27, "score": 57, "costs": 0, "simulationMode": [null, null, null, null, null], "rewards": [-1, 1, 7, 16, 34], "path": ["0", "0", "23", "24", "25", "30", "33"], "rt": [8708, 501, 216, 143, 82], "actions": ["left", "left", "left", "down", "left"], "actionTimes": [10536, 11540, 12272, 12931, 13522], "queries": {"click": {"state": {"target": [], "time": []}, "edge": {"target": [], "time": []}}, "mouseover": {"state": {"target": ["28", "28", "26", "29", "26", "28", "0", "23", "29", "26", "28"], "time": [2704, 4273, 5238, 5405, 6570, 6589, 6921, 7470, 7761, 9004, 9086]}, "edge": {"target": [], "time": []}}, "mouseout": {"state": {"target": ["18", "1", "0", "28", "28", "26", "29", "26", "28", "0", "23", "29", "26", "28", "24", "28", "24"], "time": [848, 1022, 2510, 2788, 5206, 5287, 6562, 6587, 6604, 7440, 7490, 8991, 9053, 18702, 19906, 20262, 20338]}, "edge": {"target": [], "time": []}}}, "displayed_time": "15.83", "trialTime": 20795, "trial_type": "mouselab-mdp", "trial_index": 34, "time_elapsed": 1164450, "internal_node_id": "0.0-4.0-1.0-25.0"}}, {"uniqueid": "w42337564:a68859974", "current_trial": 35, "dateTime": 1691143661816, "trialdata": {"revealed_states": [], "clicked_states": [], "num_clicks_accrued": [0, 0, 0, 0, 0, 0, 0, 0, 0, 0, 0, 0, 0], "stateRewards": ["", 2, 4, 4, 9, -88, -10, 44, 16, -54, 64, 78, 1, 2, 5, 16, 80, 36, 7, -4, 9, -47, -70, -1, -3, 6, -16, 11, 80, 28, 8, -1, 34, -17], "withholdReward": false, "trial_id": "mdp_trial_27", "block": "test", "trialIndex": 28, "score": 66, "costs": 0, "simulationMode": [null, null, null, null, null], "rewards": [-1, -3, 6, -16, 80], "path": ["0", "0", "23", "24", "25", "26", "28"], "rt": [11398, 63, 119, 9, 41], "actions": ["left", "left", "left", "up", "right"], "actionTimes": [14918, 15493, 16148, 16656, 17205], "queries": {"click": {"state": {"target": [], "time": []}, "edge": {"target": [], "time": []}}, "mouseover": {"state": {"target": ["23", "24", "28", "23", "23", "24", "28", "0", "23", "28"], "time": [8345, 8445, 8781, 10329, 10697, 10794, 10894, 12045, 12994, 13128]}, "edge": {"target": [], "time": []}}, "mouseout": {"state": {"target": ["23", "0", "0", "23", "24", "28", "23", "23", "24", "28", "0", "23", "28"], "time": [717, 1796, 8312, 8395, 8596, 10262, 10345, 10763, 10811, 12002, 12978, 13029, 14113]}, "edge": {"target": [], "time": []}}}, "displayed_time": "17.71", "trialTime": 20547, "trial_type": "mouselab-mdp", "trial_index": 35, "time_elapsed": 1185374, "internal_node_id": "0.0-4.0-1.0-26.0"}}, {"uniqueid": "w42337564:a68859974", "current_trial": 36, "dateTime": 1691143683422, "trialdata": {"revealed_states": [], "clicked_states": ["18"], "num_clicks_accrued": [0, 0, 0, 0, 0, 0, 0, 0, 0, 0, 0, 0, 0], "stateRewards": ["", -1, -1, 4, -16, -75, 81, -51, -7, -84, 73, -30, -2, 1, -3, -16, -77, 33, 14, 1, 45, 87, -66, 2, 2, -5, -7, -19, -17, 79, -3, 8, 49, 47], "withholdReward": false, "trial_id": "mdp_trial_28", "block": "test", "trialIndex": 29, "score": -8.149999999999999, "costs": -2.15, "simulationMode": [null, null, null, null, null], "rewards": [-2, 1, -3, -16, 14], "path": ["0", "0", "12", "13", "14", "15", "18"], "rt": [4944, 48, 45, 740, 167], "actions": ["right", "right", "right", "up", "left"], "actionTimes": [9123, 9668, 10248, 11493, 12171], "queries": {"click": {"state": {"target": ["18"], "time": [5840]}, "edge": {"target": [], "time": []}}, "mouseover": {"state": {"target": ["12", "13", "18"], "time": [4853, 4985, 5402]}, "edge": {"target": [], "time": []}}, "mouseout": {"state": {"target": ["0", "12", "13", "18"], "time": [4818, 4954, 5269, 14601]}, "edge": {"target": [], "time": []}}}, "displayed_time": "18.18", "trialTime": 21244, "trial_type": "mouselab-mdp", "trial_index": 36, "time_elapsed": 1206981, "internal_node_id": "0.0-4.0-1.0-27.0"}}, {"uniqueid": "w42337564:a68859974", "current_trial": 37, "dateTime": 1691143701826, "trialdata": {"revealed_states": [], "clicked_states": ["10"], "num_clicks_accrued": [0, 0, 0, 0, 0, 0, 0, 0, 0, 0, 0, 0, 0], "stateRewards": ["", 2, -3, 5, -14, -63, -9, -24, -11, -54, -43, 68, 2, -2, -4, 7, -64, 30, 47, 12, -74, 11, 86, 1, -3, 3, 10, -71, -42, -52, -1, -29, -16, 69], "withholdReward": false, "trial_id": "mdp_trial_29", "block": "test", "trialIndex": 30, "score": -36.15, "costs": -2.15, "simulationMode": [null, null, null, null, null], "rewards": [2, -3, 5, -14, -24], "path": ["0", "0", "1", "2", "3", "4", "7"], "rt": [7186, 467, 178, 184, 163], "actions": ["up", "up", "up", "right", "down"], "actionTimes": [8624, 9613, 10313, 10997, 11677], "queries": {"click": {"state": {"target": ["10"], "time": [4442]}, "edge": {"target": [], "time": []}}, "mouseover": {"state": {"target": ["1", "2", "10", "1", "10"], "time": [2228, 2379, 2829, 3878, 4215]}, "edge": {"target": [], "time": []}}, "mouseout": {"state": {"target": ["18", "1", "2", "10", "1", "10", "10"], "time": [677, 2310, 2596, 3814, 3994, 4554, 5029]}, "edge": {"target": [], "time": []}}}, "displayed_time": "15.44", "trialTime": 18039, "trial_type": "mouselab-mdp", "trial_index": 37, "time_elapsed": 1225382, "internal_node_id": "0.0-4.0-1.0-28.0"}}, {"uniqueid": "w42337564:a68859974", "current_trial": 38, "dateTime": 1691143719339, "trialdata": {"revealed_states": [], "clicked_states": [], "num_clicks_accrued": [0, 0, 0, 0, 0, 0, 0, 0, 0, 0, 0, 0, 0], "stateRewards": ["", -1, -3, 1, 13, -64, -29, 12, -4, -33, 50, 56, 2, -3, 4, 11, -64, -58, -55, 12, 47, 38, -25, -2, 2, 5, -15, 85, 7, 84, 10, 8, 57, 26], "withholdReward": false, "trial_id": "mdp_trial_30", "block": "test", "trialIndex": 31, "score": 74, "costs": 0, "simulationMode": [null, null, null, null, null], "rewards": [-2, 2, 5, -15, 84], "path": ["0", "0", "23", "24", "25", "26", "29"], "rt": [5045, 405, 326, 58, 25], "actions": ["left", "left", "left", "up", "left"], "actionTimes": [6328, 7247, 8068, 8634, 9167], "queries": {"click": {"state": {"target": [], "time": []}, "edge": {"target": [], "time": []}}, "mouseover": {"state": {"target": ["24", "24", "23", "24", "24", "23", "23", "28", "28", "26", "29"], "time": [2327, 2441, 2523, 2923, 3191, 3273, 3957, 4124, 4341, 5207, 5255]}, "edge": {"target": [], "time": []}}, "mouseout": {"state": {"target": ["0", "24", "24", "23", "24", "24", "23", "23", "28", "28", "26", "29", "25", "25"], "time": [794, 2372, 2489, 2877, 3006, 3240, 3423, 3990, 4191, 5192, 5239, 5773, 13088, 16706]}, "edge": {"target": [], "time": []}}}, "displayed_time": "15.30", "trialTime": 17115, "trial_type": "mouselab-mdp", "trial_index": 38, "time_elapsed": 1242896, "internal_node_id": "0.0-4.0-1.0-29.0"}}, {"uniqueid": "w42337564:a68859974", "current_trial": 39, "dateTime": 1691143736515, "trialdata": {"revealed_states": [], "clicked_states": ["7"], "num_clicks_accrued": [0, 0, 0, 0, 0, 0, 0, 0, 0, 0, 0, 0, 0], "stateRewards": ["", -2, 2, 5, -14, -56, 64, 84, -5, 52, 39, 85, -2, 1, 7, 8, 21, 29, -78, -9, -10, -69, 10, -2, -1, -7, 15, 72, 20, 41, -2, 52, 80, 22], "withholdReward": false, "trial_id": "mdp_trial_31", "block": "test", "trialIndex": 32, "score": 72.85, "costs": -2.15, "simulationMode": [null, null, null, null, null], "rewards": [-2, 2, 5, -14, 84], "path": ["0", "0", "1", "2", "3", "4", "7"], "rt": [5429, 85, 152, 152, 170], "actions": ["up", "up", "up", "right", "down"], "actionTimes": [6763, 7356, 8007, 8658, 9340], "queries": {"click": {"state": {"target": ["7"], "time": [2904]}, "edge": {"target": [], "time": []}}, "mouseover": {"state": {"target": ["1", "2", "7"], "time": [1854, 2004, 2572]}, "edge": {"target": [], "time": []}}, "mouseout": {"state": {"target": ["0", "1", "2", "7", "7"], "time": [1764, 1938, 2255, 3009, 3453]}, "edge": {"target": [], "time": []}}}, "displayed_time": "15.34", "trialTime": 16794, "trial_type": "mouselab-mdp", "trial_index": 39, "time_elapsed": 1260074, "internal_node_id": "0.0-4.0-1.0-30.0"}}, {"uniqueid": "w42337564:a68859974", "current_trial": 40, "dateTime": 1691143755088, "trialdata": {"revealed_states": [], "clicked_states": ["28"], "num_clicks_accrued": [0, 0, 0, 0, 0, 0, 0, 0, 0, 0, 0, 0, 0], "stateRewards": ["", 2, 3, -2, -8, -8, -41, 74, 15, -23, -80, 1, 1, 3, 3, -15, -63, -78, 67, 13, 75, -41, 86, 2, -2, 6, -3, -8, -49, 50, -6, 83, 74, 80], "withholdReward": false, "trial_id": "mdp_trial_32", "block": "test", "trialIndex": 33, "score": 50.85, "costs": -2.15, "simulationMode": [null, null, null, null, null], "rewards": [2, -2, 6, -3, 50], "path": ["0", "0", "23", "24", "25", "26", "29"], "rt": [6497, 131, 134, 32, 222], "actions": ["left", "left", "left", "up", "left"], "actionTimes": [8068, 8730, 9383, 9929, 10652], "queries": {"click": {"state": {"target": ["28"], "time": [4286]}, "edge": {"target": [], "time": []}}, "mouseover": {"state": {"target": ["28", "24", "25", "28"], "time": [2815, 3130, 3245, 3829]}, "edge": {"target": [], "time": []}}, "mouseout": {"state": {"target": ["28", "24", "25", "28", "24"], "time": [2929, 3179, 3396, 16911, 17451]}, "edge": {"target": [], "time": []}}}, "displayed_time": "15.57", "trialTime": 18208, "trial_type": "mouselab-mdp", "trial_index": 40, "time_elapsed": 1278645, "internal_node_id": "0.0-4.0-1.0-31.0"}}, {"uniqueid": "w42337564:a68859974", "current_trial": 41, "dateTime": 1691143773918, "trialdata": {"revealed_states": [], "clicked_states": ["7"], "num_clicks_accrued": [0, 0, 0, 0, 0, 0, 0, 0, 0, 0, 0, 0, 0], "stateRewards": ["", -1, -4, 8, 8, -68, 47, 24, -7, -61, 49, -69, -1, -1, 8, -7, 42, 1, -45, -11, 10, -63, -6, 1, 4, 6, -16, 79, -37, -58, -12, 81, 18, -53], "withholdReward": false, "trial_id": "mdp_trial_33", "block": "test", "trialIndex": 34, "score": 32.85, "costs": -2.15, "simulationMode": [null, null, null, null, null], "rewards": [-1, -4, 8, 8, 24], "path": ["0", "0", "1", "2", "3", "4", "7"], "rt": [5066, 147, 122, 198, 120], "actions": ["up", "up", "up", "right", "down"], "actionTimes": [6472, 7121, 7762, 8456, 9147], "queries": {"click": {"state": {"target": ["7"], "time": [3250]}, "edge": {"target": [], "time": []}}, "mouseover": {"state": {"target": ["1", "2", "7"], "time": [2042, 2424, 2874]}, "edge": {"target": [], "time": []}}, "mouseout": {"state": {"target": ["0", "1", "2", "7"], "time": [1150, 2090, 2589, 16862]}, "edge": {"target": [], "time": []}}}, "displayed_time": "15.41", "trialTime": 18437, "trial_type": "mouselab-mdp", "trial_index": 41, "time_elapsed": 1297476, "internal_node_id": "0.0-4.0-1.0-32.0"}}, {"uniqueid": "w42337564:a68859974", "current_trial": 42, "dateTime": 1691143790631, "trialdata": {"revealed_states": [], "clicked_states": ["18"], "num_clicks_accrued": [0, 0, 0, 0, 0, 0, 0, 0, 0, 0, 0, 0, 0], "stateRewards": ["", 2, 3, -1, 6, 44, -4, -59, -14, -3, 64, 16, 1, -3, 3, 6, 3, 49, 19, 3, -49, -14, -86, 1, 2, -3, -8, -33, 14, 32, -13, -77, -47, -67], "withholdReward": false, "trial_id": "mdp_trial_34", "block": "test", "trialIndex": 35, "score": 23.85, "costs": -2.15, "simulationMode": [null, null, null, null, null], "rewards": [1, -3, 3, 6, 19], "path": ["0", "0", "12", "13", "14", "15", "18"], "rt": [4670, 19, 106, 10, 12], "actions": ["right", "right", "right", "up", "left"], "actionTimes": [5852, 6388, 6991, 7516, 8046], "queries": {"click": {"state": {"target": ["18"], "time": [2619]}, "edge": {"target": [], "time": []}}, "mouseover": {"state": {"target": ["12", "13", "18"], "time": [1716, 1834, 2268]}, "edge": {"target": [], "time": []}}, "mouseout": {"state": {"target": ["0", "12", "13", "18", "13"], "time": [1684, 1784, 2016, 9833, 15933]}, "edge": {"target": [], "time": []}}}, "displayed_time": "15.19", "trialTime": 16332, "trial_type": "mouselab-mdp", "trial_index": 42, "time_elapsed": 1314190, "internal_node_id": "0.0-4.0-1.0-33.0"}}, {"uniqueid": "w42337564:a68859974", "current_trial": 43, "dateTime": 1691143808050, "trialdata": {"revealed_states": [], "clicked_states": ["10"], "num_clicks_accrued": [0, 0, 0, 0, 0, 0, 0, 0, 0, 0, 0, 0, 0], "stateRewards": ["", -2, 2, -4, -4, -59, 88, 62, -3, 69, -15, -34, 1, -2, -5, 7, -54, -20, 78, -16, -74, -53, -21, 2, -4, 2, 13, -8, -44, 26, 9, 72, 4, 17], "withholdReward": false, "trial_id": "mdp_trial_35", "block": "test", "trialIndex": 36, "score": -43.15, "costs": -2.15, "simulationMode": [null, null, null, null, null], "rewards": [-2, 2, -4, -3, -34], "path": ["0", "0", "1", "2", "3", "8", "11"], "rt": [5306, 15, 23, 46, 26], "actions": ["up", "up", "up", "left", "left"], "actionTimes": [6566, 7080, 7619, 8177, 8739], "queries": {"click": {"state": {"target": ["10"], "time": [2833]}, "edge": {"target": [], "time": []}}, "mouseover": {"state": {"target": ["0", "1", "2", "10"], "time": [1267, 1864, 2079, 2312]}, "edge": {"target": [], "time": []}}, "mouseout": {"state": {"target": ["0", "1", "2", "10"], "time": [1786, 1995, 2229, 10712]}, "edge": {"target": [], "time": []}}}, "displayed_time": "15.26", "trialTime": 17014, "trial_type": "mouselab-mdp", "trial_index": 43, "time_elapsed": 1331609, "internal_node_id": "0.0-4.0-1.0-34.0"}}, {"uniqueid": "w42337564:a68859974", "current_trial": 44, "dateTime": 1691143825509, "trialdata": {"revealed_states": [], "clicked_states": ["7"], "num_clicks_accrued": [0, 0, 0, 0, 0, 0, 0, 0, 0, 0, 0, 0, 0], "stateRewards": ["", -2, -3, -7, 7, -54, -69, -4, -14, -77, 22, 40, -2, -1, 5, 6, -35, 50, -60, 10, -28, 75, 57, 1, -4, -2, 2, 68, 34, -18, 12, 3, -21, -43], "withholdReward": false, "trial_id": "mdp_trial_36", "block": "test", "trialIndex": 37, "score": -61.15, "costs": -2.15, "simulationMode": [null, null, null, null, null], "rewards": [-2, -3, -7, 7, -54], "path": ["0", "0", "1", "2", "3", "4", "5"], "rt": [4995, 14, 47, 782, 102], "actions": ["up", "up", "up", "right", "up"], "actionTimes": [6530, 7066, 7616, 8917, 9543], "queries": {"click": {"state": {"target": ["7"], "time": [2572]}, "edge": {"target": [], "time": []}}, "mouseover": {"state": {"target": ["1", "7"], "time": [2068, 2188]}, "edge": {"target": [], "time": []}}, "mouseout": {"state": {"target": ["10", "0", "1", "7"], "time": [654, 2018, 2085, 15666]}, "edge": {"target": [], "time": []}}}, "displayed_time": "15.54", "trialTime": 17082, "trial_type": "mouselab-mdp", "trial_index": 44, "time_elapsed": 1349068, "internal_node_id": "0.0-4.0-1.0-35.0"}}, {"uniqueid": "w42337564:a68859974", "current_trial": 45, "dateTime": 1691143842592, "trialdata": {"revealed_states": [], "clicked_states": ["7"], "num_clicks_accrued": [0, 0, 0, 0, 0, 0, 0, 0, 0, 0, 0, 0, 0], "stateRewards": ["", -1, -3, -7, -7, -76, 30, -49, 11, -70, 56, 2, 1, 4, -3, -14, -59, -83, -25, -9, -21, -67, -73, -2, 4, 4, -9, -11, -32, 60, 9, -87, 22, -64], "withholdReward": false, "trial_id": "mdp_trial_37", "block": "test", "trialIndex": 38, "score": -30.15, "costs": -2.15, "simulationMode": [null, null, null, null, null], "rewards": [1, 4, -3, -9, -21], "path": ["0", "0", "12", "13", "14", "19", "20"], "rt": [6356, 4, 50, 28, 517], "actions": ["right", "right", "right", "down", "right"], "actionTimes": [7899, 8419, 8975, 9525, 10557], "queries": {"click": {"state": {"target": ["7"], "time": [3581]}, "edge": {"target": [], "time": []}}, "mouseover": {"state": {"target": ["1", "2", "7"], "time": [2040, 2474, 2906]}, "edge": {"target": [], "time": []}}, "mouseout": {"state": {"target": ["7", "1", "0", "1", "2", "7"], "time": [800, 839, 1983, 2327, 2774, 13372]}, "edge": {"target": [], "time": []}}}, "displayed_time": "15.55", "trialTime": 16687, "trial_type": "mouselab-mdp", "trial_index": 45, "time_elapsed": 1366151, "internal_node_id": "0.0-4.0-1.0-36.0"}}, {"uniqueid": "w42337564:a68859974", "current_trial": 46, "dateTime": 1691143860245, "trialdata": {"revealed_states": [], "clicked_states": ["31"], "num_clicks_accrued": [0, 0, 0, 0, 0, 0, 0, 0, 0, 0, 0, 0, 0], "stateRewards": ["", 2, -2, 7, -11, -76, -65, -23, 16, -58, 30, 81, 1, 2, 7, 14, 9, 55, -2, 6, 11, -15, 31, -1, -1, -3, 2, 15, 2, 46, 15, 18, 45, -34], "withholdReward": false, "trial_id": "mdp_trial_38", "block": "test", "trialIndex": 39, "score": 25.85, "costs": -2.15, "simulationMode": [null, null, null, null, null], "rewards": [-1, -1, -3, 15, 18], "path": ["0", "0", "23", "24", "25", "30", "31"], "rt": [6064, 4, 9, 12, 446], "actions": ["left", "left", "left", "down", "right"], "actionTimes": [7967, 8482, 9021, 9539, 10506], "queries": {"click": {"state": {"target": ["31"], "time": [4713]}, "edge": {"target": [], "time": []}}, "mouseover": {"state": {"target": ["23", "24", "25", "31"], "time": [2594, 2845, 3026, 4182]}, "edge": {"target": [], "time": []}}, "mouseout": {"state": {"target": ["7", "1", "23", "24", "25", "31"], "time": [868, 1035, 2793, 2926, 3310, 5527]}, "edge": {"target": [], "time": []}}}, "displayed_time": "15.91", "trialTime": 17259, "trial_type": "mouselab-mdp", "trial_index": 46, "time_elapsed": 1383801, "internal_node_id": "0.0-4.0-1.0-37.0"}}, {"uniqueid": "w42337564:a68859974", "current_trial": 47, "dateTime": 1691143878645, "trialdata": {"revealed_states": [], "clicked_states": ["22"], "num_clicks_accrued": [0, 0, 0, 0, 0, 0, 0, 0, 0, 0, 0, 0, 0], "stateRewards": ["", -2, 4, -5, -12, 85, -24, -18, -15, -78, -22, 26, -1, -1, 2, 14, -45, 52, -23, 7, -33, 24, -6, -2, -4, 5, -7, -16, 36, -39, 5, 71, -87, -23], "withholdReward": false, "trial_id": "mdp_trial_39", "block": "test", "trialIndex": 40, "score": 25.85, "costs": -2.15, "simulationMode": [null, null, null, null, null], "rewards": [-2, -4, 5, -7, 36], "path": ["0", "0", "23", "24", "25", "26", "28"], "rt": [5746, 587, 446, 44, 34], "actions": ["left", "left", "left", "up", "right"], "actionTimes": [7434, 8540, 9500, 10046, 10586], "queries": {"click": {"state": {"target": ["22"], "time": [3326]}, "edge": {"target": [], "time": []}}, "mouseover": {"state": {"target": ["12", "22"], "time": [2878, 3035]}, "edge": {"target": [], "time": []}}, "mouseout": {"state": {"target": ["22", "12", "0", "12", "22"], "time": [561, 840, 2865, 2918, 15550]}, "edge": {"target": [], "time": []}}}, "displayed_time": "15.69", "trialTime": 17974, "trial_type": "mouselab-mdp", "trial_index": 47, "time_elapsed": 1402204, "internal_node_id": "0.0-4.0-1.0-38.0"}}, {"uniqueid": "w42337564:a68859974", "current_trial": 48, "dateTime": 1691143896567, "trialdata": {"revealed_states": [], "clicked_states": ["7"], "num_clicks_accrued": [0, 0, 0, 0, 0, 0, 0, 0, 0, 0, 0, 0, 0], "stateRewards": ["", -1, 3, 1, -7, 56, 76, 57, 3, 11, -9, 14, 1, -2, 2, 8, -77, -3, 79, -5, 88, 24, -66, -2, -1, 7, -7, -30, 14, -76, 11, -36, 28, -6], "withholdReward": false, "trial_id": "mdp_trial_40", "block": "test", "trialIndex": 41, "score": 50.85, "costs": -2.15, "simulationMode": [null, null, null, null, null], "rewards": [-1, 3, 1, -7, 57], "path": ["0", "0", "1", "2", "3", "4", "7"], "rt": [6789, 378, 46, 113, 179], "actions": ["up", "up", "up", "right", "down"], "actionTimes": [8417, 9293, 9842, 10493, 11177], "queries": {"click": {"state": {"target": ["7"], "time": [4592]}, "edge": {"target": [], "time": []}}, "mouseover": {"state": {"target": ["1", "2", "1", "2", "3", "4", "7", "7"], "time": [2363, 2513, 2696, 3030, 3429, 3746, 4045, 4364]}, "edge": {"target": [], "time": []}}, "mouseout": {"state": {"target": ["0", "1", "2", "1", "2", "3", "4", "7", "7"], "time": [2300, 2429, 2648, 2998, 3413, 3718, 4018, 4078, 13695]}, "edge": {"target": [], "time": []}}}, "displayed_time": "15.63", "trialTime": 17523, "trial_type": "mouselab-mdp", "trial_index": 48, "time_elapsed": 1420123, "internal_node_id": "0.0-4.0-1.0-39.0"}}, {"uniqueid": "w42337564:a68859974", "current_trial": 49, "dateTime": 1691143956718, "trialdata": {"rt": 60144, "response": {"Q0": "$-16 to 16", "Q1": "$-32 to $32", "Q2": "$-88 to $88", "Q3": "The cost was always $1.4.", "Q4": "Very motivated"}, "question_order": [0, 1, 2, 3, 4], "trial_id": "final_quiz_control", "trial_type": "survey-multi-choice", "trial_index": 49, "time_elapsed": 1480276, "internal_node_id": "0.0-4.0-2.0"}}, {"uniqueid": "w42337564:a68859974", "current_trial": 50, "dateTime": 1691144174863, "trialdata": {"rt": 218126, "response": {"Q0": "I didn't have a strategy. I would click on a node and if it had a positive amount of cash I would move to that node, if not i would try somewhere else.", "Q1": "No I kept to the same strategy throughout the game.", "Q2": "I felt it quite difficult to improve my performance as the majority of the nodes had a negative value."}, "trial_id": "self_report_control", "trial_type": "survey-text", "trial_index": 50, "time_elapsed": 1698421, "internal_node_id": "0.0-4.0-3.0"}}, {"uniqueid": "w42337564:a68859974", "current_trial": 51, "dateTime": 1691144236640, "trialdata": {"rt": 61752, "response": {"Q0": "Disagree", "Q1": "Disagree", "Q2": "Disagree", "Q3": "Strongly agree", "Q4": "Disagree", "Q5": "Strongly agree", "Q6": "Strongly disagree"}, "question_order": [0, 1, 2, 3, 4, 5, 6], "trial_id": "self_report_2", "trial_type": "survey-multi-choice", "trial_index": 51, "time_elapsed": 1760199, "internal_node_id": "0.0-4.0-4.0"}}, {"uniqueid": "w42337564:a68859974", "current_trial": 52, "dateTime": 1691144286630, "trialdata": {"rt": 49969, "response": {"gender": "female", "age": "41", "colorblind": "0", "effort": "0"}, "trial_type": "survey-html-form", "trial_index": 52, "time_elapsed": 1810189, "internal_node_id": "0.0-4.0-5.0"}}, {"uniqueid": "w42337564:a68859974", "current_trial": 53, "dateTime": 1691144332433, "trialdata": {"rt": 45785, "response": {"Q0": "No everything was straightforward.", "Q1": "No I had not participated in this before.", "Q2": ""}, "trial_type": "survey-text", "trial_index": 53, "time_elapsed": 1855992, "internal_node_id": "0.0-4.0-6.0"}}, {"uniqueid": "w42337564:a68859974", "current_trial": 54, "dateTime": 1691144336697, "trialdata": {"rt": 4240, "stimulus": "Press 'Finish HIT' in order to reach the completion code. Once the data has been saved, you will receive the code either in this window or in the original browser window where you started the experiment.\n", "response": 0, "trial_type": "html-button-response", "trial_index": 54, "time_elapsed": 1860255, "internal_node_id": "0.0-5.0"}}, {"uniqueid": "w42337564:a68859974", "current_trial": 55, "dateTime": 1691144337706, "trialdata": {"success": true, "trial_type": "fullscreen", "trial_index": 55, "time_elapsed": 1861265, "internal_node_id": "0.0-6.0"}}], "questiondata": {"params": {"CODE": "C6DMOQA6", "MIN_TIME": 14, "inspectCost": 1, "startTime": "Fri Aug 04 2023 10:47:55 GMT+0100 (British Summer Time)", "bonusRate": 0.002, "variance": "1_2_4_8_44", "branching": "31123"}, "final_score": -14.25}, "eventdata": [{"eventtype": "initialized", "value": null, "timestamp": 1691142475287, "interval": 0}, {"eventtype": "window_resize", "value": [1032, 608], "timestamp": 1691142475287, "interval": 0}, {"eventtype": "window_resize", "value": [1032, 608], "timestamp": 1691142475646, "interval": 359}, {"eventtype": "window_resize", "value": [1280, 720], "timestamp": 1691142479363, "interval": 3717}, {"eventtype": "window_resize", "value": [1032, 608], "timestamp": 1691144336952, "interval": 1857589}], "useragent": "Mozilla/5.0 (Windows NT 10.0; Win64; x64) AppleWebKit/537.36 (KHTML, like Gecko) Chrome/115.0.0.0 Safari/537.36", "mode": "live", "id": "w42337564:a68859974", "status": "user data saved", "Beginhit": "2023-08-04 09:47:54.779123", "Beginexp": "2023-08-04 09:48:01.079102", "Endhit": "2023-08-04 10:18:59.133492", "psiturkStatus": 3, "browser": "<redacted>", "platform": "windows", "language": "en-GB"}