{"condition": 0, "counterbalance": 0, "assignmentId": "a60237715", "workerId": "w43788815", "hitId": "h57398703", "currenttrial": 55, "bonus": 0, "data": [{"uniqueid": "w43788815:a60237715", "current_trial": 0, "dateTime": 1693388873256, "trialdata": {"success": true, "trial_type": "fullscreen", "trial_index": 0, "time_elapsed": 23436, "internal_node_id": "0.0-0.0"}}, {"uniqueid": "w43788815:a60237715", "current_trial": 1, "dateTime": 1693388905788, "trialdata": {"view_history": [{"page_index": 0, "viewing_time": 32521}], "rt": 32522, "trial_id": "exp_instructions_control", "trial_type": "instructions", "trial_index": 1, "time_elapsed": 55969, "internal_node_id": "0.0-1.0"}}, {"uniqueid": "w43788815:a60237715", "current_trial": 2, "dateTime": 1693389088505, "trialdata": {"view_history": [{"page_index": 0, "viewing_time": 71492}, {"page_index": 1, "viewing_time": 56979}, {"page_index": 2, "viewing_time": 21580}, {"page_index": 3, "viewing_time": 32664}], "rt": 182716, "trial_id": "mouselab_instructions_1_control", "trial_type": "instructions", "trial_index": 2, "time_elapsed": 238686, "internal_node_id": "0.0-2.0-1.0"}}, {"uniqueid": "w43788815:a60237715", "current_trial": 3, "dateTime": 1693389134493, "trialdata": {"revealed_states": [], "clicked_states": ["2", "13", "25", "21"], "num_clicks_accrued": [0, 0, 0, 0, 0, 0, 0, 0, 0, 0, 0, 0, 0], "stateRewards": ["", -10, -10, -10, 10, -10, -10, 10, 10, 10, -10, -10, -10, -10, 10, 10, 10, -10, 10, -10, -10, 10, -10, 10, 10, -10, -10, -10, 10, 10, -10, -10, 10, -10], "withholdReward": false, "trial_id": "practice_1", "block": "test", "trialIndex": 0, "score": -8.5, "costs": -2, "simulationMode": [null, null, null, null, null], "rewards": [-10, -10, 10, -10, 10], "path": ["0", "0", "12", "13", "14", "19", "21"], "rt": [12480, 433, 445, 1055, 444], "actions": ["right", "right", "right", "down", "down"], "actionTimes": [17379, 18327, 19286, 20862, 21817], "queries": {"click": {"state": {"target": ["2", "13", "25", "21"], "time": [6648, 8691, 10456, 12997]}, "edge": {"target": [], "time": []}}, "mouseover": {"state": {"target": ["1", "2", "13", "12", "0", "24", "25", "25", "24", "23", "22", "21", "19"], "time": [5757, 6117, 8131, 9532, 9558, 9592, 9629, 10029, 11381, 11413, 11522, 12327, 14279]}, "edge": {"target": [], "time": []}}, "mouseout": {"state": {"target": ["12", "1", "2", "13", "12", "0", "24", "25", "25", "24", "23", "22", "21", "19", "21", "20", "22", "0", "1", "18", "15", "17", "20", "19"], "time": [3598, 5772, 7830, 9526, 9550, 9588, 9610, 9794, 11365, 11397, 11428, 12196, 14196, 14306, 25794, 26443, 31809, 32276, 33791, 33935, 35040, 35070, 37657, 41495]}, "edge": {"target": [], "time": []}}}, "displayed_time": "22.34", "trialTime": 44328, "trial_type": "mouselab-mdp", "trial_index": 3, "time_elapsed": 284672, "internal_node_id": "0.0-2.0-2.0-0.0"}}, {"uniqueid": "w43788815:a60237715", "current_trial": 4, "dateTime": 1693389164550, "trialdata": {"revealed_states": [], "clicked_states": ["3", "26", "33", "15", "19", "11", "5"], "num_clicks_accrued": [0, 0, 0, 0, 0, 0, 0, 0, 0, 0, 0, 0, 0], "stateRewards": ["", 10, -10, -10, 10, 10, -10, 10, -10, -10, 10, 10, 10, -10, 10, -10, -10, 10, -10, -10, 10, -10, -10, 10, -10, 10, -10, -10, -10, -10, 10, 10, 10, 10], "withholdReward": false, "trial_id": "practice_2", "block": "test", "trialIndex": 1, "score": 10, "costs": -3.5, "simulationMode": [null, null, null, null, null], "rewards": [10, -10, -10, 10, 10], "path": ["0", "0", "1", "2", "3", "4", "5"], "rt": [15125, 163, 532, 600, 1618], "actions": ["up", "up", "up", "right", "up"], "actionTimes": [18806, 19490, 20538, 21655, 23790], "queries": {"click": {"state": {"target": ["3", "26", "33", "15", "19", "11", "5"], "time": [5126, 6489, 7952, 10082, 12380, 14372, 16420]}, "edge": {"target": [], "time": []}}, "mouseover": {"state": {"target": ["1", "2", "3", "10", "26", "25", "33", "30", "12", "13", "15", "19", "13", "2", "8", "11", "9", "5"], "time": [4154, 4320, 4588, 5820, 5913, 7156, 7490, 8606, 8693, 8718, 9171, 11841, 13139, 13205, 13612, 13995, 15423, 15746]}, "edge": {"target": [], "time": []}}, "mouseout": {"state": {"target": ["19", "12", "0", "0", "0", "1", "2", "3", "10", "26", "25", "33", "30", "12", "13", "15", "15", "19", "13", "2", "8", "11", "9", "5", "17"], "time": [1959, 2495, 2607, 2954, 4094, 4279, 4544, 5773, 5837, 7123, 7252, 8590, 8630, 8711, 8728, 10292, 10989, 13122, 13155, 13578, 13662, 14573, 15541, 17171, 25725]}, "edge": {"target": [], "time": []}}}, "displayed_time": "24.29", "trialTime": 29458, "trial_type": "mouselab-mdp", "trial_index": 4, "time_elapsed": 314730, "internal_node_id": "0.0-2.0-2.0-1.0"}}, {"uniqueid": "w43788815:a60237715", "current_trial": 5, "dateTime": 1693389204824, "trialdata": {"view_history": [{"page_index": 0, "viewing_time": 28768}, {"page_index": 1, "viewing_time": 11495}], "rt": 40264, "trial_id": "mouselab_instructions_2_control", "trial_type": "instructions", "trial_index": 5, "time_elapsed": 355004, "internal_node_id": "0.0-2.0-3.0"}}, {"uniqueid": "w43788815:a60237715", "current_trial": 6, "dateTime": 1693389246520, "trialdata": {"rt": 41671, "response": {"Q0": "The cost for clicking on nodes may vary between nodes.", "Q1": "The better I perform the higher my bonus will be.", "Q2": "No, the amount of cash at each node of the web may be different each time.", "Q3": "To get the highest total score.", "Q4": "Only before moving the spider.", "Q5": "3 seconds"}, "question_order": [0, 1, 2, 3, 4, 5], "correct": {"Q0": "The cost for clicking on nodes may vary between nodes.", "Q1": "The better I perform the higher my bonus will be.", "Q2": "No, the amount of cash at each node of the web may be different each time.", "Q3": "To get the highest total score.", "Q4": "Only before moving the spider.", "Q5": "3 seconds"}, "trial_id": "mouselab_quiz_control", "trial_type": "survey-multi-choice", "trial_index": 6, "time_elapsed": 396701, "internal_node_id": "0.0-2.0-4.0"}}, {"uniqueid": "w43788815:a60237715", "current_trial": 7, "dateTime": 1693389254878, "trialdata": {"rt": 8326, "response": {"Q0": "No"}, "question_order": [0], "trial_id": "repeat_check", "trial_type": "survey-multi-choice", "trial_index": 7, "time_elapsed": 405058, "internal_node_id": "0.0-4.0-0.0"}}, {"uniqueid": "w43788815:a60237715", "current_trial": 8, "dateTime": 1693389272018, "trialdata": {"rt": 17118, "stimulus": "\n<h1> Get ready to start the game! </h1>\n\nThank you for reading the instructions. Get ready start with the 40 rounds of this game.\n<br><br>\nIf you need to take a break, feel free to take one after the end of a round, before continuing to the next one.\n<br><br>\nRemember, the more money the spider gets, the bigger your bonus will be!\n<br><br>\n<div style='text-align: center;'>Press <code>space</code> to begin.</div>\n\n<br><br>\n(If, at any point, the <code>space</code> key does not take you to the next page, click once on the text and try again.)", "response": " ", "trial_id": "mdp_ready", "trial_type": "html-keyboard-response", "trial_index": 8, "time_elapsed": 422199, "internal_node_id": "0.0-6.0-0.0"}}, {"uniqueid": "w43788815:a60237715", "current_trial": 9, "dateTime": 1693389297387, "trialdata": {"revealed_states": [], "clicked_states": ["2", "25", "14", "21"], "num_clicks_accrued": [0, 0, 0, 0, 0, 0, 0, 0, 0, 0, 0, 0, 0], "stateRewards": ["", -1, 3, 8, 10, -86, 61, -36, 10, 17, -60, 24, -1, -3, 3, 11, 50, 60, 33, -3, -20, 58, -6, 1, -4, -4, 13, -70, -71, 43, 14, 52, 82, -11], "withholdReward": false, "trial_id": "mdp_trial_1", "block": "test", "trialIndex": 2, "score": 48.4, "costs": -5.6, "simulationMode": [null, null, null, null, null], "rewards": [-1, -3, 3, -3, 58], "path": ["0", "0", "12", "13", "14", "19", "21"], "rt": [11015, 5, 438, 760, 656], "actions": ["right", "right", "right", "down", "down"], "actionTimes": [13882, 14397, 15364, 16637, 17816], "queries": {"click": {"state": {"target": ["2", "25", "14", "21"], "time": [4426, 8113, 9932, 11846]}, "edge": {"target": [], "time": []}}, "mouseover": {"state": {"target": ["1", "2", "18", "15", "18", "23", "24", "25", "23", "24", "25", "24", "22", "14", "14", "19", "21"], "time": [3628, 3964, 5076, 5109, 6220, 6423, 6490, 6573, 7349, 7376, 7630, 8561, 8796, 9169, 9392, 10443, 10908]}, "edge": {"target": [], "time": []}}, "mouseout": {"state": {"target": ["0", "1", "2", "2", "18", "15", "18", "23", "24", "25", "23", "24", "25", "24", "22", "14", "14", "19", "21"], "time": [3575, 3653, 4639, 4976, 5093, 6183, 6265, 6457, 6522, 6715, 7371, 7392, 8542, 8580, 9007, 9202, 10426, 10691, 22278]}, "edge": {"target": [], "time": []}}}, "displayed_time": "18.32", "trialTime": 24733, "trial_type": "mouselab-mdp", "trial_index": 9, "time_elapsed": 447566, "internal_node_id": "0.0-6.0-1.0-0.0"}}, {"uniqueid": "w43788815:a60237715", "current_trial": 10, "dateTime": 1693389323827, "trialdata": {"revealed_states": [], "clicked_states": ["3", "14", "30", "20", "21"], "num_clicks_accrued": [0, 0, 0, 0, 0, 0, 0, 0, 0, 0, 0, 0, 0], "stateRewards": ["", 1, 4, -8, -5, -15, -7, 21, 13, -30, 40, -65, 1, 1, 5, -14, 35, 27, -38, -11, 36, -58, -47, -2, 4, -3, 13, -16, -49, 22, 15, -56, -44, -10], "withholdReward": false, "trial_id": "mdp_trial_2", "block": "test", "trialIndex": 3, "score": 25, "costs": -7, "simulationMode": [null, null, null, null, null], "rewards": [1, 1, 5, -11, 36], "path": ["0", "0", "12", "13", "14", "19", "20"], "rt": [12376, 642, 497, 674, 578], "actions": ["right", "right", "right", "down", "right"], "actionTimes": [16039, 17194, 18216, 19410, 20485], "queries": {"click": {"state": {"target": ["3", "14", "30", "20", "21"], "time": [4989, 8163, 9905, 11875, 14351]}, "edge": {"target": [], "time": []}}, "mouseover": {"state": {"target": ["1", "2", "3", "26", "23", "22", "14", "13", "31", "30", "30", "31", "19", "20", "21"], "time": [4209, 4264, 4538, 5681, 7123, 7196, 7621, 8751, 9181, 9217, 9252, 10667, 11165, 11501, 12766]}, "edge": {"target": [], "time": []}}, "mouseout": {"state": {"target": ["0", "1", "2", "3", "3", "26", "23", "22", "14", "13", "31", "30", "30", "31", "19", "20", "21"], "time": [4174, 4222, 4472, 5197, 5499, 7087, 7151, 7554, 8748, 8780, 9201, 9234, 10649, 10705, 11184, 12436, 23824]}, "edge": {"target": [], "time": []}}}, "displayed_time": "21.00", "trialTime": 25784, "trial_type": "mouselab-mdp", "trial_index": 10, "time_elapsed": 474006, "internal_node_id": "0.0-6.0-1.0-1.0"}}, {"uniqueid": "w43788815:a60237715", "current_trial": 11, "dateTime": 1693389345189, "trialdata": {"revealed_states": [], "clicked_states": ["14", "33", "9", "21"], "num_clicks_accrued": [0, 0, 0, 0, 0, 0, 0, 0, 0, 0, 0, 0, 0], "stateRewards": ["", 1, 2, 2, -15, -84, 28, -26, 13, 31, 86, 30, -2, 1, -1, -8, 66, -40, -1, -10, -32, 57, -17, 1, 2, -2, 9, -23, 77, 85, 12, -32, -62, -35], "withholdReward": false, "trial_id": "mdp_trial_3", "block": "test", "trialIndex": 4, "score": 43.4, "costs": -5.6, "simulationMode": [null, null, null, null, null], "rewards": [1, 2, 2, 13, 31], "path": ["0", "0", "1", "2", "3", "8", "9"], "rt": [9738, 637, 111, 1006, 853], "actions": ["up", "up", "up", "left", "up"], "actionTimes": [12427, 13590, 14212, 15742, 17122], "queries": {"click": {"state": {"target": ["14", "33", "9", "21"], "time": [3968, 5594, 7352, 10145]}, "edge": {"target": [], "time": []}}, "mouseover": {"state": {"target": ["12", "13", "14", "13", "12", "23", "24", "25", "30", "33", "25", "28", "10", "9", "3", "4", "16", "14", "19", "21", "22", "0"], "time": [3079, 3148, 3474, 4393, 4415, 4460, 4494, 4854, 4936, 5153, 6169, 6216, 6236, 6883, 7984, 8019, 8685, 9023, 9101, 9492, 10752, 10857]}, "edge": {"target": [], "time": []}}, "mouseout": {"state": {"target": ["20", "0", "12", "13", "14", "13", "12", "23", "24", "25", "30", "33", "25", "28", "10", "9", "3", "4", "16", "14", "19", "21", "22"], "time": [1389, 3058, 3109, 3341, 4373, 4409, 4432, 4477, 4505, 4886, 4954, 6136, 6197, 6232, 6253, 7550, 8002, 8068, 8915, 9059, 9473, 10735, 10770]}, "edge": {"target": [], "time": []}}}, "displayed_time": "17.63", "trialTime": 20667, "trial_type": "mouselab-mdp", "trial_index": 11, "time_elapsed": 495368, "internal_node_id": "0.0-6.0-1.0-2.0"}}, {"uniqueid": "w43788815:a60237715", "current_trial": 12, "dateTime": 1693389387662, "trialdata": {"revealed_states": [], "clicked_states": ["26", "19", "32", "3", "17", "14", "25", "2", "29", "11", "6", "15", "22"], "num_clicks_accrued": [0, 0, 0, 0, 0, 0, 0, 0, 0, 0, 0, 0, 0], "stateRewards": ["", -1, 2, -2, 13, -56, -28, 10, 14, 53, -80, -29, 1, -3, -3, -14, 14, 9, -40, -9, 18, 18, 48, 1, 1, 1, -9, 64, -39, -9, 7, -52, -78, 7], "withholdReward": false, "trial_id": "mdp_trial_4", "block": "test", "trialIndex": 5, "score": -14.200000000000003, "costs": -18.2, "simulationMode": [null, null, null, null, null], "rewards": [1, -3, -3, -9, 18], "path": ["0", "0", "12", "13", "14", "19", "21"], "rt": [31342, 5, 354, 980, 191], "actions": ["right", "right", "right", "down", "down"], "actionTimes": [33027, 33554, 34436, 35930, 36641], "queries": {"click": {"state": {"target": ["26", "19", "32", "3", "17", "14", "25", "2", "29", "11", "6", "15", "22"], "time": [2909, 4578, 7859, 9578, 11906, 15053, 18166, 19824, 21378, 23168, 25230, 26753, 29519]}, "edge": {"target": [], "time": []}}, "mouseover": {"state": {"target": ["28", "26", "28", "12", "13", "20", "19", "13", "18", "4", "2", "24", "30", "32", "31", "23", "2", "3", "4", "6", "17", "20", "14", "19", "23", "24", "25", "28", "10", "2", "10", "29", "10", "8", "11", "8", "3", "4", "6", "15", "15", "18", "13", "22", "12", "13"], "time": [2268, 2367, 3367, 3422, 3441, 3507, 3968, 4988, 5025, 5105, 6218, 6741, 6818, 7284, 8510, 8544, 8578, 9108, 10292, 10327, 11410, 14279, 14607, 17258, 17305, 17324, 17724, 18852, 18902, 19285, 20452, 20933, 22067, 22533, 22743, 23834, 23868, 24384, 24731, 25934, 26367, 27417, 28750, 29136, 30405, 31519]}, "edge": {"target": [], "time": []}}, "mouseout": {"state": {"target": ["0", "28", "26", "28", "12", "13", "20", "19", "13", "18", "4", "2", "24", "30", "32", "31", "23", "2", "3", "4", "6", "17", "20", "14", "19", "23", "24", "25", "28", "10", "2", "10", "29", "10", "8", "11", "8", "3", "4", "6", "15", "15", "18", "13", "22", "12", "13", "20"], "time": [2210, 2302, 3360, 3382, 3438, 3457, 3907, 4953, 5006, 5042, 6184, 6251, 6768, 7159, 8468, 8528, 8562, 8595, 10288, 10308, 10354, 12553, 14341, 15273, 17291, 17320, 17337, 18834, 18870, 19250, 20433, 20469, 21934, 22450, 22567, 23801, 23851, 23917, 24415, 25866, 25967, 27382, 28705, 28853, 29720, 31380, 31754, 40985]}, "edge": {"target": [], "time": []}}}, "displayed_time": "37.16", "trialTime": 41663, "trial_type": "mouselab-mdp", "trial_index": 12, "time_elapsed": 537841, "internal_node_id": "0.0-6.0-1.0-3.0"}}, {"uniqueid": "w43788815:a60237715", "current_trial": 13, "dateTime": 1693389410329, "trialdata": {"revealed_states": [], "clicked_states": ["14", "3", "21", "33"], "num_clicks_accrued": [0, 0, 0, 0, 0, 0, 0, 0, 0, 0, 0, 0, 0], "stateRewards": ["", 1, 4, 5, 8, -55, -11, 8, 16, -37, 77, -22, -2, 3, -8, -10, 45, 87, -67, 4, 17, -33, -22, -1, -3, 7, 6, -39, -85, 75, -1, 7, -48, 45], "withholdReward": false, "trial_id": "mdp_trial_5", "block": "test", "trialIndex": 6, "score": 41.4, "costs": -5.6, "simulationMode": [null, null, null, null, null], "rewards": [-1, -3, 7, -1, 45], "path": ["0", "0", "23", "24", "25", "30", "33"], "rt": [13468, 291, 267, 779, 447], "actions": ["left", "left", "left", "down", "left"], "actionTimes": [15747, 16554, 17343, 18639, 19590], "queries": {"click": {"state": {"target": ["14", "3", "21", "33"], "time": [4389, 7642, 10895, 12503]}, "edge": {"target": [], "time": []}}, "mouseover": {"state": {"target": ["12", "13", "14", "13", "12", "0", "23", "30", "3", "10", "29", "21", "30", "33", "24", "1", "7", "13"], "time": [3110, 3216, 3698, 4830, 4860, 4881, 4904, 5311, 7182, 8060, 8177, 10363, 11910, 11993, 13262, 14074, 14747, 14818]}, "edge": {"target": [], "time": []}}, "mouseout": {"state": {"target": ["20", "19", "13", "1", "0", "12", "13", "14", "13", "12", "0", "23", "30", "3", "10", "29", "21", "30", "33", "24", "1", "7", "13"], "time": [832, 859, 881, 909, 3067, 3146, 3497, 4809, 4857, 4878, 4899, 4932, 6432, 8043, 8077, 9380, 11360, 11926, 13192, 13287, 14089, 14784, 14838]}, "edge": {"target": [], "time": []}}}, "displayed_time": "20.11", "trialTime": 21863, "trial_type": "mouselab-mdp", "trial_index": 13, "time_elapsed": 560509, "internal_node_id": "0.0-6.0-1.0-4.0"}}, {"uniqueid": "w43788815:a60237715", "current_trial": 14, "dateTime": 1693389437699, "trialdata": {"revealed_states": [], "clicked_states": ["11", "15", "25", "19"], "num_clicks_accrued": [0, 0, 0, 0, 0, 0, 0, 0, 0, 0, 0, 0, 0], "stateRewards": ["", -1, -3, 4, -10, -5, 79, -87, -2, 53, 29, -20, -2, -1, -5, 10, 27, 86, 46, -16, -29, 40, 3, 2, 4, -1, -6, 37, 79, -29, 7, 86, -62, 29], "withholdReward": false, "trial_id": "mdp_trial_6", "block": "test", "trialIndex": 7, "score": 23.4, "costs": -5.6, "simulationMode": [null, null, null, null, null], "rewards": [-2, -1, -5, 10, 27], "path": ["0", "0", "12", "13", "14", "15", "16"], "rt": [15319, 668, 575, 1020, 2347], "actions": ["right", "right", "right", "up", "up"], "actionTimes": [17300, 18490, 19561, 21104, 23964], "queries": {"click": {"state": {"target": ["11", "15", "25", "19"], "time": [3515, 7589, 9894, 14220]}, "edge": {"target": [], "time": []}}, "mouseover": {"state": {"target": ["10", "8", "11", "27", "26", "28", "1", "18", "15", "23", "24", "25", "23", "19"], "time": [2577, 2627, 3013, 4221, 4457, 6316, 6385, 6875, 6966, 9183, 9237, 9440, 10769, 13807]}, "edge": {"target": [], "time": []}}, "mouseout": {"state": {"target": ["22", "0", "10", "8", "11", "27", "26", "28", "1", "18", "15", "23", "24", "25", "23", "19"], "time": [759, 1257, 2618, 2654, 4121, 4241, 6294, 6334, 6417, 6915, 8570, 9220, 9300, 10748, 10801, 15319]}, "edge": {"target": [], "time": []}}}, "displayed_time": "24.48", "trialTime": 26447, "trial_type": "mouselab-mdp", "trial_index": 14, "time_elapsed": 587878, "internal_node_id": "0.0-6.0-1.0-5.0"}}, {"uniqueid": "w43788815:a60237715", "current_trial": 15, "dateTime": 1693389468003, "trialdata": {"revealed_states": [], "clicked_states": ["25", "15", "8", "14", "2"], "num_clicks_accrued": [0, 0, 0, 0, 0, 0, 0, 0, 0, 0, 0, 0, 0], "stateRewards": ["", -1, -3, 1, -4, -48, -63, -49, -2, -84, -19, 65, 2, -2, -2, -12, -4, 59, 9, 6, 75, 69, -13, -1, -3, -3, -2, -37, -68, -36, 13, 32, 18, -14], "withholdReward": false, "trial_id": "mdp_trial_7", "block": "test", "trialIndex": 8, "score": 66, "costs": -7, "simulationMode": [null, null, null, null, null], "rewards": [2, -2, -2, 6, 69], "path": ["0", "0", "12", "13", "14", "19", "21"], "rt": [18459, 590, 878, 763, 753], "actions": ["right", "right", "right", "down", "down"], "actionTimes": [21301, 22409, 23810, 25095, 26352], "queries": {"click": {"state": {"target": ["25", "15", "8", "14", "2"], "time": [4548, 6581, 9366, 13809, 17083]}, "edge": {"target": [], "time": []}}, "mouseover": {"state": {"target": ["23", "24", "25", "24", "18", "15", "15", "7", "3", "8", "2", "14", "14", "17", "16", "7", "2", "7"], "time": [3740, 3778, 4103, 5252, 5351, 5373, 6134, 7870, 8430, 8651, 10035, 12871, 13271, 15823, 15884, 16364, 16737, 17635]}, "edge": {"target": [], "time": []}}, "mouseout": {"state": {"target": ["17", "15", "18", "0", "0", "23", "24", "25", "24", "18", "15", "15", "7", "3", "8", "8", "2", "14", "14", "17", "16", "7", "2", "7"], "time": [955, 990, 1031, 1388, 3707, 3756, 3805, 5234, 5269, 5370, 5394, 7785, 8396, 8464, 9572, 10017, 10066, 12913, 14683, 15865, 16304, 16396, 17614, 17651]}, "edge": {"target": [], "time": []}}}, "displayed_time": "26.86", "trialTime": 29172, "trial_type": "mouselab-mdp", "trial_index": 15, "time_elapsed": 618183, "internal_node_id": "0.0-6.0-1.0-6.0"}}, {"uniqueid": "w43788815:a60237715", "current_trial": 16, "dateTime": 1693389490392, "trialdata": {"revealed_states": [], "clicked_states": [], "num_clicks_accrued": [0, 0, 0, 0, 0, 0, 0, 0, 0, 0, 0, 0, 0], "stateRewards": ["", -2, -1, -1, 5, -54, -87, 35, 2, -8, 20, -22, 1, 3, 6, 13, -75, -32, -55, -3, 56, 62, -22, -1, -4, -1, -7, -51, 84, 70, 7, -15, 5, 55], "withholdReward": false, "trial_id": "mdp_trial_8", "block": "test", "trialIndex": 9, "score": -53, "costs": 0, "simulationMode": [null, null, null, null, null], "rewards": [-2, -1, -1, 5, -54], "path": ["0", "0", "1", "2", "3", "4", "5"], "rt": [2641, 590, 471, 324, 1283], "actions": ["up", "up", "up", "right", "up"], "actionTimes": [5103, 6207, 7222, 8056, 9849], "queries": {"click": {"state": {"target": [], "time": []}, "edge": {"target": [], "time": []}}, "mouseover": {"state": {"target": [], "time": []}, "edge": {"target": [], "time": []}}, "mouseout": {"state": {"target": ["18", "0", "7", "3", "3", "2", "28", "26", "23"], "time": [13, 13168, 14118, 15234, 17483, 18484, 19133, 20616, 20692]}, "edge": {"target": [], "time": []}}}, "displayed_time": "16.47", "trialTime": 21381, "trial_type": "mouselab-mdp", "trial_index": 16, "time_elapsed": 640571, "internal_node_id": "0.0-6.0-1.0-7.0"}}, {"uniqueid": "w43788815:a60237715", "current_trial": 17, "dateTime": 1693389517336, "trialdata": {"revealed_states": [], "clicked_states": ["24", "14", "3", "32", "21"], "num_clicks_accrued": [0, 0, 0, 0, 0, 0, 0, 0, 0, 0, 0, 0, 0], "stateRewards": ["", -2, 2, 3, -7, 76, 63, 21, 15, 35, -8, -44, 1, 1, -2, -12, 23, 24, 76, -9, 46, 66, -49, -2, -1, 7, 12, 40, -71, -45, -6, 38, -49, 46], "withholdReward": false, "trial_id": "mdp_trial_9", "block": "test", "trialIndex": 10, "score": 50, "costs": -7, "simulationMode": [null, null, null, null, null], "rewards": [1, 1, -2, -9, 66], "path": ["0", "0", "12", "13", "14", "19", "21"], "rt": [16492, 598, 452, 885, 493], "actions": ["right", "right", "right", "down", "down"], "actionTimes": [18863, 19977, 20949, 22345, 23353], "queries": {"click": {"state": {"target": ["24", "14", "3", "32", "21"], "time": [3799, 5678, 7285, 10413, 14844]}, "edge": {"target": [], "time": []}}, "mouseover": {"state": {"target": ["23", "24", "12", "13", "14", "18", "7", "3", "10", "28", "30", "32", "21"], "time": [3131, 3285, 4531, 4566, 4601, 6432, 6463, 6531, 8081, 8124, 8878, 9197, 14129]}, "edge": {"target": [], "time": []}}, "mouseout": {"state": {"target": ["0", "23", "24", "12", "13", "14", "18", "7", "3", "10", "28", "30", "32", "21"], "time": [3108, 3178, 4464, 4547, 4584, 6394, 6460, 6482, 8062, 8103, 8816, 9013, 11211, 15855]}, "edge": {"target": [], "time": []}}}, "displayed_time": "23.88", "trialTime": 26040, "trial_type": "mouselab-mdp", "trial_index": 17, "time_elapsed": 667516, "internal_node_id": "0.0-6.0-1.0-8.0"}}, {"uniqueid": "w43788815:a60237715", "current_trial": 18, "dateTime": 1693389538100, "trialdata": {"revealed_states": [], "clicked_states": ["29", "17", "3"], "num_clicks_accrued": [0, 0, 0, 0, 0, 0, 0, 0, 0, 0, 0, 0, 0], "stateRewards": ["", 1, 4, 5, -5, 58, -80, 75, 6, 25, -39, 46, 2, -2, 4, 2, 59, 31, -22, -12, -61, 15, 72, 1, -2, -7, 8, 77, 76, -23, -7, 71, -15, -3], "withholdReward": false, "trial_id": "mdp_trial_10", "block": "test", "trialIndex": 11, "score": 32.8, "costs": -4.199999999999999, "simulationMode": [null, null, null, null, null], "rewards": [2, -2, 4, 2, 31], "path": ["0", "0", "12", "13", "14", "15", "17"], "rt": [8186, 587, 710, 787, 188], "actions": ["right", "right", "right", "up", "right"], "actionTimes": [11820, 12928, 14150, 15445, 16130], "queries": {"click": {"state": {"target": ["29", "17", "3"], "time": [5603, 7714, 9678]}, "edge": {"target": [], "time": []}}, "mouseover": {"state": {"target": ["23", "26", "29", "23", "12", "13", "17", "17", "15", "3", "16"], "time": [4547, 4770, 4969, 6293, 6359, 6828, 6925, 7262, 8495, 9156, 10540]}, "edge": {"target": [], "time": []}}, "mouseout": {"state": {"target": ["20", "14", "13", "12", "23", "26", "29", "23", "12", "13", "17", "17", "15", "3", "16"], "time": [1522, 2009, 2057, 2576, 4618, 4912, 6224, 6311, 6824, 6845, 6943, 8474, 8514, 9879, 10559]}, "edge": {"target": [], "time": []}}}, "displayed_time": "17.64", "trialTime": 19572, "trial_type": "mouselab-mdp", "trial_index": 18, "time_elapsed": 688280, "internal_node_id": "0.0-6.0-1.0-9.0"}}, {"uniqueid": "w43788815:a60237715", "current_trial": 19, "dateTime": 1693389563172, "trialdata": {"revealed_states": [], "clicked_states": ["32", "9", "19"], "num_clicks_accrued": [0, 0, 0, 0, 0, 0, 0, 0, 0, 0, 0, 0, 0], "stateRewards": ["", -2, -3, -6, -7, 9, 16, 65, 5, -41, 20, -25, -1, -4, 1, -11, -49, -4, 71, 1, 39, -62, 52, -2, -3, 7, -9, -28, -70, 84, 8, 24, -58, 82], "withholdReward": false, "trial_id": "mdp_trial_11", "block": "test", "trialIndex": 12, "score": -68.2, "costs": -4.199999999999999, "simulationMode": [null, null, null, null, null], "rewards": [-1, -4, 1, -11, -49], "path": ["0", "0", "12", "13", "14", "15", "16"], "rt": [13840, 650, 560, 644, 914], "actions": ["right", "right", "right", "up", "up"], "actionTimes": [16115, 17277, 18354, 19528, 21001], "queries": {"click": {"state": {"target": ["32", "9", "19"], "time": [4182, 5867, 8447]}, "edge": {"target": [], "time": []}}, "mouseover": {"state": {"target": ["23", "31", "32", "23", "2", "9", "3", "7", "13", "19", "14", "15", "20"], "time": [3384, 3430, 3782, 4736, 4829, 5319, 6565, 6626, 7240, 7687, 10730, 11647, 12589]}, "edge": {"target": [], "time": []}}, "mouseout": {"state": {"target": ["13", "12", "23", "31", "32", "23", "2", "9", "3", "7", "13", "19", "14", "15", "20"], "time": [964, 1005, 3428, 3654, 4663, 4771, 5228, 6546, 6590, 6668, 7261, 10686, 10808, 12482, 14821]}, "edge": {"target": [], "time": []}}}, "displayed_time": "21.51", "trialTime": 23770, "trial_type": "mouselab-mdp", "trial_index": 19, "time_elapsed": 713352, "internal_node_id": "0.0-6.0-1.0-10.0"}}, {"uniqueid": "w43788815:a60237715", "current_trial": 20, "dateTime": 1693389583081, "trialdata": {"revealed_states": [], "clicked_states": ["25", "14", "5"], "num_clicks_accrued": [0, 0, 0, 0, 0, 0, 0, 0, 0, 0, 0, 0, 0], "stateRewards": ["", -2, -3, 4, 1, 33, -53, 15, 9, -12, 61, -6, -2, 4, 6, -11, 47, -43, -7, -11, 46, 23, -28, -1, -1, 3, -10, 11, 76, -76, 10, 18, -38, 87], "withholdReward": false, "trial_id": "mdp_trial_12", "block": "test", "trialIndex": 13, "score": 28.8, "costs": -4.199999999999999, "simulationMode": [null, null, null, null, null], "rewards": [-2, -3, 4, 1, 33], "path": ["0", "0", "1", "2", "3", "4", "5"], "rt": [10328, 569, 392, 461, 865], "actions": ["up", "up", "up", "right", "up"], "actionTimes": [12263, 13357, 14262, 15248, 16635], "queries": {"click": {"state": {"target": ["25", "14", "5"], "time": [3230, 6028, 7972]}, "edge": {"target": [], "time": []}}, "mouseover": {"state": {"target": ["23", "24", "25", "24", "13", "14", "14", "18", "5", "4", "18"], "time": [2587, 2622, 2778, 3921, 4021, 4523, 5674, 6654, 7443, 9075, 9826]}, "edge": {"target": [], "time": []}}, "mouseout": {"state": {"target": ["21", "12", "0", "23", "24", "25", "24", "13", "14", "14", "18", "5", "4", "18"], "time": [607, 789, 2558, 2605, 2668, 3429, 3943, 4454, 4653, 6622, 6676, 9056, 9127, 9864]}, "edge": {"target": [], "time": []}}}, "displayed_time": "17.15", "trialTime": 18861, "trial_type": "mouselab-mdp", "trial_index": 20, "time_elapsed": 733261, "internal_node_id": "0.0-6.0-1.0-11.0"}}, {"uniqueid": "w43788815:a60237715", "current_trial": 21, "dateTime": 1693389602823, "trialdata": {"revealed_states": [], "clicked_states": ["27", "16"], "num_clicks_accrued": [0, 0, 0, 0, 0, 0, 0, 0, 0, 0, 0, 0, 0], "stateRewards": ["", -1, 4, -3, 3, 57, -61, 5, -11, 23, -1, 34, -2, -4, -1, -13, 27, 38, -36, 4, -45, 21, 88, 1, -2, -1, 1, -69, -5, -78, -12, -9, 38, -54], "withholdReward": false, "trial_id": "mdp_trial_13", "block": "test", "trialIndex": 14, "score": 4.199999999999999, "costs": -2.8, "simulationMode": [null, null, null, null, null], "rewards": [-2, -4, -1, -13, 27], "path": ["0", "0", "12", "13", "14", "15", "16"], "rt": [6990, 605, 426, 528, 617], "actions": ["right", "right", "right", "up", "up"], "actionTimes": [9236, 10369, 11323, 12372, 13499], "queries": {"click": {"state": {"target": ["27", "16"], "time": [3953, 5880]}, "edge": {"target": [], "time": []}}, "mouseover": {"state": {"target": ["28", "27", "18", "16", "15", "14", "19"], "time": [3243, 3498, 4712, 5193, 6845, 6914, 7604]}, "edge": {"target": [], "time": []}}, "mouseout": {"state": {"target": ["0", "28", "27", "18", "16", "15", "14", "19"], "time": [1146, 3284, 4561, 5109, 6810, 6880, 7566, 7678]}, "edge": {"target": [], "time": []}}}, "displayed_time": "16.25", "trialTime": 18162, "trial_type": "mouselab-mdp", "trial_index": 21, "time_elapsed": 753001, "internal_node_id": "0.0-6.0-1.0-12.0"}}, {"uniqueid": "w43788815:a60237715", "current_trial": 22, "dateTime": 1693389625524, "trialdata": {"revealed_states": [], "clicked_states": ["2", "25", "14", "32"], "num_clicks_accrued": [0, 0, 0, 0, 0, 0, 0, 0, 0, 0, 0, 0, 0], "stateRewards": ["", 1, -2, -8, -13, 4, 34, -84, -4, -49, 88, -70, -1, 3, -4, 10, -77, 13, -34, 15, -21, -16, 27, 1, -2, 8, -8, -6, 38, -26, 6, -15, 66, -3], "withholdReward": false, "trial_id": "mdp_trial_14", "block": "test", "trialIndex": 15, "score": 73.4, "costs": -5.6, "simulationMode": [null, null, null, null, null], "rewards": [1, -2, 8, 6, 66], "path": ["0", "0", "23", "24", "25", "30", "32"], "rt": [11551, 558, 573, 581, 588], "actions": ["left", "left", "left", "down", "down"], "actionTimes": [14311, 15395, 16491, 17583, 18674], "queries": {"click": {"state": {"target": ["2", "25", "14", "32"], "time": [4229, 6016, 7850, 11104]}, "edge": {"target": [], "time": []}}, "mouseover": {"state": {"target": ["1", "2", "24", "25", "24", "12", "13", "14", "22", "32"], "time": [3634, 3719, 5483, 5546, 6639, 6742, 7204, 7259, 9288, 10301]}, "edge": {"target": [], "time": []}}, "mouseout": {"state": {"target": ["0", "1", "2", "2", "24", "25", "24", "12", "13", "14", "22", "32"], "time": [1705, 3675, 4393, 4952, 5508, 6636, 6659, 6778, 7223, 9234, 9312, 11870]}, "edge": {"target": [], "time": []}}}, "displayed_time": "19.18", "trialTime": 21276, "trial_type": "mouselab-mdp", "trial_index": 22, "time_elapsed": 775704, "internal_node_id": "0.0-6.0-1.0-13.0"}}, {"uniqueid": "w43788815:a60237715", "current_trial": 23, "dateTime": 1693389644977, "trialdata": {"revealed_states": [], "clicked_states": ["10"], "num_clicks_accrued": [0, 0, 0, 0, 0, 0, 0, 0, 0, 0, 0, 0, 0], "stateRewards": ["", -1, 1, 8, -3, -24, 11, -65, -6, -77, 48, 44, -2, 1, -2, -7, -55, -35, 33, 8, -28, 19, -53, -1, -1, -5, -5, -70, 10, 44, 8, -58, -70, 51], "withholdReward": false, "trial_id": "mdp_trial_15", "block": "test", "trialIndex": 16, "score": 48.6, "costs": -1.4, "simulationMode": [null, null, null, null, null], "rewards": [-1, 1, 8, -6, 48], "path": ["0", "0", "1", "2", "3", "8", "10"], "rt": [4922, 585, 511, 420, 214], "actions": ["up", "up", "up", "left", "down"], "actionTimes": [7315, 8412, 9457, 10379, 11090], "queries": {"click": {"state": {"target": ["10"], "time": [3864]}, "edge": {"target": [], "time": []}}, "mouseover": {"state": {"target": ["1", "10", "7", "15"], "time": [3296, 3392, 4542, 4587]}, "edge": {"target": [], "time": []}}, "mouseout": {"state": {"target": ["12", "1", "10", "7"], "time": [1038, 3350, 4064, 4582]}, "edge": {"target": [], "time": []}}}, "displayed_time": "16.40", "trialTime": 17922, "trial_type": "mouselab-mdp", "trial_index": 23, "time_elapsed": 795157, "internal_node_id": "0.0-6.0-1.0-14.0"}}, {"uniqueid": "w43788815:a60237715", "current_trial": 24, "dateTime": 1693389670746, "trialdata": {"revealed_states": [], "clicked_states": ["18", "26", "3", "30", "22"], "num_clicks_accrued": [0, 0, 0, 0, 0, 0, 0, 0, 0, 0, 0, 0, 0], "stateRewards": ["", -1, 2, -6, 6, 43, 78, 78, -2, 55, -29, -17, -2, -4, 1, -15, 13, 7, -79, 8, -28, -68, 36, -1, -3, 3, -16, 84, -18, 87, 10, 32, 13, -81], "withholdReward": false, "trial_id": "mdp_trial_16", "block": "test", "trialIndex": 17, "score": 32, "costs": -7, "simulationMode": [null, null, null, null, null], "rewards": [-2, -4, 1, 8, 36], "path": ["0", "0", "12", "13", "14", "19", "22"], "rt": [15650, 7, 575, 734, 803], "actions": ["right", "right", "right", "down", "left"], "actionTimes": [18354, 18876, 19974, 21232, 22550], "queries": {"click": {"state": {"target": ["18", "26", "3", "30", "22"], "time": [4628, 6751, 9222, 12260, 14956]}, "edge": {"target": [], "time": []}}, "mouseover": {"state": {"target": ["12", "13", "18", "1", "28", "26", "10", "3", "24", "25", "30", "31", "19", "22", "19"], "time": [3563, 3683, 4021, 5634, 6100, 6211, 7731, 8486, 11470, 11560, 11762, 13067, 14010, 14080, 16192]}, "edge": {"target": [], "time": []}}, "mouseout": {"state": {"target": ["15", "12", "12", "13", "18", "1", "28", "26", "10", "3", "24", "25", "30", "31", "19", "22", "19"], "time": [999, 1147, 3659, 3796, 5576, 5672, 6136, 7650, 7820, 10701, 11510, 11628, 13047, 13090, 14077, 16170, 16214]}, "edge": {"target": [], "time": []}}}, "displayed_time": "23.06", "trialTime": 24819, "trial_type": "mouselab-mdp", "trial_index": 24, "time_elapsed": 820926, "internal_node_id": "0.0-6.0-1.0-15.0"}}, {"uniqueid": "w43788815:a60237715", "current_trial": 25, "dateTime": 1693389701886, "trialdata": {"revealed_states": [], "clicked_states": ["2", "25", "14", "32", "9", "21", "16"], "num_clicks_accrued": [0, 0, 0, 0, 0, 0, 0, 0, 0, 0, 0, 0, 0], "stateRewards": ["", -1, 1, 6, -6, 70, 66, 67, -16, -75, -35, 37, -1, 4, 4, -6, 47, -9, 63, 15, 21, -63, 13, 1, 3, -6, 10, 79, -29, 18, -15, 9, -67, -19], "withholdReward": false, "trial_id": "mdp_trial_17", "block": "test", "trialIndex": 18, "score": 38.2, "costs": -9.8, "simulationMode": [null, null, null, null, null], "rewards": [-1, 4, 4, -6, 47], "path": ["0", "0", "12", "13", "14", "15", "16"], "rt": [20324, 549, 179, 624, 354], "actions": ["right", "right", "right", "up", "up"], "actionTimes": [23350, 24427, 25104, 26250, 27113], "queries": {"click": {"state": {"target": ["2", "25", "14", "32", "9", "21", "16"], "time": [4933, 6726, 8949, 11895, 14414, 17434, 20073]}, "edge": {"target": [], "time": []}}, "mouseover": {"state": {"target": ["1", "2", "28", "25", "24", "13", "14", "18", "12", "32", "24", "10", "8", "9", "8", "2", "12", "22", "21", "21", "15", "16", "6", "5", "6"], "time": [4393, 4494, 5706, 6311, 7549, 8258, 8475, 10119, 10769, 11415, 12788, 13362, 13508, 13640, 15214, 15288, 15989, 16604, 16645, 17063, 19370, 19527, 20925, 21655, 22521]}, "edge": {"target": [], "time": []}}, "mouseout": {"state": {"target": ["14", "12", "1", "2", "28", "25", "24", "13", "14", "18", "12", "32", "24", "10", "8", "9", "8", "2", "12", "22", "21", "21", "15", "16", "6", "5", "6"], "time": [1628, 1725, 4442, 5639, 5729, 7545, 7571, 8312, 10074, 10144, 10809, 12101, 12826, 13429, 13574, 15211, 15234, 15326, 16023, 16641, 16675, 18843, 19421, 20859, 21575, 22464, 22571]}, "edge": {"target": [], "time": []}}}, "displayed_time": "27.63", "trialTime": 29720, "trial_type": "mouselab-mdp", "trial_index": 25, "time_elapsed": 852066, "internal_node_id": "0.0-6.0-1.0-16.0"}}, {"uniqueid": "w43788815:a60237715", "current_trial": 26, "dateTime": 1693389739907, "trialdata": {"revealed_states": [], "clicked_states": ["3", "29", "15", "30", "22", "20", "8", "27"], "num_clicks_accrued": [0, 0, 0, 0, 0, 0, 0, 0, 0, 0, 0, 0, 0], "stateRewards": ["", 1, -1, 8, -3, 38, 85, -20, -4, 8, 23, 73, 2, -4, 6, -13, 44, 7, -28, -11, -77, 45, -69, 1, -1, -7, -11, 75, -51, -87, 7, 36, -53, -26], "withholdReward": false, "trial_id": "mdp_trial_18", "block": "test", "trialIndex": 19, "score": 45.8, "costs": -11.200000000000001, "simulationMode": [null, null, null, null, null], "rewards": [1, -1, -7, -11, 75], "path": ["0", "0", "23", "24", "25", "26", "27"], "rt": [26320, 526, 77, 718, 545], "actions": ["left", "left", "left", "up", "up"], "actionTimes": [28635, 29666, 30295, 31531, 32575], "queries": {"click": {"state": {"target": ["3", "29", "15", "30", "22", "20", "8", "27"], "time": [4450, 6417, 9139, 12035, 14799, 18188, 21171, 24899]}, "edge": {"target": [], "time": []}}, "mouseover": {"state": {"target": ["1", "3", "26", "29", "26", "2", "15", "18", "12", "0", "23", "31", "30", "31", "22", "15", "17", "15", "20", "17", "16", "4", "3", "8", "7", "27", "27", "18"], "time": [3344, 4040, 5784, 5881, 7036, 7183, 8455, 10003, 10663, 10714, 10763, 11339, 11422, 12853, 14270, 15716, 16419, 17103, 17587, 19435, 19970, 20462, 20500, 20611, 21887, 24285, 24482, 27275]}, "edge": {"target": [], "time": []}}, "mouseout": {"state": {"target": ["16", "18", "1", "3", "26", "29", "26", "2", "15", "18", "12", "0", "23", "31", "30", "31", "22", "15", "17", "15", "20", "17", "16", "4", "3", "8", "7", "27", "27", "18", "13"], "time": [1017, 1054, 3370, 5067, 5805, 7034, 7060, 7204, 10000, 10029, 10678, 10732, 10782, 11383, 12834, 12874, 15604, 16397, 16446, 17496, 18749, 19455, 20011, 20481, 20545, 21816, 21926, 24326, 25515, 27511, 35132]}, "edge": {"target": [], "time": []}}}, "displayed_time": "33.08", "trialTime": 36391, "trial_type": "mouselab-mdp", "trial_index": 26, "time_elapsed": 890087, "internal_node_id": "0.0-6.0-1.0-17.0"}}, {"uniqueid": "w43788815:a60237715", "current_trial": 27, "dateTime": 1693389768365, "trialdata": {"revealed_states": [], "clicked_states": ["23", "18", "8", "25", "22"], "num_clicks_accrued": [0, 0, 0, 0, 0, 0, 0, 0, 0, 0, 0, 0, 0], "stateRewards": ["", 1, 2, -6, -13, -51, 22, -4, -12, -44, -12, 6, -2, -2, -2, -14, -46, -4, -77, -2, 36, -79, 41, 2, -4, 2, -6, -55, 59, 70, -5, 39, -19, 24], "withholdReward": false, "trial_id": "mdp_trial_19", "block": "test", "trialIndex": 20, "score": 26, "costs": -7, "simulationMode": [null, null, null, null, null], "rewards": [-2, -2, -2, -2, 41], "path": ["0", "0", "12", "13", "14", "19", "22"], "rt": [17481, 944, 600, 708, 348], "actions": ["right", "right", "right", "down", "left"], "actionTimes": [19899, 21369, 22508, 23713, 24604], "queries": {"click": {"state": {"target": ["23", "18", "8", "25", "22"], "time": [4362, 7986, 11238, 13705, 16463]}, "edge": {"target": [], "time": []}}, "mouseover": {"state": {"target": ["23", "1", "18", "13", "13", "2", "8", "10", "24", "25", "24", "22"], "time": [3896, 5202, 7511, 9171, 9560, 10093, 10812, 11911, 12741, 13211, 14475, 15325]}, "edge": {"target": [], "time": []}}, "mouseout": {"state": {"target": ["21", "22", "0", "23", "1", "18", "13", "13", "2", "8", "10", "24", "25", "24", "22"], "time": [806, 873, 1274, 5007, 6979, 9094, 9240, 10061, 10112, 11891, 11958, 12961, 14457, 14535, 18272]}, "edge": {"target": [], "time": []}}}, "displayed_time": "25.12", "trialTime": 26975, "trial_type": "mouselab-mdp", "trial_index": 27, "time_elapsed": 918544, "internal_node_id": "0.0-6.0-1.0-18.0"}}, {"uniqueid": "w43788815:a60237715", "current_trial": 28, "dateTime": 1693389786850, "trialdata": {"revealed_states": [], "clicked_states": ["32", "21"], "num_clicks_accrued": [0, 0, 0, 0, 0, 0, 0, 0, 0, 0, 0, 0, 0], "stateRewards": ["", -2, 1, -5, 2, -68, 80, 33, 10, 67, -59, 20, -1, -3, 3, 14, 74, -2, 24, -16, 63, 80, 46, -1, 4, 6, 12, 83, -38, -43, -4, 43, 14, -79], "withholdReward": false, "trial_id": "mdp_trial_20", "block": "test", "trialIndex": 21, "score": 60.2, "costs": -2.8, "simulationMode": [null, null, null, null, null], "rewards": [-1, -3, 3, -16, 80], "path": ["0", "0", "12", "13", "14", "19", "21"], "rt": [7801, 585, 531, 552, 427], "actions": ["right", "right", "right", "down", "down"], "actionTimes": [9874, 10972, 12018, 13088, 14029], "queries": {"click": {"state": {"target": ["32", "21"], "time": [4121, 6609]}, "edge": {"target": [], "time": []}}, "mouseover": {"state": {"target": ["31", "32", "21", "2", "8", "9", "3", "18"], "time": [3468, 3716, 5525, 8006, 8150, 8737, 8823, 8899]}, "edge": {"target": [], "time": []}}, "mouseout": {"state": {"target": ["19", "0", "31", "32", "21", "2", "8", "9", "3", "18"], "time": [166, 3309, 3588, 4334, 7452, 8046, 8183, 8791, 8840, 8917]}, "edge": {"target": [], "time": []}}}, "displayed_time": "16.08", "trialTime": 17460, "trial_type": "mouselab-mdp", "trial_index": 28, "time_elapsed": 937029, "internal_node_id": "0.0-6.0-1.0-19.0"}}, {"uniqueid": "w43788815:a60237715", "current_trial": 29, "dateTime": 1693389805644, "trialdata": {"revealed_states": [], "clicked_states": ["9"], "num_clicks_accrued": [0, 0, 0, 0, 0, 0, 0, 0, 0, 0, 0, 0, 0], "stateRewards": ["", 1, 1, -3, 2, 22, -25, -11, -5, 50, 49, 3, 1, -1, 8, 14, -85, -30, 57, -6, -39, -16, 59, -2, -1, 5, 5, 59, -16, 8, 4, 67, 56, -9], "withholdReward": false, "trial_id": "mdp_trial_21", "block": "test", "trialIndex": 22, "score": 42.6, "costs": -1.4, "simulationMode": [null, null, null, null, null], "rewards": [1, 1, -3, -5, 50], "path": ["0", "0", "1", "2", "3", "8", "9"], "rt": [5112, 624, 456, 504, 269], "actions": ["up", "up", "up", "left", "up"], "actionTimes": [7711, 8851, 9850, 10863, 11648], "queries": {"click": {"state": {"target": ["9"], "time": [4025]}, "edge": {"target": [], "time": []}}, "mouseover": {"state": {"target": ["0", "9", "5"], "time": [2822, 3510, 4707]}, "edge": {"target": [], "time": []}}, "mouseout": {"state": {"target": ["18", "0", "0", "0", "9", "5", "6", "16"], "time": [840, 901, 1424, 3506, 4234, 14431, 14504, 14554]}, "edge": {"target": [], "time": []}}}, "displayed_time": "16.61", "trialTime": 17793, "trial_type": "mouselab-mdp", "trial_index": 29, "time_elapsed": 955823, "internal_node_id": "0.0-6.0-1.0-20.0"}}, {"uniqueid": "w43788815:a60237715", "current_trial": 30, "dateTime": 1693389827090, "trialdata": {"revealed_states": [], "clicked_states": ["9", "5", "29"], "num_clicks_accrued": [0, 0, 0, 0, 0, 0, 0, 0, 0, 0, 0, 0, 0], "stateRewards": ["", 1, 2, -3, -5, 66, -50, -47, -5, 1, 28, -27, 1, 1, -1, -6, 37, -25, 56, 1, -82, -66, -40, -1, -4, -7, 15, -61, -23, 26, 10, 14, -56, 29], "withholdReward": false, "trial_id": "mdp_trial_22", "block": "test", "trialIndex": 23, "score": 56.8, "costs": -4.199999999999999, "simulationMode": [null, null, null, null, null], "rewards": [1, 2, -3, -5, 66], "path": ["0", "0", "1", "2", "3", "4", "5"], "rt": [8972, 343, 409, 658, 177], "actions": ["up", "up", "up", "right", "up"], "actionTimes": [11264, 12123, 13055, 14237, 14940], "queries": {"click": {"state": {"target": ["9", "5", "29"], "time": [4404, 7343, 9625]}, "edge": {"target": [], "time": []}}, "mouseover": {"state": {"target": ["8", "9", "5", "3", "27", "29"], "time": [3165, 3967, 5066, 7820, 7913, 8633]}, "edge": {"target": [], "time": []}}, "mouseout": {"state": {"target": ["14", "13", "0", "8", "9", "5", "3", "27"], "time": [815, 831, 3011, 3399, 4899, 7796, 7844, 8449]}, "edge": {"target": [], "time": []}}}, "displayed_time": "16.29", "trialTime": 19962, "trial_type": "mouselab-mdp", "trial_index": 30, "time_elapsed": 977269, "internal_node_id": "0.0-6.0-1.0-21.0"}}, {"uniqueid": "w43788815:a60237715", "current_trial": 31, "dateTime": 1693389847000, "trialdata": {"revealed_states": [], "clicked_states": ["9", "5", "29", "17"], "num_clicks_accrued": [0, 0, 0, 0, 0, 0, 0, 0, 0, 0, 0, 0, 0], "stateRewards": ["", 1, 1, 1, -3, -7, -1, -41, -10, 20, -72, -63, 1, -4, -2, 2, -66, 30, -84, -2, 49, 23, 71, -1, -4, 4, -12, 67, 5, 18, -16, 88, 56, -5], "withholdReward": false, "trial_id": "mdp_trial_23", "block": "test", "trialIndex": 24, "score": 21.4, "costs": -5.6, "simulationMode": [null, null, null, null, null], "rewards": [1, -4, -2, 2, 30], "path": ["0", "0", "12", "13", "14", "15", "17"], "rt": [10546, 35, 557, 686, 141], "actions": ["right", "right", "right", "up", "right"], "actionTimes": [13386, 13940, 15013, 16233, 16879], "queries": {"click": {"state": {"target": ["9", "5", "29", "17"], "time": [4177, 5736, 7833, 10083]}, "edge": {"target": [], "time": []}}, "mouseover": {"state": {"target": ["1", "8", "9", "5", "5", "3", "29", "28", "1", "17", "14", "22"], "time": [3452, 3545, 3769, 4967, 5327, 6645, 7268, 8419, 8463, 9607, 11277, 11366]}, "edge": {"target": [], "time": []}}, "mouseout": {"state": {"target": ["29", "26", "28", "1", "8", "9", "5", "5", "3", "29", "28", "1", "17", "14", "22"], "time": [906, 935, 987, 3538, 3578, 4902, 5034, 6624, 6688, 8373, 8441, 8485, 11273, 11303, 11385]}, "edge": {"target": [], "time": []}}}, "displayed_time": "17.39", "trialTime": 18867, "trial_type": "mouselab-mdp", "trial_index": 31, "time_elapsed": 997180, "internal_node_id": "0.0-6.0-1.0-22.0"}}, {"uniqueid": "w43788815:a60237715", "current_trial": 32, "dateTime": 1693389869961, "trialdata": {"revealed_states": [], "clicked_states": ["9", "5", "29", "17", "32"], "num_clicks_accrued": [0, 0, 0, 0, 0, 0, 0, 0, 0, 0, 0, 0, 0], "stateRewards": ["", -1, -1, 7, -15, -43, -21, -84, -9, -45, -66, 2, 1, -2, 2, 8, -27, 44, -52, -5, -84, 11, 53, 1, 4, -4, 16, 83, -82, -15, -16, 68, -43, 81], "withholdReward": false, "trial_id": "mdp_trial_24", "block": "test", "trialIndex": 25, "score": 46, "costs": -7, "simulationMode": [null, null, null, null, null], "rewards": [1, -2, 2, 8, 44], "path": ["0", "0", "12", "13", "14", "15", "17"], "rt": [13074, 632, 535, 710, 190], "actions": ["right", "right", "right", "up", "right"], "actionTimes": [15156, 16306, 17389, 18616, 19333], "queries": {"click": {"state": {"target": ["9", "5", "29", "17", "32"], "time": [3366, 6054, 9161, 11251, 13166]}, "edge": {"target": [], "time": []}}, "mouseover": {"state": {"target": ["1", "8", "9", "5", "27", "29", "18", "15", "17", "13", "32", "22", "19"], "time": [2731, 2803, 2842, 4097, 6579, 7113, 9826, 10230, 10328, 11783, 12654, 14167, 14192]}, "edge": {"target": [], "time": []}}, "mouseout": {"state": {"target": ["0", "1", "8", "9", "5", "27", "29", "18", "15", "17", "13", "32", "22", "19"], "time": [941, 2773, 2822, 3571, 6508, 6612, 9693, 10206, 10272, 11749, 11819, 14046, 14189, 14213]}, "edge": {"target": [], "time": []}}}, "displayed_time": "19.86", "trialTime": 21468, "trial_type": "mouselab-mdp", "trial_index": 32, "time_elapsed": 1020140, "internal_node_id": "0.0-6.0-1.0-23.0"}}, {"uniqueid": "w43788815:a60237715", "current_trial": 33, "dateTime": 1693389889886, "trialdata": {"revealed_states": [], "clicked_states": ["3", "29"], "num_clicks_accrued": [0, 0, 0, 0, 0, 0, 0, 0, 0, 0, 0, 0, 0], "stateRewards": ["", -1, -3, -7, -4, -85, -70, 79, 8, 84, -66, 42, 2, -2, -3, -16, -54, -66, 68, -3, 21, -14, 7, -2, -1, -3, -8, 75, 80, 86, -7, -84, 73, -16], "withholdReward": false, "trial_id": "mdp_trial_25", "block": "test", "trialIndex": 26, "score": 69.2, "costs": -2.8, "simulationMode": [null, null, null, null, null], "rewards": [-2, -1, -3, -8, 86], "path": ["0", "0", "23", "24", "25", "26", "29"], "rt": [7306, 511, 57, 713, 159], "actions": ["left", "left", "left", "up", "left"], "actionTimes": [10040, 11067, 11631, 12885, 13585], "queries": {"click": {"state": {"target": ["3", "29"], "time": [4313, 6582]}, "edge": {"target": [], "time": []}}, "mouseover": {"state": {"target": ["1", "3", "10", "26", "29", "26", "28", "17"], "time": [3787, 3877, 5048, 5812, 5954, 7109, 7141, 8091]}, "edge": {"target": [], "time": []}}, "mouseout": {"state": {"target": ["12", "1", "3", "10", "26", "29", "26", "28"], "time": [1131, 3825, 5024, 5073, 5881, 7089, 7137, 7168]}, "edge": {"target": [], "time": []}}}, "displayed_time": "16.74", "trialTime": 18380, "trial_type": "mouselab-mdp", "trial_index": 33, "time_elapsed": 1040066, "internal_node_id": "0.0-6.0-1.0-24.0"}}, {"uniqueid": "w43788815:a60237715", "current_trial": 34, "dateTime": 1693389909305, "trialdata": {"revealed_states": [], "clicked_states": ["32", "21"], "num_clicks_accrued": [0, 0, 0, 0, 0, 0, 0, 0, 0, 0, 0, 0, 0], "stateRewards": ["", -2, -3, 1, -14, 48, -49, 67, -1, -35, -48, 3, -2, 1, -4, -5, 86, -84, 39, 1, 48, 41, -42, -1, -4, 2, -7, 18, -86, 17, 7, -9, 57, -69], "withholdReward": false, "trial_id": "mdp_trial_26", "block": "test", "trialIndex": 27, "score": 58.2, "costs": -2.8, "simulationMode": [null, null, null, null, null], "rewards": [-1, -4, 2, 7, 57], "path": ["0", "0", "23", "24", "25", "30", "32"], "rt": [5353, 684, 7, 479, 538], "actions": ["left", "left", "left", "down", "down"], "actionTimes": [8068, 9259, 9784, 10775, 11834], "queries": {"click": {"state": {"target": ["32", "21"], "time": [4238, 5874]}, "edge": {"target": [], "time": []}}, "mouseover": {"state": {"target": ["0", "23", "32", "21"], "time": [3491, 3521, 3859, 5430]}, "edge": {"target": [], "time": []}}, "mouseout": {"state": {"target": ["16", "18", "0", "23", "32"], "time": [1141, 1312, 3516, 3552, 4818]}, "edge": {"target": [], "time": []}}}, "displayed_time": "16.73", "trialTime": 17658, "trial_type": "mouselab-mdp", "trial_index": 34, "time_elapsed": 1059485, "internal_node_id": "0.0-6.0-1.0-25.0"}}, {"uniqueid": "w43788815:a60237715", "current_trial": 35, "dateTime": 1693389933512, "trialdata": {"revealed_states": [], "clicked_states": ["8", "15", "26", "32"], "num_clicks_accrued": [0, 0, 0, 0, 0, 0, 0, 0, 0, 0, 0, 0, 0], "stateRewards": ["", -2, -2, -7, -13, -10, 49, -68, -1, 84, 70, 88, 1, 4, 4, 12, -57, 25, 30, 8, -1, -77, 57, 2, 3, 2, 3, -18, -80, 23, -15, -41, 70, 11], "withholdReward": false, "trial_id": "mdp_trial_27", "block": "test", "trialIndex": 28, "score": 56.4, "costs": -5.6, "simulationMode": [null, null, null, null, null], "rewards": [2, 3, 2, -15, 70], "path": ["0", "0", "23", "24", "25", "30", "32"], "rt": [13747, 507, 216, 432, 491], "actions": ["left", "left", "left", "down", "down"], "actionTimes": [16511, 17531, 18275, 19237, 20230], "queries": {"click": {"state": {"target": ["8", "15", "26", "32"], "time": [4596, 7548, 10371, 13695]}, "edge": {"target": [], "time": []}}, "mouseover": {"state": {"target": ["8", "8", "16", "15", "1", "28", "26", "23", "32", "32"], "time": [3475, 4098, 6370, 7076, 8931, 9652, 9960, 11290, 12835, 13177]}, "edge": {"target": [], "time": []}}, "mouseout": {"state": {"target": ["21", "0", "8", "8", "16", "15", "1", "28", "26", "23", "32", "32"], "time": [838, 3338, 3520, 5378, 6678, 8354, 8967, 9857, 11185, 12717, 12868, 14304]}, "edge": {"target": [], "time": []}}}, "displayed_time": "20.75", "trialTime": 22384, "trial_type": "mouselab-mdp", "trial_index": 35, "time_elapsed": 1083691, "internal_node_id": "0.0-6.0-1.0-26.0"}}, {"uniqueid": "w43788815:a60237715", "current_trial": 36, "dateTime": 1693389961248, "trialdata": {"revealed_states": [], "clicked_states": ["9", "5", "27", "16", "32", "21"], "num_clicks_accrued": [0, 0, 0, 0, 0, 0, 0, 0, 0, 0, 0, 0, 0], "stateRewards": ["", -1, 4, 3, 12, -27, 34, -33, 3, -63, 1, 6, 2, 2, -6, -11, -77, -85, 68, -6, 51, 81, -60, -2, -2, 1, 15, 20, 15, 68, -10, -14, 6, -4], "withholdReward": false, "trial_id": "mdp_trial_28", "block": "test", "trialIndex": 29, "score": 64.6, "costs": -8.4, "simulationMode": [null, null, null, null, null], "rewards": [2, 2, -6, -6, 81], "path": ["0", "0", "12", "13", "14", "19", "21"], "rt": [17527, 636, 501, 555, 535], "actions": ["right", "right", "right", "down", "down"], "actionTimes": [19707, 20863, 21877, 22946, 23977], "queries": {"click": {"state": {"target": ["9", "5", "27", "16", "32", "21"], "time": [4052, 6149, 7850, 10503, 13424, 16028]}, "edge": {"target": [], "time": []}}, "mouseover": {"state": {"target": ["1", "10", "9", "5", "8", "27", "16", "18", "12", "31", "32", "21"], "time": [2766, 2821, 3615, 4716, 6662, 6745, 10111, 11133, 11162, 12656, 12938, 15071]}, "edge": {"target": [], "time": []}}, "mouseout": {"state": {"target": ["0", "1", "10", "9", "5", "8", "27", "16", "18", "12", "31", "32", "21"], "time": [1157, 2817, 2842, 4596, 6631, 6697, 8714, 11111, 11159, 11186, 12739, 14027, 16239]}, "edge": {"target": [], "time": []}}}, "displayed_time": "24.50", "trialTime": 25860, "trial_type": "mouselab-mdp", "trial_index": 36, "time_elapsed": 1111427, "internal_node_id": "0.0-6.0-1.0-27.0"}}, {"uniqueid": "w43788815:a60237715", "current_trial": 37, "dateTime": 1693389980526, "trialdata": {"revealed_states": [], "clicked_states": ["29", "17"], "num_clicks_accrued": [0, 0, 0, 0, 0, 0, 0, 0, 0, 0, 0, 0, 0], "stateRewards": ["", -2, -1, -4, -15, -14, -67, 32, -3, -59, 63, 31, 2, -1, -7, -15, 71, -66, -27, -3, -54, -39, 72, 2, 1, 1, -13, 77, -40, 35, -9, 35, 75, 57], "withholdReward": false, "trial_id": "mdp_trial_29", "block": "test", "trialIndex": 30, "score": 23.2, "costs": -2.8, "simulationMode": [null, null, null, null, null], "rewards": [2, 1, 1, -13, 35], "path": ["0", "0", "23", "24", "25", "26", "29"], "rt": [6667, 647, 481, 617, 136], "actions": ["left", "left", "left", "up", "left"], "actionTimes": [9022, 10185, 11185, 12303, 12957], "queries": {"click": {"state": {"target": ["29", "17"], "time": [4042, 6279]}, "edge": {"target": [], "time": []}}, "mouseover": {"state": {"target": ["24", "29", "26", "28", "1", "18", "15", "17"], "time": [3269, 3578, 4666, 4695, 4741, 5327, 5378, 5625]}, "edge": {"target": [], "time": []}}, "mouseout": {"state": {"target": ["0", "24", "29", "26", "28", "1", "18", "15", "17", "14"], "time": [3207, 3319, 4639, 4691, 4718, 4766, 5352, 5463, 15572, 15646]}, "edge": {"target": [], "time": []}}}, "displayed_time": "16.35", "trialTime": 17659, "trial_type": "mouselab-mdp", "trial_index": 37, "time_elapsed": 1130706, "internal_node_id": "0.0-6.0-1.0-28.0"}}, {"uniqueid": "w43788815:a60237715", "current_trial": 38, "dateTime": 1693390000134, "trialdata": {"revealed_states": [], "clicked_states": ["9", "16"], "num_clicks_accrued": [0, 0, 0, 0, 0, 0, 0, 0, 0, 0, 0, 0, 0], "stateRewards": ["", -1, 1, 8, -8, -49, 62, -78, 16, 28, -81, 78, -2, -3, -1, -4, 67, 49, -2, -13, -16, -39, 83, 1, -4, 4, -5, -20, 7, 84, 7, -32, -59, 19], "withholdReward": false, "trial_id": "mdp_trial_30", "block": "test", "trialIndex": 31, "score": 54.2, "costs": -2.8, "simulationMode": [null, null, null, null, null], "rewards": [-2, -3, -1, -4, 67], "path": ["0", "0", "12", "13", "14", "15", "16"], "rt": [6432, 638, 426, 454, 387], "actions": ["right", "right", "right", "up", "up"], "actionTimes": [9196, 10369, 11290, 12251, 13165], "queries": {"click": {"state": {"target": ["9", "16"], "time": [4028, 6141]}, "edge": {"target": [], "time": []}}, "mouseover": {"state": {"target": ["1", "8", "9", "4", "16", "1"], "time": [3463, 3521, 3582, 4695, 5387, 7481]}, "edge": {"target": [], "time": []}}, "mouseout": {"state": {"target": ["0", "1", "8", "9", "4", "16", "1"], "time": [1752, 3517, 3577, 4600, 4734, 6771, 7527]}, "edge": {"target": [], "time": []}}}, "displayed_time": "16.77", "trialTime": 17947, "trial_type": "mouselab-mdp", "trial_index": 38, "time_elapsed": 1150313, "internal_node_id": "0.0-6.0-1.0-29.0"}}, {"uniqueid": "w43788815:a60237715", "current_trial": 39, "dateTime": 1693390025005, "trialdata": {"revealed_states": [], "clicked_states": ["9", "27", "16", "33"], "num_clicks_accrued": [0, 0, 0, 0, 0, 0, 0, 0, 0, 0, 0, 0, 0], "stateRewards": ["", 2, 3, -2, -8, -8, -41, 74, 15, -23, -80, 1, 1, 3, 3, -15, -63, -78, 67, 13, 75, -41, 86, 2, -2, 6, -3, -8, -49, 50, -6, 83, 74, 80], "withholdReward": false, "trial_id": "mdp_trial_31", "block": "test", "trialIndex": 32, "score": 74.4, "costs": -5.6, "simulationMode": [null, null, null, null, null], "rewards": [2, -2, 6, -6, 80], "path": ["0", "0", "23", "24", "25", "30", "33"], "rt": [11836, 610, 598, 630, 473], "actions": ["left", "left", "left", "down", "left"], "actionTimes": [15050, 16187, 17307, 18440, 19417], "queries": {"click": {"state": {"target": ["9", "27", "16", "33"], "time": [4782, 6872, 9115, 11748]}, "edge": {"target": [], "time": []}}, "mouseover": {"state": {"target": ["10", "9", "9", "11", "27", "16", "16", "23", "30", "33", "30", "22"], "time": [3955, 4020, 4372, 5728, 6137, 8082, 8697, 10067, 10653, 11205, 12385, 12951]}, "edge": {"target": [], "time": []}}, "mouseout": {"state": {"target": ["0", "10", "9", "9", "11", "27", "16", "16", "23", "30", "33", "30", "22"], "time": [1954, 4009, 4058, 5505, 5825, 7429, 8153, 9961, 10586, 10716, 12359, 12409, 13139]}, "edge": {"target": [], "time": []}}}, "displayed_time": "19.96", "trialTime": 23116, "trial_type": "mouselab-mdp", "trial_index": 39, "time_elapsed": 1175184, "internal_node_id": "0.0-6.0-1.0-30.0"}}, {"uniqueid": "w43788815:a60237715", "current_trial": 40, "dateTime": 1693390046365, "trialdata": {"revealed_states": [], "clicked_states": ["9", "16", "29"], "num_clicks_accrued": [0, 0, 0, 0, 0, 0, 0, 0, 0, 0, 0, 0, 0], "stateRewards": ["", 1, 1, -2, 7, -31, -6, 76, 1, -36, -16, -53, 2, 1, 7, 13, -47, -10, 47, -7, 72, 46, -56, -2, -2, -2, 11, -80, 44, 38, 16, 67, 85, -78], "withholdReward": false, "trial_id": "mdp_trial_32", "block": "test", "trialIndex": 33, "score": 38.8, "costs": -4.199999999999999, "simulationMode": [null, null, null, null, null], "rewards": [-2, -2, -2, 11, 38], "path": ["0", "0", "23", "24", "25", "26", "29"], "rt": [11336, 571, 243, 662, 151], "actions": ["left", "left", "left", "up", "left"], "actionTimes": [14123, 15228, 16005, 17175, 17830], "queries": {"click": {"state": {"target": ["9", "16", "29"], "time": [4317, 6486, 10108]}, "edge": {"target": [], "time": []}}, "mouseover": {"state": {"target": ["8", "9", "4", "16", "1", "28", "26", "29", "29", "30", "31", "22", "19"], "time": [3539, 3871, 5007, 5687, 7111, 7639, 7667, 7739, 9673, 11446, 11496, 12083, 12158]}, "edge": {"target": [], "time": []}}, "mouseout": {"state": {"target": ["0", "8", "9", "4", "16", "1", "28", "26", "29", "29", "30", "31", "22", "19"], "time": [1559, 3837, 4958, 5052, 7064, 7144, 7664, 7695, 8601, 10619, 11492, 11540, 12125, 13083]}, "edge": {"target": [], "time": []}}}, "displayed_time": "18.35", "trialTime": 20232, "trial_type": "mouselab-mdp", "trial_index": 40, "time_elapsed": 1196545, "internal_node_id": "0.0-6.0-1.0-31.0"}}, {"uniqueid": "w43788815:a60237715", "current_trial": 41, "dateTime": 1693390073986, "trialdata": {"revealed_states": [], "clicked_states": ["3", "26", "15", "32", "21"], "num_clicks_accrued": [0, 0, 0, 0, 0, 0, 0, 0, 0, 0, 0, 0, 0], "stateRewards": ["", 2, -1, 8, -2, -16, 69, -39, -7, -13, -27, -86, 2, -2, 2, 13, -34, -16, -20, -5, 19, 81, 32, -2, -1, 2, -14, 20, 80, 58, 4, 70, 12, 73], "withholdReward": false, "trial_id": "mdp_trial_33", "block": "test", "trialIndex": 34, "score": 71, "costs": -7, "simulationMode": [null, null, null, null, null], "rewards": [2, -2, 2, -5, 81], "path": ["0", "0", "12", "13", "14", "19", "21"], "rt": [16245, 659, 557, 421, 486], "actions": ["right", "right", "right", "down", "down"], "actionTimes": [19332, 20508, 21572, 22502, 23500], "queries": {"click": {"state": {"target": ["3", "26", "15", "32", "21"], "time": [4642, 6920, 9073, 12709, 15378]}, "edge": {"target": [], "time": []}}, "mouseover": {"state": {"target": ["1", "2", "3", "26", "1", "18", "15", "12", "30", "32", "32", "21"], "time": [4004, 4060, 4222, 5993, 7452, 7524, 8217, 9700, 10818, 11011, 12357, 13874]}, "edge": {"target": [], "time": []}}, "mouseout": {"state": {"target": ["0", "1", "2", "3", "3", "26", "1", "18", "15", "12", "30", "32", "32", "21"], "time": [3462, 4048, 4218, 4863, 5300, 7382, 7479, 8063, 9649, 9725, 10880, 11651, 12911, 16347]}, "edge": {"target": [], "time": []}}}, "displayed_time": "24.04", "trialTime": 26027, "trial_type": "mouselab-mdp", "trial_index": 41, "time_elapsed": 1224165, "internal_node_id": "0.0-6.0-1.0-32.0"}}, {"uniqueid": "w43788815:a60237715", "current_trial": 42, "dateTime": 1693390095024, "trialdata": {"revealed_states": [], "clicked_states": ["11", "16"], "num_clicks_accrued": [0, 0, 0, 0, 0, 0, 0, 0, 0, 0, 0, 0, 0], "stateRewards": ["", -2, 3, -1, 2, -72, 63, 20, -1, 62, -66, 39, -2, 3, -6, 14, 22, 47, 1, 8, -49, -1, -41, 2, 2, -6, -16, -64, -60, -34, 16, 54, 22, -7], "withholdReward": false, "trial_id": "mdp_trial_34", "block": "test", "trialIndex": 35, "score": 35.2, "costs": -2.8, "simulationMode": [null, null, null, null, null], "rewards": [-2, 3, -1, -1, 39], "path": ["0", "0", "1", "2", "3", "8", "11"], "rt": [7097, 638, 67, 610, 168], "actions": ["up", "up", "up", "left", "left"], "actionTimes": [11242, 12408, 12969, 14095, 14800], "queries": {"click": {"state": {"target": ["11", "16"], "time": [6209, 8628]}, "edge": {"target": [], "time": []}}, "mouseover": {"state": {"target": ["1", "8", "11", "8", "4", "6", "16"], "time": [4941, 5456, 5649, 6826, 6899, 7583, 7902]}, "edge": {"target": [], "time": []}}, "mouseout": {"state": {"target": ["20", "12", "1", "1", "0", "1", "8", "11", "8", "4", "6", "16", "17", "22"], "time": [857, 1286, 1502, 1581, 3136, 4986, 5530, 6800, 6853, 6922, 7654, 8832, 17391, 17501]}, "edge": {"target": [], "time": []}}}, "displayed_time": "18.15", "trialTime": 19208, "trial_type": "mouselab-mdp", "trial_index": 42, "time_elapsed": 1245204, "internal_node_id": "0.0-6.0-1.0-33.0"}}, {"uniqueid": "w43788815:a60237715", "current_trial": 43, "dateTime": 1693390115451, "trialdata": {"revealed_states": [], "clicked_states": ["29", "17", "9"], "num_clicks_accrued": [0, 0, 0, 0, 0, 0, 0, 0, 0, 0, 0, 0, 0], "stateRewards": ["", 2, -4, -4, 13, -80, 62, 13, -11, 57, -13, -44, 1, 4, 3, -4, -29, -88, 15, 16, -58, 68, -45, -1, -3, -1, -9, -44, -86, -19, -7, -36, 59, 66], "withholdReward": false, "trial_id": "mdp_trial_35", "block": "test", "trialIndex": 36, "score": 35.8, "costs": -4.199999999999999, "simulationMode": [null, null, null, null, null], "rewards": [2, -4, -4, -11, 57], "path": ["0", "0", "1", "2", "3", "8", "9"], "rt": [9494, 560, 22, 538, 330], "actions": ["up", "up", "up", "left", "up"], "actionTimes": [12430, 13505, 14049, 15116, 15958], "queries": {"click": {"state": {"target": ["29", "17", "9"], "time": [4715, 6995, 9057]}, "edge": {"target": [], "time": []}}, "mouseover": {"state": {"target": ["28", "26", "29", "26", "17", "3", "9", "3", "7", "13"], "time": [3940, 3988, 4323, 5413, 6126, 8082, 8215, 9851, 10481, 11096]}, "edge": {"target": [], "time": []}}, "mouseout": {"state": {"target": ["28", "26", "29", "26", "17", "3", "9", "3", "7", "13"], "time": [3982, 4092, 5358, 5549, 7546, 8106, 9805, 9918, 10509, 11143]}, "edge": {"target": [], "time": []}}}, "displayed_time": "16.94", "trialTime": 19216, "trial_type": "mouselab-mdp", "trial_index": 43, "time_elapsed": 1265631, "internal_node_id": "0.0-6.0-1.0-34.0"}}, {"uniqueid": "w43788815:a60237715", "current_trial": 44, "dateTime": 1693390136764, "trialdata": {"revealed_states": [], "clicked_states": ["26", "15", "32", "21"], "num_clicks_accrued": [0, 0, 0, 0, 0, 0, 0, 0, 0, 0, 0, 0, 0], "stateRewards": ["", 2, 4, 4, 9, -88, -10, 44, 16, -54, 64, 78, 1, 2, 5, 16, 80, 36, 7, -4, 9, -47, -70, -1, -3, 6, -16, 11, 80, 28, 8, -1, 34, -17], "withholdReward": false, "trial_id": "mdp_trial_36", "block": "test", "trialIndex": 37, "score": 38.4, "costs": -5.6, "simulationMode": [null, null, null, null, null], "rewards": [-1, -3, 6, 8, 34], "path": ["0", "0", "23", "24", "25", "30", "32"], "rt": [11360, 706, 120, 464, 479], "actions": ["left", "left", "left", "down", "down"], "actionTimes": [13732, 14943, 15570, 16550, 17531], "queries": {"click": {"state": {"target": ["26", "15", "32", "21"], "time": [3807, 5959, 8431, 10525]}, "edge": {"target": [], "time": []}}, "mouseover": {"state": {"target": ["23", "24", "26", "28", "18", "18", "15", "18", "23", "31", "32", "21", "21"], "time": [3133, 3182, 3348, 4374, 4491, 4970, 5040, 6766, 7293, 7320, 7987, 9601, 9961]}, "edge": {"target": [], "time": []}}, "mouseout": {"state": {"target": ["0", "23", "24", "26", "28", "18", "18", "15", "18", "23", "31", "32", "21", "21"], "time": [3099, 3175, 3217, 4349, 4401, 4514, 4994, 6741, 6790, 7317, 7348, 8637, 9689, 19257]}, "edge": {"target": [], "time": []}}}, "displayed_time": "18.03", "trialTime": 19858, "trial_type": "mouselab-mdp", "trial_index": 44, "time_elapsed": 1286943, "internal_node_id": "0.0-6.0-1.0-35.0"}}, {"uniqueid": "w43788815:a60237715", "current_trial": 45, "dateTime": 1693390156043, "trialdata": {"revealed_states": [], "clicked_states": ["27", "16"], "num_clicks_accrued": [0, 0, 0, 0, 0, 0, 0, 0, 0, 0, 0, 0, 0], "stateRewards": ["", -1, 3, 8, 9, -53, 20, -84, 2, -28, -62, -31, -1, -2, -7, 2, 51, 58, 45, -4, -17, -41, 36, 2, -2, -7, -15, 29, -54, -37, -16, -43, 65, -17], "withholdReward": false, "trial_id": "mdp_trial_37", "block": "test", "trialIndex": 38, "score": 40.2, "costs": -2.8, "simulationMode": [null, null, null, null, null], "rewards": [-1, -2, -7, 2, 51], "path": ["0", "0", "12", "13", "14", "15", "16"], "rt": [7275, 470, 137, 556, 251], "actions": ["right", "right", "right", "up", "up"], "actionTimes": [9969, 10954, 11619, 12691, 13486], "queries": {"click": {"state": {"target": ["27", "16"], "time": [4351, 6978]}, "edge": {"target": [], "time": []}}, "mouseover": {"state": {"target": ["28", "27", "2", "7", "16"], "time": [3491, 3943, 5023, 5053, 6453]}, "edge": {"target": [], "time": []}}, "mouseout": {"state": {"target": ["0", "28", "27", "2", "7", "16", "15", "20"], "time": [1679, 3545, 4951, 5049, 5077, 14958, 15010, 15050]}, "edge": {"target": [], "time": []}}}, "displayed_time": "16.71", "trialTime": 17608, "trial_type": "mouselab-mdp", "trial_index": 45, "time_elapsed": 1306222, "internal_node_id": "0.0-6.0-1.0-36.0"}}, {"uniqueid": "w43788815:a60237715", "current_trial": 46, "dateTime": 1693390178210, "trialdata": {"revealed_states": [], "clicked_states": ["9", "16", "27"], "num_clicks_accrued": [0, 0, 0, 0, 0, 0, 0, 0, 0, 0, 0, 0, 0], "stateRewards": ["", -1, 1, 3, -8, -23, -15, -14, -11, -23, 58, 68, 1, 3, 5, 12, -17, -41, -7, -10, -4, 82, 10, 1, 4, -4, 11, 73, 55, -55, -1, -86, -86, 54], "withholdReward": false, "trial_id": "mdp_trial_38", "block": "test", "trialIndex": 39, "score": 80.8, "costs": -4.199999999999999, "simulationMode": [null, null, null, null, null], "rewards": [1, 4, -4, 11, 73], "path": ["0", "0", "23", "24", "25", "26", "27"], "rt": [9906, 517, 311, 636, 278], "actions": ["left", "left", "left", "up", "up"], "actionTimes": [13174, 14220, 15046, 16214, 16996], "queries": {"click": {"state": {"target": ["9", "16", "27"], "time": [4738, 7369, 10049]}, "edge": {"target": [], "time": []}}, "mouseover": {"state": {"target": ["1", "8", "9", "6", "16", "7", "2", "10", "27", "27", "28", "24", "30", "25", "28", "23", "0"], "time": [3858, 3917, 4322, 6572, 6924, 8025, 8074, 8122, 9330, 9655, 10769, 10819, 11925, 12221, 12281, 12404, 12457]}, "edge": {"target": [], "time": []}}, "mouseout": {"state": {"target": ["22", "12", "1", "8", "9", "6", "16", "7", "2", "10", "27", "27", "28", "24", "30", "25", "28", "23", "0"], "time": [955, 1347, 3910, 3948, 5487, 6704, 7567, 8050, 8101, 8622, 9350, 10742, 10794, 10845, 11963, 12259, 12329, 12434, 12500]}, "edge": {"target": [], "time": []}}}, "displayed_time": "17.52", "trialTime": 20059, "trial_type": "mouselab-mdp", "trial_index": 46, "time_elapsed": 1328389, "internal_node_id": "0.0-6.0-1.0-37.0"}}, {"uniqueid": "w43788815:a60237715", "current_trial": 47, "dateTime": 1693390217563, "trialdata": {"revealed_states": [], "clicked_states": ["2", "15", "25", "19", "5", "9", "11"], "num_clicks_accrued": [0, 0, 0, 0, 0, 0, 0, 0, 0, 0, 0, 0, 0], "stateRewards": ["", 2, -4, 7, 3, 23, -42, 4, 7, -81, -33, 7, -2, -4, 5, -1, 50, -57, -14, -13, -14, 44, 55, -2, -2, 5, -2, 33, 1, 57, -13, -7, 58, 87], "withholdReward": false, "trial_id": "mdp_trial_39", "block": "test", "trialIndex": 40, "score": 21.2, "costs": -9.8, "simulationMode": [null, null, null, null, null], "rewards": [2, -4, 7, 3, 23], "path": ["0", "0", "1", "2", "3", "4", "5"], "rt": [26977, 490, 71, 436, 247], "actions": ["up", "up", "up", "right", "up"], "actionTimes": [30292, 31294, 31888, 32852, 33673], "queries": {"click": {"state": {"target": ["2", "15", "25", "19", "5", "9", "11"], "time": [4779, 7182, 9309, 12417, 16202, 19285, 23696]}, "edge": {"target": [], "time": []}}, "mouseover": {"state": {"target": ["1", "2", "15", "23", "24", "25", "22", "19", "20", "16", "5", "9", "9", "8", "11", "11", "8", "3", "4", "6", "32", "32"], "time": [4132, 4251, 6490, 7936, 8461, 8622, 11794, 11916, 13801, 14950, 15842, 16922, 18759, 22674, 22738, 23338, 24545, 24573, 24601, 24652, 27629, 28072]}, "edge": {"target": [], "time": []}}, "mouseout": {"state": {"target": ["0", "1", "2", "15", "23", "24", "25", "22", "19", "20", "16", "5", "9", "9", "9", "8", "11", "11", "8", "3", "4", "6", "32", "32"], "time": [2167, 4184, 5452, 7841, 7960, 8509, 9924, 11832, 13797, 13827, 14997, 16851, 18585, 19500, 21585, 22729, 22853, 24541, 24569, 24597, 24625, 25689, 27650, 29168]}, "edge": {"target": [], "time": []}}}, "displayed_time": "34.20", "trialTime": 36971, "trial_type": "mouselab-mdp", "trial_index": 47, "time_elapsed": 1367742, "internal_node_id": "0.0-6.0-1.0-38.0"}}, {"uniqueid": "w43788815:a60237715", "current_trial": 48, "dateTime": 1693390240833, "trialdata": {"revealed_states": [], "clicked_states": ["26", "15", "3", "32"], "num_clicks_accrued": [0, 0, 0, 0, 0, 0, 0, 0, 0, 0, 0, 0, 0], "stateRewards": ["", -2, 2, -2, -7, -50, -62, -45, 7, 36, -24, -72, -1, -1, 8, -1, -67, 20, -52, 2, 35, -50, 80, -1, 1, 6, -6, -70, 6, 88, 8, -47, 74, -19], "withholdReward": false, "trial_id": "mdp_trial_40", "block": "test", "trialIndex": 41, "score": 82.4, "costs": -5.6, "simulationMode": [null, null, null, null, null], "rewards": [-1, 1, 6, 8, 74], "path": ["0", "0", "23", "24", "25", "30", "32"], "rt": [12444, 585, 466, 376, 308], "actions": ["left", "left", "left", "down", "down"], "actionTimes": [15024, 16128, 17086, 17998, 18814], "queries": {"click": {"state": {"target": ["26", "15", "3", "32"], "time": [4237, 6315, 8954, 11867]}, "edge": {"target": [], "time": []}}, "mouseover": {"state": {"target": ["23", "24", "26", "28", "1", "18", "15", "7", "3", "12", "0", "31", "32", "21"], "time": [3410, 3458, 3802, 4791, 4845, 4917, 5482, 7614, 8480, 10533, 10583, 11137, 11422, 13616]}, "edge": {"target": [], "time": []}}, "mouseout": {"state": {"target": ["0", "23", "24", "26", "28", "1", "18", "15", "7", "3", "12", "0", "31", "32", "21"], "time": [3370, 3452, 3489, 4788, 4820, 4871, 5456, 6989, 7640, 9636, 10554, 11075, 11168, 12390, 14043]}, "edge": {"target": [], "time": []}}}, "displayed_time": "19.35", "trialTime": 21365, "trial_type": "mouselab-mdp", "trial_index": 48, "time_elapsed": 1391012, "internal_node_id": "0.0-6.0-1.0-39.0"}}, {"uniqueid": "w43788815:a60237715", "current_trial": 49, "dateTime": 1693390288251, "trialdata": {"rt": 47379, "response": {"Q0": "$-16 to 16", "Q1": "$-16 to $16", "Q2": "$-32 to $32", "Q3": "The cost was always $1.4.", "Q4": "Very motivated"}, "question_order": [0, 1, 2, 3, 4], "trial_id": "final_quiz_control", "trial_type": "survey-multi-choice", "trial_index": 49, "time_elapsed": 1438431, "internal_node_id": "0.0-6.0-2.0"}}, {"uniqueid": "w43788815:a60237715", "current_trial": 50, "dateTime": 1693390391014, "trialdata": {"rt": 102704, "response": {"Q0": "I did not use a strategy, I simply used my instincts to pick a path that would be beneficial for me.", "Q1": "I relied on the inspector node to help me determine which path to take to get the most benefits.", "Q2": "I could not identify a pattern to ascertain that I get the highest points on the path."}, "trial_id": "self_report_control", "trial_type": "survey-text", "trial_index": 50, "time_elapsed": 1541195, "internal_node_id": "0.0-6.0-3.0"}}, {"uniqueid": "w43788815:a60237715", "current_trial": 51, "dateTime": 1693390417625, "trialdata": {"rt": 26582, "response": {"gender": "female", "age": "30", "colorblind": "0", "effort": "0"}, "trial_type": "survey-html-form", "trial_index": 51, "time_elapsed": 1567806, "internal_node_id": "0.0-6.0-4.0"}}, {"uniqueid": "w43788815:a60237715", "current_trial": 52, "dateTime": 1693390477042, "trialdata": {"rt": 59373, "response": {"Q0": "Nothing was difficult to understand, the instructions were clear and easy.", "Q1": "I have never participated in this game before.", "Q2": ""}, "trial_type": "survey-text", "trial_index": 52, "time_elapsed": 1627222, "internal_node_id": "0.0-6.0-5.0"}}, {"uniqueid": "w43788815:a60237715", "current_trial": 53, "dateTime": 1693390506763, "trialdata": {"rt": 29698, "stimulus": "<h1>Completion Code Instructions (1/2)</h1>\n<br><br><br><br>\nYou have reached the end of the experiment! The completion code consists of two parts: (1) a code with 2 characters (2) a code with 6 characters. On this page, you will receive the second part of the code. The first part of the completion code will be on the next page.\n<br><br>\nThe second part of your completion code is: <b>EWEK22</b>\n<br><br>\nPlease note this down. Then, press 'Finish HIT' in order to find the first part of your completion code. Once the data has been saved, you will receive this code either in this window or in the original browser window where you started the experiment.\n", "response": 0, "trial_type": "html-button-response", "trial_index": 53, "time_elapsed": 1656943, "internal_node_id": "0.0-6.0-6.0"}}, {"uniqueid": "w43788815:a60237715", "current_trial": 54, "dateTime": 1693390507793, "trialdata": {"success": true, "trial_type": "fullscreen", "trial_index": 54, "time_elapsed": 1657973, "internal_node_id": "0.0-7.0"}}], "questiondata": {"params": {"CODE": "C6DMOQA6", "MIN_TIME": 14, "inspectCost": 1, "startTime": "Wed Aug 30 2023 11:47:27 GMT+0200 (South Africa Standard Time)", "bonusRate": 0.002, "variance": "1_2_4_8_44", "branching": "31123"}, "final_score": 1563}, "eventdata": [{"eventtype": "initialized", "value": null, "timestamp": 1693388846757, "interval": 0}, {"eventtype": "window_resize", "value": [1024, 646], "timestamp": 1693388846757, "interval": 0}, {"eventtype": "window_resize", "value": [1024, 646], "timestamp": 1693388847350, "interval": 593}, {"eventtype": "window_resize", "value": [1366, 662], "timestamp": 1693388849640, "interval": 2290}, {"eventtype": "window_resize", "value": [1366, 768], "timestamp": 1693388872522, "interval": 22882}, {"eventtype": "window_resize", "value": [1366, 662], "timestamp": 1693390507229, "interval": 1634707}], "useragent": "Mozilla/5.0 (Windows NT 10.0; Win64; x64) AppleWebKit/537.36 (KHTML, like Gecko) Chrome/115.0.0.0 Safari/537.36", "mode": "live", "id": "w43788815:a60237715", "status": "user data saved", "Beginhit": "2023-08-30 09:47:22.552383", "Beginexp": "2023-08-30 09:47:54.151565", "Endhit": "2023-08-30 10:15:10.492059", "psiturkStatus": 3, "browser": "<redacted>", "platform": "windows", "language": "en-US"}