{"condition": 0, "counterbalance": 0, "assignmentId": "a95721490", "workerId": "w43059693", "hitId": "h29539126", "currenttrial": 55, "bonus": 0, "data": [{"uniqueid": "w43059693:a95721490", "current_trial": 0, "dateTime": 1693581067673, "trialdata": {"success": true, "trial_type": "fullscreen", "trial_index": 0, "time_elapsed": 975166, "internal_node_id": "0.0-0.0"}}, {"uniqueid": "w43059693:a95721490", "current_trial": 1, "dateTime": 1693581220100, "trialdata": {"view_history": [{"page_index": 0, "viewing_time": 152423}], "rt": 152423, "trial_id": "exp_instructions_control", "trial_type": "instructions", "trial_index": 1, "time_elapsed": 1127593, "internal_node_id": "0.0-1.0"}}, {"uniqueid": "w43059693:a95721490", "current_trial": 2, "dateTime": 1693581537968, "trialdata": {"view_history": [{"page_index": 0, "viewing_time": 48361}, {"page_index": 1, "viewing_time": 122757}, {"page_index": 2, "viewing_time": 74906}, {"page_index": 3, "viewing_time": 71843}], "rt": 317867, "trial_id": "mouselab_instructions_1_control", "trial_type": "instructions", "trial_index": 2, "time_elapsed": 1445461, "internal_node_id": "0.0-2.0-1.0"}}, {"uniqueid": "w43059693:a95721490", "current_trial": 3, "dateTime": 1693581570861, "trialdata": {"revealed_states": [], "clicked_states": ["26", "3", "15", "8"], "num_clicks_accrued": [0, 0, 0, 0, 0, 0, 0, 0, 0, 0, 0, 0, 0], "stateRewards": ["", -10, -10, 10, 10, 10, 10, -10, 10, -10, 10, 10, -10, -10, 10, -10, -10, -10, -10, -10, 10, 10, -10, -10, 10, -10, 10, 10, -10, -10, 10, 10, -10, 10], "withholdReward": false, "trial_id": "practice_1", "block": "test", "trialIndex": 0, "score": -8.5, "costs": -2, "simulationMode": [null, null, null, null, null], "rewards": [-10, -10, 10, 10, -10], "path": ["0", "0", "1", "2", "3", "8", "9"], "rt": [21784, 102, 1650, 40, 507], "actions": ["up", "up", "up", "left", "up"], "actionTimes": [23533, 24132, 26284, 26820, 27828], "queries": {"click": {"state": {"target": ["26", "3", "15", "8"], "time": [2717, 4070, 5949, 15338]}, "edge": {"target": [], "time": []}}, "mouseover": {"state": {"target": ["23", "24", "26", "28", "10", "3", "7", "18", "15", "15", "14", "19", "22", "24", "24", "31", "30", "24", "28", "8", "1", "2", "10", "8", "10", "2", "4", "4", "12", "13", "22", "12"], "time": [2313, 2390, 2563, 3015, 3203, 3383, 5036, 5146, 5396, 5869, 6237, 8042, 8133, 8501, 9480, 11293, 11528, 13098, 13119, 13424, 14355, 14605, 15070, 15188, 15487, 15890, 15980, 16938, 18237, 18376, 20293, 22376]}, "edge": {"target": [], "time": []}}, "mouseout": {"state": {"target": ["20", "20", "12", "0", "0", "23", "24", "26", "28", "10", "3", "7", "18", "15", "15", "14", "19", "22", "24", "24", "31", "30", "24", "28", "8", "1", "2", "10", "8", "10", "2", "4", "4", "12", "13", "22", "12", "0", "19", "20"], "time": [null, 278, 612, 646, 2278, 2362, 2410, 2938, 3133, 3260, 4383, 5098, 5209, 5765, 6174, 7584, 8105, 8160, 8522, 9592, 11438, 12869, 13105, 13140, 14216, 14549, 15042, 15153, 15467, 15508, 15911, 16364, 17827, 18259, 18425, 20313, 22542, 30681, 31938, 31960]}, "edge": {"target": [], "time": []}}}, "displayed_time": "28.33", "trialTime": 32412, "trial_type": "mouselab-mdp", "trial_index": 3, "time_elapsed": 1478354, "internal_node_id": "0.0-2.0-2.0-0.0"}}, {"uniqueid": "w43059693:a95721490", "current_trial": 4, "dateTime": 1693581590990, "trialdata": {"revealed_states": [], "clicked_states": ["3", "8"], "num_clicks_accrued": [0, 0, 0, 0, 0, 0, 0, 0, 0, 0, 0, 0, 0], "stateRewards": ["", -10, 10, -10, 10, 10, -10, 10, 10, -10, 10, -10, 10, -10, 10, 10, 10, -10, 10, 10, -10, -10, -10, -10, -10, -10, 10, -10, -10, 10, -10, 10, -10, -10], "withholdReward": false, "trial_id": "practice_2", "block": "test", "trialIndex": 1, "score": -7.5, "costs": -1, "simulationMode": [null, null, null, null, null], "rewards": [-10, 10, -10, 10, -10], "path": ["0", "0", "1", "2", "3", "8", "9"], "rt": [6724, 192, 217, 79, 103], "actions": ["up", "up", "up", "left", "up"], "actionTimes": [8359, 9055, 9775, 10359, 10959], "queries": {"click": {"state": {"target": ["3", "8"], "time": [3626, 5456]}, "edge": {"target": [], "time": []}}, "mouseover": {"state": {"target": ["0", "0", "1", "2", "2", "3", "2", "8", "2", "4", "7"], "time": [1820, 2181, 2250, 2345, 2820, 3466, 3876, 5028, 7007, 7139, 7556]}, "edge": {"target": [], "time": []}}, "mouseout": {"state": {"target": ["16", "0", "0", "1", "2", "2", "3", "3", "2", "8", "2", "4", "7", "17"], "time": [674, 1848, 2210, 2272, 2555, 3424, 3718, 3834, 4806, 5633, 7035, 7487, 11195, 11424]}, "edge": {"target": [], "time": []}}}, "displayed_time": "11.46", "trialTime": 19992, "trial_type": "mouselab-mdp", "trial_index": 4, "time_elapsed": 1498483, "internal_node_id": "0.0-2.0-2.0-1.0"}}, {"uniqueid": "w43059693:a95721490", "current_trial": 5, "dateTime": 1693581618778, "trialdata": {"view_history": [{"page_index": 0, "viewing_time": 20149}, {"page_index": 1, "viewing_time": 7636}], "rt": 27785, "trial_id": "mouselab_instructions_2_control", "trial_type": "instructions", "trial_index": 5, "time_elapsed": 1526271, "internal_node_id": "0.0-2.0-3.0"}}, {"uniqueid": "w43059693:a95721490", "current_trial": 6, "dateTime": 1693581651703, "trialdata": {"rt": 32924, "response": {"Q0": "The cost for clicking on nodes may vary between nodes.", "Q1": "The better I perform the higher my bonus will be.", "Q2": "No, the amount of cash at each node of the web may be different each time.", "Q3": "To get the highest total score.", "Q4": "Only before moving the spider.", "Q5": "3 seconds"}, "question_order": [0, 1, 2, 3, 4, 5], "correct": {"Q0": "The cost for clicking on nodes may vary between nodes.", "Q1": "The better I perform the higher my bonus will be.", "Q2": "No, the amount of cash at each node of the web may be different each time.", "Q3": "To get the highest total score.", "Q4": "Only before moving the spider.", "Q5": "3 seconds"}, "trial_id": "mouselab_quiz_control", "trial_type": "survey-multi-choice", "trial_index": 6, "time_elapsed": 1559196, "internal_node_id": "0.0-2.0-4.0"}}, {"uniqueid": "w43059693:a95721490", "current_trial": 7, "dateTime": 1693581655280, "trialdata": {"rt": 3572, "response": {"Q0": "No"}, "question_order": [0], "trial_id": "repeat_check", "trial_type": "survey-multi-choice", "trial_index": 7, "time_elapsed": 1562773, "internal_node_id": "0.0-4.0-0.0"}}, {"uniqueid": "w43059693:a95721490", "current_trial": 8, "dateTime": 1693581663981, "trialdata": {"rt": 8698, "stimulus": "\n<h1> Get ready to start the game! </h1>\n\nThank you for reading the instructions. Get ready start with the 40 rounds of this game.\n<br><br>\nIf you need to take a break, feel free to take one after the end of a round, before continuing to the next one.\n<br><br>\nRemember, the more money the spider gets, the bigger your bonus will be!\n<br><br>\n<div style='text-align: center;'>Press <code>space</code> to begin.</div>\n\n<br><br>\n(If, at any point, the <code>space</code> key does not take you to the next page, click once on the text and try again.)", "response": " ", "trial_id": "mdp_ready", "trial_type": "html-keyboard-response", "trial_index": 8, "time_elapsed": 1571474, "internal_node_id": "0.0-6.0-0.0"}}, {"uniqueid": "w43059693:a95721490", "current_trial": 9, "dateTime": 1693581683653, "trialdata": {"revealed_states": [], "clicked_states": ["3", "26", "8"], "num_clicks_accrued": [0, 0, 0, 0, 0, 0, 0, 0, 0, 0, 0, 0, 0], "stateRewards": ["", -2, -3, 8, -4, -30, 31, 69, 9, 66, 87, 64, -2, 2, 8, 5, 47, 16, -39, -8, -54, 51, -19, 1, -2, -2, -11, -25, -26, 43, -9, 19, -84, 86], "withholdReward": false, "trial_id": "mdp_trial_1", "block": "test", "trialIndex": 2, "score": 73.8, "costs": -4.199999999999999, "simulationMode": [null, null, null, null, null], "rewards": [-2, -3, 8, 9, 66], "path": ["0", "0", "1", "2", "3", "8", "9"], "rt": [8232, 55, 38, 87, 71], "actions": ["up", "up", "up", "left", "up"], "actionTimes": [10145, 10697, 11248, 11833, 12400], "queries": {"click": {"state": {"target": ["3", "26", "8"], "time": [2957, 5349, 8034]}, "edge": {"target": [], "time": []}}, "mouseover": {"state": {"target": ["1", "3", "2", "28", "26", "25", "26", "25", "31", "24", "10", "8", "10", "2"], "time": [2356, 2668, 3154, 3703, 3765, 4550, 4904, 5661, 7001, 7057, 7189, 7314, 8383, 8801]}, "edge": {"target": [], "time": []}}, "mouseout": {"state": {"target": ["15", "18", "12", "0", "1", "3", "2", "28", "26", "25", "26", "25", "31", "24", "10", "8", "10", "2", "7", "17"], "time": [320, 404, 786, 2293, 2384, 3119, 3606, 3737, 4404, 4862, 5558, 5835, 7015, 7105, 7244, 8335, 8724, 8911, 10599, 10731]}, "edge": {"target": [], "time": []}}}, "displayed_time": "15.91", "trialTime": 19537, "trial_type": "mouselab-mdp", "trial_index": 9, "time_elapsed": 1591146, "internal_node_id": "0.0-6.0-1.0-0.0"}}, {"uniqueid": "w43059693:a95721490", "current_trial": 10, "dateTime": 1693581701093, "trialdata": {"revealed_states": [], "clicked_states": ["3", "8", "26", "30"], "num_clicks_accrued": [0, 0, 0, 0, 0, 0, 0, 0, 0, 0, 0, 0, 0], "stateRewards": ["", -1, 3, -7, 16, -32, -74, -48, 2, 10, 15, -30, 1, 1, -2, 10, 12, -83, 67, 13, -66, 47, 65, -2, 4, 2, -14, -8, -57, 24, 9, 65, 12, 46], "withholdReward": false, "trial_id": "mdp_trial_2", "block": "test", "trialIndex": 3, "score": 19.4, "costs": -5.6, "simulationMode": [null, null, null, null, null], "rewards": [-2, 4, 2, 9, 12], "path": ["0", "0", "23", "24", "25", "30", "32"], "rt": [10030, 57, 31, 15, 36], "actions": ["left", "left", "left", "down", "down"], "actionTimes": [11115, 11675, 12210, 12722, 13258], "queries": {"click": {"state": {"target": ["3", "8", "26", "30"], "time": [1714, 3859, 6007, 8180]}, "edge": {"target": [], "time": []}}, "mouseover": {"state": {"target": ["1", "2", "3", "10", "10", "8", "10", "23", "24", "25", "26", "25", "30"], "time": [1331, 1394, 1513, 2061, 2644, 2922, 4012, 4401, 4526, 4700, 4790, 6241, 6776]}, "edge": {"target": [], "time": []}}, "mouseout": {"state": {"target": ["0", "1", "2", "3", "10", "10", "8", "10", "23", "24", "25", "26", "25", "30"], "time": [1255, 1366, 1456, 1923, 2130, 2825, 3991, 4033, 4484, 4609, 4713, 6200, 6297, 8332]}, "edge": {"target": [], "time": []}}}, "displayed_time": "15.09", "trialTime": 17306, "trial_type": "mouselab-mdp", "trial_index": 10, "time_elapsed": 1608586, "internal_node_id": "0.0-6.0-1.0-1.0"}}, {"uniqueid": "w43059693:a95721490", "current_trial": 11, "dateTime": 1693581718966, "trialdata": {"revealed_states": [], "clicked_states": ["3", "26", "30", "15", "19"], "num_clicks_accrued": [0, 0, 0, 0, 0, 0, 0, 0, 0, 0, 0, 0, 0], "stateRewards": ["", 2, 1, -3, 7, 46, 11, -36, 16, 71, 5, 1, 2, -2, -8, -3, -4, 6, 55, 7, 68, -54, 2, 1, 1, 6, -6, 42, -4, -84, -11, -65, 63, 25], "withholdReward": false, "trial_id": "mdp_trial_3", "block": "test", "trialIndex": 4, "score": -62, "costs": -7, "simulationMode": [null, null, null, null, null], "rewards": [2, -2, -8, 7, -54], "path": ["0", "0", "12", "13", "14", "19", "21"], "rt": [10733, 581, 155, 191, 199], "actions": ["right", "right", "right", "down", "down"], "actionTimes": [11558, 12638, 13294, 13990, 14686], "queries": {"click": {"state": {"target": ["3", "26", "30", "15", "19"], "time": [1666, 3586, 5463, 7429, 9721]}, "edge": {"target": [], "time": []}}, "mouseover": {"state": {"target": ["10", "3", "10", "28", "26", "25", "30", "19", "17", "15", "14", "19"], "time": [1381, 1492, 1986, 2118, 2284, 3825, 4144, 5860, 5951, 6048, 7610, 7672]}, "edge": {"target": [], "time": []}}, "mouseout": {"state": {"target": ["0", "10", "3", "10", "28", "26", "25", "30", "19", "17", "15", "14", "19"], "time": [1096, 1401, 1874, 2020, 2207, 3791, 3888, 5610, 5881, 5986, 7589, 7645, 9854]}, "edge": {"target": [], "time": []}}}, "displayed_time": "15.19", "trialTime": 17742, "trial_type": "mouselab-mdp", "trial_index": 11, "time_elapsed": 1626459, "internal_node_id": "0.0-6.0-1.0-2.0"}}, {"uniqueid": "w43059693:a95721490", "current_trial": 12, "dateTime": 1693581735326, "trialdata": {"revealed_states": [], "clicked_states": ["3", "15", "19"], "num_clicks_accrued": [0, 0, 0, 0, 0, 0, 0, 0, 0, 0, 0, 0, 0], "stateRewards": ["", -1, 3, -5, -2, -13, -9, -34, -7, -81, 32, 35, -2, -2, 1, -14, -32, 81, 7, 4, 82, 56, -8, -1, 3, -8, 6, -24, -24, -53, 2, 38, 61, 54], "withholdReward": false, "trial_id": "mdp_trial_4", "block": "test", "trialIndex": 5, "score": 52.8, "costs": -4.199999999999999, "simulationMode": [null, null, null, null, null], "rewards": [-2, -2, 1, 4, 56], "path": ["0", "0", "12", "13", "14", "19", "21"], "rt": [7533, 116, 60, 74, 65], "actions": ["right", "right", "right", "down", "down"], "actionTimes": [8403, 9027, 9594, 10170, 10738], "queries": {"click": {"state": {"target": ["3", "15", "19"], "time": [1802, 3939, 5944]}, "edge": {"target": [], "time": []}}, "mouseover": {"state": {"target": ["1", "2", "3", "7", "13", "14", "14", "15", "14", "19", "21", "31", "30", "31", "22"], "time": [1471, 1533, 1616, 2054, 2193, 2255, 2568, 2825, 4117, 4478, 6242, 6499, 6568, 7978, 8297]}, "edge": {"target": [], "time": []}}, "mouseout": {"state": {"target": ["21", "22", "0", "1", "2", "3", "3", "7", "13", "14", "14", "15", "14", "19", "21", "31", "30", "31", "22", "19", "20"], "time": [331, 435, 713, 1512, 1576, 1903, 1998, 2061, 2214, 2326, 2756, 4096, 4130, 6110, 6297, 6526, 7964, 8005, 8325, 8401, 9054]}, "edge": {"target": [], "time": []}}}, "displayed_time": "14.87", "trialTime": 16226, "trial_type": "mouselab-mdp", "trial_index": 12, "time_elapsed": 1642819, "internal_node_id": "0.0-6.0-1.0-3.0"}}, {"uniqueid": "w43059693:a95721490", "current_trial": 13, "dateTime": 1693581751878, "trialdata": {"revealed_states": [], "clicked_states": ["15", "17"], "num_clicks_accrued": [0, 0, 0, 0, 0, 0, 0, 0, 0, 0, 0, 0, 0], "stateRewards": ["", -1, 3, 8, 10, -86, 61, -36, 10, 17, -60, 24, -1, -3, 3, 11, 50, 60, 33, -3, -20, 58, -6, 1, -4, -4, 13, -70, -71, 43, 14, 52, 82, -11], "withholdReward": false, "trial_id": "mdp_trial_5", "block": "test", "trialIndex": 6, "score": 67.2, "costs": -2.8, "simulationMode": [null, null, null, null, null], "rewards": [-1, -3, 3, 11, 60], "path": ["0", "0", "12", "13", "14", "15", "17"], "rt": [5311, 562, 149, 104, 124], "actions": ["right", "right", "right", "up", "right"], "actionTimes": [6509, 7573, 8221, 8829, 9453], "queries": {"click": {"state": {"target": ["15", "17"], "time": [2074, 4566]}, "edge": {"target": [], "time": []}}, "mouseover": {"state": {"target": ["12", "13", "15", "14", "19", "14", "17", "20", "20"], "time": [1460, 1550, 1772, 2307, 2856, 4127, 4356, 4793, 5946]}, "edge": {"target": [], "time": []}}, "mouseout": {"state": {"target": ["14", "13", "12", "0", "0", "12", "13", "15", "14", "19", "14", "17", "20", "20", "20"], "time": [452, 508, 543, 591, 1418, 1509, 1627, 2266, 2321, 4106, 4168, 4696, 4912, 5967, 7113]}, "edge": {"target": [], "time": []}}}, "displayed_time": "15.20", "trialTime": 16413, "trial_type": "mouselab-mdp", "trial_index": 13, "time_elapsed": 1659371, "internal_node_id": "0.0-6.0-1.0-4.0"}}, {"uniqueid": "w43059693:a95721490", "current_trial": 14, "dateTime": 1693581768726, "trialdata": {"revealed_states": [], "clicked_states": ["15", "19", "26", "28"], "num_clicks_accrued": [0, 0, 0, 0, 0, 0, 0, 0, 0, 0, 0, 0, 0], "stateRewards": ["", -2, 1, -8, 12, -65, -79, 16, 7, -80, -17, -45, -2, 2, -5, -2, -85, 23, -4, -7, 48, 27, -76, 2, 3, 5, 2, 43, 71, -13, 7, -49, 59, -31], "withholdReward": false, "trial_id": "mdp_trial_6", "block": "test", "trialIndex": 7, "score": 77.4, "costs": -5.6, "simulationMode": [null, null, null, null, null], "rewards": [2, 3, 5, 2, 71], "path": ["0", "0", "23", "24", "25", "26", "28"], "rt": [9867, 1, 14, 47, 667], "actions": ["left", "left", "left", "up", "right"], "actionTimes": [11294, 11799, 12326, 12878, 14054], "queries": {"click": {"state": {"target": ["15", "19", "26", "28"], "time": [1935, 4046, 6168, 8711]}, "edge": {"target": [], "time": []}}, "mouseover": {"state": {"target": ["12", "13", "17", "15", "14", "19", "22", "12", "12", "13", "19", "22", "31", "30", "26", "24", "31", "30", "25", "28", "24", "25"], "time": [1511, 1539, 1671, 1823, 2115, 2282, 2838, 2970, 3122, 3247, 3761, 4185, 4324, 4365, 4692, 6345, 7379, 8039, 8185, 8365, 9046, 10251]}, "edge": {"target": [], "time": []}}, "mouseout": {"state": {"target": ["20", "19", "14", "13", "12", "12", "13", "17", "15", "15", "14", "19", "22", "12", "12", "13", "19", "22", "31", "30", "26", "24", "31", "30", "25", "26", "28", "24", "25", "24", "23", "0", "12", "20"], "time": [157, 268, 580, 691, 795, 1525, 1560, 1768, 1963, 2088, 2136, 2622, 2907, 2997, 3206, 3303, 4171, 4192, 4338, 4532, 6301, 6400, 7803, 8150, 8220, 8324, 8900, 9282, 10747, 11372, 11407, 11435, 11462, 11699]}, "edge": {"target": [], "time": []}}}, "displayed_time": "15.43", "trialTime": 16694, "trial_type": "mouselab-mdp", "trial_index": 14, "time_elapsed": 1676219, "internal_node_id": "0.0-6.0-1.0-5.0"}}, {"uniqueid": "w43059693:a95721490", "current_trial": 15, "dateTime": 1693581800325, "trialdata": {"revealed_states": [], "clicked_states": ["15", "17", "16", "18", "19", "26", "30", "3", "8", "9", "11", "10"], "num_clicks_accrued": [0, 0, 0, 0, 0, 0, 0, 0, 0, 0, 0, 0, 0], "stateRewards": ["", 2, 3, -1, 16, -78, -11, 46, 2, -20, 79, -67, 2, 3, 2, 11, -83, -42, -58, -11, -67, -22, 55, 2, -1, -1, -16, -83, -82, 23, -11, -29, 13, 13], "withholdReward": false, "trial_id": "mdp_trial_7", "block": "test", "trialIndex": 8, "score": 68.2, "costs": -16.8, "simulationMode": [null, null, null, null, null], "rewards": [2, 3, -1, 2, 79], "path": ["0", "0", "1", "2", "3", "8", "10"], "rt": [25667, 502, 151, 83, 51], "actions": ["up", "up", "up", "left", "down"], "actionTimes": [27006, 28021, 28669, 29253, 29805], "queries": {"click": {"state": {"target": ["15", "17", "16", "18", "19", "26", "30", "3", "8", "9", "11", "10"], "time": [1938, 4418, 6331, 8199, 11067, 12979, 14818, 17029, 19210, 21312, 23170, 25086]}, "edge": {"target": [], "time": []}}, "mouseover": {"state": {"target": ["18", "15", "14", "19", "14", "17", "14", "16", "15", "15", "18", "14", "13", "12", "7", "4", "7", "13", "19", "23", "24", "26", "25", "30", "23", "1", "2", "3", "8", "3", "2", "3", "7", "4", "8", "2", "1", "7", "9", "11", "10", "1"], "time": [1649, 1712, 2705, 3246, 4093, 4274, 5051, 5343, 6559, 6704, 7114, 8447, 8940, 10142, 10267, 10579, 10697, 10775, 10940, 11670, 11719, 11830, 13253, 13364, 15225, 15296, 15330, 15537, 15691, 15830, 16732, 16822, 17232, 18260, 19121, 19406, 19468, 20829, 21149, 22517, 23433, 25315]}, "edge": {"target": [], "time": []}}, "mouseout": {"state": {"target": ["18", "15", "14", "19", "14", "15", "17", "14", "15", "16", "15", "15", "18", "14", "13", "12", "7", "4", "7", "18", "13", "19", "19", "23", "24", "26", "25", "30", "30", "23", "1", "2", "3", "8", "3", "2", "3", "7", "4", "3", "8", "2", "1", "7", "3", "9", "9", "8", "8", "11", "10", "1"], "time": [1677, 2656, 2796, 4066, 4128, 4232, 4566, 5232, 5301, 6517, 6614, 6843, 8385, 8482, 8982, 10169, 10274, 10669, 10704, 10753, 10815, 11169, 11211, 11690, 11767, 13218, 13302, 14897, 14975, 15246, 15309, 15413, 15607, 15753, 16565, 16781, 17176, 17260, 18912, 19086, 19343, 19413, 19489, 20843, 21093, 21398, 21531, 21649, 22225, 23329, 25253, 25336]}, "edge": {"target": [], "time": []}}}, "displayed_time": "30.30", "trialTime": 31445, "trial_type": "mouselab-mdp", "trial_index": 15, "time_elapsed": 1707818, "internal_node_id": "0.0-6.0-1.0-6.0"}}, {"uniqueid": "w43059693:a95721490", "current_trial": 16, "dateTime": 1693581823261, "trialdata": {"revealed_states": [], "clicked_states": ["15", "19", "30", "26", "28", "27", "29"], "num_clicks_accrued": [0, 0, 0, 0, 0, 0, 0, 0, 0, 0, 0, 0, 0], "stateRewards": ["", -2, 4, -7, -3, -76, 39, -28, 10, 14, 12, 60, 2, -3, 6, -10, 88, -34, -41, -3, 72, -13, -56, 1, 3, 2, 8, -51, 23, -57, 1, 14, -46, -16], "withholdReward": false, "trial_id": "mdp_trial_8", "block": "test", "trialIndex": 9, "score": 27.2, "costs": -9.8, "simulationMode": [null, null, null, null, null], "rewards": [1, 3, 2, 8, 23], "path": ["0", "0", "23", "24", "25", "26", "28"], "rt": [14535, 557, 214, 51, 94], "actions": ["left", "left", "left", "up", "right"], "actionTimes": [15581, 16637, 17349, 17901, 18493], "queries": {"click": {"state": {"target": ["15", "19", "30", "26", "28", "27", "29"], "time": [2041, 3898, 5739, 7606, 9899, 11878, 13758]}, "edge": {"target": [], "time": []}}, "mouseover": {"state": {"target": ["7", "3", "7", "18", "14", "15", "20", "19", "33", "30", "25", "26", "24", "31", "31", "24", "28", "25", "27", "26", "29", "26", "24", "21"], "time": [1322, 1565, 1676, 1732, 1794, 1967, 2738, 2850, 4363, 4440, 5947, 6051, 8086, 8523, 8738, 9677, 9725, 10225, 10398, 12794, 13287, 13961, 14072, 14468]}, "edge": {"target": [], "time": []}}, "mouseout": {"state": {"target": ["17", "15", "18", "12", "0", "7", "3", "7", "18", "14", "15", "20", "19", "33", "30", "25", "26", "24", "31", "31", "24", "28", "25", "26", "27", "26", "29", "29", "26", "24", "21", "22", "12"], "time": [627, 648, 676, 752, 1141, 1426, 1627, 1704, 1752, 1815, 2238, 2787, 4045, 4405, 5912, 5989, 8030, 8433, 8530, 9655, 9704, 10127, 10273, 10343, 12336, 13016, 13831, 13919, 13975, 14121, 20662, 20773, 20912]}, "edge": {"target": [], "time": []}}}, "displayed_time": "18.99", "trialTime": 22797, "trial_type": "mouselab-mdp", "trial_index": 16, "time_elapsed": 1730754, "internal_node_id": "0.0-6.0-1.0-7.0"}}, {"uniqueid": "w43059693:a95721490", "current_trial": 17, "dateTime": 1693581847797, "trialdata": {"revealed_states": [], "clicked_states": ["26", "30", "19", "15", "3", "4", "5", "6", "7"], "num_clicks_accrued": [0, 0, 0, 0, 0, 0, 0, 0, 0, 0, 0, 0, 0], "stateRewards": ["", 2, -1, -3, 16, -3, -16, -62, -1, 13, -26, 43, -1, 4, 3, -9, -54, -37, -3, -12, -71, -68, -57, 1, -3, 2, -9, 2, -2, -9, -11, 84, -52, 55], "withholdReward": false, "trial_id": "mdp_trial_9", "block": "test", "trialIndex": 10, "score": -1.6000000000000014, "costs": -12.600000000000001, "simulationMode": [null, null, null, null, null], "rewards": [2, -1, -3, 16, -3], "path": ["0", "0", "1", "2", "3", "4", "5"], "rt": [18990, 71, 54, 11, 432], "actions": ["up", "up", "up", "right", "up"], "actionTimes": [19720, 20287, 20839, 21351, 22280], "queries": {"click": {"state": {"target": ["26", "30", "19", "15", "3", "4", "5", "6", "7"], "time": [1561, 3392, 5206, 7000, 9120, 11025, 13215, 15139, 16962]}, "edge": {"target": [], "time": []}}, "mouseover": {"state": {"target": ["28", "26", "23", "23", "31", "30", "31", "22", "19", "15", "13", "12", "2", "3", "7", "4", "5", "6", "7"], "time": [1270, 1436, 1749, 1923, 2020, 2103, 3548, 3673, 3846, 5534, 7374, 7457, 8903, 9055, 9361, 10569, 13096, 14332, 15493]}, "edge": {"target": [], "time": []}}, "mouseout": {"state": {"target": ["0", "28", "26", "23", "23", "31", "30", "31", "22", "19", "15", "13", "12", "2", "3", "7", "4", "4", "5", "6", "7"], "time": [1006, 1346, 1687, 1763, 1971, 2062, 3534, 3569, 3701, 5374, 7305, 7423, 7576, 8930, 9278, 9388, 11173, 13006, 13353, 15291, 17125]}, "edge": {"target": [], "time": []}}}, "displayed_time": "22.78", "trialTime": 24399, "trial_type": "mouselab-mdp", "trial_index": 17, "time_elapsed": 1755290, "internal_node_id": "0.0-6.0-1.0-8.0"}}, {"uniqueid": "w43059693:a95721490", "current_trial": 18, "dateTime": 1693581862981, "trialdata": {"revealed_states": [], "clicked_states": ["26", "29", "27", "28"], "num_clicks_accrued": [0, 0, 0, 0, 0, 0, 0, 0, 0, 0, 0, 0, 0], "stateRewards": ["", -2, -3, 7, -13, 60, 9, 37, -6, 37, 20, 1, 2, -2, -8, 6, -80, -31, -10, -7, 70, -65, -44, -1, 1, 7, 6, -11, 73, -85, 16, -21, 47, 34], "withholdReward": false, "trial_id": "mdp_trial_10", "block": "test", "trialIndex": 11, "score": 80.4, "costs": -5.6, "simulationMode": [null, null, null, null, null], "rewards": [-1, 1, 7, 6, 73], "path": ["0", "0", "23", "24", "25", "26", "28"], "rt": [8659, 110, 77, 68, 131], "actions": ["left", "left", "left", "up", "right"], "actionTimes": [9430, 10038, 10621, 11189, 11821], "queries": {"click": {"state": {"target": ["26", "29", "27", "28"], "time": [1492, 3714, 5602, 7413]}, "edge": {"target": [], "time": []}}, "mouseover": {"state": {"target": ["0", "26", "24", "23", "10", "24", "30", "25", "29", "27", "28", "23", "31", "30", "30"], "time": [849, 1335, 1791, 1843, 2141, 2259, 2329, 3460, 3516, 3981, 5877, 7662, 8301, 8370, 8516]}, "edge": {"target": [], "time": []}}, "mouseout": {"state": {"target": ["15", "18", "12", "0", "0", "26", "24", "23", "10", "24", "30", "25", "29", "29", "27", "28", "23", "31", "30", "30", "31"], "time": [286, 314, 398, 661, 996, 1725, 1822, 1865, 2169, 2288, 3439, 3481, 3725, 3891, 5822, 7585, 7689, 8329, 8509, 9766, 9794]}, "edge": {"target": [], "time": []}}}, "displayed_time": "14.77", "trialTime": 15038, "trial_type": "mouselab-mdp", "trial_index": 18, "time_elapsed": 1770474, "internal_node_id": "0.0-6.0-1.0-9.0"}}, {"uniqueid": "w43059693:a95721490", "current_trial": 19, "dateTime": 1693581879213, "trialdata": {"revealed_states": [], "clicked_states": ["26", "30", "31", "32", "33"], "num_clicks_accrued": [0, 0, 0, 0, 0, 0, 0, 0, 0, 0, 0, 0, 0], "stateRewards": ["", 1, -1, 4, -2, -75, -75, 84, -9, -60, -79, 59, 2, -4, 8, 9, -17, -82, 80, 14, -4, 49, 49, -1, 3, 6, -11, -33, 34, 55, 9, -57, 5, 59], "withholdReward": false, "trial_id": "mdp_trial_11", "block": "test", "trialIndex": 12, "score": 69, "costs": -7, "simulationMode": [null, null, null, null, null], "rewards": [-1, 3, 6, 9, 59], "path": ["0", "0", "23", "24", "25", "30", "33"], "rt": [10612, 42, 12, 5, 2], "actions": ["left", "left", "left", "down", "left"], "actionTimes": [11649, 12192, 12705, 13216, 13720], "queries": {"click": {"state": {"target": ["26", "30", "31", "32", "33"], "time": [1916, 3777, 5986, 7816, 9733]}, "edge": {"target": [], "time": []}}, "mouseover": {"state": {"target": ["23", "24", "25", "26", "24", "30", "31", "22", "19", "22", "31", "32", "33"], "time": [1398, 1440, 1530, 1815, 2281, 2503, 3983, 4149, 4204, 5641, 5752, 6260, 8086]}, "edge": {"target": [], "time": []}}, "mouseout": {"state": {"target": ["14", "13", "12", "0", "23", "24", "25", "26", "26", "24", "30", "31", "22", "19", "22", "31", "32", "33", "32"], "time": [544, 578, 759, 1384, 1426, 1475, 1760, 2012, 2093, 2419, 3961, 4025, 4176, 5634, 5655, 6176, 8017, 10024, 10142]}, "edge": {"target": [], "time": []}}}, "displayed_time": "15.04", "trialTime": 16096, "trial_type": "mouselab-mdp", "trial_index": 19, "time_elapsed": 1786706, "internal_node_id": "0.0-6.0-1.0-10.0"}}, {"uniqueid": "w43059693:a95721490", "current_trial": 20, "dateTime": 1693581895085, "trialdata": {"revealed_states": [], "clicked_states": ["26", "30", "15", "19", "16", "17"], "num_clicks_accrued": [0, 0, 0, 0, 0, 0, 0, 0, 0, 0, 0, 0, 0], "stateRewards": ["", -2, -3, 1, -7, 39, -67, 16, 5, -20, 73, 66, -1, 4, 5, -3, 23, -68, -87, -8, 3, -3, 17, 1, -4, -2, -13, -32, 34, 61, -5, -11, -18, 12], "withholdReward": false, "trial_id": "mdp_trial_12", "block": "test", "trialIndex": 13, "score": 19.6, "costs": -8.4, "simulationMode": [null, null, null, null, null], "rewards": [-1, 4, 5, -3, 23], "path": ["0", "0", "12", "13", "14", "15", "16"], "rt": [11813, 11, 26, 19, 82], "actions": ["right", "right", "right", "up", "up"], "actionTimes": [12733, 13246, 13781, 14301, 14885], "queries": {"click": {"state": {"target": ["26", "30", "15", "19", "16", "17"], "time": [1561, 3373, 5190, 6974, 8995, 10909]}, "edge": {"target": [], "time": []}}, "mouseover": {"state": {"target": ["23", "28", "26", "25", "30", "31", "12", "13", "14", "15", "14", "19", "22", "18", "16", "17", "15", "18"], "time": [1225, 1274, 1308, 1823, 1941, 3552, 3628, 3649, 3704, 3850, 5406, 5517, 7315, 7657, 7704, 9407, 11211, 11316]}, "edge": {"target": [], "time": []}}, "mouseout": {"state": {"target": ["17", "15", "18", "23", "28", "26", "25", "30", "31", "12", "13", "14", "15", "14", "19", "22", "18", "16", "17", "15", "18", "15"], "time": [440, 468, 495, 1232, 1288, 1795, 1878, 3538, 3562, 3635, 3677, 3718, 5371, 5461, 7274, 7323, 7670, 9170, 11170, 11274, 13142, 13177]}, "edge": {"target": [], "time": []}}}, "displayed_time": "15.39", "trialTime": 15733, "trial_type": "mouselab-mdp", "trial_index": 20, "time_elapsed": 1802578, "internal_node_id": "0.0-6.0-1.0-11.0"}}, {"uniqueid": "w43059693:a95721490", "current_trial": 21, "dateTime": 1693581914143, "trialdata": {"revealed_states": [], "clicked_states": ["15", "19", "26", "30", "31", "32", "33"], "num_clicks_accrued": [0, 0, 0, 0, 0, 0, 0, 0, 0, 0, 0, 0, 0], "stateRewards": ["", -1, 1, 8, -8, -49, 62, -78, 16, 28, -81, 78, -2, -3, -1, -4, 67, 49, -2, -13, -16, -39, 83, 1, -4, 4, -5, -20, 7, 84, 7, -32, -59, 19], "withholdReward": false, "trial_id": "mdp_trial_13", "block": "test", "trialIndex": 14, "score": 17.2, "costs": -9.8, "simulationMode": [null, null, null, null, null], "rewards": [1, -4, 4, 7, 19], "path": ["0", "0", "23", "24", "25", "30", "33"], "rt": [14308, 513, 214, 114, 89], "actions": ["left", "left", "left", "down", "left"], "actionTimes": [15072, 16096, 16808, 17424, 18016], "queries": {"click": {"state": {"target": ["15", "19", "26", "30", "31", "32", "33"], "time": [1340, 3176, 4992, 6869, 9233, 11074, 12899]}, "edge": {"target": [], "time": []}}, "mouseover": {"state": {"target": ["0", "12", "13", "14", "15", "14", "19", "22", "24", "25", "26", "25", "30", "31", "0", "12", "18", "16", "23", "24", "31", "32", "33", "30", "22"], "time": [857, 933, 975, 1016, 1225, 1551, 1725, 3371, 3517, 3579, 3822, 5211, 5391, 7086, 7148, 7169, 7204, 7343, 8891, 8920, 9127, 9579, 11386, 13100, 14857]}, "edge": {"target": [], "time": []}}, "mouseout": {"state": {"target": ["19", "22", "0", "0", "12", "13", "14", "15", "14", "19", "22", "24", "25", "26", "25", "30", "31", "0", "12", "18", "16", "23", "24", "31", "32", "33", "30", "22", "22"], "time": [259, 307, 801, 912, 961, 995, 1127, 1503, 1655, 3350, 3398, 3544, 3775, 5176, 5280, 7058, 7107, 7162, 7176, 7225, 8773, 8905, 8968, 9377, 11253, 13086, 13127, 14905, 18753]}, "edge": {"target": [], "time": []}}}, "displayed_time": "18.52", "trialTime": 18921, "trial_type": "mouselab-mdp", "trial_index": 21, "time_elapsed": 1821635, "internal_node_id": "0.0-6.0-1.0-12.0"}}, {"uniqueid": "w43059693:a95721490", "current_trial": 22, "dateTime": 1693581929182, "trialdata": {"revealed_states": [], "clicked_states": ["26", "28"], "num_clicks_accrued": [0, 0, 0, 0, 0, 0, 0, 0, 0, 0, 0, 0, 0], "stateRewards": ["", -1, 1, -2, 5, 73, 15, 61, 8, 7, 38, 76, 2, 2, -4, -6, -6, -26, 43, -5, -45, -85, -35, -2, 1, -4, 15, -10, 69, 72, -11, 84, -49, -38], "withholdReward": false, "trial_id": "mdp_trial_14", "block": "test", "trialIndex": 15, "score": 76.2, "costs": -2.8, "simulationMode": [null, null, null, null, null], "rewards": [-2, 1, -4, 15, 69], "path": ["0", "0", "23", "24", "25", "26", "28"], "rt": [5338, 408, 211, 55, 107], "actions": ["left", "left", "left", "up", "right"], "actionTimes": [5878, 6790, 7502, 8054, 8662], "queries": {"click": {"state": {"target": ["26", "28"], "time": [1183, 3383]}, "edge": {"target": [], "time": []}}, "mouseover": {"state": {"target": ["0", "23", "26", "26", "25", "30", "25", "28", "27", "1", "12", "13", "14"], "time": [621, 769, 859, 1102, 1380, 1637, 3192, 3262, 3751, 5574, 5609, 5623, 5644]}, "edge": {"target": [], "time": []}}, "mouseout": {"state": {"target": ["0", "0", "23", "26", "26", "26", "25", "30", "25", "28", "26", "27", "1", "12", "13", "14"], "time": [414, 714, 797, 880, 1188, 1346, 1491, 3172, 3199, 3540, 3700, 5505, 5582, 5616, 5631, 5652]}, "edge": {"target": [], "time": []}}}, "displayed_time": "14.54", "trialTime": 14886, "trial_type": "mouselab-mdp", "trial_index": 22, "time_elapsed": 1836674, "internal_node_id": "0.0-6.0-1.0-13.0"}}, {"uniqueid": "w43059693:a95721490", "current_trial": 23, "dateTime": 1693581945038, "trialdata": {"revealed_states": [], "clicked_states": ["15", "17", "16", "18"], "num_clicks_accrued": [0, 0, 0, 0, 0, 0, 0, 0, 0, 0, 0, 0, 0], "stateRewards": ["", 1, 1, -3, 2, 22, -25, -11, -5, 50, 49, 3, 1, -1, 8, 14, -85, -30, 57, -6, -39, -16, 59, -2, -1, 5, 5, 59, -16, 8, 4, 67, 56, -9], "withholdReward": false, "trial_id": "mdp_trial_15", "block": "test", "trialIndex": 16, "score": 73.4, "costs": -5.6, "simulationMode": [null, null, null, null, null], "rewards": [1, -1, 8, 14, 57], "path": ["0", "0", "12", "13", "14", "15", "18"], "rt": [9063, 94, 96, 84, 406], "actions": ["right", "right", "right", "up", "left"], "actionTimes": [10292, 10892, 11491, 12075, 12987], "queries": {"click": {"state": {"target": ["15", "17", "16", "18"], "time": [2079, 4571, 6407, 8350]}, "edge": {"target": [], "time": []}}, "mouseover": {"state": {"target": ["12", "13", "15", "15", "14", "19", "17", "16", "18", "15"], "time": [1601, 1643, 1698, 1990, 2303, 2622, 4406, 4942, 6830, 8566]}, "edge": {"target": [], "time": []}}, "mouseout": {"state": {"target": ["13", "12", "0", "12", "13", "15", "15", "14", "19", "17", "16", "18", "15", "17"], "time": [705, 788, 1573, 1628, 1650, 1901, 2274, 2379, 4338, 4691, 6684, 8546, 8587, 8629]}, "edge": {"target": [], "time": []}}}, "displayed_time": "15.23", "trialTime": 15699, "trial_type": "mouselab-mdp", "trial_index": 23, "time_elapsed": 1852530, "internal_node_id": "0.0-6.0-1.0-14.0"}}, {"uniqueid": "w43059693:a95721490", "current_trial": 24, "dateTime": 1693581968421, "trialdata": {"revealed_states": [], "clicked_states": ["26", "30", "31", "32", "33", "19", "22", "21", "20"], "num_clicks_accrued": [0, 0, 0, 0, 0, 0, 0, 0, 0, 0, 0, 0, 0], "stateRewards": ["", -2, 2, -5, -6, 10, -66, -58, -10, -11, -63, -70, -1, -4, -5, 7, 66, -64, -43, -3, 45, -37, 4, -2, -2, -6, -4, -30, 33, 43, 15, -32, -65, -59], "withholdReward": false, "trial_id": "mdp_trial_16", "block": "test", "trialIndex": 17, "score": 19.4, "costs": -12.600000000000001, "simulationMode": [null, null, null, null, null], "rewards": [-1, -4, -5, -3, 45], "path": ["0", "0", "12", "13", "14", "19", "20"], "rt": [19050, 70, 12, 21, 37], "actions": ["right", "right", "right", "down", "right"], "actionTimes": [20044, 20613, 21131, 21659, 22203], "queries": {"click": {"state": {"target": ["26", "30", "31", "32", "33", "19", "22", "21", "20"], "time": [1567, 3357, 6046, 7898, 9704, 11985, 14194, 16109, 17977]}, "edge": {"target": [], "time": []}}, "mouseover": {"state": {"target": ["0", "23", "28", "26", "25", "30", "31", "22", "19", "22", "31", "31", "32", "33", "21", "19", "20", "17", "15", "14", "22", "21", "20", "15"], "time": [1158, 1235, 1318, 1519, 1784, 1923, 3533, 3638, 3672, 5290, 5374, 5866, 6457, 8137, 11721, 11916, 12221, 12394, 12547, 13901, 14061, 14485, 16353, 18764]}, "edge": {"target": [], "time": []}}, "mouseout": {"state": {"target": ["17", "13", "12", "0", "0", "23", "28", "26", "25", "30", "31", "22", "19", "22", "31", "31", "32", "33", "21", "19", "20", "17", "15", "14", "22", "19", "21", "20", "15"], "time": [394, 477, 554, 804, 1193, 1256, 1401, 1749, 1839, 3519, 3548, 3658, 5276, 5304, 5547, 6201, 7984, 9943, 11728, 12158, 12249, 12478, 13880, 13916, 14339, 14429, 16276, 18158, 20513]}, "edge": {"target": [], "time": []}}}, "displayed_time": "22.70", "trialTime": 23195, "trial_type": "mouselab-mdp", "trial_index": 24, "time_elapsed": 1875914, "internal_node_id": "0.0-6.0-1.0-15.0"}}, {"uniqueid": "w43059693:a95721490", "current_trial": 25, "dateTime": 1693581988421, "trialdata": {"revealed_states": [], "clicked_states": ["26", "28", "27", "29", "30", "19", "22"], "num_clicks_accrued": [0, 0, 0, 0, 0, 0, 0, 0, 0, 0, 0, 0, 0], "stateRewards": ["", 1, -1, 4, 5, -32, 18, 20, 6, -88, -74, 9, -2, 1, -2, -14, 34, -77, -38, -1, 80, -36, 73, 2, 3, -8, 10, -48, -73, -71, -11, -22, 20, 54], "withholdReward": false, "trial_id": "mdp_trial_17", "block": "test", "trialIndex": 18, "score": 59.2, "costs": -9.8, "simulationMode": [null, null, null, null, null], "rewards": [-2, 1, -2, -1, 73], "path": ["0", "0", "12", "13", "14", "19", "22"], "rt": [15220, 391, 159, 11, 82], "actions": ["right", "right", "right", "down", "left"], "actionTimes": [16260, 17155, 17811, 18323, 18907], "queries": {"click": {"state": {"target": ["26", "28", "27", "29", "30", "19", "22"], "time": [1575, 3883, 5708, 7528, 9340, 11634, 13771]}, "edge": {"target": [], "time": []}}, "mouseover": {"state": {"target": ["28", "26", "25", "30", "25", "28", "27", "29", "24", "23", "31", "30", "31", "19", "19", "22", "31", "22", "19", "14", "15", "14", "22", "21", "20"], "time": [1318, 1471, 1776, 1908, 3492, 3644, 4256, 6040, 7811, 7881, 8235, 8429, 9526, 9763, 10061, 10721, 10867, 11429, 11492, 11882, 12082, 13471, 13644, 14030, 15964]}, "edge": {"target": [], "time": []}}, "mouseout": {"state": {"target": ["20", "0", "28", "26", "25", "30", "25", "28", "27", "29", "24", "23", "31", "30", "31", "19", "19", "22", "31", "22", "19", "14", "15", "14", "22", "21", "19", "20"], "time": [40, 908, 1401, 1735, 1846, 3471, 3554, 4033, 5936, 7722, 7846, 8054, 8304, 9485, 9568, 9790, 10687, 10742, 11325, 11464, 11798, 11936, 13436, 13505, 13959, 15776, 15908, 15999]}, "edge": {"target": [], "time": []}}}, "displayed_time": "19.41", "trialTime": 19827, "trial_type": "mouselab-mdp", "trial_index": 25, "time_elapsed": 1895914, "internal_node_id": "0.0-6.0-1.0-16.0"}}, {"uniqueid": "w43059693:a95721490", "current_trial": 26, "dateTime": 1693582004413, "trialdata": {"revealed_states": [], "clicked_states": ["19", "15", "26", "28"], "num_clicks_accrued": [0, 0, 0, 0, 0, 0, 0, 0, 0, 0, 0, 0, 0], "stateRewards": ["", 1, 2, 2, -15, -84, 28, -26, 13, 31, 86, 30, -2, 1, -1, -8, 66, -40, -1, -10, -32, 57, -17, 1, 2, -2, 9, -23, 77, 85, 12, -32, -62, -35], "withholdReward": false, "trial_id": "mdp_trial_18", "block": "test", "trialIndex": 19, "score": 81.4, "costs": -5.6, "simulationMode": [null, null, null, null, null], "rewards": [1, 2, -2, 9, 77], "path": ["0", "0", "23", "24", "25", "26", "28"], "rt": [9903, 9, 39, 50, 1], "actions": ["left", "left", "left", "up", "right"], "actionTimes": [10812, 11325, 11874, 12426, 12926], "queries": {"click": {"state": {"target": ["19", "15", "26", "28"], "time": [1370, 3436, 5851, 8006]}, "edge": {"target": [], "time": []}}, "mouseover": {"state": {"target": ["22", "19", "14", "15", "1", "28", "26", "25", "30", "28", "27", "25", "24", "23", "0", "12", "13"], "time": [1159, 1194, 1569, 1632, 5577, 5653, 5730, 6069, 6181, 7847, 8271, 10118, 10173, 10278, 10326, 10368, 10410]}, "edge": {"target": [], "time": []}}, "mouseout": {"state": {"target": ["22", "0", "22", "19", "14", "15", "1", "28", "26", "25", "30", "28", "27", "26", "25", "24", "23", "0", "12", "13", "20", "19"], "time": [499, 1021, 1167, 1535, 1604, 3646, 5597, 5694, 6028, 6125, 7687, 8208, 10014, 10097, 10125, 10257, 10312, 10354, 10397, 10416, 14757, 14785]}, "edge": {"target": [], "time": []}}}, "displayed_time": "14.91", "trialTime": 15834, "trial_type": "mouselab-mdp", "trial_index": 26, "time_elapsed": 1911906, "internal_node_id": "0.0-6.0-1.0-17.0"}}, {"uniqueid": "w43059693:a95721490", "current_trial": 27, "dateTime": 1693582027501, "trialdata": {"revealed_states": [], "clicked_states": ["26"], "num_clicks_accrued": [0, 0, 0, 0, 0, 0, 0, 0, 0, 0, 0, 0, 0], "stateRewards": ["", 1, 2, -8, 9, 18, -83, -11, 6, -64, -48, 17, -2, -2, -5, -3, -24, -3, -86, -2, 48, -41, -22, -2, 4, 7, 8, 81, 13, -48, 10, 61, 19, 57], "withholdReward": false, "trial_id": "mdp_trial_19", "block": "test", "trialIndex": 20, "score": 28.6, "costs": -1.4, "simulationMode": [null, null, null, null, null], "rewards": [-2, 4, 7, 8, 13], "path": ["0", "0", "23", "24", "25", "26", "28"], "rt": [2471, 322, 57, 638, 13], "actions": ["left", "left", "left", "up", "right"], "actionTimes": [3946, 4770, 5329, 6465, 6979], "queries": {"click": {"state": {"target": ["26"], "time": [1904]}, "edge": {"target": [], "time": []}}, "mouseover": {"state": {"target": ["28", "26", "25", "30"], "time": [1694, 1798, 2079, 2307]}, "edge": {"target": [], "time": []}}, "mouseout": {"state": {"target": ["0", "28", "26", "25", "30", "28", "23", "22", "19", "20"], "time": [1347, 1743, 2056, 2174, 4410, 7055, 8701, 8750, 8764, 8778]}, "edge": {"target": [], "time": []}}}, "displayed_time": "15.48", "trialTime": 22930, "trial_type": "mouselab-mdp", "trial_index": 27, "time_elapsed": 1934994, "internal_node_id": "0.0-6.0-1.0-18.0"}}, {"uniqueid": "w43059693:a95721490", "current_trial": 28, "dateTime": 1693582044493, "trialdata": {"revealed_states": [], "clicked_states": ["26", "30", "19", "31", "32"], "num_clicks_accrued": [0, 0, 0, 0, 0, 0, 0, 0, 0, 0, 0, 0, 0], "stateRewards": ["", -1, 1, -1, 2, 19, 85, -18, 2, -3, -26, 36, 2, 4, 7, -9, -18, 70, 72, -5, 35, -20, -28, 1, -2, -4, -3, -59, -11, -63, -2, -72, 59, -69], "withholdReward": false, "trial_id": "mdp_trial_20", "block": "test", "trialIndex": 21, "score": 45, "costs": -7, "simulationMode": [null, null, null, null, null], "rewards": [1, -2, -4, -2, 59], "path": ["0", "0", "23", "24", "25", "30", "32"], "rt": [10816, 397, 63, 453, 85], "actions": ["left", "left", "left", "down", "down"], "actionTimes": [11600, 12496, 13056, 14008, 14593], "queries": {"click": {"state": {"target": ["26", "30", "19", "31", "32"], "time": [1408, 3256, 5965, 7837, 9632]}, "edge": {"target": [], "time": []}}, "mouseover": {"state": {"target": ["28", "26", "25", "30", "31", "19", "22", "22", "19", "14", "15", "13", "12", "31", "32", "33"], "time": [1172, 1297, 1645, 1798, 3430, 3867, 5221, 5624, 5895, 6209, 6353, 6811, 6839, 7138, 8172, 10027]}, "edge": {"target": [], "time": []}}, "mouseout": {"state": {"target": ["0", "28", "26", "25", "30", "31", "19", "22", "22", "19", "14", "15", "13", "12", "31", "32", "33", "30", "31", "21"], "time": [1019, 1221, 1612, 1708, 3410, 3450, 5207, 5242, 5811, 6165, 6239, 6783, 6825, 6853, 8041, 9825, 11992, 12027, 12048, 12131]}, "edge": {"target": [], "time": []}}}, "displayed_time": "15.09", "trialTime": 16760, "trial_type": "mouselab-mdp", "trial_index": 28, "time_elapsed": 1951986, "internal_node_id": "0.0-6.0-1.0-19.0"}}, {"uniqueid": "w43059693:a95721490", "current_trial": 29, "dateTime": 1693582062230, "trialdata": {"revealed_states": [], "clicked_states": ["26", "28", "27"], "num_clicks_accrued": [0, 0, 0, 0, 0, 0, 0, 0, 0, 0, 0, 0, 0], "stateRewards": ["", -2, 2, -1, -6, 22, 6, 6, -5, 70, -42, 65, 1, 3, 5, -6, -67, -9, 3, 14, 7, -62, -13, -2, 4, 1, 16, 42, -21, -52, -8, 32, 53, 81], "withholdReward": false, "trial_id": "mdp_trial_21", "block": "test", "trialIndex": 22, "score": 56.8, "costs": -4.199999999999999, "simulationMode": [null, null, null, null, null], "rewards": [-2, 4, 1, 16, 42], "path": ["0", "0", "23", "24", "25", "26", "27"], "rt": [6476, 145, 5, 3, 272], "actions": ["left", "left", "left", "up", "up"], "actionTimes": [8004, 8654, 9164, 9676, 10452], "queries": {"click": {"state": {"target": ["26", "28", "27"], "time": [2020, 4222, 5994]}, "edge": {"target": [], "time": []}}, "mouseover": {"state": {"target": ["23", "28", "26", "25", "30", "28", "27", "29"], "time": [1652, 1769, 1832, 2325, 2512, 4005, 4512, 6617]}, "edge": {"target": [], "time": []}}, "mouseout": {"state": {"target": ["20", "0", "23", "28", "26", "26", "25", "30", "28", "27", "29", "26", "28", "1", "18", "15", "21"], "time": [623, 839, 1679, 1797, 2126, 2284, 2429, 3922, 4322, 6228, 8394, 8471, 8499, 8547, 8630, 8679, 17235]}, "edge": {"target": [], "time": []}}}, "displayed_time": "15.53", "trialTime": 17574, "trial_type": "mouselab-mdp", "trial_index": 29, "time_elapsed": 1969723, "internal_node_id": "0.0-6.0-1.0-20.0"}}, {"uniqueid": "w43059693:a95721490", "current_trial": 30, "dateTime": 1693582077558, "trialdata": {"revealed_states": [], "clicked_states": ["26", "30", "31"], "num_clicks_accrued": [0, 0, 0, 0, 0, 0, 0, 0, 0, 0, 0, 0, 0], "stateRewards": ["", 2, 3, 6, -5, -74, -53, 17, -12, 46, 44, 18, -2, 4, 1, -8, 22, -23, -49, 9, -45, 55, 81, 1, -1, -7, -16, -83, -71, -45, 2, 51, 82, 61], "withholdReward": false, "trial_id": "mdp_trial_22", "block": "test", "trialIndex": 23, "score": 41.8, "costs": -4.199999999999999, "simulationMode": [null, null, null, null, null], "rewards": [1, -1, -7, 2, 51], "path": ["0", "0", "23", "24", "25", "30", "31"], "rt": [6757, 26, 108, 16, 62], "actions": ["left", "left", "left", "down", "right"], "actionTimes": [7586, 8116, 8730, 9242, 9802], "queries": {"click": {"state": {"target": ["26", "30", "31"], "time": [1666, 3533, 5660]}, "edge": {"target": [], "time": []}}, "mouseover": {"state": {"target": ["23", "26", "25", "30", "31", "22", "19", "22", "31", "32"], "time": [1107, 1552, 1871, 1954, 3677, 3795, 3878, 5371, 5510, 6052]}, "edge": {"target": [], "time": []}}, "mouseout": {"state": {"target": ["19", "22", "12", "0", "23", "26", "25", "30", "31", "22", "19", "22", "31", "31", "32", "21"], "time": [322, 447, 559, 1066, 1121, 1844, 1920, 3670, 3698, 3844, 5358, 5392, 5772, 5892, 7927, 8045]}, "edge": {"target": [], "time": []}}}, "displayed_time": "14.83", "trialTime": 15107, "trial_type": "mouselab-mdp", "trial_index": 30, "time_elapsed": 1985051, "internal_node_id": "0.0-6.0-1.0-21.0"}}, {"uniqueid": "w43059693:a95721490", "current_trial": 31, "dateTime": 1693582093501, "trialdata": {"revealed_states": [], "clicked_states": ["15", "17"], "num_clicks_accrued": [0, 0, 0, 0, 0, 0, 0, 0, 0, 0, 0, 0, 0], "stateRewards": ["", -1, 4, -5, 9, 29, -75, -42, -16, 24, -28, -41, 2, -3, 1, 10, 60, 47, 55, -1, -53, 22, -40, 2, -3, -6, 4, -26, 44, 54, 15, -76, 42, 14], "withholdReward": false, "trial_id": "mdp_trial_23", "block": "test", "trialIndex": 24, "score": 54.2, "costs": -2.8, "simulationMode": [null, null, null, null, null], "rewards": [2, -3, 1, 10, 47], "path": ["0", "0", "12", "13", "14", "15", "17"], "rt": [5326, 76, 101, 63, 6], "actions": ["right", "right", "right", "up", "right"], "actionTimes": [6741, 7317, 7917, 8477, 8989], "queries": {"click": {"state": {"target": ["15", "17"], "time": [1977, 4082]}, "edge": {"target": [], "time": []}}, "mouseover": {"state": {"target": ["12", "15", "15", "14", "19", "17", "16"], "time": [1482, 1642, 1933, 2149, 2231, 3920, 4329]}, "edge": {"target": [], "time": []}}, "mouseout": {"state": {"target": ["12", "15", "15", "14", "19", "17", "16", "17"], "time": [1524, 1697, 2121, 2190, 3850, 4218, 6086, 6170]}, "edge": {"target": [], "time": []}}}, "displayed_time": "15.42", "trialTime": 15765, "trial_type": "mouselab-mdp", "trial_index": 31, "time_elapsed": 2000994, "internal_node_id": "0.0-6.0-1.0-22.0"}}, {"uniqueid": "w43059693:a95721490", "current_trial": 32, "dateTime": 1693582108909, "trialdata": {"revealed_states": [], "clicked_states": ["15", "17"], "num_clicks_accrued": [0, 0, 0, 0, 0, 0, 0, 0, 0, 0, 0, 0, 0], "stateRewards": ["", -2, -2, -7, -13, -10, 49, -68, -1, 84, 70, 88, 1, 4, 4, 12, -57, 25, 30, 8, -1, -77, 57, 2, 3, 2, 3, -18, -80, 23, -15, -41, 70, 11], "withholdReward": false, "trial_id": "mdp_trial_24", "block": "test", "trialIndex": 25, "score": 43.2, "costs": -2.8, "simulationMode": [null, null, null, null, null], "rewards": [1, 4, 4, 12, 25], "path": ["0", "0", "12", "13", "14", "15", "17"], "rt": [5408, 136, 81, 3, 417], "actions": ["right", "right", "right", "up", "right"], "actionTimes": [6337, 6975, 7559, 8071, 8999], "queries": {"click": {"state": {"target": ["15", "17"], "time": [1506, 3686]}, "edge": {"target": [], "time": []}}, "mouseover": {"state": {"target": ["12", "18", "15", "14", "19", "17", "16"], "time": [1178, 1234, 1268, 1734, 1817, 3518, 3949]}, "edge": {"target": [], "time": []}}, "mouseout": {"state": {"target": ["14", "0", "12", "18", "15", "15", "14", "19", "17", "16"], "time": [546, 1150, 1192, 1241, 1540, 1699, 1782, 3422, 3845, 6303]}, "edge": {"target": [], "time": []}}}, "displayed_time": "14.93", "trialTime": 15223, "trial_type": "mouselab-mdp", "trial_index": 32, "time_elapsed": 2016402, "internal_node_id": "0.0-6.0-1.0-23.0"}}, {"uniqueid": "w43059693:a95721490", "current_trial": 33, "dateTime": 1693582124189, "trialdata": {"revealed_states": [], "clicked_states": ["15", "17", "16"], "num_clicks_accrued": [0, 0, 0, 0, 0, 0, 0, 0, 0, 0, 0, 0, 0], "stateRewards": ["", 2, -4, -8, -15, 71, -43, -41, 7, -17, 20, 67, -1, -1, -4, 6, 37, -24, -47, 9, 34, 57, 45, 1, 2, -4, -5, -23, 88, -5, 13, -40, 43, 44], "withholdReward": false, "trial_id": "mdp_trial_25", "block": "test", "trialIndex": 26, "score": 32.8, "costs": -4.199999999999999, "simulationMode": [null, null, null, null, null], "rewards": [-1, -1, -4, 6, 37], "path": ["0", "0", "12", "13", "14", "15", "16"], "rt": [6925, 117, 116, 90, 108], "actions": ["right", "right", "right", "up", "up"], "actionTimes": [7731, 8347, 8963, 9555, 10163], "queries": {"click": {"state": {"target": ["15", "17", "16"], "time": [1731, 3853, 5670]}, "edge": {"target": [], "time": []}}, "mouseover": {"state": {"target": ["12", "13", "14", "15", "14", "19", "17", "16", "18"], "time": [977, 1034, 1103, 1248, 1985, 2137, 3686, 4235, 6179]}, "edge": {"target": [], "time": []}}, "mouseout": {"state": {"target": ["14", "13", "0", "12", "13", "14", "15", "14", "19", "17", "16", "18", "15", "17"], "time": [331, 359, 950, 1012, 1075, 1151, 1929, 2047, 3623, 3950, 5874, 8054, 8096, 8124]}, "edge": {"target": [], "time": []}}}, "displayed_time": "14.81", "trialTime": 15115, "trial_type": "mouselab-mdp", "trial_index": 33, "time_elapsed": 2031682, "internal_node_id": "0.0-6.0-1.0-24.0"}}, {"uniqueid": "w43059693:a95721490", "current_trial": 34, "dateTime": 1693582156440, "trialdata": {"revealed_states": [], "clicked_states": ["15", "17", "16", "18"], "num_clicks_accrued": [0, 0, 0, 0, 0, 0, 0, 0, 0, 0, 0, 0, 0], "stateRewards": ["", 1, -2, -3, 14, -42, -87, -37, -11, -50, 33, -44, -2, 4, -7, 13, 48, -75, -66, 12, 23, -2, 82, 1, -4, 3, 12, 51, -15, -26, -11, -52, -29, 82], "withholdReward": false, "trial_id": "mdp_trial_26", "block": "test", "trialIndex": 27, "score": 50.4, "costs": -5.6, "simulationMode": [null, null, null, null, null], "rewards": [-2, 4, -7, 13, 48], "path": ["0", "0", "12", "13", "14", "15", "16"], "rt": [8011, 79, 95, 74, 226], "actions": ["right", "right", "right", "up", "up"], "actionTimes": [8852, 9444, 10036, 10612, 11340], "queries": {"click": {"state": {"target": ["15", "17", "16", "18"], "time": [1274, 3540, 5321, 7059]}, "edge": {"target": [], "time": []}}, "mouseover": {"state": {"target": ["12", "13", "14", "15", "14", "19", "17", "16", "18"], "time": [918, 973, 1063, 1140, 1550, 1834, 3425, 3841, 5751]}, "edge": {"target": [], "time": []}}, "mouseout": {"state": {"target": ["13", "12", "0", "12", "13", "14", "15", "15", "14", "19", "17", "16", "18", "17", "16", "14", "19", "20", "20", "20", "21"], "time": [508, 646, 890, 952, 1015, 1098, 1294, 1515, 1647, 3334, 3682, 5529, 7586, 15940, 16224, 16849, 17030, 17245, 17440, 29696, 30620]}, "edge": {"target": [], "time": []}}}, "displayed_time": "14.84", "trialTime": 32069, "trial_type": "mouselab-mdp", "trial_index": 34, "time_elapsed": 2063932, "internal_node_id": "0.0-6.0-1.0-25.0"}}, {"uniqueid": "w43059693:a95721490", "current_trial": 35, "dateTime": 1693582171878, "trialdata": {"revealed_states": [], "clicked_states": ["15", "17", "16"], "num_clicks_accrued": [0, 0, 0, 0, 0, 0, 0, 0, 0, 0, 0, 0, 0], "stateRewards": ["", -1, -2, -8, 8, -27, -82, 19, -14, -62, 4, 1, -2, 2, 6, 10, 73, -51, -2, 2, 73, -48, 54, -1, 2, -4, 11, -25, 47, 86, 15, 33, 43, -42], "withholdReward": false, "trial_id": "mdp_trial_27", "block": "test", "trialIndex": 28, "score": 84.8, "costs": -4.199999999999999, "simulationMode": [null, null, null, null, null], "rewards": [-2, 2, 6, 10, 73], "path": ["0", "0", "12", "13", "14", "15", "16"], "rt": [6390, 49, 14, 53, 26], "actions": ["right", "right", "right", "up", "up"], "actionTimes": [7247, 7800, 8327, 8879, 9407], "queries": {"click": {"state": {"target": ["15", "17", "16"], "time": [1275, 3403, 5206]}, "edge": {"target": [], "time": []}}, "mouseover": {"state": {"target": ["12", "13", "15", "19", "14", "17", "16", "18"], "time": [949, 984, 1123, 2123, 3186, 3289, 3630, 5554]}, "edge": {"target": [], "time": []}}, "mouseout": {"state": {"target": ["14", "13", "12", "0", "12", "13", "15", "15", "19", "14", "17", "16", "18", "15", "17"], "time": [525, 567, 636, 928, 970, 998, 1298, 1492, 3165, 3206, 3540, 5415, 7693, 7776, 7831]}, "edge": {"target": [], "time": []}}}, "displayed_time": "14.86", "trialTime": 15247, "trial_type": "mouselab-mdp", "trial_index": 35, "time_elapsed": 2079371, "internal_node_id": "0.0-6.0-1.0-26.0"}}, {"uniqueid": "w43059693:a95721490", "current_trial": 36, "dateTime": 1693582193309, "trialdata": {"revealed_states": [], "clicked_states": ["15", "16", "18", "17", "19", "21", "22", "20"], "num_clicks_accrued": [0, 0, 0, 0, 0, 0, 0, 0, 0, 0, 0, 0, 0], "stateRewards": ["", -1, -3, 1, 13, -64, -29, 12, -4, -33, 50, 56, 2, -3, 4, 11, -64, -58, -55, 12, 47, 38, -25, -2, 2, 5, -15, 85, 7, 84, 10, 8, 57, 26], "withholdReward": false, "trial_id": "mdp_trial_28", "block": "test", "trialIndex": 29, "score": 50.8, "costs": -11.200000000000001, "simulationMode": [null, null, null, null, null], "rewards": [2, -3, 4, 12, 47], "path": ["0", "0", "12", "13", "14", "19", "20"], "rt": [15640, 102, 43, 589, 91], "actions": ["right", "right", "right", "down", "right"], "actionTimes": [16499, 17099, 17643, 18731, 19322], "queries": {"click": {"state": {"target": ["15", "16", "18", "17", "19", "21", "22", "20"], "time": [1277, 3398, 5226, 7103, 9269, 10942, 12974, 14760]}, "edge": {"target": [], "time": []}}, "mouseover": {"state": {"target": ["12", "13", "15", "14", "19", "14", "16", "18", "17", "19", "20", "20", "21", "22", "20"], "time": [960, 1002, 1154, 1537, 2058, 3127, 3286, 4914, 5453, 9168, 9439, 9939, 10287, 11419, 13217]}, "edge": {"target": [], "time": []}}, "mouseout": {"state": {"target": ["15", "18", "0", "12", "13", "15", "14", "19", "14", "15", "16", "18", "15", "17", "19", "20", "20", "21", "22", "19", "20"], "time": [487, 550, 939, 988, 1029, 1475, 1620, 3113, 3155, 3189, 3564, 5370, 5432, 7301, 9405, 9461, 10044, 11300, 13141, 13190, 15009]}, "edge": {"target": [], "time": []}}}, "displayed_time": "19.82", "trialTime": 21258, "trial_type": "mouselab-mdp", "trial_index": 36, "time_elapsed": 2100802, "internal_node_id": "0.0-6.0-1.0-27.0"}}, {"uniqueid": "w43059693:a95721490", "current_trial": 37, "dateTime": 1693582219893, "trialdata": {"revealed_states": [], "clicked_states": ["15", "19", "20"], "num_clicks_accrued": [0, 0, 0, 0, 0, 0, 0, 0, 0, 0, 0, 0, 0], "stateRewards": ["", 2, 3, 6, -12, -29, 12, 87, 4, 35, -30, 67, 2, 3, -5, -9, 44, 69, -8, 1, 45, -8, 28, -2, -1, -8, 11, -12, -5, 81, 9, 87, 82, 88], "withholdReward": false, "trial_id": "mdp_trial_29", "block": "test", "trialIndex": 30, "score": 41.8, "costs": -4.199999999999999, "simulationMode": [null, null, null, null, null], "rewards": [2, 3, -5, 1, 45], "path": ["0", "0", "12", "13", "14", "19", "20"], "rt": [6777, 235, 117, 140, 181], "actions": ["right", "right", "right", "down", "right"], "actionTimes": [8729, 9471, 10087, 10735, 11415], "queries": {"click": {"state": {"target": ["15", "19", "20"], "time": [2460, 4254, 6543]}, "edge": {"target": [], "time": []}}, "mouseover": {"state": {"target": ["12", "15", "20", "19", "21", "21", "20", "21"], "time": [2024, 2386, 2865, 3560, 4518, 6296, 6441, 6726]}, "edge": {"target": [], "time": []}}, "mouseout": {"state": {"target": ["0", "12", "15", "15", "20", "19", "21", "21", "20", "21", "13", "18", "16"], "time": [1789, 2052, 2492, 2641, 3414, 4435, 4830, 6330, 6684, 8865, 23546, 23566, 23594]}, "edge": {"target": [], "time": []}}}, "displayed_time": "15.97", "trialTime": 26407, "trial_type": "mouselab-mdp", "trial_index": 37, "time_elapsed": 2127386, "internal_node_id": "0.0-6.0-1.0-28.0"}}, {"uniqueid": "w43059693:a95721490", "current_trial": 38, "dateTime": 1693582239901, "trialdata": {"revealed_states": [], "clicked_states": ["15", "19", "22"], "num_clicks_accrued": [0, 0, 0, 0, 0, 0, 0, 0, 0, 0, 0, 0, 0], "stateRewards": ["", 2, -2, -3, 10, -4, -1, -11, -8, -9, -36, -78, 2, 1, 7, -7, 44, -1, -31, -1, 26, 47, 83, 2, -4, -4, -6, -52, -76, -81, -1, -59, 45, 67], "withholdReward": false, "trial_id": "mdp_trial_30", "block": "test", "trialIndex": 31, "score": 87.8, "costs": -4.199999999999999, "simulationMode": [null, null, null, null, null], "rewards": [2, 1, 7, -1, 83], "path": ["0", "0", "12", "13", "14", "19", "22"], "rt": [7615, 454, 232, 150, 194], "actions": ["right", "right", "right", "down", "left"], "actionTimes": [8690, 9642, 10370, 11018, 11714], "queries": {"click": {"state": {"target": ["15", "19", "22"], "time": [1946, 3910, 5815]}, "edge": {"target": [], "time": []}}, "mouseover": {"state": {"target": ["18", "15", "14", "19", "22", "21"], "time": [1491, 1797, 2166, 2248, 4908, 6519]}, "edge": {"target": [], "time": []}}, "mouseout": {"state": {"target": ["15", "18", "12", "18", "15", "14", "19", "19", "22", "21", "19", "20"], "time": [609, 644, 720, 1534, 2123, 2207, 4166, 4686, 6373, 8151, 8582, 9999]}, "edge": {"target": [], "time": []}}}, "displayed_time": "15.08", "trialTime": 19826, "trial_type": "mouselab-mdp", "trial_index": 38, "time_elapsed": 2147394, "internal_node_id": "0.0-6.0-1.0-29.0"}}, {"uniqueid": "w43059693:a95721490", "current_trial": 39, "dateTime": 1693582255965, "trialdata": {"revealed_states": [], "clicked_states": ["15", "16", "18", "17"], "num_clicks_accrued": [0, 0, 0, 0, 0, 0, 0, 0, 0, 0, 0, 0, 0], "stateRewards": ["", -1, 3, 2, 9, 41, 4, -46, -12, -54, -87, -25, 2, 3, -1, 11, -77, 12, -33, -9, -32, 35, 72, 1, 3, -7, 4, 37, 65, -73, 6, 77, -43, 8], "withholdReward": false, "trial_id": "mdp_trial_31", "block": "test", "trialIndex": 32, "score": 21.4, "costs": -5.6, "simulationMode": [null, null, null, null, null], "rewards": [2, 3, -1, 11, 12], "path": ["0", "0", "12", "13", "14", "15", "17"], "rt": [9293, 59, 43, 102, 538], "actions": ["right", "right", "right", "up", "right"], "actionTimes": [10407, 10974, 11518, 12118, 13158], "queries": {"click": {"state": {"target": ["15", "16", "18", "17"], "time": [1645, 3588, 5381, 7178]}, "edge": {"target": [], "time": []}}, "mouseover": {"state": {"target": ["12", "13", "14", "15", "17", "17", "16", "18", "17", "19"], "time": [1202, 1250, 1306, 1466, 1841, 2792, 3320, 4223, 5598, 8153]}, "edge": {"target": [], "time": []}}, "mouseout": {"state": {"target": ["20", "19", "12", "0", "12", "13", "14", "15", "15", "17", "17", "16", "15", "18", "15", "17", "19", "20"], "time": [729, 750, 812, 1181, 1230, 1285, 1362, 1742, 1799, 1882, 2828, 3772, 4084, 5535, 5577, 7369, 10445, 10750]}, "edge": {"target": [], "time": []}}}, "displayed_time": "15.12", "trialTime": 15886, "trial_type": "mouselab-mdp", "trial_index": 39, "time_elapsed": 2163458, "internal_node_id": "0.0-6.0-1.0-30.0"}}, {"uniqueid": "w43059693:a95721490", "current_trial": 40, "dateTime": 1693582274821, "trialdata": {"revealed_states": [], "clicked_states": ["15", "19", "30", "31", "32", "33"], "num_clicks_accrued": [0, 0, 0, 0, 0, 0, 0, 0, 0, 0, 0, 0, 0], "stateRewards": ["", -1, -3, -7, -7, -76, 30, -49, 11, -70, 56, 2, 1, 4, -3, -14, -59, -83, -25, -9, -21, -67, -73, -2, 4, 4, -9, -11, -32, 60, 9, -87, 22, -64], "withholdReward": false, "trial_id": "mdp_trial_32", "block": "test", "trialIndex": 33, "score": 28.6, "costs": -8.4, "simulationMode": [null, null, null, null, null], "rewards": [-2, 4, 4, 9, 22], "path": ["0", "0", "23", "24", "25", "30", "32"], "rt": [12100, 230, 13, 204, 32], "actions": ["left", "left", "left", "down", "down"], "actionTimes": [14877, 15605, 16117, 16829, 17365], "queries": {"click": {"state": {"target": ["15", "19", "30", "31", "32", "33"], "time": [3333, 5166, 7311, 9398, 11238, 13097]}, "edge": {"target": [], "time": []}}, "mouseover": {"state": {"target": ["0", "12", "13", "15", "14", "19", "21", "31", "30", "25", "26", "25", "31", "32", "33"], "time": [2895, 2937, 3019, 3172, 3554, 3735, 5457, 7131, 7172, 7540, 7603, 9137, 9214, 9881, 11513]}, "edge": {"target": [], "time": []}}, "mouseout": {"state": {"target": ["13", "12", "0", "0", "12", "13", "15", "14", "19", "21", "31", "30", "25", "26", "25", "31", "32", "33"], "time": [1283, 1317, 2394, 2909, 2992, 3061, 3526, 3589, 5381, 6971, 7144, 7506, 7575, 9117, 9145, 9665, 11435, 13346]}, "edge": {"target": [], "time": []}}}, "displayed_time": "17.86", "trialTime": 18677, "trial_type": "mouselab-mdp", "trial_index": 40, "time_elapsed": 2182314, "internal_node_id": "0.0-6.0-1.0-31.0"}}, {"uniqueid": "w43059693:a95721490", "current_trial": 41, "dateTime": 1693582290813, "trialdata": {"revealed_states": [], "clicked_states": ["26", "28"], "num_clicks_accrued": [0, 0, 0, 0, 0, 0, 0, 0, 0, 0, 0, 0, 0], "stateRewards": ["", -1, 4, -8, 12, 14, 69, -8, 5, -72, -14, 56, -1, -1, -1, 9, 67, 19, 11, -9, -88, -58, 3, 2, -4, -8, 4, 62, 77, -74, 5, -31, 65, 88], "withholdReward": false, "trial_id": "mdp_trial_33", "block": "test", "trialIndex": 34, "score": 68.2, "costs": -2.8, "simulationMode": [null, null, null, null, null], "rewards": [2, -4, -8, 4, 77], "path": ["0", "0", "23", "24", "25", "26", "28"], "rt": [5819, 208, 27, 77, 189], "actions": ["left", "left", "left", "up", "right"], "actionTimes": [7344, 8052, 8584, 9168, 9864], "queries": {"click": {"state": {"target": ["26", "28"], "time": [2044, 4686]}, "edge": {"target": [], "time": []}}, "mouseover": {"state": {"target": ["24", "26", "25", "30", "32", "31", "24", "28", "28", "24", "24", "27"], "time": [1798, 1896, 2201, 2257, 2319, 4034, 4077, 4257, 4646, 4847, 5153, 5312]}, "edge": {"target": [], "time": []}}, "mouseout": {"state": {"target": ["0", "24", "26", "26", "25", "30", "32", "31", "24", "28", "28", "24", "24", "28", "27", "2", "15", "17", "17", "15", "18", "12"], "time": [1577, 1833, 2102, 2174, 2236, 2292, 2361, 4042, 4125, 4500, 4819, 4854, 5167, 5215, 6722, 7945, 8048, 8097, 10035, 10090, 10132, 10244]}, "edge": {"target": [], "time": []}}}, "displayed_time": "15.53", "trialTime": 15816, "trial_type": "mouselab-mdp", "trial_index": 41, "time_elapsed": 2198306, "internal_node_id": "0.0-6.0-1.0-32.0"}}, {"uniqueid": "w43059693:a95721490", "current_trial": 42, "dateTime": 1693582306261, "trialdata": {"revealed_states": [], "clicked_states": ["26", "28", "27", "29"], "num_clicks_accrued": [0, 0, 0, 0, 0, 0, 0, 0, 0, 0, 0, 0, 0], "stateRewards": ["", 1, 4, 5, 8, -55, -11, 8, 16, -37, 77, -22, -2, 3, -8, -10, 45, 87, -67, 4, 17, -33, -22, -1, -3, 7, 6, -39, -85, 75, -1, 7, -48, 45], "withholdReward": false, "trial_id": "mdp_trial_34", "block": "test", "trialIndex": 35, "score": 78.4, "costs": -5.6, "simulationMode": [null, null, null, null, null], "rewards": [-1, -3, 7, 6, 75], "path": ["0", "0", "23", "24", "25", "26", "29"], "rt": [8271, 159, 92, 38, 151], "actions": ["left", "left", "left", "up", "left"], "actionTimes": [9179, 9845, 10443, 10979, 11627], "queries": {"click": {"state": {"target": ["26", "28", "27", "29"], "time": [1396, 3444, 5264, 7073]}, "edge": {"target": [], "time": []}}, "mouseover": {"state": {"target": ["23", "26", "25", "0", "12", "13", "31", "30", "25", "28", "27", "29", "29", "25", "30"], "time": [995, 1259, 1558, 1801, 1891, 2121, 2467, 2579, 3239, 3335, 3912, 5683, 6739, 7342, 7759]}, "edge": {"target": [], "time": []}}, "mouseout": {"state": {"target": ["0", "0", "23", "26", "25", "0", "12", "13", "31", "30", "25", "28", "26", "27", "29", "29", "29", "25", "30", "31"], "time": [445, 967, 1050, 1540, 1599, 1856, 1989, 2239, 2523, 3210, 3259, 3572, 3801, 5502, 6641, 7108, 7287, 7371, 9655, 9708]}, "edge": {"target": [], "time": []}}}, "displayed_time": "14.91", "trialTime": 15259, "trial_type": "mouselab-mdp", "trial_index": 42, "time_elapsed": 2213754, "internal_node_id": "0.0-6.0-1.0-33.0"}}, {"uniqueid": "w43059693:a95721490", "current_trial": 43, "dateTime": 1693582321893, "trialdata": {"revealed_states": [], "clicked_states": ["15", "19", "20", "21"], "num_clicks_accrued": [0, 0, 0, 0, 0, 0, 0, 0, 0, 0, 0, 0, 0], "stateRewards": ["", 2, -4, 4, 9, 69, 9, -75, 12, -86, 66, 25, -1, 3, 2, -13, -88, -3, 1, 4, -69, 49, -84, 2, -1, 4, 2, -18, -81, -52, -15, -69, -54, 25], "withholdReward": false, "trial_id": "mdp_trial_35", "block": "test", "trialIndex": 36, "score": 51.4, "costs": -5.6, "simulationMode": [null, null, null, null, null], "rewards": [-1, 3, 2, 4, 49], "path": ["0", "0", "12", "13", "14", "19", "21"], "rt": [8223, 69, 214, 57, 14], "actions": ["right", "right", "right", "down", "down"], "actionTimes": [9314, 9882, 10602, 11162, 11674], "queries": {"click": {"state": {"target": ["15", "19", "20", "21"], "time": [1445, 3261, 5441, 7266]}, "edge": {"target": [], "time": []}}, "mouseover": {"state": {"target": ["12", "15", "19", "30", "31", "22", "20", "21", "22"], "time": [1137, 1360, 2408, 3950, 5089, 5165, 5283, 5763, 7499]}, "edge": {"target": [], "time": []}}, "mouseout": {"state": {"target": ["0", "12", "15", "19", "30", "31", "22", "20", "20", "21", "22", "19"], "time": [1108, 1172, 1582, 3443, 5075, 5103, 5179, 5515, 5589, 7450, 9540, 9582]}, "edge": {"target": [], "time": []}}}, "displayed_time": "15.09", "trialTime": 15450, "trial_type": "mouselab-mdp", "trial_index": 43, "time_elapsed": 2229386, "internal_node_id": "0.0-6.0-1.0-34.0"}}, {"uniqueid": "w43059693:a95721490", "current_trial": 44, "dateTime": 1693582347621, "trialdata": {"revealed_states": [], "clicked_states": ["15", "17", "16"], "num_clicks_accrued": [0, 0, 0, 0, 0, 0, 0, 0, 0, 0, 0, 0, 0], "stateRewards": ["", 1, 2, 8, -2, 23, -69, -18, -16, 54, -21, 71, -1, -4, 7, 11, 43, -6, 88, 6, -55, 72, 43, 1, -3, -2, -1, 68, -31, -54, 4, -8, 25, -2], "withholdReward": false, "trial_id": "mdp_trial_36", "block": "test", "trialIndex": 37, "score": 51.8, "costs": -4.199999999999999, "simulationMode": [null, null, null, null, null], "rewards": [-1, -4, 7, 11, 43], "path": ["0", "0", "12", "13", "14", "15", "16"], "rt": [6178, 5, 93, 31, 48], "actions": ["right", "right", "right", "up", "up"], "actionTimes": [7318, 7822, 8422, 8950, 9494], "queries": {"click": {"state": {"target": ["15", "17", "16"], "time": [1498, 3524, 5338]}, "edge": {"target": [], "time": []}}, "mouseover": {"state": {"target": ["12", "15", "19", "17", "16", "18"], "time": [1223, 1417, 2112, 3389, 3855, 5723]}, "edge": {"target": [], "time": []}}, "mouseout": {"state": {"target": ["0", "12", "15", "19", "17", "16", "18", "15", "17"], "time": [896, 1271, 1646, 3321, 3609, 5577, 7598, 7646, 7689]}, "edge": {"target": [], "time": []}}}, "displayed_time": "25.14", "trialTime": 25533, "trial_type": "mouselab-mdp", "trial_index": 44, "time_elapsed": 2255114, "internal_node_id": "0.0-6.0-1.0-35.0"}}, {"uniqueid": "w43059693:a95721490", "current_trial": 45, "dateTime": 1693582362893, "trialdata": {"revealed_states": [], "clicked_states": ["15", "16", "17"], "num_clicks_accrued": [0, 0, 0, 0, 0, 0, 0, 0, 0, 0, 0, 0, 0], "stateRewards": ["", -2, -3, -7, 7, -54, -69, -4, -14, -77, 22, 40, -2, -1, 5, 6, -35, 50, -60, 10, -28, 75, 57, 1, -4, -2, 2, 68, 34, -18, 12, 3, -21, -43], "withholdReward": false, "trial_id": "mdp_trial_37", "block": "test", "trialIndex": 38, "score": 53.8, "costs": -4.199999999999999, "simulationMode": [null, null, null, null, null], "rewards": [-2, -1, 5, 6, 50], "path": ["0", "0", "12", "13", "14", "15", "17"], "rt": [6127, 81, 74, 74, 511], "actions": ["right", "right", "right", "up", "right"], "actionTimes": [6944, 7528, 8104, 8680, 9696], "queries": {"click": {"state": {"target": ["15", "16", "17"], "time": [1309, 3269, 5088]}, "edge": {"target": [], "time": []}}, "mouseover": {"state": {"target": ["14", "15", "19", "14", "16", "17", "18"], "time": [1119, 1188, 2606, 3091, 3195, 4042, 5424]}, "edge": {"target": [], "time": []}}, "mouseout": {"state": {"target": ["0", "14", "15", "15", "19", "14", "15", "16", "15", "17", "15", "18"], "time": [924, 1153, 1406, 1494, 3014, 3119, 3160, 3426, 3994, 5272, 5342, 9154]}, "edge": {"target": [], "time": []}}}, "displayed_time": "14.82", "trialTime": 15056, "trial_type": "mouselab-mdp", "trial_index": 45, "time_elapsed": 2270386, "internal_node_id": "0.0-6.0-1.0-36.0"}}, {"uniqueid": "w43059693:a95721490", "current_trial": 46, "dateTime": 1693582378853, "trialdata": {"revealed_states": [], "clicked_states": ["15", "17", "16", "18", "22", "21"], "num_clicks_accrued": [0, 0, 0, 0, 0, 0, 0, 0, 0, 0, 0, 0, 0], "stateRewards": ["", 2, 3, 8, 11, 25, -80, 6, -4, -56, 84, -23, -2, -4, -3, 4, -51, -9, -61, -15, -64, 67, -35, 1, -1, -7, -6, 83, 59, -15, 12, -79, 56, 41], "withholdReward": false, "trial_id": "mdp_trial_38", "block": "test", "trialIndex": 39, "score": 34.6, "costs": -8.4, "simulationMode": [null, null, null, null, null], "rewards": [-2, -4, -3, -15, 67], "path": ["0", "0", "12", "13", "14", "19", "21"], "rt": [11398, 2, 4, 510, 135], "actions": ["right", "right", "right", "down", "down"], "actionTimes": [12009, 12512, 13022, 14041, 14673], "queries": {"click": {"state": {"target": ["15", "17", "16", "18", "22", "21"], "time": [953, 2978, 4691, 6431, 8261, 10072]}, "edge": {"target": [], "time": []}}, "mouseover": {"state": {"target": ["12", "18", "15", "14", "19", "17", "16", "18", "15", "19", "22", "21", "20"], "time": [689, 849, 918, 1176, 1273, 2898, 3252, 5196, 6642, 7148, 7342, 8607, 10349]}, "edge": {"target": [], "time": []}}, "mouseout": {"state": {"target": ["20", "19", "22", "0", "12", "18", "15", "14", "19", "17", "16", "18", "15", "19", "22", "21", "20"], "time": [237, 279, 314, 668, 724, 863, 1147, 1231, 2835, 3168, 4953, 6614, 6662, 7266, 8453, 10129, 12738]}, "edge": {"target": [], "time": []}}}, "displayed_time": "15.17", "trialTime": 15752, "trial_type": "mouselab-mdp", "trial_index": 46, "time_elapsed": 2286346, "internal_node_id": "0.0-6.0-1.0-37.0"}}, {"uniqueid": "w43059693:a95721490", "current_trial": 47, "dateTime": 1693582394773, "trialdata": {"revealed_states": [], "clicked_states": ["22", "21", "20", "17", "16"], "num_clicks_accrued": [0, 0, 0, 0, 0, 0, 0, 0, 0, 0, 0, 0, 0], "stateRewards": ["", 1, 2, -3, 6, -88, 74, -45, 7, -46, 40, -77, 1, -4, 4, 3, 22, -25, -59, 8, -83, 19, -60, -1, -1, -1, -8, 26, -29, 64, -7, -88, -51, -55], "withholdReward": false, "trial_id": "mdp_trial_39", "block": "test", "trialIndex": 40, "score": 19, "costs": -7, "simulationMode": [null, null, null, null, null], "rewards": [1, -4, 4, 3, 22], "path": ["0", "0", "12", "13", "14", "15", "16"], "rt": [10388, 50, 45, 1, 118], "actions": ["right", "right", "right", "up", "up"], "actionTimes": [11748, 12299, 12843, 13341, 13971], "queries": {"click": {"state": {"target": ["22", "21", "20", "17", "16"], "time": [1851, 3658, 5625, 7432, 9212]}, "edge": {"target": [], "time": []}}, "mouseover": {"state": {"target": ["22", "22", "21", "21", "20", "17", "16", "15", "18"], "time": [1547, 1804, 2019, 2319, 4033, 6054, 7776, 9422, 9658]}, "edge": {"target": [], "time": []}}, "mouseout": {"state": {"target": ["22", "0", "22", "22", "21", "21", "20", "17", "16", "15", "18"], "time": [915, 1470, 1588, 1957, 2068, 3818, 5880, 7596, 9374, 9429, 14232]}, "edge": {"target": [], "time": []}}}, "displayed_time": "15.36", "trialTime": 15731, "trial_type": "mouselab-mdp", "trial_index": 47, "time_elapsed": 2302266, "internal_node_id": "0.0-6.0-1.0-38.0"}}, {"uniqueid": "w43059693:a95721490", "current_trial": 48, "dateTime": 1693582410453, "trialdata": {"revealed_states": [], "clicked_states": ["16", "21"], "num_clicks_accrued": [0, 0, 0, 0, 0, 0, 0, 0, 0, 0, 0, 0, 0], "stateRewards": ["", -1, -4, -1, -11, 43, 69, 39, 4, 17, -20, -82, -2, -1, 4, 8, -79, 24, -79, 11, 36, 64, 41, 2, 4, -1, 11, -79, -47, 75, -3, 63, -36, -19], "withholdReward": false, "trial_id": "mdp_trial_40", "block": "test", "trialIndex": 41, "score": 73.2, "costs": -2.8, "simulationMode": [null, null, null, null, null], "rewards": [-2, -1, 4, 11, 64], "path": ["0", "0", "12", "13", "14", "19", "21"], "rt": [5587, 11, 675, 128, 176], "actions": ["right", "right", "right", "down", "down"], "actionTimes": [6568, 7085, 8269, 8909, 9583], "queries": {"click": {"state": {"target": ["16", "21"], "time": [1810, 3746]}, "edge": {"target": [], "time": []}}, "mouseover": {"state": {"target": ["12", "13", "16", "15", "14", "19", "21", "19", "18", "15"], "time": [1114, 1156, 1586, 2017, 2112, 2211, 2635, 3954, 4079, 5892]}, "edge": {"target": [], "time": []}}, "mouseout": {"state": {"target": ["14", "13", "0", "12", "13", "16", "15", "14", "19", "21", "19", "18", "15"], "time": [364, 433, 808, 1135, 1163, 1968, 2075, 2184, 2260, 3793, 3989, 5864, 5913]}, "edge": {"target": [], "time": []}}}, "displayed_time": "14.98", "trialTime": 15486, "trial_type": "mouselab-mdp", "trial_index": 48, "time_elapsed": 2317946, "internal_node_id": "0.0-6.0-1.0-39.0"}}, {"uniqueid": "w43059693:a95721490", "current_trial": 49, "dateTime": 1693582459346, "trialdata": {"rt": 48889, "response": {"Q0": "$-2 to $2", "Q1": "$-16 to $16", "Q2": "$-88 to $88", "Q3": "The cost was always $1.4.", "Q4": "Very motivated"}, "question_order": [0, 1, 2, 3, 4], "trial_id": "final_quiz_control", "trial_type": "survey-multi-choice", "trial_index": 49, "time_elapsed": 2366839, "internal_node_id": "0.0-6.0-2.0"}}, {"uniqueid": "w43059693:a95721490", "current_trial": 50, "dateTime": 1693582523484, "trialdata": {"rt": 64133, "response": {"Q0": "To just click the outside nodes and find one with a high positive value.", "Q1": "At first i wasn't clicking many, then when i realised it was also 1.40 i started clicking a lot of the outside nodes to try and find one that was very high.", "Q2": "I found it quite easy."}, "trial_id": "self_report_control", "trial_type": "survey-text", "trial_index": 50, "time_elapsed": 2430977, "internal_node_id": "0.0-6.0-3.0"}}, {"uniqueid": "w43059693:a95721490", "current_trial": 51, "dateTime": 1693582536372, "trialdata": {"rt": 12887, "response": {"gender": "male", "age": "33", "colorblind": "0", "effort": "0"}, "trial_type": "survey-html-form", "trial_index": 51, "time_elapsed": 2443865, "internal_node_id": "0.0-6.0-4.0"}}, {"uniqueid": "w43059693:a95721490", "current_trial": 52, "dateTime": 1693582549746, "trialdata": {"rt": 13371, "response": {"Q0": "No.", "Q1": "No.", "Q2": ""}, "trial_type": "survey-text", "trial_index": 52, "time_elapsed": 2457239, "internal_node_id": "0.0-6.0-5.0"}}, {"uniqueid": "w43059693:a95721490", "current_trial": 53, "dateTime": 1693582570224, "trialdata": {"rt": 20474, "stimulus": "<h1>Completion Code Instructions (1/2)</h1>\n<br><br><br><br>\nYou have reached the end of the experiment! The completion code consists of two parts: (1) a code with 2 characters (2) a code with 6 characters. On this page, you will receive the second part of the code. The first part of the completion code will be on the next page.\n<br><br>\nThe second part of your completion code is: <b>EWEK22</b>\n<br><br>\nPlease note this down. Then, press 'Next' in order to find the first part of your completion code. Once the data has been saved, you will receive this code either in this window or in the original browser window where you started the experiment.\n <br><br>\n<h2 style='color: red;'>Note: this is <strong>NOT</strong> the full completion code. Copy this down and click 'Next' to get the full completion code on the next page.</h2>", "response": 0, "trial_type": "html-button-response", "trial_index": 53, "time_elapsed": 2477717, "internal_node_id": "0.0-6.0-6.0"}}, {"uniqueid": "w43059693:a95721490", "current_trial": 54, "dateTime": 1693582571227, "trialdata": {"success": true, "trial_type": "fullscreen", "trial_index": 54, "time_elapsed": 2478720, "internal_node_id": "0.0-7.0"}}], "questiondata": {"params": {"CODE": "C6DMOQA6", "MIN_TIME": 14, "inspectCost": 1, "startTime": "Fri Sep 01 2023 15:54:51 GMT+0100 (British Summer Time)", "bonusRate": 0.002, "variance": "1_2_4_8_44", "branching": "31123"}, "final_score": 1916.6}, "eventdata": [{"eventtype": "initialized", "value": null, "timestamp": 1693580091506, "interval": 0}, {"eventtype": "window_resize", "value": [1024, 767], "timestamp": 1693580091506, "interval": 0}, {"eventtype": "window_resize", "value": [1024, 767], "timestamp": 1693580091820, "interval": 314}, {"eventtype": "focus", "value": "off", "timestamp": 1693580097742, "interval": 5922}, {"eventtype": "focus", "value": "on", "timestamp": 1693581064583, "interval": 966841}, {"eventtype": "window_resize", "value": [2560, 1440], "timestamp": 1693581066884, "interval": 2301}, {"eventtype": "focus", "value": "off", "timestamp": 1693581067407, "interval": 523}, {"eventtype": "window_resize", "value": [2560, 1439], "timestamp": 1693581067613, "interval": 206}, {"eventtype": "focus", "value": "on", "timestamp": 1693581068494, "interval": 881}, {"eventtype": "window_resize", "value": [2560, 1440], "timestamp": 1693581068698, "interval": 204}, {"eventtype": "focus", "value": "off", "timestamp": 1693581069063, "interval": 365}, {"eventtype": "window_resize", "value": [2560, 1439], "timestamp": 1693581069274, "interval": 211}, {"eventtype": "focus", "value": "on", "timestamp": 1693581088005, "interval": 18731}, {"eventtype": "window_resize", "value": [2560, 1440], "timestamp": 1693581088210, "interval": 205}, {"eventtype": "focus", "value": "off", "timestamp": 1693581090775, "interval": 2565}, {"eventtype": "window_resize", "value": [2560, 1439], "timestamp": 1693581090982, "interval": 207}, {"eventtype": "focus", "value": "on", "timestamp": 1693581130123, "interval": 39141}, {"eventtype": "window_resize", "value": [2560, 1440], "timestamp": 1693581130329, "interval": 206}, {"eventtype": "focus", "value": "off", "timestamp": 1693581131054, "interval": 725}, {"eventtype": "window_resize", "value": [2560, 1439], "timestamp": 1693581131267, "interval": 213}, {"eventtype": "focus", "value": "on", "timestamp": 1693581190771, "interval": 59504}, {"eventtype": "window_resize", "value": [2560, 1440], "timestamp": 1693581190977, "interval": 206}, {"eventtype": "focus", "value": "off", "timestamp": 1693581191350, "interval": 373}, {"eventtype": "window_resize", "value": [2560, 1439], "timestamp": 1693581191558, "interval": 208}, {"eventtype": "focus", "value": "on", "timestamp": 1693581200243, "interval": 8685}, {"eventtype": "window_resize", "value": [2560, 1440], "timestamp": 1693581200446, "interval": 203}, {"eventtype": "focus", "value": "off", "timestamp": 1693581200830, "interval": 384}, {"eventtype": "window_resize", "value": [2560, 1439], "timestamp": 1693581201036, "interval": 206}, {"eventtype": "focus", "value": "on", "timestamp": 1693581201556, "interval": 520}, {"eventtype": "window_resize", "value": [2560, 1440], "timestamp": 1693581201759, "interval": 203}, {"eventtype": "focus", "value": "off", "timestamp": 1693581204022, "interval": 2263}, {"eventtype": "window_resize", "value": [2560, 1439], "timestamp": 1693581204236, "interval": 214}, {"eventtype": "focus", "value": "on", "timestamp": 1693581206211, "interval": 1975}, {"eventtype": "window_resize", "value": [2560, 1440], "timestamp": 1693581206419, "interval": 208}, {"eventtype": "focus", "value": "off", "timestamp": 1693581210078, "interval": 3659}, {"eventtype": "window_resize", "value": [2560, 1439], "timestamp": 1693581210288, "interval": 210}, {"eventtype": "focus", "value": "on", "timestamp": 1693581219295, "interval": 9007}, {"eventtype": "window_resize", "value": [2560, 1440], "timestamp": 1693581219502, "interval": 207}, {"eventtype": "focus", "value": "off", "timestamp": 1693581220670, "interval": 1168}, {"eventtype": "window_resize", "value": [2560, 1439], "timestamp": 1693581220879, "interval": 209}, {"eventtype": "focus", "value": "on", "timestamp": 1693581221587, "interval": 708}, {"eventtype": "window_resize", "value": [2560, 1440], "timestamp": 1693581221795, "interval": 208}, {"eventtype": "focus", "value": "off", "timestamp": 1693581222214, "interval": 419}, {"eventtype": "window_resize", "value": [2560, 1439], "timestamp": 1693581222418, "interval": 204}, {"eventtype": "focus", "value": "on", "timestamp": 1693581223679, "interval": 1261}, {"eventtype": "window_resize", "value": [2560, 1440], "timestamp": 1693581223883, "interval": 204}, {"eventtype": "focus", "value": "off", "timestamp": 1693581225822, "interval": 1939}, {"eventtype": "window_resize", "value": [2560, 1439], "timestamp": 1693581226029, "interval": 207}, {"eventtype": "focus", "value": "on", "timestamp": 1693581226892, "interval": 863}, {"eventtype": "window_resize", "value": [2560, 1440], "timestamp": 1693581227100, "interval": 208}, {"eventtype": "focus", "value": "off", "timestamp": 1693581230615, "interval": 3515}, {"eventtype": "window_resize", "value": [2560, 1439], "timestamp": 1693581230827, "interval": 212}, {"eventtype": "focus", "value": "on", "timestamp": 1693581232075, "interval": 1248}, {"eventtype": "window_resize", "value": [2560, 1440], "timestamp": 1693581232279, "interval": 204}, {"eventtype": "focus", "value": "off", "timestamp": 1693581235038, "interval": 2759}, {"eventtype": "window_resize", "value": [2560, 1439], "timestamp": 1693581235246, "interval": 208}, {"eventtype": "focus", "value": "on", "timestamp": 1693581235876, "interval": 630}, {"eventtype": "window_resize", "value": [2560, 1440], "timestamp": 1693581236079, "interval": 203}, {"eventtype": "focus", "value": "off", "timestamp": 1693581237006, "interval": 927}, {"eventtype": "window_resize", "value": [2560, 1439], "timestamp": 1693581237211, "interval": 205}, {"eventtype": "focus", "value": "on", "timestamp": 1693581238195, "interval": 984}, {"eventtype": "window_resize", "value": [2560, 1440], "timestamp": 1693581238398, "interval": 203}, {"eventtype": "focus", "value": "off", "timestamp": 1693581243518, "interval": 5120}, {"eventtype": "window_resize", "value": [2560, 1439], "timestamp": 1693581243725, "interval": 207}, {"eventtype": "focus", "value": "on", "timestamp": 1693581245612, "interval": 1887}, {"eventtype": "window_resize", "value": [2560, 1440], "timestamp": 1693581245816, "interval": 204}, {"eventtype": "focus", "value": "off", "timestamp": 1693581251735, "interval": 5919}, {"eventtype": "window_resize", "value": [2560, 1439], "timestamp": 1693581251940, "interval": 205}, {"eventtype": "focus", "value": "on", "timestamp": 1693581255388, "interval": 3448}, {"eventtype": "window_resize", "value": [2560, 1440], "timestamp": 1693581255593, "interval": 205}, {"eventtype": "focus", "value": "off", "timestamp": 1693581260598, "interval": 5005}, {"eventtype": "window_resize", "value": [2560, 1439], "timestamp": 1693581260801, "interval": 203}, {"eventtype": "focus", "value": "on", "timestamp": 1693581262891, "interval": 2090}, {"eventtype": "window_resize", "value": [2560, 1440], "timestamp": 1693581263099, "interval": 208}, {"eventtype": "focus", "value": "off", "timestamp": 1693581268991, "interval": 5892}, {"eventtype": "window_resize", "value": [2560, 1439], "timestamp": 1693581269199, "interval": 208}, {"eventtype": "focus", "value": "on", "timestamp": 1693581269769, "interval": 570}, {"eventtype": "window_resize", "value": [2560, 1440], "timestamp": 1693581269975, "interval": 206}, {"eventtype": "focus", "value": "off", "timestamp": 1693581270278, "interval": 303}, {"eventtype": "window_resize", "value": [2560, 1439], "timestamp": 1693581270483, "interval": 205}, {"eventtype": "focus", "value": "on", "timestamp": 1693581270907, "interval": 424}, {"eventtype": "window_resize", "value": [2560, 1440], "timestamp": 1693581271115, "interval": 208}, {"eventtype": "focus", "value": "off", "timestamp": 1693581275086, "interval": 3971}, {"eventtype": "window_resize", "value": [2560, 1439], "timestamp": 1693581275294, "interval": 208}, {"eventtype": "focus", "value": "on", "timestamp": 1693581288827, "interval": 13533}, {"eventtype": "window_resize", "value": [2560, 1440], "timestamp": 1693581289030, "interval": 203}, {"eventtype": "focus", "value": "off", "timestamp": 1693581322118, "interval": 33088}, {"eventtype": "window_resize", "value": [2560, 1439], "timestamp": 1693581322328, "interval": 210}, {"eventtype": "focus", "value": "on", "timestamp": 1693581322890, "interval": 562}, {"eventtype": "window_resize", "value": [2560, 1440], "timestamp": 1693581323094, "interval": 204}, {"eventtype": "focus", "value": "off", "timestamp": 1693581342958, "interval": 19864}, {"eventtype": "window_resize", "value": [2560, 1439], "timestamp": 1693581343173, "interval": 215}, {"eventtype": "focus", "value": "on", "timestamp": 1693581351410, "interval": 8237}, {"eventtype": "window_resize", "value": [2560, 1440], "timestamp": 1693581351615, "interval": 205}, {"eventtype": "focus", "value": "off", "timestamp": 1693581355550, "interval": 3935}, {"eventtype": "window_resize", "value": [2560, 1439], "timestamp": 1693581355753, "interval": 203}, {"eventtype": "focus", "value": "on", "timestamp": 1693581356259, "interval": 506}, {"eventtype": "window_resize", "value": [2560, 1440], "timestamp": 1693581356463, "interval": 204}, {"eventtype": "focus", "value": "off", "timestamp": 1693581358982, "interval": 2519}, {"eventtype": "window_resize", "value": [2560, 1439], "timestamp": 1693581359191, "interval": 209}, {"eventtype": "focus", "value": "on", "timestamp": 1693581361538, "interval": 2347}, {"eventtype": "window_resize", "value": [2560, 1440], "timestamp": 1693581361746, "interval": 208}, {"eventtype": "focus", "value": "off", "timestamp": 1693581364582, "interval": 2836}, {"eventtype": "window_resize", "value": [2560, 1439], "timestamp": 1693581364787, "interval": 205}, {"eventtype": "focus", "value": "on", "timestamp": 1693581375036, "interval": 10249}, {"eventtype": "window_resize", "value": [2560, 1440], "timestamp": 1693581375239, "interval": 203}, {"eventtype": "focus", "value": "off", "timestamp": 1693581380974, "interval": 5735}, {"eventtype": "window_resize", "value": [2560, 1439], "timestamp": 1693581381184, "interval": 210}, {"eventtype": "focus", "value": "on", "timestamp": 1693581381747, "interval": 563}, {"eventtype": "window_resize", "value": [2560, 1440], "timestamp": 1693581381954, "interval": 207}, {"eventtype": "focus", "value": "off", "timestamp": 1693581386639, "interval": 4685}, {"eventtype": "window_resize", "value": [2560, 1439], "timestamp": 1693581386843, "interval": 204}, {"eventtype": "focus", "value": "on", "timestamp": 1693581388475, "interval": 1632}, {"eventtype": "window_resize", "value": [2560, 1440], "timestamp": 1693581388678, "interval": 203}, {"eventtype": "focus", "value": "off", "timestamp": 1693581392622, "interval": 3944}, {"eventtype": "window_resize", "value": [2560, 1439], "timestamp": 1693581392831, "interval": 209}, {"eventtype": "focus", "value": "on", "timestamp": 1693581393804, "interval": 973}, {"eventtype": "window_resize", "value": [2560, 1440], "timestamp": 1693581394011, "interval": 207}, {"eventtype": "focus", "value": "off", "timestamp": 1693581403182, "interval": 9171}, {"eventtype": "window_resize", "value": [2560, 1439], "timestamp": 1693581403385, "interval": 203}, {"eventtype": "focus", "value": "on", "timestamp": 1693581409995, "interval": 6610}, {"eventtype": "window_resize", "value": [2560, 1440], "timestamp": 1693581410199, "interval": 204}, {"eventtype": "focus", "value": "off", "timestamp": 1693581411974, "interval": 1775}, {"eventtype": "window_resize", "value": [2560, 1439], "timestamp": 1693581412178, "interval": 204}, {"eventtype": "focus", "value": "on", "timestamp": 1693581413026, "interval": 848}, {"eventtype": "window_resize", "value": [2560, 1440], "timestamp": 1693581413233, "interval": 207}, {"eventtype": "focus", "value": "off", "timestamp": 1693581414335, "interval": 1102}, {"eventtype": "window_resize", "value": [2560, 1439], "timestamp": 1693581414538, "interval": 203}, {"eventtype": "focus", "value": "on", "timestamp": 1693581430268, "interval": 15730}, {"eventtype": "window_resize", "value": [2560, 1440], "timestamp": 1693581430476, "interval": 208}, {"eventtype": "focus", "value": "off", "timestamp": 1693581448422, "interval": 17946}, {"eventtype": "window_resize", "value": [2560, 1439], "timestamp": 1693581448628, "interval": 206}, {"eventtype": "focus", "value": "on", "timestamp": 1693581449971, "interval": 1343}, {"eventtype": "window_resize", "value": [2560, 1440], "timestamp": 1693581450177, "interval": 206}, {"eventtype": "focus", "value": "off", "timestamp": 1693581450262, "interval": 85}, {"eventtype": "window_resize", "value": [2560, 1439], "timestamp": 1693581450469, "interval": 207}, {"eventtype": "focus", "value": "on", "timestamp": 1693581451346, "interval": 877}, {"eventtype": "window_resize", "value": [2560, 1440], "timestamp": 1693581451552, "interval": 206}, {"eventtype": "focus", "value": "off", "timestamp": 1693581451566, "interval": 14}, {"eventtype": "window_resize", "value": [2560, 1439], "timestamp": 1693581451775, "interval": 209}, {"eventtype": "focus", "value": "on", "timestamp": 1693581452586, "interval": 811}, {"eventtype": "window_resize", "value": [2560, 1440], "timestamp": 1693581452790, "interval": 204}, {"eventtype": "focus", "value": "off", "timestamp": 1693582020806, "interval": 568016}, {"eventtype": "window_resize", "value": [2560, 1439], "timestamp": 1693582021015, "interval": 209}, {"eventtype": "focus", "value": "on", "timestamp": 1693582027325, "interval": 6310}, {"eventtype": "window_resize", "value": [2560, 1440], "timestamp": 1693582027734, "interval": 409}, {"eventtype": "focus", "value": "off", "timestamp": 1693582334006, "interval": 306272}, {"eventtype": "window_resize", "value": [2560, 1439], "timestamp": 1693582334212, "interval": 206}, {"eventtype": "focus", "value": "on", "timestamp": 1693582345265, "interval": 11053}, {"eventtype": "window_resize", "value": [2560, 1440], "timestamp": 1693582345479, "interval": 214}, {"eventtype": "window_resize", "value": [1024, 767], "timestamp": 1693582570446, "interval": 224967}], "useragent": "Mozilla/5.0 (Windows NT 10.0; Win64; x64) AppleWebKit/537.36 (KHTML, like Gecko) Chrome/116.0.0.0 Safari/537.36", "mode": "live", "id": "w43059693:a95721490", "status": "user data saved", "Beginhit": "2023-09-01 14:54:50.816948", "Beginexp": "2023-09-01 15:11:08.249647", "Endhit": "2023-09-03 04:12:18.837301", "psiturkStatus": 3, "browser": "<redacted>", "platform": "windows", "language": "en-US"}