{"condition": 1, "counterbalance": 0, "assignmentId": "a39349270", "workerId": "w22610383", "hitId": "h34447624", "currenttrial": 21, "bonus": 0, "data": [{"uniqueid": "w22610383:a39349270", "current_trial": 0, "dateTime": 1693481316967, "trialdata": {"success": true, "trial_type": "fullscreen", "trial_index": 0, "time_elapsed": 7471, "internal_node_id": "0.0-0.0"}}, {"uniqueid": "w22610383:a39349270", "current_trial": 1, "dateTime": 1693481330996, "trialdata": {"view_history": [{"page_index": 0, "viewing_time": 14024}], "rt": 14025, "trial_id": "exp_instructions_misaligned", "trial_type": "instructions", "trial_index": 1, "time_elapsed": 21501, "internal_node_id": "0.0-1.0"}}, {"uniqueid": "w22610383:a39349270", "current_trial": 2, "dateTime": 1693481495021, "trialdata": {"view_history": [{"page_index": 0, "viewing_time": 46258}, {"page_index": 1, "viewing_time": 89973}, {"page_index": 2, "viewing_time": 5727}, {"page_index": 3, "viewing_time": 22064}], "rt": 164022, "trial_id": "mouselab_instructions_1_misaligned", "trial_type": "instructions", "trial_index": 2, "time_elapsed": 185526, "internal_node_id": "0.0-2.0-1.0"}}, {"uniqueid": "w22610383:a39349270", "current_trial": 3, "dateTime": 1693481578340, "trialdata": {"revealed_states": [], "clicked_states": ["12", "1", "2", "23", "25", "14", "16", "13", "3", "7", "10"], "num_clicks_accrued": [0, 0, 0, 0, 0, 0, 0, 0, 0, 0, 0, 0, 0], "stateRewards": ["", 10, -10, -10, 10, 10, 10, 10, -10, 10, 10, 10, -10, -10, 10, -10, -10, 10, 10, 10, 10, -10, -10, -10, 10, -10, 10, -10, -10, 10, -10, 10, -10, -10], "withholdReward": false, "trial_id": "practice_1", "block": "test", "trialIndex": 0, "score": -12, "costs": -5.5, "simulationMode": [null, null, null, null, null], "rewards": [-10, -10, 10, 10, -10], "path": ["0", "0", "12", "13", "14", "19", "21"], "rt": [52535, 1296, 6972, 818, 10343], "actions": ["right", "right", "right", "down", "down"], "actionTimes": [57705, 59517, 67007, 68346, 79202], "queries": {"click": {"state": {"target": ["12", "1", "2", "23", "25", "14", "16", "13", "3", "7", "10"], "time": [12628, 17344, 22645, 26325, 31879, 36983, 41710, 44448, 46031, 48486, 51006]}, "edge": {"target": [], "time": []}}, "mouseover": {"state": {"target": ["12", "1", "23", "2", "1", "23", "0", "23", "24", "25", "12", "13", "14", "15", "16", "15", "13", "3", "7", "10", "13"], "time": [12263, 16506, 20787, 21356, 24216, 24749, 29045, 30345, 30444, 30844, 36189, 36288, 36621, 38772, 39153, 42635, 42918, 45481, 46812, 49459, 55870]}, "edge": {"target": [], "time": []}}, "mouseout": {"state": {"target": ["0", "12", "1", "23", "1", "2", "1", "23", "0", "23", "24", "25", "12", "13", "14", "15", "16", "15", "13", "3", "7", "10", "13", "19", "21"], "time": [12079, 16324, 20419, 21155, 21236, 24183, 24333, 28915, 30295, 30395, 30731, 36073, 36221, 36489, 37093, 39005, 42534, 42722, 44555, 46612, 49109, 55821, 55887, 76619, 78118]}, "edge": {"target": [], "time": []}}}, "displayed_time": "79.72", "trialTime": 82280, "trial_type": "mouselab-mdp", "trial_index": 3, "time_elapsed": 268845, "internal_node_id": "0.0-2.0-2.0-0.0"}}, {"uniqueid": "w22610383:a39349270", "current_trial": 4, "dateTime": 1693481610540, "trialdata": {"revealed_states": [], "clicked_states": ["2", "28", "25", "31", "19", "14", "6", "4", "9"], "num_clicks_accrued": [0, 0, 0, 0, 0, 0, 0, 0, 0, 0, 0, 0, 0], "stateRewards": ["", -10, -10, -10, -10, 10, -10, -10, 10, 10, -10, -10, -10, -10, -10, -10, -10, -10, -10, -10, -10, 10, -10, -10, -10, 10, 10, 10, -10, -10, 10, 10, -10, 10], "withholdReward": false, "trial_id": "practice_2", "block": "test", "trialIndex": 1, "score": -31, "costs": -4.5, "simulationMode": [null, null, null, null, null], "rewards": [-10, -10, -10, -10, 10], "path": ["0", "0", "12", "13", "14", "19", "21"], "rt": [19695, 773, 547, 534, 217], "actions": ["right", "right", "right", "down", "down"], "actionTimes": [24766, 26050, 27111, 28161, 28893], "queries": {"click": {"state": {"target": ["2", "28", "25", "31", "19", "14", "6", "4", "9"], "time": [8507, 10558, 11855, 13504, 16103, 17954, 19701, 21047, 22367]}, "edge": {"target": [], "time": []}}, "mouseover": {"state": {"target": ["1", "2", "10", "28", "25", "31", "22", "19", "14", "15", "16", "6", "6", "4", "3", "8", "9", "8", "2", "13"], "time": [5760, 6076, 9890, 10123, 11422, 12321, 14770, 15019, 17501, 18932, 19114, 19298, 19518, 20114, 21746, 21995, 22180, 22745, 22896, 23013]}, "edge": {"target": [], "time": []}}, "mouseout": {"state": {"target": ["18", "1", "28", "25", "24", "23", "1", "2", "10", "28", "25", "31", "22", "19", "14", "15", "16", "6", "6", "4", "3", "8", "9", "8", "2", "13"], "time": [4032, 4046, 4064, 4298, 4330, 4395, 5945, 9773, 9941, 11188, 12255, 14237, 14938, 17200, 18815, 19017, 19231, 19347, 19980, 21697, 21780, 22114, 22662, 22779, 22914, 23113]}, "edge": {"target": [], "time": []}}}, "displayed_time": "29.41", "trialTime": 31967, "trial_type": "mouselab-mdp", "trial_index": 4, "time_elapsed": 301045, "internal_node_id": "0.0-2.0-2.0-1.0"}}, {"uniqueid": "w22610383:a39349270", "current_trial": 5, "dateTime": 1693481624868, "trialdata": {"view_history": [{"page_index": 0, "viewing_time": 9900}, {"page_index": 1, "viewing_time": 4424}], "rt": 14325, "trial_id": "mouselab_instructions_2_misaligned", "trial_type": "instructions", "trial_index": 5, "time_elapsed": 315373, "internal_node_id": "0.0-2.0-3.0"}}, {"uniqueid": "w22610383:a39349270", "current_trial": 6, "dateTime": 1693481674199, "trialdata": {"rt": 49316, "response": {"Q0": "The cost for clicking on nodes may vary between nodes.", "Q1": "The better I perform the higher my bonus will be.", "Q2": "No, the structure of the web will be different each time.", "Q3": "To click on the least number of nodes.", "Q4": "Only before moving the spider.", "Q5": "10 seconds"}, "question_order": [0, 1, 2, 3, 4, 5], "correct": {"Q0": "The cost for clicking on nodes may vary between nodes.", "Q1": "The better I perform the higher my bonus will be.", "Q2": "No, the amount of cash at each node of the web may be different each time.", "Q3": "To get the highest total score.", "Q4": "Only before moving the spider.", "Q5": "3 seconds"}, "trial_id": "mouselab_quiz_misaligned", "trial_type": "survey-multi-choice", "trial_index": 6, "time_elapsed": 364704, "internal_node_id": "0.0-2.0-4.0"}}, {"uniqueid": "w22610383:a39349270", "current_trial": 7, "dateTime": 1693481681863, "trialdata": {"success": true, "trial_type": "fullscreen", "trial_index": 7, "time_elapsed": 372367, "internal_node_id": "0.0-2.1-0.1-0.1"}}, {"uniqueid": "w22610383:a39349270", "current_trial": 8, "dateTime": 1693481693076, "trialdata": {"view_history": [{"page_index": 0, "viewing_time": 3467}, {"page_index": 1, "viewing_time": 2175}, {"page_index": 2, "viewing_time": 1769}, {"page_index": 3, "viewing_time": 3800}], "rt": 11211, "trial_id": "mouselab_instructions_1_misaligned", "trial_type": "instructions", "trial_index": 8, "time_elapsed": 383580, "internal_node_id": "0.0-2.1-1.1"}}, {"uniqueid": "w22610383:a39349270", "current_trial": 9, "dateTime": 1693481713908, "trialdata": {"revealed_states": [], "clicked_states": ["2", "3", "8", "6", "5"], "num_clicks_accrued": [0, 0, 0, 0, 0, 0, 0, 0, 0, 0, 0, 0, 0], "stateRewards": ["", 10, -10, -10, 10, 10, 10, 10, -10, 10, 10, 10, -10, -10, 10, -10, -10, 10, 10, 10, 10, -10, -10, -10, 10, -10, 10, -10, -10, 10, -10, 10, -10, -10], "withholdReward": false, "trial_id": "practice_1", "block": "test", "trialIndex": 2, "score": 11, "costs": -2.5, "simulationMode": [null, null, null, null, null], "rewards": [10, -10, -10, 10, 10], "path": ["0", "0", "1", "2", "3", "4", "6"], "rt": [11622, 83, 98, 687, 99], "actions": ["up", "up", "up", "right", "right"], "actionTimes": [14721, 15312, 15925, 17130, 17742], "queries": {"click": {"state": {"target": ["2", "3", "8", "6", "5"], "time": [4366, 6054, 7957, 9801, 11494]}, "edge": {"target": [], "time": []}}, "mouseover": {"state": {"target": ["1", "2", "3", "8", "4", "6", "4", "5", "4", "18", "14"], "time": [3787, 4082, 5702, 7417, 9216, 9483, 10748, 11064, 12697, 12898, 13812]}, "edge": {"target": [], "time": []}}, "mouseout": {"state": {"target": ["0", "1", "2", "3", "8", "3", "4", "6", "4", "5", "5", "4", "18"], "time": [3738, 3937, 5420, 7317, 8950, 9166, 9282, 10717, 10981, 11626, 12645, 12730, 13782]}, "edge": {"target": [], "time": []}}}, "displayed_time": "18.26", "trialTime": 20566, "trial_type": "mouselab-mdp", "trial_index": 9, "time_elapsed": 404412, "internal_node_id": "0.0-2.1-2.1-0.1"}}, {"uniqueid": "w22610383:a39349270", "current_trial": 10, "dateTime": 1693481753502, "trialdata": {"revealed_states": [], "clicked_states": ["26", "17", "4", "8", "2"], "num_clicks_accrued": [0, 0, 0, 0, 0, 0, 0, 0, 0, 0, 0, 0, 0], "stateRewards": ["", -10, -10, -10, -10, 10, -10, -10, 10, 10, -10, -10, -10, -10, -10, -10, -10, -10, -10, -10, -10, 10, -10, -10, -10, 10, 10, 10, -10, -10, 10, 10, -10, 10], "withholdReward": false, "trial_id": "practice_2", "block": "test", "trialIndex": 3, "score": -29, "costs": -2.5, "simulationMode": [null, null, null, null, null], "rewards": [-10, -10, -10, 10, -10], "path": ["0", "0", "1", "2", "3", "8", "11"], "rt": [9503, 1, 76, 392, 21515], "actions": ["up", "up", "up", "left", "left"], "actionTimes": [12565, 13082, 13690, 14591, 36627], "queries": {"click": {"state": {"target": ["26", "17", "4", "8", "2"], "time": [4608, 6121, 7906, 9006, 10057]}, "edge": {"target": [], "time": []}}, "mouseover": {"state": {"target": ["23", "28", "26", "18", "15", "17", "14", "13", "7", "4", "2", "8", "10", "2", "1"], "time": [3771, 4137, 4320, 5471, 5537, 5786, 6236, 6735, 6919, 7302, 8552, 8805, 9150, 9849, 10434]}, "edge": {"target": [], "time": []}}, "mouseout": {"state": {"target": ["14", "13", "12", "0", "23", "28", "26", "18", "15", "17", "14", "13", "7", "4", "2", "8", "10", "2", "1", "2", "8", "8", "10", "1", "0", "1", "2", "8", "3", "16"], "time": [2422, 2455, 2472, 2772, 4039, 4187, 4971, 5504, 5770, 6219, 6268, 6836, 7152, 8153, 8618, 9117, 9733, 10218, 11766, 16878, 17060, 17558, 22404, 22504, 30630, 30695, 30746, 33935, 34409, 34459]}, "edge": {"target": [], "time": []}}}, "displayed_time": "37.15", "trialTime": 39331, "trial_type": "mouselab-mdp", "trial_index": 10, "time_elapsed": 444006, "internal_node_id": "0.0-2.1-2.1-1.1"}}, {"uniqueid": "w22610383:a39349270", "current_trial": 11, "dateTime": 1693481761932, "trialdata": {"view_history": [{"page_index": 0, "viewing_time": 6497}, {"page_index": 1, "viewing_time": 1929}], "rt": 8426, "trial_id": "mouselab_instructions_2_misaligned", "trial_type": "instructions", "trial_index": 11, "time_elapsed": 452437, "internal_node_id": "0.0-2.1-3.1"}}, {"uniqueid": "w22610383:a39349270", "current_trial": 12, "dateTime": 1693481795443, "trialdata": {"rt": 33509, "response": {"Q0": "The cost for clicking on nodes may vary between nodes.", "Q1": "The better I perform the higher my bonus will be.", "Q2": "No, the structure of the web will be different each time.", "Q3": "To click on the least number of nodes.", "Q4": "Only before moving the spider.", "Q5": "10 seconds"}, "question_order": [0, 1, 2, 3, 4, 5], "correct": {"Q0": "The cost for clicking on nodes may vary between nodes.", "Q1": "The better I perform the higher my bonus will be.", "Q2": "No, the amount of cash at each node of the web may be different each time.", "Q3": "To get the highest total score.", "Q4": "Only before moving the spider.", "Q5": "3 seconds"}, "trial_id": "mouselab_quiz_misaligned", "trial_type": "survey-multi-choice", "trial_index": 12, "time_elapsed": 485948, "internal_node_id": "0.0-2.1-4.1"}}, {"uniqueid": "w22610383:a39349270", "current_trial": 13, "dateTime": 1693481803270, "trialdata": {"success": true, "trial_type": "fullscreen", "trial_index": 13, "time_elapsed": 493775, "internal_node_id": "0.0-2.2-0.2-0.2"}}, {"uniqueid": "w22610383:a39349270", "current_trial": 14, "dateTime": 1693481811084, "trialdata": {"view_history": [{"page_index": 0, "viewing_time": 2973}, {"page_index": 1, "viewing_time": 2038}, {"page_index": 2, "viewing_time": 1449}, {"page_index": 3, "viewing_time": 1352}], "rt": 7812, "trial_id": "mouselab_instructions_1_misaligned", "trial_type": "instructions", "trial_index": 14, "time_elapsed": 501589, "internal_node_id": "0.0-2.2-1.2"}}, {"uniqueid": "w22610383:a39349270", "current_trial": 15, "dateTime": 1693481854002, "trialdata": {"revealed_states": [], "clicked_states": ["11", "17", "13", "25", "26", "28", "23", "31", "21", "19", "14", "3", "4", "5"], "num_clicks_accrued": [0, 0, 0, 0, 0, 0, 0, 0, 0, 0, 0, 0, 0], "stateRewards": ["", 10, -10, -10, 10, 10, 10, 10, -10, 10, 10, 10, -10, -10, 10, -10, -10, 10, 10, 10, 10, -10, -10, -10, 10, -10, 10, -10, -10, 10, -10, 10, -10, -10], "withholdReward": false, "trial_id": "practice_1", "block": "test", "trialIndex": 4, "score": 6.5, "costs": -7, "simulationMode": [null, null, null, null, null], "rewards": [10, -10, -10, 10, 10], "path": ["0", "0", "1", "2", "3", "4", "5"], "rt": [23656, 90, 314, 404, 11804], "actions": ["up", "up", "up", "right", "up"], "actionTimes": [25261, 25867, 26693, 27613, 39929], "queries": {"click": {"state": {"target": ["11", "17", "13", "25", "26", "28", "23", "31", "21", "19", "14", "3", "4", "5"], "time": [3622, 5372, 6688, 8887, 10067, 12031, 14017, 15156, 17128, 18513, 19527, 20750, 22224, 23538]}, "edge": {"target": [], "time": []}}, "mouseover": {"state": {"target": ["1", "10", "11", "2", "7", "15", "17", "13", "12", "0", "25", "26", "27", "28", "24", "23", "31", "31", "21", "19", "14", "13", "2", "3", "4", "5", "6"], "time": [2998, 3164, 3430, 4761, 4795, 4861, 5045, 6463, 8242, 8343, 8625, 9842, 10525, 11077, 12489, 12639, 14654, 14937, 15701, 17600, 19035, 19932, 20383, 20538, 21165, 22613, 24063]}, "edge": {"target": [], "time": []}}, "mouseout": {"state": {"target": ["0", "1", "10", "11", "2", "7", "15", "17", "13", "12", "0", "25", "26", "27", "28", "24", "23", "31", "31", "21", "19", "14", "13", "2", "3", "4", "5", "6", "16", "4", "5", "5", "6"], "time": [2931, 3047, 3280, 4679, 4778, 4812, 4896, 6178, 8209, 8309, 8376, 9709, 10148, 10908, 12406, 12506, 14571, 14687, 15503, 17534, 18951, 19917, 19949, 20399, 21082, 22480, 23962, 24079, 36616, 38630, 38863, 39180, 39247]}, "edge": {"target": [], "time": []}}}, "displayed_time": "40.45", "trialTime": 42664, "trial_type": "mouselab-mdp", "trial_index": 15, "time_elapsed": 544506, "internal_node_id": "0.0-2.2-2.2-0.2"}}, {"uniqueid": "w22610383:a39349270", "current_trial": 16, "dateTime": 1693481899373, "trialdata": {"revealed_states": [], "clicked_states": [], "num_clicks_accrued": [0, 0, 0, 0, 0, 0, 0, 0, 0, 0, 0, 0, 0], "stateRewards": ["", -10, -10, -10, -10, 10, -10, -10, 10, 10, -10, -10, -10, -10, -10, -10, -10, -10, -10, -10, -10, 10, -10, -10, -10, 10, 10, 10, -10, -10, 10, 10, -10, 10], "withholdReward": false, "trial_id": "practice_2", "block": "test", "trialIndex": 5, "score": -26.5, "costs": 0, "simulationMode": [null, null, null, null, null], "rewards": [-10, -10, -10, -10, 10], "path": ["0", "0", "12", "13", "14", "19", "21"], "rt": [1504, 809, 402, 35427, 705], "actions": ["right", "right", "right", "down", "down"], "actionTimes": [3572, 4897, 5808, 41747, 42959], "queries": {"click": {"state": {"target": [], "time": []}, "edge": {"target": [], "time": []}}, "mouseover": {"state": {"target": [], "time": []}, "edge": {"target": [], "time": []}}, "mouseout": {"state": {"target": ["17", "14", "22", "0", "1", "18", "15"], "time": [1423, 1489, 1556, 8884, 9100, 10232, 10732]}, "edge": {"target": [], "time": []}}}, "displayed_time": "43.47", "trialTime": 45100, "trial_type": "mouselab-mdp", "trial_index": 16, "time_elapsed": 589877, "internal_node_id": "0.0-2.2-2.2-1.2"}}, {"uniqueid": "w22610383:a39349270", "current_trial": 17, "dateTime": 1693481904723, "trialdata": {"view_history": [{"page_index": 0, "viewing_time": 4019}, {"page_index": 1, "viewing_time": 1328}], "rt": 5347, "trial_id": "mouselab_instructions_2_misaligned", "trial_type": "instructions", "trial_index": 17, "time_elapsed": 595228, "internal_node_id": "0.0-2.2-3.2"}}, {"uniqueid": "w22610383:a39349270", "current_trial": 18, "dateTime": 1693481927494, "trialdata": {"rt": 22768, "response": {"Q0": "The cost for clicking on nodes may vary between nodes.", "Q1": "I will receive a $1 bonus if I perform well, otherwise I will receive no bonus.", "Q2": "No, the amount of cash at each node of the web may be different each time.", "Q3": "To click on the least number of nodes.", "Q4": "Only before moving the spider.", "Q5": "10 seconds"}, "question_order": [0, 1, 2, 3, 4, 5], "correct": {"Q0": "The cost for clicking on nodes may vary between nodes.", "Q1": "The better I perform the higher my bonus will be.", "Q2": "No, the amount of cash at each node of the web may be different each time.", "Q3": "To get the highest total score.", "Q4": "Only before moving the spider.", "Q5": "3 seconds"}, "trial_id": "mouselab_quiz_misaligned", "trial_type": "survey-multi-choice", "trial_index": 18, "time_elapsed": 617999, "internal_node_id": "0.0-2.2-4.2"}}, {"uniqueid": "w22610383:a39349270", "current_trial": 19, "dateTime": 1693481932717, "trialdata": {"success": true, "trial_type": "fullscreen", "trial_index": 19, "time_elapsed": 623222, "internal_node_id": "0.0-2.3-0.3-0.3"}}, {"uniqueid": "w22610383:a39349270", "current_trial": 20, "dateTime": 1693481941964, "trialdata": {"view_history": [{"page_index": 0, "viewing_time": 3131}, {"page_index": 1, "viewing_time": 2255}, {"page_index": 2, "viewing_time": 1616}, {"page_index": 3, "viewing_time": 2240}], "rt": 9243, "trial_id": "mouselab_instructions_1_misaligned", "trial_type": "instructions", "trial_index": 20, "time_elapsed": 632468, "internal_node_id": "0.0-2.3-1.3"}}], "questiondata": {"params": {"CODE": "C6DMOQA6", "MIN_TIME": 14, "inspectCost": 1, "startTime": "Thu Aug 31 2023 13:28:27 GMT+0200 (South Africa Standard Time)", "bonusRate": 0.002, "variance": "1_2_4_8_44", "branching": "31123"}}, "eventdata": [{"eventtype": "initialized", "value": null, "timestamp": 1693481307231, "interval": 0}, {"eventtype": "window_resize", "value": [1024, 748], "timestamp": 1693481307231, "interval": 0}, {"eventtype": "window_resize", "value": [1024, 748], "timestamp": 1693481307717, "interval": 486}, {"eventtype": "window_resize", "value": [1536, 864], "timestamp": 1693481316297, "interval": 8580}, {"eventtype": "focus", "value": "off", "timestamp": 1693481676032, "interval": 359735}, {"eventtype": "focus", "value": "on", "timestamp": 1693481676032, "interval": 0}, {"eventtype": "window_resize", "value": [1024, 748], "timestamp": 1693481676242, "interval": 210}, {"eventtype": "window_resize", "value": [1536, 864], "timestamp": 1693481681210, "interval": 4968}, {"eventtype": "focus", "value": "off", "timestamp": 1693481797326, "interval": 116116}, {"eventtype": "focus", "value": "on", "timestamp": 1693481797326, "interval": 0}, {"eventtype": "window_resize", "value": [1024, 748], "timestamp": 1693481797544, "interval": 218}, {"eventtype": "window_resize", "value": [1536, 864], "timestamp": 1693481802594, "interval": 5050}, {"eventtype": "focus", "value": "off", "timestamp": 1693481929520, "interval": 126926}, {"eventtype": "focus", "value": "on", "timestamp": 1693481929521, "interval": 1}, {"eventtype": "window_resize", "value": [1024, 748], "timestamp": 1693481929730, "interval": 209}, {"eventtype": "window_resize", "value": [1536, 864], "timestamp": 1693481932099, "interval": 2369}, {"eventtype": "window_resize", "value": [1024, 748], "timestamp": 1693481949948, "interval": 17849}], "useragent": "Mozilla/5.0 (Windows NT 10.0; Win64; x64) AppleWebKit/537.36 (KHTML, like Gecko) Chrome/116.0.0.0 Safari/537.36 Edg/116.0.1938.54", "mode": "live", "id": "w22610383:a39349270", "status": "user data saved", "Beginhit": "2023-08-31 11:28:24.425292", "Beginexp": "2023-08-31 11:28:36.857136", "Endhit": null, "psiturkStatus": 6, "browser": "<redacted>", "platform": "windows", "language": "en-US", "excludeReason": "quizfail"}