{"condition": 0, "counterbalance": 0, "assignmentId": "a22784224", "workerId": "w97072546", "hitId": "h65868220", "currenttrial": 73, "bonus": 0, "data": [{"uniqueid": "w97072546:a22784224", "current_trial": 0, "dateTime": 1691161122036, "trialdata": {"success": true, "trial_type": "fullscreen", "trial_index": 0, "time_elapsed": 11522, "internal_node_id": "0.0-0.0"}}, {"uniqueid": "w97072546:a22784224", "current_trial": 1, "dateTime": 1691161136247, "trialdata": {"view_history": [{"page_index": 0, "viewing_time": 14205}], "rt": 14205, "trial_id": "exp_instructions_control", "trial_type": "instructions", "trial_index": 1, "time_elapsed": 25732, "internal_node_id": "0.0-1.0"}}, {"uniqueid": "w97072546:a22784224", "current_trial": 2, "dateTime": 1691161141519, "trialdata": {"success": true, "trial_type": "fullscreen", "trial_index": 2, "time_elapsed": 31005, "internal_node_id": "0.0-2.0-0.0"}}, {"uniqueid": "w97072546:a22784224", "current_trial": 3, "dateTime": 1691161317086, "trialdata": {"view_history": [{"page_index": 0, "viewing_time": 86507}, {"page_index": 1, "viewing_time": 35507}, {"page_index": 2, "viewing_time": 4732}, {"page_index": 1, "viewing_time": 6208}, {"page_index": 2, "viewing_time": 7576}, {"page_index": 3, "viewing_time": 23625}, {"page_index": 2, "viewing_time": 5855}, {"page_index": 1, "viewing_time": 2960}, {"page_index": 2, "viewing_time": 648}, {"page_index": 3, "viewing_time": 1944}], "rt": 175563, "trial_id": "mouselab_instructions_1_control", "trial_type": "instructions", "trial_index": 3, "time_elapsed": 206572, "internal_node_id": "0.0-2.0-1.0"}}, {"uniqueid": "w97072546:a22784224", "current_trial": 4, "dateTime": 1691161374128, "trialdata": {"revealed_states": [], "clicked_states": ["7"], "num_clicks_accrued": [0, 0, 0, 0, 0, 0, 0, 0, 0, 0, 0, 0, 0], "stateRewards": ["", -10, -10, 10, 10, 10, 10, 10, -10, 10, 10, 10, 10, -10, 10, -10, 10, 10, 10, -10, 10, 10, 10, -10, 10, 10, -10, 10, -10, -10, 10, -10, 10, -10], "withholdReward": false, "trial_id": "practice_1", "block": "test", "trialIndex": 0, "score": 13, "costs": -0.5, "simulationMode": [null, null, null, null, null], "rewards": [10, -10, 10, -10, 10], "path": ["0", "0", "12", "13", "14", "15", "16"], "rt": [26083, 5416, 1715, 1845, 346], "actions": ["right", "right", "right", "up", "up"], "actionTimes": [36504, 42457, 44695, 47055, 47930], "queries": {"click": {"state": {"target": ["7"], "time": [15540]}, "edge": {"target": [], "time": []}}, "mouseover": {"state": {"target": ["1", "7", "7", "2", "7", "18", "14", "20", "6", "1", "28", "27", "13", "32", "13", "18", "7", "4", "3", "9", "4", "3", "2", "12", "13", "13"], "time": [11787, 13729, 14665, 14798, 14968, 16390, 16460, 16515, 18763, 19057, 19091, 19290, 21097, 24116, 24705, 24753, 24980, 25063, 25872, 25981, 26181, 26814, 28847, 29248, 29592, 31199]}, "edge": {"target": [], "time": []}}, "mouseout": {"state": {"target": ["28", "1", "7", "7", "2", "7", "7", "18", "14", "20", "6", "1", "28", "27", "13", "32", "13", "18", "7", "4", "3", "9", "4", "3", "2", "12", "13", "13", "13", "18", "13"], "time": [8825, 12083, 13743, 14704, 14919, 15566, 16358, 16420, 16499, 16758, 18782, 19074, 19108, 19341, 21115, 24152, 24728, 24857, 25031, 25847, 25913, 26080, 26695, 28769, 29031, 29480, 31030, 33066, 40546, 41714, 41745]}, "edge": {"target": [], "time": []}}}, "displayed_time": "48.45", "trialTime": 56435, "trial_type": "mouselab-mdp", "trial_index": 4, "time_elapsed": 263613, "internal_node_id": "0.0-2.0-2.0-0.0"}}, {"uniqueid": "w97072546:a22784224", "current_trial": 5, "dateTime": 1691161394392, "trialdata": {"revealed_states": [], "clicked_states": [], "num_clicks_accrued": [0, 0, 0, 0, 0, 0, 0, 0, 0, 0, 0, 0, 0], "stateRewards": ["", 10, 10, -10, 10, -10, -10, 10, -10, -10, 10, 10, 10, -10, 10, -10, -10, 10, 10, -10, 10, -10, 10, 10, -10, 10, 10, -10, 10, -10, -10, -10, -10, 10], "withholdReward": false, "trial_id": "practice_2", "block": "test", "trialIndex": 1, "score": 13.5, "costs": 0, "simulationMode": [null, null, null, null, null], "rewards": [10, 10, -10, 10, -10], "path": ["0", "0", "1", "2", "3", "4", "5"], "rt": [2514, 1197, 1283, 575, 696], "actions": ["up", "up", "up", "right", "up"], "actionTimes": [8083, 9805, 11605, 12693, 13915], "queries": {"click": {"state": {"target": [], "time": []}, "edge": {"target": [], "time": []}}, "mouseover": {"state": {"target": [], "time": []}, "edge": {"target": [], "time": []}}, "mouseout": {"state": {"target": ["13", "12", "0", "23", "24", "23", "0"], "time": [2969, 2988, 3006, 3024, 3255, 3319, 4785]}, "edge": {"target": [], "time": []}}}, "displayed_time": "14.44", "trialTime": 19859, "trial_type": "mouselab-mdp", "trial_index": 5, "time_elapsed": 283876, "internal_node_id": "0.0-2.0-2.0-1.0"}}, {"uniqueid": "w97072546:a22784224", "current_trial": 6, "dateTime": 1691161434118, "trialdata": {"view_history": [{"page_index": 0, "viewing_time": 35268}, {"page_index": 1, "viewing_time": 4448}], "rt": 39717, "trial_id": "mouselab_instructions_2_control", "trial_type": "instructions", "trial_index": 6, "time_elapsed": 323604, "internal_node_id": "0.0-2.0-3.0"}}, {"uniqueid": "w97072546:a22784224", "current_trial": 7, "dateTime": 1691161503518, "trialdata": {"rt": 69395, "response": {"Q0": "The cost for clicking on nodes may vary between nodes.", "Q1": "The better I perform the higher my bonus will be.", "Q2": "No, the structure of the web will be different each time.", "Q3": "To get the highest total score.", "Q4": "Only after moving the spider.", "Q5": "3 seconds"}, "question_order": [0, 1, 2, 3, 4, 5], "correct": {"Q0": "The cost for clicking on nodes may vary between nodes.", "Q1": "The better I perform the higher my bonus will be.", "Q2": "No, the amount of cash at each node of the web may be different each time.", "Q3": "To get the highest total score.", "Q4": "Only before moving the spider.", "Q5": "3 seconds"}, "trial_id": "mouselab_quiz_control", "trial_type": "survey-multi-choice", "trial_index": 7, "time_elapsed": 393004, "internal_node_id": "0.0-2.0-4.0"}}, {"uniqueid": "w97072546:a22784224", "current_trial": 8, "dateTime": 1691161521526, "trialdata": {"success": true, "trial_type": "fullscreen", "trial_index": 8, "time_elapsed": 411012, "internal_node_id": "0.0-2.1-0.1"}}, {"uniqueid": "w97072546:a22784224", "current_trial": 9, "dateTime": 1691161629676, "trialdata": {"view_history": [{"page_index": 0, "viewing_time": 10680}, {"page_index": 1, "viewing_time": 35824}, {"page_index": 2, "viewing_time": 19808}, {"page_index": 3, "viewing_time": 41832}], "rt": 108144, "trial_id": "mouselab_instructions_1_control", "trial_type": "instructions", "trial_index": 9, "time_elapsed": 519162, "internal_node_id": "0.0-2.1-1.1"}}, {"uniqueid": "w97072546:a22784224", "current_trial": 10, "dateTime": 1691161643996, "trialdata": {"revealed_states": [], "clicked_states": [], "num_clicks_accrued": [0, 0, 0, 0, 0, 0, 0, 0, 0, 0, 0, 0, 0], "stateRewards": ["", -10, -10, 10, 10, 10, 10, 10, -10, 10, 10, 10, 10, -10, 10, -10, 10, 10, 10, -10, 10, 10, 10, -10, 10, 10, -10, 10, -10, -10, 10, -10, 10, -10], "withholdReward": false, "trial_id": "practice_1", "block": "test", "trialIndex": 2, "score": 13.5, "costs": 0, "simulationMode": [null, null, null, null, null], "rewards": [10, -10, 10, -10, 10], "path": ["0", "0", "12", "13", "14", "15", "16"], "rt": [4523, 321, 356, 1136, 54], "actions": ["right", "right", "right", "up", "up"], "actionTimes": [6497, 7340, 8210, 9868, 10440], "queries": {"click": {"state": {"target": [], "time": []}, "edge": {"target": [], "time": []}}, "mouseover": {"state": {"target": ["23", "0"], "time": [3502, 4985]}, "edge": {"target": [], "time": []}}, "mouseout": {"state": {"target": ["0", "23", "0"], "time": [3486, 3718, 12304]}, "edge": {"target": [], "time": []}}}, "displayed_time": "10.97", "trialTime": 14081, "trial_type": "mouselab-mdp", "trial_index": 10, "time_elapsed": 533480, "internal_node_id": "0.0-2.1-2.1-0.1"}}, {"uniqueid": "w97072546:a22784224", "current_trial": 11, "dateTime": 1691161657660, "trialdata": {"revealed_states": [], "clicked_states": [], "num_clicks_accrued": [0, 0, 0, 0, 0, 0, 0, 0, 0, 0, 0, 0, 0], "stateRewards": ["", 10, 10, -10, 10, -10, -10, 10, -10, -10, 10, 10, 10, -10, 10, -10, -10, 10, 10, -10, 10, -10, 10, 10, -10, 10, 10, -10, 10, -10, -10, -10, -10, 10], "withholdReward": false, "trial_id": "practice_2", "block": "test", "trialIndex": 3, "score": -6.5, "costs": 0, "simulationMode": [null, null, null, null, null], "rewards": [10, 10, -10, -10, -10], "path": ["0", "0", "1", "2", "3", "8", "9"], "rt": [2873, 394, 582, 752, 827], "actions": ["up", "up", "up", "left", "up"], "actionTimes": [4251, 5168, 6274, 7539, 8881], "queries": {"click": {"state": {"target": [], "time": []}, "edge": {"target": [], "time": []}}, "mouseover": {"state": {"target": [], "time": []}, "edge": {"target": [], "time": []}}, "mouseout": {"state": {"target": ["0", "0"], "time": [637, 11241]}, "edge": {"target": [], "time": []}}}, "displayed_time": "9.39", "trialTime": 13218, "trial_type": "mouselab-mdp", "trial_index": 11, "time_elapsed": 547145, "internal_node_id": "0.0-2.1-2.1-1.1"}}, {"uniqueid": "w97072546:a22784224", "current_trial": 12, "dateTime": 1691161664572, "trialdata": {"view_history": [{"page_index": 0, "viewing_time": 4916}, {"page_index": 1, "viewing_time": 1984}], "rt": 6900, "trial_id": "mouselab_instructions_2_control", "trial_type": "instructions", "trial_index": 12, "time_elapsed": 554058, "internal_node_id": "0.0-2.1-3.1"}}, {"uniqueid": "w97072546:a22784224", "current_trial": 13, "dateTime": 1691161725348, "trialdata": {"rt": 60774, "response": {"Q0": "The cost for clicking on nodes may vary between nodes.", "Q1": "The better I perform the higher my bonus will be.", "Q2": "Yes.", "Q3": "To get the highest total score.", "Q4": "Only before moving the spider.", "Q5": "3 seconds"}, "question_order": [0, 1, 2, 3, 4, 5], "correct": {"Q0": "The cost for clicking on nodes may vary between nodes.", "Q1": "The better I perform the higher my bonus will be.", "Q2": "No, the amount of cash at each node of the web may be different each time.", "Q3": "To get the highest total score.", "Q4": "Only before moving the spider.", "Q5": "3 seconds"}, "trial_id": "mouselab_quiz_control", "trial_type": "survey-multi-choice", "trial_index": 13, "time_elapsed": 614834, "internal_node_id": "0.0-2.1-4.1"}}, {"uniqueid": "w97072546:a22784224", "current_trial": 14, "dateTime": 1691161745516, "trialdata": {"success": true, "trial_type": "fullscreen", "trial_index": 14, "time_elapsed": 635002, "internal_node_id": "0.0-2.2-0.2"}}, {"uniqueid": "w97072546:a22784224", "current_trial": 15, "dateTime": 1691161792273, "trialdata": {"view_history": [{"page_index": 0, "viewing_time": 20831}, {"page_index": 1, "viewing_time": 1780}, {"page_index": 2, "viewing_time": 4270}, {"page_index": 1, "viewing_time": 11535}, {"page_index": 2, "viewing_time": 6538}, {"page_index": 3, "viewing_time": 1795}], "rt": 46749, "trial_id": "mouselab_instructions_1_control", "trial_type": "instructions", "trial_index": 15, "time_elapsed": 681759, "internal_node_id": "0.0-2.2-1.2"}}, {"uniqueid": "w97072546:a22784224", "current_trial": 16, "dateTime": 1691161806514, "trialdata": {"revealed_states": [], "clicked_states": [], "num_clicks_accrued": [0, 0, 0, 0, 0, 0, 0, 0, 0, 0, 0, 0, 0], "stateRewards": ["", -10, -10, 10, 10, 10, 10, 10, -10, 10, 10, 10, 10, -10, 10, -10, 10, 10, 10, -10, 10, 10, 10, -10, 10, 10, -10, 10, -10, -10, 10, -10, 10, -10], "withholdReward": false, "trial_id": "practice_1", "block": "test", "trialIndex": 4, "score": 13.5, "costs": 0, "simulationMode": [null, null, null, null, null], "rewards": [10, -10, 10, -10, 10], "path": ["0", "0", "12", "13", "14", "15", "16"], "rt": [4008, 91, 43, 1515, 246], "actions": ["right", "right", "right", "up", "up"], "actionTimes": [6576, 7201, 7768, 9826, 10568], "queries": {"click": {"state": {"target": [], "time": []}, "edge": {"target": [], "time": []}}, "mouseover": {"state": {"target": [], "time": []}, "edge": {"target": [], "time": []}}, "mouseout": {"state": {"target": [], "time": []}, "edge": {"target": [], "time": []}}}, "displayed_time": "11.09", "trialTime": 13751, "trial_type": "mouselab-mdp", "trial_index": 16, "time_elapsed": 695998, "internal_node_id": "0.0-2.2-2.2-0.2"}}, {"uniqueid": "w97072546:a22784224", "current_trial": 17, "dateTime": 1691161821312, "trialdata": {"revealed_states": [], "clicked_states": [], "num_clicks_accrued": [0, 0, 0, 0, 0, 0, 0, 0, 0, 0, 0, 0, 0], "stateRewards": ["", 10, 10, -10, 10, -10, -10, 10, -10, -10, 10, 10, 10, -10, 10, -10, -10, 10, 10, -10, 10, -10, 10, 10, -10, 10, 10, -10, 10, -10, -10, -10, -10, 10], "withholdReward": false, "trial_id": "practice_2", "block": "test", "trialIndex": 5, "score": 13.5, "costs": 0, "simulationMode": [null, null, null, null, null], "rewards": [10, 10, -10, 10, -10], "path": ["0", "0", "1", "2", "3", "4", "5"], "rt": [1812, 53, 105, 365, 876], "actions": ["up", "up", "up", "right", "up"], "actionTimes": [8092, 8656, 9288, 10150, 11532], "queries": {"click": {"state": {"target": [], "time": []}, "edge": {"target": [], "time": []}}, "mouseover": {"state": {"target": [], "time": []}, "edge": {"target": [], "time": []}}, "mouseout": {"state": {"target": ["16", "8", "0", "0", "0"], "time": [2972, 3185, 4820, 5168, 5402]}, "edge": {"target": [], "time": []}}}, "displayed_time": "12.05", "trialTime": 14414, "trial_type": "mouselab-mdp", "trial_index": 17, "time_elapsed": 710797, "internal_node_id": "0.0-2.2-2.2-1.2"}}, {"uniqueid": "w97072546:a22784224", "current_trial": 18, "dateTime": 1691161834795, "trialdata": {"view_history": [{"page_index": 0, "viewing_time": 11545}, {"page_index": 1, "viewing_time": 1928}], "rt": 13473, "trial_id": "mouselab_instructions_2_control", "trial_type": "instructions", "trial_index": 18, "time_elapsed": 724281, "internal_node_id": "0.0-2.2-3.2"}}, {"uniqueid": "w97072546:a22784224", "current_trial": 19, "dateTime": 1691162119442, "trialdata": {"rt": 284645, "response": {"Q0": "The cost for clicking on nodes may vary between nodes.", "Q1": "The better I perform the higher my bonus will be.", "Q2": "No, the structure of the web will be different each time.", "Q3": "To get the highest total score.", "Q4": "Only after moving the spider.", "Q5": "3 seconds"}, "question_order": [0, 1, 2, 3, 4, 5], "correct": {"Q0": "The cost for clicking on nodes may vary between nodes.", "Q1": "The better I perform the higher my bonus will be.", "Q2": "No, the amount of cash at each node of the web may be different each time.", "Q3": "To get the highest total score.", "Q4": "Only before moving the spider.", "Q5": "3 seconds"}, "trial_id": "mouselab_quiz_control", "trial_type": "survey-multi-choice", "trial_index": 19, "time_elapsed": 1008928, "internal_node_id": "0.0-2.2-4.2"}}, {"uniqueid": "w97072546:a22784224", "current_trial": 20, "dateTime": 1691162126652, "trialdata": {"success": true, "trial_type": "fullscreen", "trial_index": 20, "time_elapsed": 1016138, "internal_node_id": "0.0-2.3-0.3"}}, {"uniqueid": "w97072546:a22784224", "current_trial": 21, "dateTime": 1691162381777, "trialdata": {"view_history": [{"page_index": 0, "viewing_time": 98216}, {"page_index": 1, "viewing_time": 95071}, {"page_index": 2, "viewing_time": 15305}, {"page_index": 3, "viewing_time": 46527}], "rt": 255119, "trial_id": "mouselab_instructions_1_control", "trial_type": "instructions", "trial_index": 21, "time_elapsed": 1271263, "internal_node_id": "0.0-2.3-1.3"}}, {"uniqueid": "w97072546:a22784224", "current_trial": 22, "dateTime": 1691162400288, "trialdata": {"revealed_states": [], "clicked_states": [], "num_clicks_accrued": [0, 0, 0, 0, 0, 0, 0, 0, 0, 0, 0, 0, 0], "stateRewards": ["", -10, -10, 10, 10, 10, 10, 10, -10, 10, 10, 10, 10, -10, 10, -10, 10, 10, 10, -10, 10, 10, 10, -10, 10, 10, -10, 10, -10, -10, 10, -10, 10, -10], "withholdReward": false, "trial_id": "practice_1", "block": "test", "trialIndex": 6, "score": 13.5, "costs": 0, "simulationMode": [null, null, null, null, null], "rewards": [-10, -10, 10, 10, 10], "path": ["0", "0", "1", "2", "3", "4", "5"], "rt": [3640, 121, 28, 1586, 1700], "actions": ["up", "up", "up", "right", "up"], "actionTimes": [8840, 9480, 10028, 12141, 14350], "queries": {"click": {"state": {"target": [], "time": []}, "edge": {"target": [], "time": []}}, "mouseover": {"state": {"target": [], "time": []}, "edge": {"target": [], "time": []}}, "mouseout": {"state": {"target": ["0", "0", "0", "1", "18"], "time": [3501, 15769, 16651, 16919, 16999]}, "edge": {"target": [], "time": []}}}, "displayed_time": "14.88", "trialTime": 18183, "trial_type": "mouselab-mdp", "trial_index": 22, "time_elapsed": 1289772, "internal_node_id": "0.0-2.3-2.3-0.3"}}, {"uniqueid": "w97072546:a22784224", "current_trial": 23, "dateTime": 1691162414769, "trialdata": {"revealed_states": [], "clicked_states": [], "num_clicks_accrued": [0, 0, 0, 0, 0, 0, 0, 0, 0, 0, 0, 0, 0], "stateRewards": ["", 10, 10, -10, 10, -10, -10, 10, -10, -10, 10, 10, 10, -10, 10, -10, -10, 10, 10, -10, 10, -10, 10, 10, -10, 10, 10, -10, 10, -10, -10, -10, -10, 10], "withholdReward": false, "trial_id": "practice_2", "block": "test", "trialIndex": 7, "score": 13.5, "costs": 0, "simulationMode": [null, null, null, null, null], "rewards": [10, -10, 10, 10, -10], "path": ["0", "0", "23", "24", "25", "26", "27"], "rt": [4674, 578, 176, 403, 734], "actions": ["left", "left", "left", "up", "up"], "actionTimes": [7285, 8394, 9088, 10012, 11256], "queries": {"click": {"state": {"target": [], "time": []}, "edge": {"target": [], "time": []}}, "mouseover": {"state": {"target": ["0", "12", "19", "14", "18", "7", "12", "0"], "time": [2943, 2986, 3104, 4324, 4546, 4590, 4775, 4872]}, "edge": {"target": [], "time": []}}, "mouseout": {"state": {"target": ["20", "19", "26", "29", "24", "23", "0", "0", "12", "19", "14", "18", "7", "12", "0", "12", "22", "19", "22"], "time": [1124, 1174, 1255, 1472, 1639, 1677, 1788, 2969, 3017, 3408, 4378, 4571, 4658, 4794, 12776, 12840, 12907, 12939, 13191]}, "edge": {"target": [], "time": []}}}, "displayed_time": "11.77", "trialTime": 14121, "trial_type": "mouselab-mdp", "trial_index": 23, "time_elapsed": 1304253, "internal_node_id": "0.0-2.3-2.3-1.3"}}, {"uniqueid": "w97072546:a22784224", "current_trial": 24, "dateTime": 1691162422151, "trialdata": {"view_history": [{"page_index": 0, "viewing_time": 5206}, {"page_index": 1, "viewing_time": 2168}], "rt": 7374, "trial_id": "mouselab_instructions_2_control", "trial_type": "instructions", "trial_index": 24, "time_elapsed": 1311637, "internal_node_id": "0.0-2.3-3.3"}}, {"uniqueid": "w97072546:a22784224", "current_trial": 25, "dateTime": 1691162487297, "trialdata": {"rt": 65142, "response": {"Q0": "The cost for clicking on nodes may vary between nodes.", "Q1": "The better I perform the higher my bonus will be.", "Q2": "No, the amount of cash at each node of the web may be different each time.", "Q3": "To get the highest total score.", "Q4": "Only after moving the spider.", "Q5": "3 seconds"}, "question_order": [0, 1, 2, 3, 4, 5], "correct": {"Q0": "The cost for clicking on nodes may vary between nodes.", "Q1": "The better I perform the higher my bonus will be.", "Q2": "No, the amount of cash at each node of the web may be different each time.", "Q3": "To get the highest total score.", "Q4": "Only before moving the spider.", "Q5": "3 seconds"}, "trial_id": "mouselab_quiz_control", "trial_type": "survey-multi-choice", "trial_index": 25, "time_elapsed": 1376782, "internal_node_id": "0.0-2.3-4.3"}}, {"uniqueid": "w97072546:a22784224", "current_trial": 26, "dateTime": 1691162499506, "trialdata": {"rt": 12201, "stimulus": "\n<h1> Get ready to start the game! </h1>\n\nThank you for reading the instructions. Get ready start with the 40 rounds of this game.\n<br><br>\nIf you need to take a break, feel free to take one after the end of a round, before continuing to the next one.\n<br><br>\nRemember, the more money the spider gets, the bigger your bonus will be!\n<br><br>\n<div style='text-align: center;'>Press <code>space</code> to begin.</div>\n\n<br><br>\n(If, at any point, the <code>space</code> key does not take you to the next page, click once on the text and try again.)", "response": " ", "trial_id": "mdp_ready", "trial_type": "html-keyboard-response", "trial_index": 26, "time_elapsed": 1388992, "internal_node_id": "0.0-4.0-0.0"}}, {"uniqueid": "w97072546:a22784224", "current_trial": 27, "dateTime": 1691162518556, "trialdata": {"revealed_states": [], "clicked_states": [], "num_clicks_accrued": [0, 0, 0, 0, 0, 0, 0, 0, 0, 0, 0, 0, 0], "stateRewards": ["", -1, -3, 1, -4, -48, -63, -49, -2, -84, -19, 65, 2, -2, -2, -12, -4, 59, 9, 6, 75, 69, -13, -1, -3, -3, -2, -37, -68, -36, 13, 32, 18, -14], "withholdReward": false, "trial_id": "mdp_trial_1", "block": "test", "trialIndex": 8, "score": -18, "costs": 0, "simulationMode": [null, null, null, null, null], "rewards": [2, -2, -2, -12, -4], "path": ["0", "0", "12", "13", "14", "15", "16"], "rt": [4653, 310, 600, 664, 312], "actions": ["right", "right", "right", "up", "up"], "actionTimes": [6451, 7267, 8375, 9558, 10375], "queries": {"click": {"state": {"target": [], "time": []}, "edge": {"target": [], "time": []}}, "mouseover": {"state": {"target": ["0"], "time": [4830]}, "edge": {"target": [], "time": []}}, "mouseout": {"state": {"target": ["1", "0", "0", "0", "0", "12", "0", "12", "13", "16", "16", "18"], "time": [454, 487, 4471, 4962, 12520, 16994, 17494, 17543, 17594, 17826, 18145, 18510]}, "edge": {"target": [], "time": []}}}, "displayed_time": "15.80", "trialTime": 18652, "trial_type": "mouselab-mdp", "trial_index": 27, "time_elapsed": 1408041, "internal_node_id": "0.0-4.0-1.0-0.0"}}, {"uniqueid": "w97072546:a22784224", "current_trial": 28, "dateTime": 1691162538332, "trialdata": {"revealed_states": [], "clicked_states": [], "num_clicks_accrued": [0, 0, 0, 0, 0, 0, 0, 0, 0, 0, 0, 0, 0], "stateRewards": ["", 1, -4, -4, 8, 1, -79, 68, -10, -79, 8, -74, -1, -3, -6, 14, 43, 23, 9, 5, -51, 63, 61, -2, 4, 6, -10, 69, -32, 57, 15, -80, -80, -77], "withholdReward": false, "trial_id": "mdp_trial_2", "block": "test", "trialIndex": 9, "score": 67, "costs": 0, "simulationMode": [null, null, null, null, null], "rewards": [-2, 4, 6, -10, 69], "path": ["0", "0", "23", "24", "25", "26", "27"], "rt": [9785, 392, 300, 694, 186], "actions": ["left", "left", "left", "up", "up"], "actionTimes": [11324, 12230, 13058, 14269, 14972], "queries": {"click": {"state": {"target": [], "time": []}, "edge": {"target": [], "time": []}}, "mouseover": {"state": {"target": ["0", "23", "25", "26", "27", "27", "0", "0", "23", "24", "25", "24", "25", "26", "24", "23", "0"], "time": [3311, 4138, 4690, 5370, 5844, 6145, 6240, 6523, 6579, 7323, 7372, 7638, 7824, 8138, 8723, 9240, 9412]}, "edge": {"target": [], "time": []}}, "mouseout": {"state": {"target": ["16", "0", "0", "0", "23", "25", "26", "27", "27", "0", "0", "23", "24", "25", "24", "25", "26", "24", "23", "0", "0", "12", "19", "22"], "time": [135, 522, 2058, 3689, 4439, 5340, 5823, 5938, 6191, 6261, 6557, 7006, 7346, 7475, 7773, 8106, 8688, 9107, 9390, 9704, 17112, 17161, 17922, 18005]}, "edge": {"target": [], "time": []}}}, "displayed_time": "15.54", "trialTime": 19342, "trial_type": "mouselab-mdp", "trial_index": 28, "time_elapsed": 1427816, "internal_node_id": "0.0-4.0-1.0-1.0"}}, {"uniqueid": "w97072546:a22784224", "current_trial": 29, "dateTime": 1691162559625, "trialdata": {"revealed_states": [], "clicked_states": [], "num_clicks_accrued": [0, 0, 0, 0, 0, 0, 0, 0, 0, 0, 0, 0, 0], "stateRewards": ["", -2, -1, -2, -15, 87, 57, 29, -10, 77, -80, -7, 1, -3, 6, 14, -11, 87, -59, 4, -71, 16, -11, 2, 2, -7, 2, -47, 61, 50, 14, -20, 17, 81], "withholdReward": false, "trial_id": "mdp_trial_3", "block": "test", "trialIndex": 10, "score": 62, "costs": 0, "simulationMode": [null, null, null, null, null], "rewards": [-2, -1, -2, -10, 77], "path": ["0", "0", "1", "2", "3", "8", "9"], "rt": [12044, 424, 341, 817, 576], "actions": ["up", "up", "up", "left", "up"], "actionTimes": [13661, 14595, 15451, 16787, 17879], "queries": {"click": {"state": {"target": [], "time": []}, "edge": {"target": [], "time": []}}, "mouseover": {"state": {"target": ["0", "0", "1", "2", "3", "2", "1", "2", "2", "1", "3", "8", "9", "3"], "time": [6358, 8304, 8642, 9070, 9224, 9781, 10024, 10293, 10692, 10912, 11434, 11790, 12058, 12389]}, "edge": {"target": [], "time": []}}, "mouseout": {"state": {"target": ["0", "0", "0", "1", "2", "3", "2", "1", "2", "2", "1", "3", "8", "9", "3", "7"], "time": [3110, 7959, 8457, 8893, 9174, 9757, 9974, 10050, 10359, 10874, 11158, 11757, 11816, 12369, 12405, 19106]}, "edge": {"target": [], "time": []}}}, "displayed_time": "18.39", "trialTime": 20908, "trial_type": "mouselab-mdp", "trial_index": 29, "time_elapsed": 1449110, "internal_node_id": "0.0-4.0-1.0-2.0"}}, {"uniqueid": "w97072546:a22784224", "current_trial": 30, "dateTime": 1691162578233, "trialdata": {"revealed_states": [], "clicked_states": [], "num_clicks_accrued": [0, 0, 0, 0, 0, 0, 0, 0, 0, 0, 0, 0, 0], "stateRewards": ["", -1, 3, 1, -7, 56, 76, 57, 3, 11, -9, 14, 1, -2, 2, 8, -77, -3, 79, -5, 88, 24, -66, -2, -1, 7, -7, -30, 14, -76, 11, -36, 28, -6], "withholdReward": false, "trial_id": "mdp_trial_4", "block": "test", "trialIndex": 11, "score": 52, "costs": 0, "simulationMode": [null, null, null, null, null], "rewards": [-1, 3, 1, -7, 56], "path": ["0", "0", "1", "2", "3", "4", "5"], "rt": [6511, 276, 275, 401, 2563], "actions": ["up", "up", "up", "right", "up"], "actionTimes": [8484, 9285, 10082, 11011, 14084], "queries": {"click": {"state": {"target": [], "time": []}, "edge": {"target": [], "time": []}}, "mouseover": {"state": {"target": ["12", "0", "23", "24", "25", "24", "23"], "time": [2884, 4258, 4419, 4881, 4937, 5296, 5356]}, "edge": {"target": [], "time": []}}, "mouseout": {"state": {"target": ["18", "12", "0", "23", "24", "25", "24", "23", "0", "1", "0", "0"], "time": [451, 4141, 4392, 4857, 4912, 5259, 5328, 5394, 16204, 17041, 17091, 17390]}, "edge": {"target": [], "time": []}}}, "displayed_time": "15.97", "trialTime": 18165, "trial_type": "mouselab-mdp", "trial_index": 30, "time_elapsed": 1467717, "internal_node_id": "0.0-4.0-1.0-3.0"}}, {"uniqueid": "w97072546:a22784224", "current_trial": 31, "dateTime": 1691162596120, "trialdata": {"revealed_states": [], "clicked_states": [], "num_clicks_accrued": [0, 0, 0, 0, 0, 0, 0, 0, 0, 0, 0, 0, 0], "stateRewards": ["", 2, -1, 1, 10, -52, 86, -22, -2, -14, -63, 38, 1, 3, 7, -8, 11, -32, -27, 9, -71, 40, -87, -2, -1, 5, -7, 12, 31, -57, 13, 86, -58, 29], "withholdReward": false, "trial_id": "mdp_trial_5", "block": "test", "trialIndex": 12, "score": 14, "costs": 0, "simulationMode": [null, null, null, null, null], "rewards": [1, 3, 7, -8, 11], "path": ["0", "0", "12", "13", "14", "15", "16"], "rt": [8065, 256, 393, 1962, 255], "actions": ["right", "right", "right", "up", "up"], "actionTimes": [9412, 10164, 11072, 13553, 14327], "queries": {"click": {"state": {"target": [], "time": []}, "edge": {"target": [], "time": []}}, "mouseover": {"state": {"target": [], "time": []}, "edge": {"target": [], "time": []}}, "mouseout": {"state": {"target": ["0", "23", "23"], "time": [8280, 16276, 16609]}, "edge": {"target": [], "time": []}}}, "displayed_time": "15.35", "trialTime": 17472, "trial_type": "mouselab-mdp", "trial_index": 31, "time_elapsed": 1485605, "internal_node_id": "0.0-4.0-1.0-4.0"}}, {"uniqueid": "w97072546:a22784224", "current_trial": 32, "dateTime": 1691162618653, "trialdata": {"revealed_states": [], "clicked_states": [], "num_clicks_accrued": [0, 0, 0, 0, 0, 0, 0, 0, 0, 0, 0, 0, 0], "stateRewards": ["", 2, 4, 4, -8, -36, -33, 38, 16, -51, 57, 57, 1, 3, 4, -6, 45, 68, 87, 1, 63, 24, -55, -2, 2, -6, -13, -63, -50, 8, 2, 80, 6, 60], "withholdReward": false, "trial_id": "mdp_trial_6", "block": "test", "trialIndex": 13, "score": -82, "costs": 0, "simulationMode": [null, null, null, null, null], "rewards": [-2, 2, -6, -13, -63], "path": ["0", "0", "23", "24", "25", "26", "27"], "rt": [4476, 293, 388, 408, 87], "actions": ["left", "left", "left", "up", "up"], "actionTimes": [6237, 7057, 7955, 8878, 9498], "queries": {"click": {"state": {"target": [], "time": []}, "edge": {"target": [], "time": []}}, "mouseover": {"state": {"target": [], "time": []}, "edge": {"target": [], "time": []}}, "mouseout": {"state": {"target": ["0", "27", "23"], "time": [11868, 15535, 16501]}, "edge": {"target": [], "time": []}}}, "displayed_time": "15.76", "trialTime": 22134, "trial_type": "mouselab-mdp", "trial_index": 32, "time_elapsed": 1508139, "internal_node_id": "0.0-4.0-1.0-5.0"}}, {"uniqueid": "w97072546:a22784224", "current_trial": 33, "dateTime": 1691162637361, "trialdata": {"revealed_states": [], "clicked_states": [], "num_clicks_accrued": [0, 0, 0, 0, 0, 0, 0, 0, 0, 0, 0, 0, 0], "stateRewards": ["", 1, 2, -3, -6, 50, -7, 7, -7, -80, 21, -1, 2, 2, 4, -1, 33, 84, 1, 14, -53, 81, 6, -2, -2, -3, -9, -87, -38, -59, -5, -74, -3, -71], "withholdReward": false, "trial_id": "mdp_trial_7", "block": "test", "trialIndex": 14, "score": 40, "costs": 0, "simulationMode": [null, null, null, null, null], "rewards": [2, 2, 4, -1, 33], "path": ["0", "0", "12", "13", "14", "15", "16"], "rt": [2650, 363, 112, 587, 44], "actions": ["right", "right", "right", "up", "up"], "actionTimes": [4280, 5165, 5809, 6911, 7460], "queries": {"click": {"state": {"target": [], "time": []}, "edge": {"target": [], "time": []}}, "mouseover": {"state": {"target": [], "time": []}, "edge": {"target": [], "time": []}}, "mouseout": {"state": {"target": ["0", "0", "0", "31"], "time": [172, 1136, 16772, 17155]}, "edge": {"target": [], "time": []}}}, "displayed_time": "15.63", "trialTime": 18326, "trial_type": "mouselab-mdp", "trial_index": 33, "time_elapsed": 1526844, "internal_node_id": "0.0-4.0-1.0-6.0"}}, {"uniqueid": "w97072546:a22784224", "current_trial": 34, "dateTime": 1691162663955, "trialdata": {"revealed_states": [], "clicked_states": [], "num_clicks_accrued": [0, 0, 0, 0, 0, 0, 0, 0, 0, 0, 0, 0, 0], "stateRewards": ["", 2, 3, -1, 6, 44, -4, -59, -14, -3, 64, 16, 1, -3, 3, 6, 3, 49, 19, 3, -49, -14, -86, 1, 2, -3, -8, -33, 14, 32, -13, -77, -47, -67], "withholdReward": false, "trial_id": "mdp_trial_8", "block": "test", "trialIndex": 15, "score": 10, "costs": 0, "simulationMode": [null, null, null, null, null], "rewards": [1, -3, 3, 6, 3], "path": ["0", "0", "12", "13", "14", "15", "16"], "rt": [2959, 227, 343, 1637, 455], "actions": ["right", "right", "right", "up", "up"], "actionTimes": [4465, 5217, 6097, 8262, 9271], "queries": {"click": {"state": {"target": [], "time": []}, "edge": {"target": [], "time": []}}, "mouseover": {"state": {"target": [], "time": []}, "edge": {"target": [], "time": []}}, "mouseout": {"state": {"target": ["0", "0", "23", "24", "25", "31", "31", "31", "12"], "time": [12053, 20130, 20393, 20542, 20885, 21614, 22439, 22888, 24553]}, "edge": {"target": [], "time": []}}}, "displayed_time": "15.51", "trialTime": 26106, "trial_type": "mouselab-mdp", "trial_index": 34, "time_elapsed": 1553439, "internal_node_id": "0.0-4.0-1.0-7.0"}}, {"uniqueid": "w97072546:a22784224", "current_trial": 35, "dateTime": 1691162683806, "trialdata": {"revealed_states": [], "clicked_states": [], "num_clicks_accrued": [0, 0, 0, 0, 0, 0, 0, 0, 0, 0, 0, 0, 0], "stateRewards": ["", 1, 1, -5, 8, -6, 45, 16, -6, -7, -22, -38, -1, -4, 8, -11, -16, 21, -45, -15, -59, -32, 42, -1, 3, 6, 11, -7, 34, -27, -8, 85, 43, -9], "withholdReward": false, "trial_id": "mdp_trial_9", "block": "test", "trialIndex": 16, "score": 50, "costs": 0, "simulationMode": [null, null, null, null, null], "rewards": [1, 1, -5, 8, 45], "path": ["0", "0", "1", "2", "3", "4", "6"], "rt": [10442, 216, 457, 352, 297], "actions": ["up", "up", "up", "right", "right"], "actionTimes": [12038, 12768, 13747, 14620, 15435], "queries": {"click": {"state": {"target": [], "time": []}, "edge": {"target": [], "time": []}}, "mouseover": {"state": {"target": ["23", "0", "0", "23", "24", "25", "23", "23", "0", "12", "13", "12", "1", "1"], "time": [3588, 4039, 4511, 4805, 5251, 5589, 6337, 6514, 6599, 7250, 7320, 7539, 8072, 9888]}, "edge": {"target": [], "time": []}}, "mouseout": {"state": {"target": ["1", "23", "0", "0", "23", "24", "25", "23", "23", "0", "12", "13", "12", "1", "1", "0"], "time": [1044, 3990, 4241, 4704, 5223, 5289, 6059, 6384, 6565, 7123, 7285, 7488, 7591, 8422, 9938, 18455]}, "edge": {"target": [], "time": []}}}, "displayed_time": "15.95", "trialTime": 19359, "trial_type": "mouselab-mdp", "trial_index": 35, "time_elapsed": 1573290, "internal_node_id": "0.0-4.0-1.0-8.0"}}, {"uniqueid": "w97072546:a22784224", "current_trial": 36, "dateTime": 1691162702962, "trialdata": {"revealed_states": [], "clicked_states": [], "num_clicks_accrued": [0, 0, 0, 0, 0, 0, 0, 0, 0, 0, 0, 0, 0], "stateRewards": ["", -2, -3, 8, 14, -73, 73, 84, -12, -2, -50, -17, 2, 1, -2, -9, -44, -27, -33, 16, -63, -47, -66, -2, 1, 4, -5, -33, -11, 50, 9, 38, -79, 31], "withholdReward": false, "trial_id": "mdp_trial_10", "block": "test", "trialIndex": 17, "score": -46, "costs": 0, "simulationMode": [null, null, null, null, null], "rewards": [2, 1, -2, 16, -63], "path": ["0", "0", "12", "13", "14", "19", "20"], "rt": [5134, 173, 191, 452, 812], "actions": ["right", "right", "right", "down", "right"], "actionTimes": [7137, 7828, 8534, 9505, 10832], "queries": {"click": {"state": {"target": [], "time": []}, "edge": {"target": [], "time": []}}, "mouseover": {"state": {"target": ["23", "0", "0", "12", "12", "13", "14", "14"], "time": [2558, 3234, 3874, 4490, 4857, 5340, 5602, 6323]}, "edge": {"target": [], "time": []}}, "mouseout": {"state": {"target": ["0", "23", "0", "0", "12", "12", "13", "14", "14", "12", "0"], "time": [1485, 2588, 3715, 4391, 4691, 5191, 5592, 5625, 6523, 17140, 17519]}, "edge": {"target": [], "time": []}}}, "displayed_time": "16.00", "trialTime": 18685, "trial_type": "mouselab-mdp", "trial_index": 36, "time_elapsed": 1592446, "internal_node_id": "0.0-4.0-1.0-9.0"}}, {"uniqueid": "w97072546:a22784224", "current_trial": 37, "dateTime": 1691162720795, "trialdata": {"revealed_states": [], "clicked_states": [], "num_clicks_accrued": [0, 0, 0, 0, 0, 0, 0, 0, 0, 0, 0, 0, 0], "stateRewards": ["", 1, 1, -3, 2, 22, -25, -11, -5, 50, 49, 3, 1, -1, 8, 14, -85, -30, 57, -6, -39, -16, 59, -2, -1, 5, 5, 59, -16, 8, 4, 67, 56, -9], "withholdReward": false, "trial_id": "mdp_trial_11", "block": "test", "trialIndex": 18, "score": -63, "costs": 0, "simulationMode": [null, null, null, null, null], "rewards": [1, -1, 8, 14, -85], "path": ["0", "0", "12", "13", "14", "15", "16"], "rt": [2510, 356, 151, 1548, 45], "actions": ["right", "right", "right", "up", "up"], "actionTimes": [3846, 4723, 5435, 7498, 8059], "queries": {"click": {"state": {"target": [], "time": []}, "edge": {"target": [], "time": []}}, "mouseover": {"state": {"target": ["0"], "time": [2031]}, "edge": {"target": [], "time": []}}, "mouseout": {"state": {"target": ["0", "0", "31", "30", "31"], "time": [812, 15431, 16448, 16515, 16847]}, "edge": {"target": [], "time": []}}}, "displayed_time": "15.34", "trialTime": 17312, "trial_type": "mouselab-mdp", "trial_index": 37, "time_elapsed": 1610280, "internal_node_id": "0.0-4.0-1.0-10.0"}}, {"uniqueid": "w97072546:a22784224", "current_trial": 38, "dateTime": 1691162740739, "trialdata": {"revealed_states": [], "clicked_states": [], "num_clicks_accrued": [0, 0, 0, 0, 0, 0, 0, 0, 0, 0, 0, 0, 0], "stateRewards": ["", 1, 2, 2, -15, -84, 28, -26, 13, 31, 86, 30, -2, 1, -1, -8, 66, -40, -1, -10, -32, 57, -17, 1, 2, -2, 9, -23, 77, 85, 12, -32, -62, -35], "withholdReward": false, "trial_id": "mdp_trial_12", "block": "test", "trialIndex": 19, "score": 104, "costs": 0, "simulationMode": [null, null, null, null, null], "rewards": [1, 2, 2, 13, 86], "path": ["0", "0", "1", "2", "3", "8", "10"], "rt": [3400, 393, 252, 1957, 513], "actions": ["up", "up", "up", "left", "down"], "actionTimes": [5082, 5997, 6785, 9265, 10293], "queries": {"click": {"state": {"target": [], "time": []}, "edge": {"target": [], "time": []}}, "mouseover": {"state": {"target": ["0", "1"], "time": [2573, 3157]}, "edge": {"target": [], "time": []}}, "mouseout": {"state": {"target": ["0", "0", "1"], "time": [2273, 2641, 18081]}, "edge": {"target": [], "time": []}}}, "displayed_time": "15.68", "trialTime": 19448, "trial_type": "mouselab-mdp", "trial_index": 38, "time_elapsed": 1630224, "internal_node_id": "0.0-4.0-1.0-11.0"}}, {"uniqueid": "w97072546:a22784224", "current_trial": 39, "dateTime": 1691162759222, "trialdata": {"revealed_states": [], "clicked_states": [], "num_clicks_accrued": [0, 0, 0, 0, 0, 0, 0, 0, 0, 0, 0, 0, 0], "stateRewards": ["", 1, 1, 7, -11, 80, -20, -53, -14, 3, 31, 27, 2, -1, -8, -10, 33, 41, 86, 9, 78, -37, -13, -1, -2, -6, -8, -80, 75, 4, -16, -49, -74, 24], "withholdReward": false, "trial_id": "mdp_trial_13", "block": "test", "trialIndex": 20, "score": -1, "costs": 0, "simulationMode": [null, null, null, null, null], "rewards": [-1, -2, -6, -16, 24], "path": ["0", "0", "23", "24", "25", "30", "33"], "rt": [2653, 492, 528, 2184, 2089], "actions": ["left", "left", "left", "down", "left"], "actionTimes": [3969, 5000, 6061, 8766, 11363], "queries": {"click": {"state": {"target": [], "time": []}, "edge": {"target": [], "time": []}}, "mouseover": {"state": {"target": [], "time": []}, "edge": {"target": [], "time": []}}, "mouseout": {"state": {"target": ["1", "0"], "time": [667, 16552]}, "edge": {"target": [], "time": []}}}, "displayed_time": "15.32", "trialTime": 17930, "trial_type": "mouselab-mdp", "trial_index": 39, "time_elapsed": 1648707, "internal_node_id": "0.0-4.0-1.0-12.0"}}, {"uniqueid": "w97072546:a22784224", "current_trial": 40, "dateTime": 1691162778459, "trialdata": {"revealed_states": [], "clicked_states": [], "num_clicks_accrued": [0, 0, 0, 0, 0, 0, 0, 0, 0, 0, 0, 0, 0], "stateRewards": ["", -2, 2, 2, -6, 9, 37, 50, -13, -7, -18, -75, -2, -4, 4, 7, 23, -57, -66, -7, -81, -48, -76, 1, 1, -8, 1, 51, -2, 70, 14, 59, 71, -37], "withholdReward": false, "trial_id": "mdp_trial_14", "block": "test", "trialIndex": 21, "score": 46, "costs": 0, "simulationMode": [null, null, null, null, null], "rewards": [-2, 2, 2, -6, 50], "path": ["0", "0", "1", "2", "3", "4", "7"], "rt": [9464, 836, 527, 597, 566], "actions": ["up", "up", "up", "right", "down"], "actionTimes": [11211, 12568, 13609, 14724, 15815], "queries": {"click": {"state": {"target": [], "time": []}, "edge": {"target": [], "time": []}}, "mouseover": {"state": {"target": [], "time": []}, "edge": {"target": [], "time": []}}, "mouseout": {"state": {"target": ["0"], "time": [18046]}, "edge": {"target": [], "time": []}}}, "displayed_time": "16.34", "trialTime": 18779, "trial_type": "mouselab-mdp", "trial_index": 40, "time_elapsed": 1667943, "internal_node_id": "0.0-4.0-1.0-13.0"}}, {"uniqueid": "w97072546:a22784224", "current_trial": 41, "dateTime": 1691162801033, "trialdata": {"revealed_states": [], "clicked_states": [], "num_clicks_accrued": [0, 0, 0, 0, 0, 0, 0, 0, 0, 0, 0, 0, 0], "stateRewards": ["", 2, -1, -1, -9, -81, -30, 55, -6, 78, 25, 62, 2, 4, -1, 9, -85, 1, -19, 1, -60, 12, -34, 1, 4, -1, -13, -24, -16, -83, -8, 16, 43, 9], "withholdReward": false, "trial_id": "mdp_trial_15", "block": "test", "trialIndex": 22, "score": 56, "costs": 0, "simulationMode": [null, null, null, null, null], "rewards": [2, -1, -1, -6, 62], "path": ["0", "0", "1", "2", "3", "8", "11"], "rt": [2479, 353, 1588, 742, 210], "actions": ["up", "up", "up", "left", "left"], "actionTimes": [4307, 5173, 7298, 8544, 9268], "queries": {"click": {"state": {"target": [], "time": []}, "edge": {"target": [], "time": []}}, "mouseover": {"state": {"target": [], "time": []}, "edge": {"target": [], "time": []}}, "mouseout": {"state": {"target": ["0", "0", "12", "0", "8", "10", "0"], "time": [2971, 18054, 18921, 19687, 20254, 20288, 21284]}, "edge": {"target": [], "time": []}}}, "displayed_time": "15.83", "trialTime": 22079, "trial_type": "mouselab-mdp", "trial_index": 41, "time_elapsed": 1690517, "internal_node_id": "0.0-4.0-1.0-14.0"}}, {"uniqueid": "w97072546:a22784224", "current_trial": 42, "dateTime": 1691162820687, "trialdata": {"revealed_states": [], "clicked_states": [], "num_clicks_accrued": [0, 0, 0, 0, 0, 0, 0, 0, 0, 0, 0, 0, 0], "stateRewards": ["", 1, 1, -3, 7, 49, 78, 26, -5, 26, 48, -43, -1, -3, 2, -5, 4, -1, -60, 10, -35, 51, 81, -2, 1, -7, -5, -39, -86, -54, 4, -3, 74, 77], "withholdReward": false, "trial_id": "mdp_trial_16", "block": "test", "trialIndex": 23, "score": -99, "costs": 0, "simulationMode": [null, null, null, null, null], "rewards": [-2, 1, -7, -5, -86], "path": ["0", "0", "23", "24", "25", "26", "28"], "rt": [6021, 618, 233, 373, 279], "actions": ["left", "left", "left", "up", "right"], "actionTimes": [7646, 8798, 9564, 10452, 11241], "queries": {"click": {"state": {"target": [], "time": []}, "edge": {"target": [], "time": []}}, "mouseover": {"state": {"target": ["0", "23", "24", "24"], "time": [2500, 3851, 4186, 5816]}, "edge": {"target": [], "time": []}}, "mouseout": {"state": {"target": ["0", "0", "0", "23", "24", "24"], "time": [403, 2252, 3506, 3942, 5169, 17000]}, "edge": {"target": [], "time": []}}}, "displayed_time": "15.62", "trialTime": 19146, "trial_type": "mouselab-mdp", "trial_index": 42, "time_elapsed": 1710171, "internal_node_id": "0.0-4.0-1.0-15.0"}}, {"uniqueid": "w97072546:a22784224", "current_trial": 43, "dateTime": 1691162838176, "trialdata": {"revealed_states": [], "clicked_states": [], "num_clicks_accrued": [0, 0, 0, 0, 0, 0, 0, 0, 0, 0, 0, 0, 0], "stateRewards": ["", 1, 4, 7, -16, -84, -6, -46, -12, -7, -49, -26, -1, 2, -4, 2, 22, 37, -64, 1, 88, -13, -10, 1, -4, -2, 5, 2, -10, -34, 9, 66, 55, 38], "withholdReward": false, "trial_id": "mdp_trial_17", "block": "test", "trialIndex": 24, "score": -65, "costs": 0, "simulationMode": [null, null, null, null, null], "rewards": [-1, 2, -4, 2, -64], "path": ["0", "0", "12", "13", "14", "15", "18"], "rt": [6975, 11, 180, 1731, 510], "actions": ["right", "right", "right", "up", "left"], "actionTimes": [8279, 8792, 9510, 11766, 12818], "queries": {"click": {"state": {"target": [], "time": []}, "edge": {"target": [], "time": []}}, "mouseover": {"state": {"target": [], "time": []}, "edge": {"target": [], "time": []}}, "mouseout": {"state": {"target": ["0", "23"], "time": [16293, 16347]}, "edge": {"target": [], "time": []}}}, "displayed_time": "15.30", "trialTime": 17050, "trial_type": "mouselab-mdp", "trial_index": 43, "time_elapsed": 1727658, "internal_node_id": "0.0-4.0-1.0-16.0"}}, {"uniqueid": "w97072546:a22784224", "current_trial": 44, "dateTime": 1691162868614, "trialdata": {"revealed_states": [], "clicked_states": [], "num_clicks_accrued": [0, 0, 0, 0, 0, 0, 0, 0, 0, 0, 0, 0, 0], "stateRewards": ["", -2, 3, 3, -14, 62, 36, 49, 16, 11, 17, -84, 2, -1, 6, 2, -82, -73, 49, -6, -87, 48, 50, -1, -2, -1, -16, -11, 37, -44, 4, 55, 73, -10], "withholdReward": false, "trial_id": "mdp_trial_18", "block": "test", "trialIndex": 25, "score": 26, "costs": 0, "simulationMode": [null, null, null, null, null], "rewards": [-2, 3, 3, -14, 36], "path": ["0", "0", "1", "2", "3", "4", "6"], "rt": [4058, 364, 378, 1513, 145], "actions": ["up", "up", "up", "right", "right"], "actionTimes": [5990, 6876, 7776, 9808, 10471], "queries": {"click": {"state": {"target": [], "time": []}, "edge": {"target": [], "time": []}}, "mouseover": {"state": {"target": [], "time": []}, "edge": {"target": [], "time": []}}, "mouseout": {"state": {"target": ["0", "0", "0", "22", "19", "21", "22", "0", "12", "13", "19", "19", "22", "24", "12", "0", "23", "24", "30", "33", "13", "7", "4", "2", "1", "2", "3", "8", "2", "1", "12"], "time": [1500, 18980, 20246, 20383, 20615, 20962, 21075, 21395, 21595, 21864, 22212, 23080, 23113, 23375, 23795, 23895, 24029, 24330, 24761, 24796, 25579, 25911, 26144, 26211, 26463, 26855, 27657, 28046, 28612, 28779, 29297]}, "edge": {"target": [], "time": []}}}, "displayed_time": "15.93", "trialTime": 29874, "trial_type": "mouselab-mdp", "trial_index": 44, "time_elapsed": 1758099, "internal_node_id": "0.0-4.0-1.0-17.0"}}, {"uniqueid": "w97072546:a22784224", "current_trial": 45, "dateTime": 1691162886318, "trialdata": {"revealed_states": [], "clicked_states": [], "num_clicks_accrued": [0, 0, 0, 0, 0, 0, 0, 0, 0, 0, 0, 0, 0], "stateRewards": ["", 2, -1, 5, 8, 75, -35, -77, 1, -9, -81, -58, 1, 2, -7, 5, 77, -16, 19, 16, -10, -18, 40, -2, 3, 7, -5, 64, 1, -62, 10, 27, 10, 65], "withholdReward": false, "trial_id": "mdp_trial_19", "block": "test", "trialIndex": 26, "score": -21, "costs": 0, "simulationMode": [null, null, null, null, null], "rewards": [2, -1, 5, 8, -35], "path": ["0", "0", "1", "2", "3", "4", "6"], "rt": [2192, 439, 275, 2631, 680], "actions": ["up", "up", "up", "right", "right"], "actionTimes": [3537, 4496, 5282, 8438, 9643], "queries": {"click": {"state": {"target": [], "time": []}, "edge": {"target": [], "time": []}}, "mouseover": {"state": {"target": [], "time": []}, "edge": {"target": [], "time": []}}, "mouseout": {"state": {"target": ["0", "0"], "time": [390, 16589]}, "edge": {"target": [], "time": []}}}, "displayed_time": "15.35", "trialTime": 17175, "trial_type": "mouselab-mdp", "trial_index": 45, "time_elapsed": 1775803, "internal_node_id": "0.0-4.0-1.0-18.0"}}, {"uniqueid": "w97072546:a22784224", "current_trial": 46, "dateTime": 1691162910008, "trialdata": {"revealed_states": [], "clicked_states": [], "num_clicks_accrued": [0, 0, 0, 0, 0, 0, 0, 0, 0, 0, 0, 0, 0], "stateRewards": ["", 2, 3, 8, 14, 69, -27, 17, 2, -71, -65, -10, 2, -3, 7, 8, 65, -10, 65, -12, 73, -12, 13, -2, -2, 6, 10, -79, -69, -18, 10, -85, 67, 74], "withholdReward": false, "trial_id": "mdp_trial_20", "block": "test", "trialIndex": 27, "score": 67, "costs": 0, "simulationMode": [null, null, null, null, null], "rewards": [2, -3, 7, -12, 73], "path": ["0", "0", "12", "13", "14", "19", "20"], "rt": [12567, 176, 15, 1009, 976], "actions": ["right", "right", "right", "down", "right"], "actionTimes": [14149, 14850, 15388, 16943, 18443], "queries": {"click": {"state": {"target": [], "time": []}, "edge": {"target": [], "time": []}}, "mouseover": {"state": {"target": ["26", "29", "29", "10", "1", "12", "12", "13", "14", "20", "20"], "time": [5388, 5589, 6280, 7342, 8343, 8494, 9392, 9544, 11109, 11841, 12259]}, "edge": {"target": [], "time": []}}, "mouseout": {"state": {"target": ["0", "26", "29", "29", "10", "1", "12", "12", "13", "14", "20", "20", "13", "12"], "time": [2276, 5559, 5619, 6960, 8242, 8442, 8538, 9491, 9910, 11419, 11964, 13995, 22341, 22385]}, "edge": {"target": [], "time": []}}}, "displayed_time": "18.95", "trialTime": 23166, "trial_type": "mouselab-mdp", "trial_index": 46, "time_elapsed": 1799492, "internal_node_id": "0.0-4.0-1.0-19.0"}}, {"uniqueid": "w97072546:a22784224", "current_trial": 47, "dateTime": 1691162932339, "trialdata": {"revealed_states": [], "clicked_states": [], "num_clicks_accrued": [0, 0, 0, 0, 0, 0, 0, 0, 0, 0, 0, 0, 0], "stateRewards": ["", -2, 2, -4, -4, -59, 88, 62, -3, 69, -15, -34, 1, -2, -5, 7, -54, -20, 78, -16, -74, -53, -21, 2, -4, 2, 13, -8, -44, 26, 9, 72, 4, 17], "withholdReward": false, "trial_id": "mdp_trial_21", "block": "test", "trialIndex": 28, "score": -41, "costs": 0, "simulationMode": [null, null, null, null, null], "rewards": [-2, 2, -4, -3, -34], "path": ["0", "0", "1", "2", "3", "8", "11"], "rt": [3949, 61, 708, 622, 1005], "actions": ["up", "up", "up", "left", "left"], "actionTimes": [10125, 10702, 11943, 13106, 14631], "queries": {"click": {"state": {"target": [], "time": []}, "edge": {"target": [], "time": []}}, "mouseover": {"state": {"target": [], "time": []}, "edge": {"target": [], "time": []}}, "mouseout": {"state": {"target": ["32", "22", "1", "1"], "time": [4434, 4932, 5023, 5286]}, "edge": {"target": [], "time": []}}}, "displayed_time": "20.18", "trialTime": 21812, "trial_type": "mouselab-mdp", "trial_index": 47, "time_elapsed": 1821824, "internal_node_id": "0.0-4.0-1.0-20.0"}}, {"uniqueid": "w97072546:a22784224", "current_trial": 48, "dateTime": 1691162960541, "trialdata": {"revealed_states": [], "clicked_states": [], "num_clicks_accrued": [0, 0, 0, 0, 0, 0, 0, 0, 0, 0, 0, 0, 0], "stateRewards": ["", 1, 1, -5, 10, -31, 73, 14, -8, -23, 63, -70, -1, 2, 8, 7, 25, -59, 27, -10, -40, -71, -15, -2, 3, -8, -5, -19, 77, -34, 7, 67, 63, 19], "withholdReward": false, "trial_id": "mdp_trial_22", "block": "test", "trialIndex": 29, "score": -43, "costs": 0, "simulationMode": [null, null, null, null, null], "rewards": [-1, 2, 8, 7, -59], "path": ["0", "0", "12", "13", "14", "15", "17"], "rt": [16539, 319, 201, 2163, 557], "actions": ["right", "right", "right", "up", "right"], "actionTimes": [19022, 19860, 20575, 23254, 24338], "queries": {"click": {"state": {"target": [], "time": []}, "edge": {"target": [], "time": []}}, "mouseover": {"state": {"target": ["12", "28", "1", "2", "4", "2", "23", "0"], "time": [3228, 4278, 5250, 6964, 13644, 13995, 14196, 15034]}, "edge": {"target": [], "time": []}}, "mouseout": {"state": {"target": ["12", "28", "1", "2", "4", "2", "23", "0", "23", "31"], "time": [3260, 4581, 5995, 7275, 13850, 14046, 14312, 26412, 26459, 26506]}, "edge": {"target": [], "time": []}}}, "displayed_time": "24.85", "trialTime": 27739, "trial_type": "mouselab-mdp", "trial_index": 48, "time_elapsed": 1850026, "internal_node_id": "0.0-4.0-1.0-21.0"}}, {"uniqueid": "w97072546:a22784224", "current_trial": 49, "dateTime": 1691162979358, "trialdata": {"revealed_states": [], "clicked_states": [], "num_clicks_accrued": [0, 0, 0, 0, 0, 0, 0, 0, 0, 0, 0, 0, 0], "stateRewards": ["", -1, 3, 1, -11, -22, -36, 19, -5, -70, -52, 50, -2, -4, 4, -2, -41, -83, 29, -2, 22, 10, -6, -2, 3, -2, 14, 54, 44, 77, -9, -65, -37, -40], "withholdReward": false, "trial_id": "mdp_trial_23", "block": "test", "trialIndex": 30, "score": -30, "costs": 0, "simulationMode": [null, null, null, null, null], "rewards": [-1, 3, 1, -11, -22], "path": ["0", "0", "1", "2", "3", "4", "5"], "rt": [1858, 290, 326, 733, 1713], "actions": ["up", "up", "up", "right", "up"], "actionTimes": [3423, 4240, 5089, 6355, 8582], "queries": {"click": {"state": {"target": [], "time": []}, "edge": {"target": [], "time": []}}, "mouseover": {"state": {"target": ["1"], "time": [2119]}, "edge": {"target": [], "time": []}}, "mouseout": {"state": {"target": ["0"], "time": [1829]}, "edge": {"target": [], "time": []}}}, "displayed_time": "15.57", "trialTime": 18296, "trial_type": "mouselab-mdp", "trial_index": 49, "time_elapsed": 1868842, "internal_node_id": "0.0-4.0-1.0-22.0"}}, {"uniqueid": "w97072546:a22784224", "current_trial": 50, "dateTime": 1691163003492, "trialdata": {"revealed_states": [], "clicked_states": [], "num_clicks_accrued": [0, 0, 0, 0, 0, 0, 0, 0, 0, 0, 0, 0, 0], "stateRewards": ["", 1, 1, 5, 6, -29, -7, 3, -16, 9, -46, 65, -1, 4, -1, -16, -63, -77, -87, 8, 80, -50, 43, -1, -1, -5, 5, -38, -71, -62, 9, 81, -50, -52], "withholdReward": false, "trial_id": "mdp_trial_24", "block": "test", "trialIndex": 31, "score": -48, "costs": 0, "simulationMode": [null, null, null, null, null], "rewards": [-1, -1, -5, 9, -50], "path": ["0", "0", "23", "24", "25", "30", "32"], "rt": [2425, 210, 369, 2796, 297], "actions": ["left", "left", "left", "down", "down"], "actionTimes": [4645, 5379, 6259, 9571, 10387], "queries": {"click": {"state": {"target": [], "time": []}, "edge": {"target": [], "time": []}}, "mouseover": {"state": {"target": [], "time": []}, "edge": {"target": [], "time": []}}, "mouseout": {"state": {"target": ["1", "0", "12", "12", "1", "2", "3", "8", "24", "0", "0", "23", "31", "32"], "time": [978, 17360, 17447, 18509, 19259, 19310, 20225, 20328, 20777, 21226, 22360, 22396, 22621, 23008]}, "edge": {"target": [], "time": []}}}, "displayed_time": "16.23", "trialTime": 23611, "trial_type": "mouselab-mdp", "trial_index": 50, "time_elapsed": 1892977, "internal_node_id": "0.0-4.0-1.0-23.0"}}, {"uniqueid": "w97072546:a22784224", "current_trial": 51, "dateTime": 1691163025535, "trialdata": {"revealed_states": [], "clicked_states": [], "num_clicks_accrued": [0, 0, 0, 0, 0, 0, 0, 0, 0, 0, 0, 0, 0], "stateRewards": ["", 1, -2, 7, -14, 88, -56, -44, -14, 64, -51, -57, -2, 3, -4, -9, -11, 19, -77, -1, 68, 75, -67, -1, 1, -2, 5, -37, 70, -34, -10, -72, 63, -41], "withholdReward": false, "trial_id": "mdp_trial_25", "block": "test", "trialIndex": 32, "score": -31, "costs": 0, "simulationMode": [null, null, null, null, null], "rewards": [-1, 1, -2, 5, -34], "path": ["0", "0", "23", "24", "25", "26", "29"], "rt": [8329, 882, 1175, 4202, 868], "actions": ["left", "left", "left", "up", "left"], "actionTimes": [9968, 11387, 13074, 17787, 19154], "queries": {"click": {"state": {"target": [], "time": []}, "edge": {"target": [], "time": []}}, "mouseover": {"state": {"target": ["0", "12", "13", "14", "13", "24", "23", "0", "23", "24", "26", "24", "23", "0", "23", "24", "25", "26", "28"], "time": [3769, 3905, 3987, 4223, 4964, 5044, 5303, 5361, 5853, 6271, 6853, 7137, 7208, 7289, 7591, 7920, 8308, 8935, 9119]}, "edge": {"target": [], "time": []}}, "mouseout": {"state": {"target": ["30", "31", "23", "0", "0", "12", "13", "14", "13", "24", "23", "0", "23", "24", "26", "24", "23", "0", "23", "24", "25", "26", "28"], "time": [418, 517, 784, 1101, 3836, 3963, 4119, 4935, 4993, 5271, 5338, 5655, 6235, 6332, 7054, 7171, 7267, 7536, 7670, 8086, 8636, 8985, 9385]}, "edge": {"target": [], "time": []}}}, "displayed_time": "19.65", "trialTime": 21547, "trial_type": "mouselab-mdp", "trial_index": 51, "time_elapsed": 1915020, "internal_node_id": "0.0-4.0-1.0-24.0"}}, {"uniqueid": "w97072546:a22784224", "current_trial": 52, "dateTime": 1691163045521, "trialdata": {"revealed_states": [], "clicked_states": [], "num_clicks_accrued": [0, 0, 0, 0, 0, 0, 0, 0, 0, 0, 0, 0, 0], "stateRewards": ["", -2, 4, -5, -12, 85, -24, -18, -15, -78, -22, 26, -1, -1, 2, 14, -45, 52, -23, 7, -33, 24, -6, -2, -4, 5, -7, -16, 36, -39, 5, 71, -87, -23], "withholdReward": false, "trial_id": "mdp_trial_26", "block": "test", "trialIndex": 33, "score": -9, "costs": 0, "simulationMode": [null, null, null, null, null], "rewards": [-1, -1, 2, 14, -23], "path": ["0", "0", "12", "13", "14", "15", "18"], "rt": [4548, 440, 287, 1933, 380], "actions": ["right", "right", "right", "up", "left"], "actionTimes": [6019, 6968, 7763, 10218, 11098], "queries": {"click": {"state": {"target": [], "time": []}, "edge": {"target": [], "time": []}}, "mouseover": {"state": {"target": [], "time": []}, "edge": {"target": [], "time": []}}, "mouseout": {"state": {"target": ["28"], "time": [614]}, "edge": {"target": [], "time": []}}}, "displayed_time": "15.47", "trialTime": 19446, "trial_type": "mouselab-mdp", "trial_index": 52, "time_elapsed": 1935006, "internal_node_id": "0.0-4.0-1.0-25.0"}}, {"uniqueid": "w97072546:a22784224", "current_trial": 53, "dateTime": 1691163065094, "trialdata": {"revealed_states": [], "clicked_states": [], "num_clicks_accrued": [0, 0, 0, 0, 0, 0, 0, 0, 0, 0, 0, 0, 0], "stateRewards": ["", -2, -3, -7, 7, -54, -69, -4, -14, -77, 22, 40, -2, -1, 5, 6, -35, 50, -60, 10, -28, 75, 57, 1, -4, -2, 2, 68, 34, -18, 12, 3, -21, -43], "withholdReward": false, "trial_id": "mdp_trial_27", "block": "test", "trialIndex": 34, "score": 69, "costs": 0, "simulationMode": [null, null, null, null, null], "rewards": [-2, -1, 5, 10, 57], "path": ["0", "0", "12", "13", "14", "19", "22"], "rt": [2131, 327, 351, 1077, 621], "actions": ["right", "right", "right", "down", "left"], "actionTimes": [3563, 4411, 5282, 6887, 8020], "queries": {"click": {"state": {"target": [], "time": []}, "edge": {"target": [], "time": []}}, "mouseover": {"state": {"target": ["13", "12"], "time": [2253, 2318]}, "edge": {"target": [], "time": []}}, "mouseout": {"state": {"target": ["0", "0", "13", "12"], "time": [46, 1856, 2287, 2420]}, "edge": {"target": [], "time": []}}}, "displayed_time": "15.43", "trialTime": 19042, "trial_type": "mouselab-mdp", "trial_index": 53, "time_elapsed": 1954578, "internal_node_id": "0.0-4.0-1.0-26.0"}}, {"uniqueid": "w97072546:a22784224", "current_trial": 54, "dateTime": 1691163084790, "trialdata": {"revealed_states": [], "clicked_states": [], "num_clicks_accrued": [0, 0, 0, 0, 0, 0, 0, 0, 0, 0, 0, 0, 0], "stateRewards": ["", 2, 3, -3, 4, 72, -28, 34, -12, 57, -64, -15, 2, 1, -4, -15, 2, 49, 31, -1, -42, -58, 31, -2, 1, -2, -13, -75, -19, -22, -6, 61, 10, -56], "withholdReward": false, "trial_id": "mdp_trial_28", "block": "test", "trialIndex": 35, "score": -22, "costs": 0, "simulationMode": [null, null, null, null, null], "rewards": [2, 3, -3, 4, -28], "path": ["0", "0", "1", "2", "3", "4", "6"], "rt": [2819, 6, 407, 897, 297], "actions": ["up", "up", "up", "right", "right"], "actionTimes": [4167, 4696, 5649, 7069, 7887], "queries": {"click": {"state": {"target": [], "time": []}, "edge": {"target": [], "time": []}}, "mouseover": {"state": {"target": [], "time": []}, "edge": {"target": [], "time": []}}, "mouseout": {"state": {"target": ["0"], "time": [17419]}, "edge": {"target": [], "time": []}}}, "displayed_time": "15.35", "trialTime": 19153, "trial_type": "mouselab-mdp", "trial_index": 54, "time_elapsed": 1974273, "internal_node_id": "0.0-4.0-1.0-27.0"}}, {"uniqueid": "w97072546:a22784224", "current_trial": 55, "dateTime": 1691163140476, "trialdata": {"revealed_states": [], "clicked_states": [], "num_clicks_accrued": [0, 0, 0, 0, 0, 0, 0, 0, 0, 0, 0, 0, 0], "stateRewards": ["", 2, -3, 5, 11, -79, 54, 11, -9, -78, 33, 22, -2, -1, 2, 14, 43, 34, 1, 10, 49, -65, 39, -1, 1, -1, 3, -16, -2, 11, 2, 12, 48, -65], "withholdReward": false, "trial_id": "mdp_trial_29", "block": "test", "trialIndex": 36, "score": 13, "costs": 0, "simulationMode": [null, null, null, null, null], "rewards": [-1, 1, -1, 2, 12], "path": ["0", "0", "23", "24", "25", "30", "31"], "rt": [3051, 311, 183, 1290, 209], "actions": ["left", "left", "left", "down", "right"], "actionTimes": [5010, 5849, 6564, 8392, 9117], "queries": {"click": {"state": {"target": [], "time": []}, "edge": {"target": [], "time": []}}, "mouseover": {"state": {"target": [], "time": []}, "edge": {"target": [], "time": []}}, "mouseout": {"state": {"target": ["0", "12", "0", "5", "33", "30"], "time": [317, 972, 15228, 53234, 53901, 54191]}, "edge": {"target": [], "time": []}}}, "displayed_time": "15.96", "trialTime": 55180, "trial_type": "mouselab-mdp", "trial_index": 55, "time_elapsed": 2029960, "internal_node_id": "0.0-4.0-1.0-28.0"}}, {"uniqueid": "w97072546:a22784224", "current_trial": 56, "dateTime": 1691163159359, "trialdata": {"revealed_states": [], "clicked_states": [], "num_clicks_accrued": [0, 0, 0, 0, 0, 0, 0, 0, 0, 0, 0, 0, 0], "stateRewards": ["", -2, -3, 4, 1, 33, -53, 15, 9, -12, 61, -6, -2, 4, 6, -11, 47, -43, -7, -11, 46, 23, -28, -1, -1, 3, -10, 11, 76, -76, 10, 18, -38, 87], "withholdReward": false, "trial_id": "mdp_trial_30", "block": "test", "trialIndex": 37, "score": 15, "costs": 0, "simulationMode": [null, null, null, null, null], "rewards": [-2, -3, 4, 1, 15], "path": ["0", "0", "1", "2", "3", "4", "7"], "rt": [2490, 357, 258, 701, 680], "actions": ["up", "up", "up", "right", "down"], "actionTimes": [3932, 4797, 5556, 6781, 7970], "queries": {"click": {"state": {"target": [], "time": []}, "edge": {"target": [], "time": []}}, "mouseover": {"state": {"target": [], "time": []}, "edge": {"target": [], "time": []}}, "mouseout": {"state": {"target": ["24", "23", "0"], "time": [725, 777, 12182]}, "edge": {"target": [], "time": []}}}, "displayed_time": "15.44", "trialTime": 18322, "trial_type": "mouselab-mdp", "trial_index": 56, "time_elapsed": 2048843, "internal_node_id": "0.0-4.0-1.0-29.0"}}, {"uniqueid": "w97072546:a22784224", "current_trial": 57, "dateTime": 1691163184174, "trialdata": {"revealed_states": [], "clicked_states": [], "num_clicks_accrued": [0, 0, 0, 0, 0, 0, 0, 0, 0, 0, 0, 0, 0], "stateRewards": ["", -2, -1, -6, -14, -55, 78, -13, 11, 14, -71, 59, 2, 2, 6, -6, 9, 38, 14, 7, 85, 11, 68, 1, -4, -1, -3, -63, -85, 9, -2, 63, -86, -10], "withholdReward": false, "trial_id": "mdp_trial_31", "block": "test", "trialIndex": 38, "score": 61, "costs": 0, "simulationMode": [null, null, null, null, null], "rewards": [-2, -1, -6, 11, 59], "path": ["0", "0", "1", "2", "3", "8", "11"], "rt": [2875, 222, 317, 674, 46], "actions": ["up", "up", "up", "left", "left"], "actionTimes": [4882, 5660, 6487, 7676, 8233], "queries": {"click": {"state": {"target": [], "time": []}, "edge": {"target": [], "time": []}}, "mouseover": {"state": {"target": [], "time": []}, "edge": {"target": [], "time": []}}, "mouseout": {"state": {"target": ["0"], "time": [1406]}, "edge": {"target": [], "time": []}}}, "displayed_time": "16.01", "trialTime": 24234, "trial_type": "mouselab-mdp", "trial_index": 57, "time_elapsed": 2073658, "internal_node_id": "0.0-4.0-1.0-30.0"}}, {"uniqueid": "w97072546:a22784224", "current_trial": 58, "dateTime": 1691163204789, "trialdata": {"revealed_states": [], "clicked_states": [], "num_clicks_accrued": [0, 0, 0, 0, 0, 0, 0, 0, 0, 0, 0, 0, 0], "stateRewards": ["", -2, 2, 3, -7, 76, 63, 21, 15, 35, -8, -44, 1, 1, -2, -12, 23, 24, 76, -9, 46, 66, -49, -2, -1, 7, 12, 40, -71, -45, -6, 38, -49, 46], "withholdReward": false, "trial_id": "mdp_trial_32", "block": "test", "trialIndex": 39, "score": 12, "costs": 0, "simulationMode": [null, null, null, null, null], "rewards": [1, 1, -2, -12, 24], "path": ["0", "0", "12", "13", "14", "15", "17"], "rt": [6854, 188, 408, 484, 294], "actions": ["right", "right", "right", "up", "right"], "actionTimes": [9808, 10521, 11459, 12451, 13269], "queries": {"click": {"state": {"target": [], "time": []}, "edge": {"target": [], "time": []}}, "mouseover": {"state": {"target": [], "time": []}, "edge": {"target": [], "time": []}}, "mouseout": {"state": {"target": [], "time": []}, "edge": {"target": [], "time": []}}}, "displayed_time": "16.96", "trialTime": 20043, "trial_type": "mouselab-mdp", "trial_index": 58, "time_elapsed": 2094274, "internal_node_id": "0.0-4.0-1.0-31.0"}}, {"uniqueid": "w97072546:a22784224", "current_trial": 59, "dateTime": 1691163228695, "trialdata": {"revealed_states": [], "clicked_states": [], "num_clicks_accrued": [0, 0, 0, 0, 0, 0, 0, 0, 0, 0, 0, 0, 0], "stateRewards": ["", -1, 4, 3, 12, -27, 34, -33, 3, -63, 1, 6, 2, 2, -6, -11, -77, -85, 68, -6, 51, 81, -60, -2, -2, 1, 15, 20, 15, 68, -10, -14, 6, -4], "withholdReward": false, "trial_id": "mdp_trial_33", "block": "test", "trialIndex": 40, "score": -98, "costs": 0, "simulationMode": [null, null, null, null, null], "rewards": [2, 2, -6, -11, -85], "path": ["0", "0", "12", "13", "14", "15", "17"], "rt": [13430, 371, 211, 1246, 94], "actions": ["right", "right", "right", "up", "right"], "actionTimes": [15084, 15971, 16696, 18482, 19084], "queries": {"click": {"state": {"target": [], "time": []}, "edge": {"target": [], "time": []}}, "mouseover": {"state": {"target": [], "time": []}, "edge": {"target": [], "time": []}}, "mouseout": {"state": {"target": [], "time": []}, "edge": {"target": [], "time": []}}}, "displayed_time": "19.60", "trialTime": 23324, "trial_type": "mouselab-mdp", "trial_index": 59, "time_elapsed": 2118180, "internal_node_id": "0.0-4.0-1.0-32.0"}}, {"uniqueid": "w97072546:a22784224", "current_trial": 60, "dateTime": 1691163247411, "trialdata": {"revealed_states": [], "clicked_states": [], "num_clicks_accrued": [0, 0, 0, 0, 0, 0, 0, 0, 0, 0, 0, 0, 0], "stateRewards": ["", -1, -3, -3, 1, -38, 2, -53, -2, -1, -81, 70, -1, 1, -5, -9, 46, 15, 35, -1, -22, 38, 59, -2, 4, -8, 13, 1, -83, -43, 4, 76, 13, 48], "withholdReward": false, "trial_id": "mdp_trial_34", "block": "test", "trialIndex": 41, "score": -44, "costs": 0, "simulationMode": [null, null, null, null, null], "rewards": [-1, -3, -3, 1, -38], "path": ["0", "0", "1", "2", "3", "4", "5"], "rt": [2469, 567, 441, 2699, 1931], "actions": ["up", "up", "up", "right", "up"], "actionTimes": [4513, 5598, 6556, 9763, 12213], "queries": {"click": {"state": {"target": [], "time": []}, "edge": {"target": [], "time": []}}, "mouseover": {"state": {"target": [], "time": []}, "edge": {"target": [], "time": []}}, "mouseout": {"state": {"target": [], "time": []}, "edge": {"target": [], "time": []}}}, "displayed_time": "16.05", "trialTime": 18204, "trial_type": "mouselab-mdp", "trial_index": 60, "time_elapsed": 2136894, "internal_node_id": "0.0-4.0-1.0-33.0"}}, {"uniqueid": "w97072546:a22784224", "current_trial": 61, "dateTime": 1691163274322, "trialdata": {"revealed_states": [], "clicked_states": [], "num_clicks_accrued": [0, 0, 0, 0, 0, 0, 0, 0, 0, 0, 0, 0, 0], "stateRewards": ["", 1, 1, 1, -3, -7, -1, -41, -10, 20, -72, -63, 1, -4, -2, 2, -66, 30, -84, -2, 49, 23, 71, -1, -4, 4, -12, 67, 5, 18, -16, 88, 56, -5], "withholdReward": false, "trial_id": "mdp_trial_35", "block": "test", "trialIndex": 42, "score": 54, "costs": 0, "simulationMode": [null, null, null, null, null], "rewards": [-1, -4, 4, -12, 67], "path": ["0", "0", "23", "24", "25", "26", "27"], "rt": [8051, 190, 199, 1913, 1356], "actions": ["left", "left", "left", "up", "up"], "actionTimes": [12317, 13018, 13734, 16164, 18065], "queries": {"click": {"state": {"target": [], "time": []}, "edge": {"target": [], "time": []}}, "mouseover": {"state": {"target": [], "time": []}, "edge": {"target": [], "time": []}}, "mouseout": {"state": {"target": ["0", "0"], "time": [2332, 21588]}, "edge": {"target": [], "time": []}}}, "displayed_time": "18.59", "trialTime": 26356, "trial_type": "mouselab-mdp", "trial_index": 61, "time_elapsed": 2163806, "internal_node_id": "0.0-4.0-1.0-34.0"}}, {"uniqueid": "w97072546:a22784224", "current_trial": 62, "dateTime": 1691163297484, "trialdata": {"revealed_states": [], "clicked_states": [], "num_clicks_accrued": [0, 0, 0, 0, 0, 0, 0, 0, 0, 0, 0, 0, 0], "stateRewards": ["", -1, -1, 7, -15, -43, -21, -84, -9, -45, -66, 2, 1, -2, 2, 8, -27, 44, -52, -5, -84, 11, 53, 1, 4, -4, 16, 83, -82, -15, -16, 68, -43, 81], "withholdReward": false, "trial_id": "mdp_trial_36", "block": "test", "trialIndex": 43, "score": -2, "costs": 0, "simulationMode": [null, null, null, null, null], "rewards": [-1, -1, 7, -9, 2], "path": ["0", "0", "1", "2", "3", "8", "11"], "rt": [3671, 604, 222, 1088, 91], "actions": ["up", "up", "up", "left", "left"], "actionTimes": [9164, 10288, 11022, 12665, 13275], "queries": {"click": {"state": {"target": [], "time": []}, "edge": {"target": [], "time": []}}, "mouseover": {"state": {"target": [], "time": []}, "edge": {"target": [], "time": []}}, "mouseout": {"state": {"target": ["0"], "time": [4883]}, "edge": {"target": [], "time": []}}}, "displayed_time": "19.50", "trialTime": 22566, "trial_type": "mouselab-mdp", "trial_index": 62, "time_elapsed": 2186968, "internal_node_id": "0.0-4.0-1.0-35.0"}}, {"uniqueid": "w97072546:a22784224", "current_trial": 63, "dateTime": 1691163316816, "trialdata": {"revealed_states": [], "clicked_states": [], "num_clicks_accrued": [0, 0, 0, 0, 0, 0, 0, 0, 0, 0, 0, 0, 0], "stateRewards": ["", -2, -1, -5, 10, -36, -70, 68, -9, 86, 71, -10, 2, -4, 7, -7, 66, 44, -66, -13, -69, 43, 15, -2, 2, 6, -13, 62, 57, 50, -10, -69, 42, -72], "withholdReward": false, "trial_id": "mdp_trial_37", "block": "test", "trialIndex": 44, "score": 38, "costs": 0, "simulationMode": [null, null, null, null, null], "rewards": [-2, 2, 6, -10, 42], "path": ["0", "0", "23", "24", "25", "30", "32"], "rt": [6470, 600, 1172, 1549, 1461], "actions": ["left", "left", "left", "down", "down"], "actionTimes": [8410, 9533, 11213, 13257, 15236], "queries": {"click": {"state": {"target": [], "time": []}, "edge": {"target": [], "time": []}}, "mouseover": {"state": {"target": [], "time": []}, "edge": {"target": [], "time": []}}, "mouseout": {"state": {"target": ["0"], "time": [1614]}, "edge": {"target": [], "time": []}}}, "displayed_time": "15.94", "trialTime": 18707, "trial_type": "mouselab-mdp", "trial_index": 63, "time_elapsed": 2206300, "internal_node_id": "0.0-4.0-1.0-36.0"}}, {"uniqueid": "w97072546:a22784224", "current_trial": 64, "dateTime": 1691163340787, "trialdata": {"revealed_states": [], "clicked_states": [], "num_clicks_accrued": [0, 0, 0, 0, 0, 0, 0, 0, 0, 0, 0, 0, 0], "stateRewards": ["", -2, 3, -1, 2, -72, 63, 20, -1, 62, -66, 39, -2, 3, -6, 14, 22, 47, 1, 8, -49, -1, -41, 2, 2, -6, -16, -64, -60, -34, 16, 54, 22, -7], "withholdReward": false, "trial_id": "mdp_trial_38", "block": "test", "trialIndex": 45, "score": -46, "costs": 0, "simulationMode": [null, null, null, null, null], "rewards": [-2, 3, -6, 8, -49], "path": ["0", "0", "12", "13", "14", "19", "20"], "rt": [7857, 599, 370, 2882, 1006], "actions": ["right", "right", "right", "down", "right"], "actionTimes": [13164, 14283, 15172, 18589, 20089], "queries": {"click": {"state": {"target": [], "time": []}, "edge": {"target": [], "time": []}}, "mouseover": {"state": {"target": ["1", "2"], "time": [8763, 9006]}, "edge": {"target": [], "time": []}}, "mouseout": {"state": {"target": ["0", "1", "2"], "time": [4971, 8952, 10732]}, "edge": {"target": [], "time": []}}}, "displayed_time": "20.60", "trialTime": 23406, "trial_type": "mouselab-mdp", "trial_index": 64, "time_elapsed": 2230271, "internal_node_id": "0.0-4.0-1.0-37.0"}}, {"uniqueid": "w97072546:a22784224", "current_trial": 65, "dateTime": 1691163365958, "trialdata": {"revealed_states": [], "clicked_states": [], "num_clicks_accrued": [0, 0, 0, 0, 0, 0, 0, 0, 0, 0, 0, 0, 0], "stateRewards": ["", 1, 4, 5, -5, 58, -80, 75, 6, 25, -39, 46, 2, -2, 4, 2, 59, 31, -22, -12, -61, 15, 72, 1, -2, -7, 8, 77, 76, -23, -7, 71, -15, -3], "withholdReward": false, "trial_id": "mdp_trial_39", "block": "test", "trialIndex": 46, "score": 76, "costs": 0, "simulationMode": [null, null, null, null, null], "rewards": [1, -2, -7, 8, 76], "path": ["0", "0", "23", "24", "25", "26", "28"], "rt": [3384, 489, 363, 697, 423], "actions": ["left", "left", "left", "up", "right"], "actionTimes": [9552, 10563, 11431, 12655, 13593], "queries": {"click": {"state": {"target": [], "time": []}, "edge": {"target": [], "time": []}}, "mouseover": {"state": {"target": [], "time": []}, "edge": {"target": [], "time": []}}, "mouseout": {"state": {"target": ["5", "24", "23", "0"], "time": [4442, 4506, 5053, 23287]}, "edge": {"target": [], "time": []}}}, "displayed_time": "20.17", "trialTime": 24581, "trial_type": "mouselab-mdp", "trial_index": 65, "time_elapsed": 2255442, "internal_node_id": "0.0-4.0-1.0-38.0"}}, {"uniqueid": "w97072546:a22784224", "current_trial": 66, "dateTime": 1691163388152, "trialdata": {"revealed_states": [], "clicked_states": [], "num_clicks_accrued": [0, 0, 0, 0, 0, 0, 0, 0, 0, 0, 0, 0, 0], "stateRewards": ["", -2, 1, -7, -8, -37, -76, -87, 11, 30, -63, 80, -1, 4, 2, -1, 42, 17, 52, -3, -75, -80, -68, 2, -3, -5, -15, -48, 82, 24, -7, 5, -22, -71], "withholdReward": false, "trial_id": "mdp_trial_40", "block": "test", "trialIndex": 47, "score": -78, "costs": 0, "simulationMode": [null, null, null, null, null], "rewards": [-1, 4, 2, -3, -80], "path": ["0", "0", "12", "13", "14", "19", "21"], "rt": [3293, 862, 805, 1389, 386], "actions": ["right", "right", "right", "down", "down"], "actionTimes": [4983, 6368, 7694, 9591, 10500], "queries": {"click": {"state": {"target": [], "time": []}, "edge": {"target": [], "time": []}}, "mouseover": {"state": {"target": [], "time": []}, "edge": {"target": [], "time": []}}, "mouseout": {"state": {"target": ["0", "0"], "time": [1307, 20124]}, "edge": {"target": [], "time": []}}}, "displayed_time": "15.69", "trialTime": 21597, "trial_type": "mouselab-mdp", "trial_index": 66, "time_elapsed": 2277636, "internal_node_id": "0.0-4.0-1.0-39.0"}}, {"uniqueid": "w97072546:a22784224", "current_trial": 67, "dateTime": 1691163490051, "trialdata": {"rt": 101884, "response": {"Q0": "$-16 to 16", "Q1": "$-32 to $32", "Q2": "$-88 to $88", "Q3": "The cost for clicking on nodes varied between nodes.", "Q4": "Slightly unmotivated"}, "question_order": [0, 1, 2, 3, 4], "trial_id": "final_quiz_control", "trial_type": "survey-multi-choice", "trial_index": 67, "time_elapsed": 2379537, "internal_node_id": "0.0-4.0-2.0"}}, {"uniqueid": "w97072546:a22784224", "current_trial": 68, "dateTime": 1691163694210, "trialdata": {"rt": 204151, "response": {"Q0": "strategy was to use different moves in each game.\n", "Q1": "yes and no because ,when all moves were used ,my moves were getting deducted and i was losing cash", "Q2": "it was very difficult because we have limited moves and time was going fast."}, "trial_id": "self_report_control", "trial_type": "survey-text", "trial_index": 68, "time_elapsed": 2583696, "internal_node_id": "0.0-4.0-3.0"}}, {"uniqueid": "w97072546:a22784224", "current_trial": 69, "dateTime": 1691163723850, "trialdata": {"rt": 29637, "response": {"gender": "female", "age": "29", "colorblind": "0", "effort": "0"}, "trial_type": "survey-html-form", "trial_index": 69, "time_elapsed": 2613336, "internal_node_id": "0.0-4.0-4.0"}}, {"uniqueid": "w97072546:a22784224", "current_trial": 70, "dateTime": 1691163777113, "trialdata": {"rt": 53257, "response": {"Q0": "no everything was clear nm", "Q1": "no this was the first time participating", "Q2": ""}, "trial_type": "survey-text", "trial_index": 70, "time_elapsed": 2666599, "internal_node_id": "0.0-4.0-5.0"}}, {"uniqueid": "w97072546:a22784224", "current_trial": 71, "dateTime": 1691163782010, "trialdata": {"rt": 4892, "stimulus": "Press 'Finish HIT' in order to reach the completion code. Once the data has been saved, you will receive the code either in this window or in the original browser window where you started the experiment.\n", "response": 0, "trial_type": "html-button-response", "trial_index": 71, "time_elapsed": 2671496, "internal_node_id": "0.0-5.0"}}, {"uniqueid": "w97072546:a22784224", "current_trial": 72, "dateTime": 1691163783013, "trialdata": {"success": true, "trial_type": "fullscreen", "trial_index": 72, "time_elapsed": 2672499, "internal_node_id": "0.0-6.0"}}], "questiondata": {"params": {"CODE": "C6DMOQA6", "MIN_TIME": 14, "inspectCost": 1, "startTime": "Fri Aug 04 2023 16:58:25 GMT+0200 (South Africa Standard Time)", "bonusRate": 0.002, "variance": "1_2_4_8_44", "branching": "31123"}, "final_score": 45}, "eventdata": [{"eventtype": "initialized", "value": null, "timestamp": 1691161105136, "interval": 0}, {"eventtype": "window_resize", "value": [1024, 654], "timestamp": 1691161105136, "interval": 0}, {"eventtype": "window_resize", "value": [1024, 654], "timestamp": 1691161105627, "interval": 491}, {"eventtype": "window_resize", "value": [1366, 768], "timestamp": 1691161121257, "interval": 15630}, {"eventtype": "focus", "value": "off", "timestamp": 1691161507671, "interval": 386414}, {"eventtype": "focus", "value": "on", "timestamp": 1691161507672, "interval": 1}, {"eventtype": "window_resize", "value": [1024, 654], "timestamp": 1691161507883, "interval": 211}, {"eventtype": "window_resize", "value": [1366, 768], "timestamp": 1691161520749, "interval": 12866}, {"eventtype": "focus", "value": "off", "timestamp": 1691161742821, "interval": 222072}, {"eventtype": "focus", "value": "on", "timestamp": 1691161742821, "interval": 0}, {"eventtype": "window_resize", "value": [1024, 654], "timestamp": 1691161743032, "interval": 211}, {"eventtype": "window_resize", "value": [1366, 768], "timestamp": 1691161744737, "interval": 1705}, {"eventtype": "focus", "value": "off", "timestamp": 1691162124156, "interval": 379419}, {"eventtype": "focus", "value": "on", "timestamp": 1691162124156, "interval": 0}, {"eventtype": "window_resize", "value": [1024, 654], "timestamp": 1691162124367, "interval": 211}, {"eventtype": "window_resize", "value": [1366, 768], "timestamp": 1691162125873, "interval": 1506}, {"eventtype": "window_resize", "value": [1024, 654], "timestamp": 1691163782256, "interval": 1656383}], "useragent": "Mozilla/5.0 (Windows NT 10.0; Win64; x64) AppleWebKit/537.36 (KHTML, like Gecko) Chrome/115.0.0.0 Safari/537.36", "mode": "live", "id": "w97072546:a22784224", "status": "user data saved", "Beginhit": "2023-08-04 14:58:12.823948", "Beginexp": "2023-08-04 14:58:44.250804", "Endhit": "2023-08-04 15:43:06.229415", "psiturkStatus": 3, "browser": "<redacted>", "platform": "windows", "language": "en-US"}