{"condition": 0, "counterbalance": 0, "assignmentId": "a72486807", "workerId": "w96001217", "hitId": "h61688705", "currenttrial": 55, "bonus": 0, "data": [{"uniqueid": "w96001217:a72486807", "current_trial": 0, "dateTime": 1693565267494, "trialdata": {"success": true, "trial_type": "fullscreen", "trial_index": 0, "time_elapsed": 85619, "internal_node_id": "0.0-0.0"}}, {"uniqueid": "w96001217:a72486807", "current_trial": 1, "dateTime": 1693565315172, "trialdata": {"view_history": [{"page_index": 0, "viewing_time": 47674}], "rt": 47674, "trial_id": "exp_instructions_control", "trial_type": "instructions", "trial_index": 1, "time_elapsed": 133297, "internal_node_id": "0.0-1.0"}}, {"uniqueid": "w96001217:a72486807", "current_trial": 2, "dateTime": 1693565591316, "trialdata": {"view_history": [{"page_index": 0, "viewing_time": 69492}, {"page_index": 1, "viewing_time": 119954}, {"page_index": 2, "viewing_time": 37984}, {"page_index": 3, "viewing_time": 48712}], "rt": 276142, "trial_id": "mouselab_instructions_1_control", "trial_type": "instructions", "trial_index": 2, "time_elapsed": 409441, "internal_node_id": "0.0-2.0-1.0"}}, {"uniqueid": "w96001217:a72486807", "current_trial": 3, "dateTime": 1693565690726, "trialdata": {"revealed_states": [], "clicked_states": [], "num_clicks_accrued": [0, 0, 0, 0, 0, 0, 0, 0, 0, 0, 0, 0, 0], "stateRewards": ["", -10, 10, -10, -10, -10, -10, -10, 10, -10, 10, 10, -10, 10, -10, 10, 10, -10, -10, -10, -10, 10, -10, 10, -10, -10, 10, -10, -10, -10, 10, 10, 10, -10], "withholdReward": false, "trial_id": "practice_1", "block": "test", "trialIndex": 0, "score": 13.5, "costs": 0, "simulationMode": [null, null, null, null, null], "rewards": [-10, 10, -10, 10, 10], "path": ["0", "0", "12", "13", "14", "15", "16"], "rt": [16951, 3757, 2396, 2002, 1405], "actions": ["right", "right", "right", "up", "up"], "actionTimes": [62649, 66917, 69806, 72311, 74229], "queries": {"click": {"state": {"target": [], "time": []}, "edge": {"target": [], "time": []}}, "mouseover": {"state": {"target": ["12"], "time": [58808]}, "edge": {"target": [], "time": []}}, "mouseout": {"state": {"target": ["1", "2", "2", "0", "12"], "time": [37925, 42976, 43142, 45142, 58908]}, "edge": {"target": [], "time": []}}}, "displayed_time": "74.74", "trialTime": 98084, "trial_type": "mouselab-mdp", "trial_index": 3, "time_elapsed": 508850, "internal_node_id": "0.0-2.0-2.0-0.0"}}, {"uniqueid": "w96001217:a72486807", "current_trial": 4, "dateTime": 1693565730266, "trialdata": {"revealed_states": [], "clicked_states": ["12", "1", "23"], "num_clicks_accrued": [0, 0, 0, 0, 0, 0, 0, 0, 0, 0, 0, 0, 0], "stateRewards": ["", -10, 10, 10, 10, 10, 10, 10, -10, 10, -10, 10, 10, -10, -10, 10, 10, -10, 10, -10, 10, -10, -10, 10, -10, 10, 10, 10, -10, -10, -10, 10, -10, 10], "withholdReward": false, "trial_id": "practice_2", "block": "test", "trialIndex": 1, "score": 32, "costs": -1.5, "simulationMode": [null, null, null, null, null], "rewards": [10, -10, 10, 10, 10], "path": ["0", "0", "23", "24", "25", "26", "27"], "rt": [17827, 1944, 1235, 3093, 798], "actions": ["left", "left", "left", "up", "up"], "actionTimes": [27319, 29765, 31507, 35096, 36385], "queries": {"click": {"state": {"target": ["12", "1", "23"], "time": [15905, 18617, 22760]}, "edge": {"target": [], "time": []}}, "mouseover": {"state": {"target": ["0", "12", "1", "2", "23", "0"], "time": [11002, 14768, 17502, 20151, 22485, 24668]}, "edge": {"target": [], "time": []}}, "mouseout": {"state": {"target": ["1", "1", "0", "0", "0", "12", "1", "2", "1", "23", "0"], "time": [4002, 4185, 4269, 7418, 11135, 16752, 18751, 20619, 22286, 24568, 32633]}, "edge": {"target": [], "time": []}}}, "displayed_time": "36.89", "trialTime": 39354, "trial_type": "mouselab-mdp", "trial_index": 4, "time_elapsed": 548390, "internal_node_id": "0.0-2.0-2.0-1.0"}}, {"uniqueid": "w96001217:a72486807", "current_trial": 5, "dateTime": 1693565792140, "trialdata": {"view_history": [{"page_index": 0, "viewing_time": 44720}, {"page_index": 1, "viewing_time": 17152}], "rt": 61873, "trial_id": "mouselab_instructions_2_control", "trial_type": "instructions", "trial_index": 5, "time_elapsed": 610265, "internal_node_id": "0.0-2.0-3.0"}}, {"uniqueid": "w96001217:a72486807", "current_trial": 6, "dateTime": 1693565843949, "trialdata": {"rt": 51805, "response": {"Q0": "The cost for clicking on nodes may vary between nodes.", "Q1": "The better I perform the higher my bonus will be.", "Q2": "No, the amount of cash at each node of the web may be different each time.", "Q3": "To get the highest total score.", "Q4": "Only before moving the spider.", "Q5": "3 seconds"}, "question_order": [0, 1, 2, 3, 4, 5], "correct": {"Q0": "The cost for clicking on nodes may vary between nodes.", "Q1": "The better I perform the higher my bonus will be.", "Q2": "No, the amount of cash at each node of the web may be different each time.", "Q3": "To get the highest total score.", "Q4": "Only before moving the spider.", "Q5": "3 seconds"}, "trial_id": "mouselab_quiz_control", "trial_type": "survey-multi-choice", "trial_index": 6, "time_elapsed": 662074, "internal_node_id": "0.0-2.0-4.0"}}, {"uniqueid": "w96001217:a72486807", "current_trial": 7, "dateTime": 1693565854061, "trialdata": {"rt": 10106, "response": {"Q0": "No"}, "question_order": [0], "trial_id": "repeat_check", "trial_type": "survey-multi-choice", "trial_index": 7, "time_elapsed": 672185, "internal_node_id": "0.0-4.0-0.0"}}, {"uniqueid": "w96001217:a72486807", "current_trial": 8, "dateTime": 1693565876522, "trialdata": {"rt": 22458, "stimulus": "\n<h1> Get ready to start the game! </h1>\n\nThank you for reading the instructions. Get ready start with the 40 rounds of this game.\n<br><br>\nIf you need to take a break, feel free to take one after the end of a round, before continuing to the next one.\n<br><br>\nRemember, the more money the spider gets, the bigger your bonus will be!\n<br><br>\n<div style='text-align: center;'>Press <code>space</code> to begin.</div>\n\n<br><br>\n(If, at any point, the <code>space</code> key does not take you to the next page, click once on the text and try again.)", "response": " ", "trial_id": "mdp_ready", "trial_type": "html-keyboard-response", "trial_index": 8, "time_elapsed": 694647, "internal_node_id": "0.0-6.0-0.0"}}, {"uniqueid": "w96001217:a72486807", "current_trial": 9, "dateTime": 1693565902224, "trialdata": {"revealed_states": [], "clicked_states": ["23", "12"], "num_clicks_accrued": [0, 0, 0, 0, 0, 0, 0, 0, 0, 0, 0, 0, 0], "stateRewards": ["", -2, -2, -3, -6, -15, -11, 41, -12, -63, -76, 2, -2, -3, 8, 9, -36, -2, -18, -16, -32, -85, -17, -2, 1, 5, -16, 82, 35, -88, -1, 80, -82, -20], "withholdReward": false, "trial_id": "mdp_trial_1", "block": "test", "trialIndex": 2, "score": -19.8, "costs": -2.8, "simulationMode": [null, null, null, null, null], "rewards": [-2, -2, -3, -12, 2], "path": ["0", "0", "1", "2", "3", "8", "11"], "rt": [8681, 1036, 1587, 1604, 1812], "actions": ["up", "up", "up", "left", "left"], "actionTimes": [11557, 13096, 15180, 17297, 19606], "queries": {"click": {"state": {"target": ["23", "12"], "time": [4638, 6845]}, "edge": {"target": [], "time": []}}, "mouseover": {"state": {"target": ["23", "23", "12", "12", "1"], "time": [3759, 4059, 5976, 6276, 7776]}, "edge": {"target": [], "time": []}}, "mouseout": {"state": {"target": ["0", "23", "23", "12", "12", "1"], "time": [1443, 3892, 5276, 6026, 7392, 22061]}, "edge": {"target": [], "time": []}}}, "displayed_time": "20.11", "trialTime": 25477, "trial_type": "mouselab-mdp", "trial_index": 9, "time_elapsed": 720349, "internal_node_id": "0.0-6.0-1.0-0.0"}}, {"uniqueid": "w96001217:a72486807", "current_trial": 10, "dateTime": 1693565925307, "trialdata": {"revealed_states": [], "clicked_states": [], "num_clicks_accrued": [0, 0, 0, 0, 0, 0, 0, 0, 0, 0, 0, 0, 0], "stateRewards": ["", 2, -3, -8, 14, -7, -51, 73, 2, 36, 36, -43, -1, 3, -4, 1, 6, 87, -65, 15, 61, -42, -83, -1, 3, -2, -7, 30, -48, 35, 13, 26, 60, 78], "withholdReward": false, "trial_id": "mdp_trial_2", "block": "test", "trialIndex": 3, "score": 23, "costs": 0, "simulationMode": [null, null, null, null, null], "rewards": [-1, 3, -2, -7, 30], "path": ["0", "0", "23", "24", "25", "26", "27"], "rt": [2298, 754, 1766, 1119, 834], "actions": ["left", "left", "left", "up", "up"], "actionTimes": [7107, 8372, 10635, 12255, 13585], "queries": {"click": {"state": {"target": [], "time": []}, "edge": {"target": [], "time": []}}, "mouseover": {"state": {"target": [], "time": []}, "edge": {"target": [], "time": []}}, "mouseout": {"state": {"target": ["1", "0"], "time": [3753, 19003]}, "edge": {"target": [], "time": []}}}, "displayed_time": "18.81", "trialTime": 22851, "trial_type": "mouselab-mdp", "trial_index": 10, "time_elapsed": 743431, "internal_node_id": "0.0-6.0-1.0-1.0"}}, {"uniqueid": "w96001217:a72486807", "current_trial": 11, "dateTime": 1693565948241, "trialdata": {"revealed_states": [], "clicked_states": [], "num_clicks_accrued": [0, 0, 0, 0, 0, 0, 0, 0, 0, 0, 0, 0, 0], "stateRewards": ["", -1, 2, 7, 8, 75, 67, -11, 6, 52, -17, 38, -1, 4, -8, 14, 74, -37, -17, -12, 52, 55, 71, -2, -1, -5, 2, 21, 6, -88, -14, 64, -61, -47], "withholdReward": false, "trial_id": "mdp_trial_3", "block": "test", "trialIndex": 4, "score": 38, "costs": 0, "simulationMode": [null, null, null, null, null], "rewards": [-1, 4, -8, -12, 55], "path": ["0", "0", "12", "13", "14", "19", "21"], "rt": [2944, 1582, 777, 816, 695], "actions": ["right", "right", "right", "down", "down"], "actionTimes": [7924, 10007, 11285, 12605, 13802], "queries": {"click": {"state": {"target": [], "time": []}, "edge": {"target": [], "time": []}}, "mouseover": {"state": {"target": [], "time": []}, "edge": {"target": [], "time": []}}, "mouseout": {"state": {"target": ["0", "0"], "time": [17189, 17572]}, "edge": {"target": [], "time": []}}}, "displayed_time": "18.98", "trialTime": 22741, "trial_type": "mouselab-mdp", "trial_index": 11, "time_elapsed": 766366, "internal_node_id": "0.0-6.0-1.0-2.0"}}, {"uniqueid": "w96001217:a72486807", "current_trial": 12, "dateTime": 1693565970336, "trialdata": {"revealed_states": [], "clicked_states": [], "num_clicks_accrued": [0, 0, 0, 0, 0, 0, 0, 0, 0, 0, 0, 0, 0], "stateRewards": ["", 2, 1, -3, 7, 46, 11, -36, 16, 71, 5, 1, 2, -2, -8, -3, -4, 6, 55, 7, 68, -54, 2, 1, 1, 6, -6, 42, -4, -84, -11, -65, 63, 25], "withholdReward": false, "trial_id": "mdp_trial_4", "block": "test", "trialIndex": 5, "score": -29, "costs": 0, "simulationMode": [null, null, null, null, null], "rewards": [2, 1, -3, 7, -36], "path": ["0", "0", "1", "2", "3", "4", "7"], "rt": [1825, 818, 820, 627, 1577], "actions": ["up", "up", "up", "right", "down"], "actionTimes": [6115, 7447, 8765, 9905, 11990], "queries": {"click": {"state": {"target": [], "time": []}, "edge": {"target": [], "time": []}}, "mouseover": {"state": {"target": [], "time": []}, "edge": {"target": [], "time": []}}, "mouseout": {"state": {"target": ["0"], "time": [13644]}, "edge": {"target": [], "time": []}}}, "displayed_time": "18.29", "trialTime": 21860, "trial_type": "mouselab-mdp", "trial_index": 12, "time_elapsed": 788461, "internal_node_id": "0.0-6.0-1.0-3.0"}}, {"uniqueid": "w96001217:a72486807", "current_trial": 13, "dateTime": 1693565989445, "trialdata": {"revealed_states": [], "clicked_states": [], "num_clicks_accrued": [0, 0, 0, 0, 0, 0, 0, 0, 0, 0, 0, 0, 0], "stateRewards": ["", 2, -2, -3, 10, -4, -1, -11, -8, -9, -36, -78, 2, 1, 7, -7, 44, -1, -31, -1, 26, 47, 83, 2, -4, -4, -6, -52, -76, -81, -1, -59, 45, 67], "withholdReward": false, "trial_id": "mdp_trial_5", "block": "test", "trialIndex": 6, "score": 56, "costs": 0, "simulationMode": [null, null, null, null, null], "rewards": [2, 1, 7, -1, 47], "path": ["0", "0", "12", "13", "14", "19", "21"], "rt": [1156, 1006, 634, 834, 743], "actions": ["right", "right", "right", "down", "down"], "actionTimes": [4719, 6245, 7390, 8739, 9998], "queries": {"click": {"state": {"target": [], "time": []}, "edge": {"target": [], "time": []}}, "mouseover": {"state": {"target": [], "time": []}, "edge": {"target": [], "time": []}}, "mouseout": {"state": {"target": ["0"], "time": [11754]}, "edge": {"target": [], "time": []}}}, "displayed_time": "17.56", "trialTime": 18880, "trial_type": "mouselab-mdp", "trial_index": 13, "time_elapsed": 807570, "internal_node_id": "0.0-6.0-1.0-4.0"}}, {"uniqueid": "w96001217:a72486807", "current_trial": 14, "dateTime": 1693566008127, "trialdata": {"revealed_states": [], "clicked_states": [], "num_clicks_accrued": [0, 0, 0, 0, 0, 0, 0, 0, 0, 0, 0, 0, 0], "stateRewards": ["", -1, 3, -7, 16, -32, -74, -48, 2, 10, 15, -30, 1, 1, -2, 10, 12, -83, 67, 13, -66, 47, 65, -2, 4, 2, -14, -8, -57, 24, 9, 65, 12, 46], "withholdReward": false, "trial_id": "mdp_trial_6", "block": "test", "trialIndex": 7, "score": 25, "costs": 0, "simulationMode": [null, null, null, null, null], "rewards": [-2, 4, 2, 9, 12], "path": ["0", "0", "23", "24", "25", "30", "32"], "rt": [1855, 1085, 501, 653, 555], "actions": ["left", "left", "left", "down", "down"], "actionTimes": [4883, 6484, 7500, 8669, 9738], "queries": {"click": {"state": {"target": [], "time": []}, "edge": {"target": [], "time": []}}, "mouseover": {"state": {"target": [], "time": []}, "edge": {"target": [], "time": []}}, "mouseout": {"state": {"target": ["0", "0"], "time": [2162, 12859]}, "edge": {"target": [], "time": []}}}, "displayed_time": "17.03", "trialTime": 18273, "trial_type": "mouselab-mdp", "trial_index": 14, "time_elapsed": 826251, "internal_node_id": "0.0-6.0-1.0-5.0"}}, {"uniqueid": "w96001217:a72486807", "current_trial": 15, "dateTime": 1693566032870, "trialdata": {"revealed_states": [], "clicked_states": [], "num_clicks_accrued": [0, 0, 0, 0, 0, 0, 0, 0, 0, 0, 0, 0, 0], "stateRewards": ["", -1, -4, -1, -5, -28, -23, -15, -15, -38, 59, -87, 2, 2, -5, 9, -55, -39, -71, -6, 85, -85, -11, -1, -2, 5, -10, 1, 25, 41, -4, 69, -35, 86], "withholdReward": false, "trial_id": "mdp_trial_7", "block": "test", "trialIndex": 8, "score": -59, "costs": 0, "simulationMode": [null, null, null, null, null], "rewards": [-1, -4, -1, -15, -38], "path": ["0", "0", "1", "2", "3", "8", "9"], "rt": [1665, 312, 371, 1257, 315], "actions": ["up", "up", "up", "left", "up"], "actionTimes": [8945, 9755, 10647, 12417, 13240], "queries": {"click": {"state": {"target": [], "time": []}, "edge": {"target": [], "time": []}}, "mouseover": {"state": {"target": [], "time": []}, "edge": {"target": [], "time": []}}, "mouseout": {"state": {"target": ["0", "0", "0"], "time": [207, 5920, 14475]}, "edge": {"target": [], "time": []}}}, "displayed_time": "21.28", "trialTime": 24462, "trial_type": "mouselab-mdp", "trial_index": 15, "time_elapsed": 850995, "internal_node_id": "0.0-6.0-1.0-6.0"}}, {"uniqueid": "w96001217:a72486807", "current_trial": 16, "dateTime": 1693566054851, "trialdata": {"revealed_states": [], "clicked_states": [], "num_clicks_accrued": [0, 0, 0, 0, 0, 0, 0, 0, 0, 0, 0, 0, 0], "stateRewards": ["", 2, -1, 3, -12, -83, 6, -33, 9, 28, 24, -50, -2, -1, -2, -5, -87, 37, 82, 12, 80, -5, 10, -2, -3, -6, 9, 22, -1, 16, 9, 77, -62, 58], "withholdReward": false, "trial_id": "mdp_trial_8", "block": "test", "trialIndex": 9, "score": 2, "costs": 0, "simulationMode": [null, null, null, null, null], "rewards": [-2, -1, -2, 12, -5], "path": ["0", "0", "12", "13", "14", "19", "21"], "rt": [1892, 384, 688, 662, 285], "actions": ["right", "right", "right", "down", "down"], "actionTimes": [5217, 6109, 7311, 8502, 9293], "queries": {"click": {"state": {"target": [], "time": []}, "edge": {"target": [], "time": []}}, "mouseover": {"state": {"target": [], "time": []}, "edge": {"target": [], "time": []}}, "mouseout": {"state": {"target": ["0", "0", "0", "0"], "time": [775, 5505, 9188, 10406]}, "edge": {"target": [], "time": []}}}, "displayed_time": "17.33", "trialTime": 21708, "trial_type": "mouselab-mdp", "trial_index": 16, "time_elapsed": 872976, "internal_node_id": "0.0-6.0-1.0-7.0"}}, {"uniqueid": "w96001217:a72486807", "current_trial": 17, "dateTime": 1693566075345, "trialdata": {"revealed_states": [], "clicked_states": [], "num_clicks_accrued": [0, 0, 0, 0, 0, 0, 0, 0, 0, 0, 0, 0, 0], "stateRewards": ["", -2, -3, 1, -7, 39, -67, 16, 5, -20, 73, 66, -1, 4, 5, -3, 23, -68, -87, -8, 3, -3, 17, 1, -4, -2, -13, -32, 34, 61, -5, -11, -18, 12], "withholdReward": false, "trial_id": "mdp_trial_9", "block": "test", "trialIndex": 10, "score": -28, "costs": 0, "simulationMode": [null, null, null, null, null], "rewards": [1, -4, -2, -5, -18], "path": ["0", "0", "23", "24", "25", "30", "32"], "rt": [1663, 142, 112, 395, 344], "actions": ["left", "left", "left", "down", "down"], "actionTimes": [6642, 7305, 7909, 8825, 9672], "queries": {"click": {"state": {"target": [], "time": []}, "edge": {"target": [], "time": []}}, "mouseover": {"state": {"target": [], "time": []}, "edge": {"target": [], "time": []}}, "mouseout": {"state": {"target": ["0", "0"], "time": [4273, 12061]}, "edge": {"target": [], "time": []}}}, "displayed_time": "18.98", "trialTime": 20258, "trial_type": "mouselab-mdp", "trial_index": 17, "time_elapsed": 893470, "internal_node_id": "0.0-6.0-1.0-8.0"}}, {"uniqueid": "w96001217:a72486807", "current_trial": 18, "dateTime": 1693566096233, "trialdata": {"revealed_states": [], "clicked_states": ["1", "23", "12"], "num_clicks_accrued": [0, 0, 0, 0, 0, 0, 0, 0, 0, 0, 0, 0, 0], "stateRewards": ["", 2, -4, 4, 9, 69, 9, -75, 12, -86, 66, 25, -1, 3, 2, -13, -88, -3, 1, 4, -69, 49, -84, 2, -1, 4, 2, -18, -81, -52, -15, -69, -54, 25], "withholdReward": false, "trial_id": "mdp_trial_10", "block": "test", "trialIndex": 11, "score": -15.2, "costs": -4.199999999999999, "simulationMode": [null, null, null, null, null], "rewards": [2, -1, 4, 2, -18], "path": ["0", "0", "23", "24", "25", "26", "27"], "rt": [9320, 169, 257, 717, 239], "actions": ["left", "left", "left", "up", "up"], "actionTimes": [11602, 12289, 13043, 14270, 15008], "queries": {"click": {"state": {"target": ["1", "23", "12"], "time": [4487, 6294, 9381]}, "edge": {"target": [], "time": []}}, "mouseover": {"state": {"target": ["1", "1", "23", "24", "23", "12"], "time": [3936, 4135, 5518, 5702, 6002, 7202]}, "edge": {"target": [], "time": []}}, "mouseout": {"state": {"target": ["0", "1", "1", "23", "24", "23"], "time": [3554, 4018, 5285, 5686, 5868, 7102]}, "edge": {"target": [], "time": []}}}, "displayed_time": "16.28", "trialTime": 20638, "trial_type": "mouselab-mdp", "trial_index": 18, "time_elapsed": 914358, "internal_node_id": "0.0-6.0-1.0-9.0"}}, {"uniqueid": "w96001217:a72486807", "current_trial": 19, "dateTime": 1693566118655, "trialdata": {"revealed_states": [], "clicked_states": ["3", "11", "6"], "num_clicks_accrued": [0, 0, 0, 0, 0, 0, 0, 0, 0, 0, 0, 0, 0], "stateRewards": ["", 1, 2, 3, 16, 63, -25, 16, -4, -14, 82, -66, -1, -3, -3, -11, -14, 19, 46, 3, -34, -82, 66, -2, -3, 4, -5, -63, 77, -37, -1, -45, -41, 84], "withholdReward": false, "trial_id": "mdp_trial_11", "block": "test", "trialIndex": 12, "score": 80.8, "costs": -4.199999999999999, "simulationMode": [null, null, null, null, null], "rewards": [1, 2, 3, 16, 63], "path": ["0", "0", "1", "2", "3", "4", "5"], "rt": [11839, 673, 226, 958, 757], "actions": ["up", "up", "up", "right", "up"], "actionTimes": [13524, 14697, 15433, 16903, 18198], "queries": {"click": {"state": {"target": ["3", "11", "6"], "time": [3360, 7415, 10743]}, "edge": {"target": [], "time": []}}, "mouseover": {"state": {"target": ["1", "3", "2", "11", "9", "8", "11", "8", "4", "6"], "time": [2273, 2856, 5707, 6090, 6540, 6906, 7089, 9006, 10140, 10473]}, "edge": {"target": [], "time": []}}, "mouseout": {"state": {"target": ["1", "3", "2", "11", "9", "8", "11", "8", "4", "6"], "time": [2540, 4506, 5772, 6273, 6890, 7022, 8990, 9022, 10173, 10862]}, "edge": {"target": [], "time": []}}}, "displayed_time": "18.71", "trialTime": 22182, "trial_type": "mouselab-mdp", "trial_index": 19, "time_elapsed": 936780, "internal_node_id": "0.0-6.0-1.0-10.0"}}, {"uniqueid": "w96001217:a72486807", "current_trial": 20, "dateTime": 1693566141787, "trialdata": {"revealed_states": [], "clicked_states": ["21", "32", "27"], "num_clicks_accrued": [0, 0, 0, 0, 0, 0, 0, 0, 0, 0, 0, 0, 0], "stateRewards": ["", -1, -2, 8, -6, -79, -6, 87, 9, -5, -66, -38, 2, 2, 5, -6, -82, 74, 85, -8, 67, -30, -15, 1, -2, -2, -2, 87, 64, 49, 7, 2, -38, -9], "withholdReward": false, "trial_id": "mdp_trial_12", "block": "test", "trialIndex": 13, "score": 77.8, "costs": -4.199999999999999, "simulationMode": [null, null, null, null, null], "rewards": [1, -2, -2, -2, 87], "path": ["0", "0", "23", "24", "25", "26", "27"], "rt": [11795, 316, 432, 692, 266], "actions": ["left", "left", "left", "up", "up"], "actionTimes": [15690, 16497, 17428, 18621, 19396], "queries": {"click": {"state": {"target": ["21", "32", "27"], "time": [6180, 9523, 12219]}, "edge": {"target": [], "time": []}}, "mouseover": {"state": {"target": ["12", "13", "14", "19", "21", "24", "30", "32", "30", "25", "26", "27", "11", "10"], "time": [4477, 4778, 5128, 5530, 5894, 8545, 8861, 9228, 10478, 11561, 11744, 11899, 13812, 14529]}, "edge": {"target": [], "time": []}}, "mouseout": {"state": {"target": ["6", "6", "7", "23", "0", "12", "13", "14", "19", "21", "24", "30", "32", "30", "25", "26", "27", "11", "10"], "time": [482, 1161, 1294, 1845, 4428, 4611, 4994, 5460, 5728, 6323, 8789, 9144, 9660, 11510, 11660, 11778, 13494, 13922, 14594]}, "edge": {"target": [], "time": []}}}, "displayed_time": "19.89", "trialTime": 22870, "trial_type": "mouselab-mdp", "trial_index": 20, "time_elapsed": 959911, "internal_node_id": "0.0-6.0-1.0-11.0"}}, {"uniqueid": "w96001217:a72486807", "current_trial": 21, "dateTime": 1693566161009, "trialdata": {"revealed_states": [], "clicked_states": ["16", "17", "20"], "num_clicks_accrued": [0, 0, 0, 0, 0, 0, 0, 0, 0, 0, 0, 0, 0], "stateRewards": ["", -1, -3, 3, 5, 56, 39, 50, -1, -80, 33, -46, 1, -2, -6, -8, 87, 48, 54, -11, -20, -64, -54, -2, 3, -7, -3, 12, 88, 35, -16, -46, -70, -3], "withholdReward": false, "trial_id": "mdp_trial_13", "block": "test", "trialIndex": 14, "score": 67.8, "costs": -4.199999999999999, "simulationMode": [null, null, null, null, null], "rewards": [1, -2, -6, -8, 87], "path": ["0", "0", "12", "13", "14", "15", "16"], "rt": [10487, 254, 246, 1893, 242], "actions": ["right", "right", "right", "up", "up"], "actionTimes": [11689, 12451, 13193, 15606, 16356], "queries": {"click": {"state": {"target": ["16", "17", "20"], "time": [3980, 6418, 8585]}, "edge": {"target": [], "time": []}}, "mouseover": {"state": {"target": ["28", "29", "26", "16", "17", "20", "19"], "time": [2380, 2597, 3279, 3647, 5013, 7411, 10579]}, "edge": {"target": [], "time": []}}, "mouseout": {"state": {"target": ["0", "0", "28", "29", "26", "16", "17", "20", "19", "22"], "time": [512, 711, 2412, 3246, 3296, 4663, 7047, 10545, 17662, 17695]}, "edge": {"target": [], "time": []}}}, "displayed_time": "16.85", "trialTime": 18994, "trial_type": "mouselab-mdp", "trial_index": 21, "time_elapsed": 979134, "internal_node_id": "0.0-6.0-1.0-12.0"}}, {"uniqueid": "w96001217:a72486807", "current_trial": 22, "dateTime": 1693566189318, "trialdata": {"revealed_states": [], "clicked_states": ["9", "5", "7", "10", "29", "33"], "num_clicks_accrued": [0, 0, 0, 0, 0, 0, 0, 0, 0, 0, 0, 0, 0], "stateRewards": ["", -1, -3, -5, -14, -13, -47, 79, 8, -60, -64, 41, -1, 2, 3, 13, -46, 61, -79, -11, -64, -65, 23, 1, -2, 6, -14, 46, 32, 21, 7, 75, -66, 15], "withholdReward": false, "trial_id": "mdp_trial_14", "block": "test", "trialIndex": 15, "score": 47.6, "costs": -8.4, "simulationMode": [null, null, null, null, null], "rewards": [-1, -3, -5, -14, 79], "path": ["0", "0", "1", "2", "3", "4", "7"], "rt": [17198, 238, 212, 328, 143], "actions": ["up", "up", "up", "right", "down"], "actionTimes": [22714, 23443, 24183, 25016, 25680], "queries": {"click": {"state": {"target": ["9", "5", "7", "10", "29", "33"], "time": [7281, 10385, 12353, 14562, 17210, 19282]}, "edge": {"target": [], "time": []}}, "mouseover": {"state": {"target": ["1", "9", "5", "4", "7", "2", "10", "26", "29", "33", "30", "28", "10"], "time": [6103, 6670, 8554, 11219, 11536, 12969, 13536, 15836, 16353, 17936, 20003, 21402, 21435]}, "edge": {"target": [], "time": []}}, "mouseout": {"state": {"target": ["0", "1", "9", "5", "4", "7", "2", "10", "26", "29", "33", "30", "28", "10", "2"], "time": [2287, 6186, 8103, 11086, 11370, 12919, 12985, 15453, 16036, 17620, 19860, 21352, 21420, 21468, 26519]}, "edge": {"target": [], "time": []}}}, "displayed_time": "26.19", "trialTime": 28095, "trial_type": "mouselab-mdp", "trial_index": 22, "time_elapsed": 1007443, "internal_node_id": "0.0-6.0-1.0-13.0"}}, {"uniqueid": "w96001217:a72486807", "current_trial": 23, "dateTime": 1693566232241, "trialdata": {"revealed_states": [], "clicked_states": ["29", "33", "32", "27", "9", "11", "10", "1", "5", "7", "6", "16", "21", "20"], "num_clicks_accrued": [0, 0, 0, 0, 0, 0, 0, 0, 0, 0, 0, 0, 0], "stateRewards": ["", -2, 1, -3, -16, -39, -52, 30, -7, -41, -59, 11, 2, 1, 8, 2, -11, -26, -42, -13, 87, -59, -48, -1, -1, -1, 16, -79, 31, 50, -1, -84, 34, -82], "withholdReward": false, "trial_id": "mdp_trial_15", "block": "test", "trialIndex": 16, "score": 65.4, "costs": -19.599999999999998, "simulationMode": [null, null, null, null, null], "rewards": [2, 1, 8, -13, 87], "path": ["0", "0", "12", "13", "14", "19", "20"], "rt": [32530, 544, 148, 272, 244], "actions": ["right", "right", "right", "down", "right"], "actionTimes": [37099, 38163, 38802, 39608, 40363], "queries": {"click": {"state": {"target": ["29", "33", "32", "27", "9", "11", "10", "1", "5", "7", "6", "16", "21", "20"], "time": [6532, 8717, 11156, 13108, 14964, 16957, 19556, 21476, 23782, 25591, 27623, 29548, 31925, 34269]}, "edge": {"target": [], "time": []}}, "mouseover": {"state": {"target": ["16", "1", "28", "26", "29", "33", "30", "32", "30", "25", "27", "11", "9", "11", "10", "1", "2", "4", "5", "4", "7", "6", "16", "15", "14", "19", "21", "20"], "time": [5586, 5737, 5853, 5919, 6137, 7120, 9186, 9402, 11552, 11619, 11902, 13520, 13752, 15237, 17452, 20169, 22004, 23331, 23453, 24203, 24424, 26469, 28787, 29952, 30085, 30202, 30555, 33851]}, "edge": {"target": [], "time": []}}, "mouseout": {"state": {"target": ["2", "1", "16", "1", "28", "26", "29", "33", "30", "32", "30", "25", "27", "11", "9", "11", "10", "1", "2", "4", "5", "4", "7", "6", "16", "15", "14", "19", "21", "20", "19"], "time": [2554, 3452, 5643, 5770, 5903, 5953, 6870, 9137, 9203, 11486, 11603, 11636, 13435, 13587, 15186, 17269, 19952, 21886, 22036, 23402, 24136, 24354, 25936, 28285, 29885, 30035, 30135, 30286, 32070, 41418, 41467]}, "edge": {"target": [], "time": []}}}, "displayed_time": "40.85", "trialTime": 42668, "trial_type": "mouselab-mdp", "trial_index": 23, "time_elapsed": 1050365, "internal_node_id": "0.0-6.0-1.0-14.0"}}, {"uniqueid": "w96001217:a72486807", "current_trial": 24, "dateTime": 1693566254094, "trialdata": {"revealed_states": [], "clicked_states": ["20", "17", "16"], "num_clicks_accrued": [0, 0, 0, 0, 0, 0, 0, 0, 0, 0, 0, 0, 0], "stateRewards": ["", -1, 3, 1, -7, 56, 76, 57, 3, 11, -9, 14, 1, -2, 2, 8, -77, -3, 79, -5, 88, 24, -66, -2, -1, 7, -7, -30, 14, -76, 11, -36, 28, -6], "withholdReward": false, "trial_id": "mdp_trial_16", "block": "test", "trialIndex": 17, "score": 79.8, "costs": -4.199999999999999, "simulationMode": [null, null, null, null, null], "rewards": [1, -2, 2, -5, 88], "path": ["0", "0", "12", "13", "14", "19", "20"], "rt": [10226, 123, 289, 1144, 358], "actions": ["right", "right", "right", "down", "right"], "actionTimes": [14310, 14949, 15748, 17387, 18235], "queries": {"click": {"state": {"target": ["20", "17", "16"], "time": [6520, 9320, 11888]}, "edge": {"target": [], "time": []}}, "mouseover": {"state": {"target": ["12", "13", "14", "20", "17", "15", "16", "15", "19", "21"], "time": [5125, 5208, 5375, 6075, 8493, 11308, 11574, 12291, 12459, 12641]}, "edge": {"target": [], "time": []}}, "mouseout": {"state": {"target": ["18", "0", "12", "13", "14", "20", "17", "15", "16", "15", "19", "21"], "time": [3175, 4774, 5191, 5241, 5542, 7192, 11291, 11492, 12258, 12325, 12525, 20191]}, "edge": {"target": [], "time": []}}}, "displayed_time": "18.74", "trialTime": 21643, "trial_type": "mouselab-mdp", "trial_index": 24, "time_elapsed": 1072218, "internal_node_id": "0.0-6.0-1.0-15.0"}}, {"uniqueid": "w96001217:a72486807", "current_trial": 25, "dateTime": 1693566278333, "trialdata": {"revealed_states": [], "clicked_states": ["20", "21", "16", "27", "29"], "num_clicks_accrued": [0, 0, 0, 0, 0, 0, 0, 0, 0, 0, 0, 0, 0], "stateRewards": ["", 2, 3, 6, -12, -29, 12, 87, 4, 35, -30, 67, 2, 3, -5, -9, 44, 69, -8, 1, 45, -8, 28, -2, -1, -8, 11, -12, -5, 81, 9, 87, 82, 88], "withholdReward": false, "trial_id": "mdp_trial_17", "block": "test", "trialIndex": 18, "score": 74, "costs": -7, "simulationMode": [null, null, null, null, null], "rewards": [-2, -1, -8, 11, 81], "path": ["0", "0", "23", "24", "25", "26", "29"], "rt": [13828, 193, 139, 402, 85], "actions": ["left", "left", "left", "up", "left"], "actionTimes": [19167, 19872, 20518, 21431, 22030], "queries": {"click": {"state": {"target": ["20", "21", "16", "27", "29"], "time": [6585, 8825, 11347, 13594, 15946]}, "edge": {"target": [], "time": []}}, "mouseover": {"state": {"target": ["12", "13", "20", "21", "19", "14", "15", "16", "27", "29", "33"], "time": [5711, 5794, 6327, 8401, 9911, 10244, 10543, 11043, 12212, 15610, 16727]}, "edge": {"target": [], "time": []}}, "mouseout": {"state": {"target": ["0", "12", "13", "20", "21", "19", "14", "15", "16", "27", "29", "33", "33", "30", "31"], "time": [5624, 5760, 5862, 6660, 8895, 10128, 10460, 10894, 11743, 15427, 16527, 22017, 22693, 22760, 22926]}, "edge": {"target": [], "time": []}}}, "displayed_time": "22.55", "trialTime": 24021, "trial_type": "mouselab-mdp", "trial_index": 25, "time_elapsed": 1096457, "internal_node_id": "0.0-6.0-1.0-16.0"}}, {"uniqueid": "w96001217:a72486807", "current_trial": 26, "dateTime": 1693566304589, "trialdata": {"revealed_states": [], "clicked_states": ["29", "33", "32", "10", "2", "7"], "num_clicks_accrued": [0, 0, 0, 0, 0, 0, 0, 0, 0, 0, 0, 0, 0], "stateRewards": ["", -1, 1, -2, 5, 73, 15, 61, 8, 7, 38, 76, 2, 2, -4, -6, -6, -26, 43, -5, -45, -85, -35, -2, 1, -4, 15, -10, 69, 72, -11, 84, -49, -38], "withholdReward": false, "trial_id": "mdp_trial_18", "block": "test", "trialIndex": 19, "score": 73.6, "costs": -8.4, "simulationMode": [null, null, null, null, null], "rewards": [-2, 1, -4, 15, 72], "path": ["0", "0", "23", "24", "25", "26", "29"], "rt": [15378, 200, 130, 400, 22], "actions": ["left", "left", "left", "up", "left"], "actionTimes": [20353, 21069, 21698, 22602, 23157], "queries": {"click": {"state": {"target": ["29", "33", "32", "10", "2", "7"], "time": [6385, 8448, 10528, 13088, 15537, 17680]}, "edge": {"target": [], "time": []}}, "mouseover": {"state": {"target": ["23", "26", "29", "29", "33", "32", "32", "30", "28", "10", "2", "7"], "time": [5501, 5735, 5818, 6117, 7169, 8935, 9302, 12517, 12617, 12735, 15151, 17433]}, "edge": {"target": [], "time": []}}, "mouseout": {"state": {"target": ["0", "0", "23", "26", "29", "29", "33", "32", "32", "30", "28", "10", "2", "7", "12"], "time": [623, 5485, 5534, 5784, 5901, 6835, 8868, 9101, 11118, 12534, 12668, 15084, 17367, 22167, 25722]}, "edge": {"target": [], "time": []}}}, "displayed_time": "23.67", "trialTime": 26053, "trial_type": "mouselab-mdp", "trial_index": 26, "time_elapsed": 1122714, "internal_node_id": "0.0-6.0-1.0-17.0"}}, {"uniqueid": "w96001217:a72486807", "current_trial": 27, "dateTime": 1693566339234, "trialdata": {"revealed_states": [], "clicked_states": ["29", "27", "33", "5", "6", "11", "9", "10", "20"], "num_clicks_accrued": [0, 0, 0, 0, 0, 0, 0, 0, 0, 0, 0, 0, 0], "stateRewards": ["", 1, 4, 7, -16, -84, -6, -46, -12, -7, -49, -26, -1, 2, -4, 2, 22, 37, -64, 1, 88, -13, -10, 1, -4, -2, 5, 2, -10, -34, 9, 66, 55, 38], "withholdReward": false, "trial_id": "mdp_trial_19", "block": "test", "trialIndex": 20, "score": 73.4, "costs": -12.600000000000001, "simulationMode": [null, null, null, null, null], "rewards": [-1, 2, -4, 1, 88], "path": ["0", "0", "12", "13", "14", "19", "20"], "rt": [23172, 137, 120, 944, 584], "actions": ["right", "right", "right", "down", "right"], "actionTimes": [28028, 28700, 29333, 30789, 31881], "queries": {"click": {"state": {"target": ["29", "27", "33", "5", "6", "11", "9", "10", "20"], "time": [6159, 8183, 10359, 13928, 16648, 19248, 21345, 23407, 25488]}, "edge": {"target": [], "time": []}}, "mouseover": {"state": {"target": ["28", "26", "29", "27", "30", "33", "32", "32", "31", "23", "1", "7", "5", "6", "6", "4", "3", "8", "11", "11", "9", "8", "10", "2", "7", "15", "17", "20"], "time": [5462, 5629, 5829, 7079, 9212, 9395, 11312, 12495, 12878, 12945, 12979, 13029, 13630, 15829, 16146, 18478, 18545, 18662, 18729, 18996, 21013, 21712, 21912, 24062, 24096, 24262, 24495, 25095]}, "edge": {"target": [], "time": []}}, "mouseout": {"state": {"target": ["28", "26", "29", "27", "30", "33", "32", "32", "31", "23", "1", "7", "5", "6", "6", "4", "3", "8", "11", "11", "9", "8", "10", "2", "7", "15", "17", "20", "15", "16"], "time": [5513, 5712, 6845, 8762, 9311, 10796, 12245, 12846, 12912, 12962, 12996, 13095, 15596, 15945, 18412, 18512, 18612, 18695, 18796, 20445, 21662, 21813, 24046, 24080, 24128, 24379, 24812, 28478, 33311, 33396]}, "edge": {"target": [], "time": []}}}, "displayed_time": "32.38", "trialTime": 34376, "trial_type": "mouselab-mdp", "trial_index": 27, "time_elapsed": 1157358, "internal_node_id": "0.0-6.0-1.0-18.0"}}, {"uniqueid": "w96001217:a72486807", "current_trial": 28, "dateTime": 1693566463919, "trialdata": {"revealed_states": [], "clicked_states": ["9", "5", "20", "21", "16"], "num_clicks_accrued": [0, 0, 0, 0, 0, 0, 0, 0, 0, 0, 0, 0, 0], "stateRewards": ["", 1, 2, 2, -15, -84, 28, -26, 13, 31, 86, 30, -2, 1, -1, -8, 66, -40, -1, -10, -32, 57, -17, 1, 2, -2, 9, -23, 77, 85, 12, -32, -62, -35], "withholdReward": false, "trial_id": "mdp_trial_20", "block": "test", "trialIndex": 21, "score": 49, "costs": -7, "simulationMode": [null, null, null, null, null], "rewards": [-2, 1, -1, -8, 66], "path": ["0", "0", "12", "13", "14", "15", "16"], "rt": [14547, 185, 240, 696, 14], "actions": ["right", "right", "right", "up", "up"], "actionTimes": [111736, 112439, 113193, 114400, 114934], "queries": {"click": {"state": {"target": ["9", "5", "20", "21", "16"], "time": [98748, 100691, 103237, 105187, 108158]}, "edge": {"target": [], "time": []}}, "mouseover": {"state": {"target": ["1", "2", "3", "3", "9", "5", "4", "17", "20", "21", "19", "14", "15", "16", "16"], "time": [97869, 97970, 98036, 98086, 98474, 99321, 101104, 102520, 102886, 104286, 107235, 107435, 107502, 107602, 107869]}, "edge": {"target": [], "time": []}}, "mouseout": {"state": {"target": ["18", "0", "0", "1", "2", "3", "3", "9", "5", "4", "17", "20", "21", "19", "14", "15", "16", "16", "15"], "time": [95386, 95819, 96085, 97937, 98002, 98052, 98121, 99069, 101070, 101137, 102653, 103919, 107130, 107418, 107452, 107569, 107703, 109969, 123369]}, "edge": {"target": [], "time": []}}}, "displayed_time": "115.45", "trialTime": 124458, "trial_type": "mouselab-mdp", "trial_index": 28, "time_elapsed": 1282043, "internal_node_id": "0.0-6.0-1.0-19.0"}}, {"uniqueid": "w96001217:a72486807", "current_trial": 29, "dateTime": 1693566497054, "trialdata": {"revealed_states": [], "clicked_states": ["16", "27", "29", "33", "32", "9", "20", "11"], "num_clicks_accrued": [0, 0, 0, 0, 0, 0, 0, 0, 0, 0, 0, 0, 0], "stateRewards": ["", 2, 3, 3, 10, 19, -21, 6, 9, 54, 68, 16, 2, 2, -6, -8, 40, -2, -75, -2, -42, 55, 59, -1, 2, 4, -14, 11, -34, -30, -6, 61, -53, 13], "withholdReward": false, "trial_id": "mdp_trial_21", "block": "test", "trialIndex": 22, "score": 59.8, "costs": -11.200000000000001, "simulationMode": [null, null, null, null, null], "rewards": [2, 3, 3, 9, 54], "path": ["0", "0", "1", "2", "3", "8", "9"], "rt": [20414, 333, 131, 496, 766], "actions": ["up", "up", "up", "left", "up"], "actionTimes": [22400, 23246, 23892, 24908, 26194], "queries": {"click": {"state": {"target": ["16", "27", "29", "33", "32", "9", "20", "11"], "time": [3040, 5593, 7977, 10248, 12280, 14929, 17672, 20361]}, "edge": {"target": [], "time": []}}, "mouseover": {"state": {"target": ["12", "18", "16", "7", "26", "29", "27", "29", "33", "30", "30", "32", "31", "24", "10", "8", "9", "3", "7", "18", "14", "20", "13", "2", "3", "8", "11", "8", "2", "1", "12"], "time": [2382, 2462, 2728, 3545, 3911, 4111, 5345, 7678, 9911, 10594, 10945, 11479, 14228, 14261, 14328, 14361, 14628, 15478, 15544, 15577, 15678, 17111, 19713, 19794, 19878, 20011, 20094, 20682, 20761, 20794, 20845]}, "edge": {"target": [], "time": []}}, "mouseout": {"state": {"target": ["12", "0", "12", "18", "16", "7", "26", "29", "27", "29", "33", "30", "30", "32", "31", "24", "10", "8", "9", "3", "7", "18", "14", "20", "20", "13", "2", "3", "8", "11", "8", "2", "1", "12", "14", "19"], "time": [1110, 2380, 2413, 2528, 3047, 3578, 3962, 5096, 7494, 8762, 10561, 10662, 11045, 12778, 14245, 14278, 14344, 14395, 15378, 15527, 15561, 15628, 15845, 18478, 19661, 19727, 19844, 19945, 20061, 20628, 20712, 20778, 20811, 20878, 31344, 31644]}, "edge": {"target": [], "time": []}}}, "displayed_time": "26.70", "trialTime": 32869, "trial_type": "mouselab-mdp", "trial_index": 29, "time_elapsed": 1315179, "internal_node_id": "0.0-6.0-1.0-20.0"}}, {"uniqueid": "w96001217:a72486807", "current_trial": 30, "dateTime": 1693566541165, "trialdata": {"revealed_states": [], "clicked_states": ["9", "17", "20", "21"], "num_clicks_accrued": [0, 0, 0, 0, 0, 0, 0, 0, 0, 0, 0, 0, 0], "stateRewards": ["", -1, 4, 3, 12, -27, 34, -33, 3, -63, 1, 6, 2, 2, -6, -11, -77, -85, 68, -6, 51, 81, -60, -2, -2, 1, 15, 20, 15, 68, -10, -14, 6, -4], "withholdReward": false, "trial_id": "mdp_trial_22", "block": "test", "trialIndex": 23, "score": 67.4, "costs": -5.6, "simulationMode": [null, null, null, null, null], "rewards": [2, 2, -6, -6, 81], "path": ["0", "0", "12", "13", "14", "19", "21"], "rt": [14279, 273, 159, 374, 187], "actions": ["right", "right", "right", "down", "down"], "actionTimes": [23742, 24512, 25181, 26064, 26760], "queries": {"click": {"state": {"target": ["9", "17", "20", "21"], "time": [11737, 15457, 18424, 20712]}, "edge": {"target": [], "time": []}}, "mouseover": {"state": {"target": ["3", "9", "5", "4", "18", "14", "17", "20", "21"], "time": [11038, 11305, 12888, 14005, 14638, 14903, 15204, 16271, 19238]}, "edge": {"target": [], "time": []}}, "mouseout": {"state": {"target": ["0", "3", "9", "5", "4", "18", "14", "17", "20", "21"], "time": [10305, 11071, 12555, 13721, 14271, 14754, 14921, 16154, 18921, 22704]}, "edge": {"target": [], "time": []}}}, "displayed_time": "27.27", "trialTime": 43877, "trial_type": "mouselab-mdp", "trial_index": 30, "time_elapsed": 1359290, "internal_node_id": "0.0-6.0-1.0-21.0"}}, {"uniqueid": "w96001217:a72486807", "current_trial": 31, "dateTime": 1693566699076, "trialdata": {"revealed_states": [], "clicked_states": ["9", "5", "7", "10", "11", "6", "16", "20"], "num_clicks_accrued": [0, 0, 0, 0, 0, 0, 0, 0, 0, 0, 0, 0, 0], "stateRewards": ["", -1, 3, -5, -2, -13, -9, -34, -7, -81, 32, 35, -2, -2, 1, -14, -32, 81, 7, 4, 82, 56, -8, -1, 3, -8, 6, -24, -24, -53, 2, 38, 61, 54], "withholdReward": false, "trial_id": "mdp_trial_23", "block": "test", "trialIndex": 24, "score": 71.8, "costs": -11.200000000000001, "simulationMode": [null, null, null, null, null], "rewards": [-2, -2, 1, 4, 82], "path": ["0", "0", "12", "13", "14", "19", "20"], "rt": [19667, 85, 596, 204, 84], "actions": ["right", "right", "right", "down", "right"], "actionTimes": [146440, 147039, 148134, 148858, 149455], "queries": {"click": {"state": {"target": ["9", "5", "7", "10", "11", "6", "16", "20"], "time": [128250, 130214, 132447, 134759, 137056, 139193, 141511, 143415]}, "edge": {"target": [], "time": []}}, "mouseover": {"state": {"target": ["3", "9", "5", "4", "7", "2", "10", "11", "8", "3", "4", "6", "4", "16", "15", "20"], "time": [127604, 127970, 128821, 132053, 132153, 134204, 134519, 136765, 137537, 137603, 137686, 138319, 139886, 141070, 141920, 142004]}, "edge": {"target": [], "time": []}}, "mouseout": {"state": {"target": ["13", "0", "3", "9", "5", "4", "7", "2", "10", "11", "11", "8", "3", "4", "6", "4", "16", "15", "20", "17", "13", "22"], "time": [126072, 127486, 127742, 128638, 132037, 132086, 134137, 134337, 136020, 137207, 137503, 137569, 137653, 137937, 139820, 139922, 141907, 141936, 143542, 155686, 156569, 156669]}, "edge": {"target": [], "time": []}}}, "displayed_time": "149.97", "trialTime": 157627, "trial_type": "mouselab-mdp", "trial_index": 31, "time_elapsed": 1517200, "internal_node_id": "0.0-6.0-1.0-22.0"}}, {"uniqueid": "w96001217:a72486807", "current_trial": 32, "dateTime": 1693566738756, "trialdata": {"revealed_states": [], "clicked_states": ["32", "33", "27", "21", "20", "16", "17", "9", "11", "10", "7"], "num_clicks_accrued": [0, 0, 0, 0, 0, 0, 0, 0, 0, 0, 0, 0, 0], "stateRewards": ["", 1, 1, -3, 2, 22, -25, -11, -5, 50, 49, 3, 1, -1, 8, 14, -85, -30, 57, -6, -39, -16, 59, -2, -1, 5, 5, 59, -16, 8, 4, 67, 56, -9], "withholdReward": false, "trial_id": "mdp_trial_24", "block": "test", "trialIndex": 25, "score": 50.599999999999994, "costs": -15.400000000000002, "simulationMode": [null, null, null, null, null], "rewards": [-2, -1, 5, 5, 59], "path": ["0", "0", "23", "24", "25", "26", "27"], "rt": [31313, 281, 498, 284, 168], "actions": ["left", "left", "left", "up", "up"], "actionTimes": [33144, 33928, 34928, 35729, 36397], "queries": {"click": {"state": {"target": ["32", "33", "27", "21", "20", "16", "17", "9", "11", "10", "7"], "time": [4820, 7260, 9715, 12299, 14861, 17476, 19958, 22652, 25348, 27684, 30188]}, "edge": {"target": [], "time": []}}, "mouseover": {"state": {"target": ["1", "1", "24", "25", "33", "32", "32", "33", "30", "26", "27", "10", "18", "15", "14", "20", "21", "21", "20", "20", "17", "16", "17", "17", "6", "4", "3", "9", "8", "11", "10", "2", "7"], "time": [2396, 2847, 3280, 3396, 3867, 4475, 4646, 5513, 7762, 9279, 9413, 10529, 10646, 10795, 10979, 11063, 11813, 12050, 14329, 14691, 16946, 17246, 19446, 19696, 22045, 22078, 22129, 22296, 24729, 24962, 27428, 29678, 29729]}, "edge": {"target": [], "time": []}}, "mouseout": {"state": {"target": ["16", "6", "4", "2", "1", "1", "1", "24", "25", "33", "32", "32", "33", "30", "26", "27", "10", "18", "15", "14", "20", "21", "21", "20", "20", "17", "16", "17", "17", "16", "6", "4", "3", "9", "8", "11", "10", "2", "7"], "time": [847, 896, 962, 1046, 1179, 2463, 2963, 3362, 3448, 4130, 4562, 5313, 7730, 9130, 9379, 10479, 10546, 10746, 10829, 10995, 11313, 11879, 13546, 14629, 16729, 17012, 19412, 19463, 21828, 21963, 22061, 22112, 22145, 23499, 24779, 27178, 29645, 29711, 32262]}, "edge": {"target": [], "time": []}}}, "displayed_time": "36.91", "trialTime": 39367, "trial_type": "mouselab-mdp", "trial_index": 32, "time_elapsed": 1556880, "internal_node_id": "0.0-6.0-1.0-23.0"}}, {"uniqueid": "w96001217:a72486807", "current_trial": 33, "dateTime": 1693566775619, "trialdata": {"revealed_states": [], "clicked_states": ["9", "5"], "num_clicks_accrued": [0, 0, 0, 0, 0, 0, 0, 0, 0, 0, 0, 0, 0], "stateRewards": ["", -2, 1, -8, 12, -65, -79, 16, 7, -80, -17, -45, -2, 2, -5, -2, -85, 23, -4, -7, 48, 27, -76, 2, 3, 5, 2, 43, 71, -13, 7, -49, 59, -31], "withholdReward": false, "trial_id": "mdp_trial_25", "block": "test", "trialIndex": 26, "score": -3.8000000000000007, "costs": -2.8, "simulationMode": [null, null, null, null, null], "rewards": [2, 3, 5, 2, -13], "path": ["0", "0", "23", "24", "25", "26", "29"], "rt": [16596, 304, 292, 362, 89], "actions": ["left", "left", "left", "up", "left"], "actionTimes": [30014, 30834, 31638, 32510, 33103], "queries": {"click": {"state": {"target": ["9", "5"], "time": [15068, 17213]}, "edge": {"target": [], "time": []}}, "mouseover": {"state": {"target": ["3", "9", "5", "5", "4", "7", "7", "6"], "time": [14413, 14749, 15979, 16347, 17779, 18414, 23546, 24662]}, "edge": {"target": [], "time": []}}, "mouseout": {"state": {"target": ["7", "3", "9", "5", "5", "4", "7", "7", "6"], "time": [12012, 14429, 15680, 16012, 17730, 17863, 23313, 24562, 25630]}, "edge": {"target": [], "time": []}}}, "displayed_time": "33.61", "trialTime": 36583, "trial_type": "mouselab-mdp", "trial_index": 33, "time_elapsed": 1593744, "internal_node_id": "0.0-6.0-1.0-24.0"}}, {"uniqueid": "w96001217:a72486807", "current_trial": 34, "dateTime": 1693566816252, "trialdata": {"revealed_states": [], "clicked_states": ["17", "20", "21", "16", "5", "6", "7", "10", "11", "9", "27", "29", "33"], "num_clicks_accrued": [0, 0, 0, 0, 0, 0, 0, 0, 0, 0, 0, 0, 0], "stateRewards": ["", 2, 4, -3, 16, -58, 30, -35, 11, -60, 47, 27, -2, -1, -7, -16, 23, -70, 68, -10, -65, -43, -34, -2, 1, 7, 9, -63, 34, -31, -8, -12, -86, 59], "withholdReward": false, "trial_id": "mdp_trial_26", "block": "test", "trialIndex": 27, "score": 38.8, "costs": -18.2, "simulationMode": [null, null, null, null, null], "rewards": [-2, 1, 7, -8, 59], "path": ["0", "0", "23", "24", "25", "30", "33"], "rt": [29894, 167, 185, 483, 107], "actions": ["left", "left", "left", "down", "left"], "actionTimes": [32257, 32945, 33646, 34627, 35235], "queries": {"click": {"state": {"target": ["17", "20", "21", "16", "5", "6", "7", "10", "11", "9", "27", "29", "33"], "time": [4579, 6457, 8009, 9898, 11778, 13578, 15610, 17681, 19681, 22633, 24795, 26801, 28913]}, "edge": {"target": [], "time": []}}, "mouseover": {"state": {"target": ["0", "17", "17", "20", "19", "22", "21", "19", "14", "15", "16", "4", "5", "6", "7", "2", "10", "11", "9", "27", "26", "29", "33", "33", "32"], "time": [3561, 4144, 4361, 5245, 6945, 7045, 7428, 8461, 8544, 8662, 8878, 10860, 11128, 12244, 14078, 16711, 16944, 18528, 21887, 23277, 25560, 26060, 27376, 27860, 29643]}, "edge": {"target": [], "time": []}}, "mouseout": {"state": {"target": ["1", "23", "0", "0", "17", "17", "20", "19", "22", "21", "19", "14", "15", "16", "4", "5", "6", "7", "2", "10", "11", "9", "11", "27", "26", "29", "33", "33", "32", "30", "30", "32"], "time": [1411, 1444, 1744, 3578, 4194, 4963, 6928, 7011, 7229, 8191, 8514, 8611, 8744, 10594, 10961, 12211, 13978, 16644, 16844, 18127, 21660, 22928, 23077, 25360, 25760, 27277, 27594, 29344, 38627, 38693, 38843, 38943]}, "edge": {"target": [], "time": []}}}, "displayed_time": "35.74", "trialTime": 40349, "trial_type": "mouselab-mdp", "trial_index": 34, "time_elapsed": 1634377, "internal_node_id": "0.0-6.0-1.0-25.0"}}, {"uniqueid": "w96001217:a72486807", "current_trial": 35, "dateTime": 1693566861936, "trialdata": {"revealed_states": [], "clicked_states": ["29", "33", "32", "27", "9", "5", "6", "7", "10", "11", "16", "17", "20", "22"], "num_clicks_accrued": [0, 0, 0, 0, 0, 0, 0, 0, 0, 0, 0, 0, 0], "stateRewards": ["", -1, 3, 2, 9, 41, 4, -46, -12, -54, -87, -25, 2, 3, -1, 11, -77, 12, -33, -9, -32, 35, 72, 1, 3, -7, 4, 37, 65, -73, 6, 77, -43, 8], "withholdReward": false, "trial_id": "mdp_trial_27", "block": "test", "trialIndex": 28, "score": 47.400000000000006, "costs": -19.599999999999998, "simulationMode": [null, null, null, null, null], "rewards": [2, 3, -1, -9, 72], "path": ["0", "0", "12", "13", "14", "19", "22"], "rt": [34509, 38, 183, 494, 444], "actions": ["right", "right", "right", "down", "left"], "actionTimes": [37523, 38075, 38786, 39796, 40731], "queries": {"click": {"state": {"target": ["29", "33", "32", "27", "9", "5", "6", "7", "10", "11", "16", "17", "20", "22"], "time": [4754, 6481, 8905, 11065, 14153, 16218, 18681, 20881, 22850, 25049, 27977, 30193, 32298, 34467]}, "edge": {"target": [], "time": []}}, "mouseover": {"state": {"target": ["23", "24", "25", "29", "33", "33", "32", "30", "25", "26", "27", "9", "5", "6", "7", "2", "10", "11", "1", "12", "18", "16", "15", "17", "20", "21", "22", "19"], "time": [4036, 4085, 4119, 4436, 5336, 5702, 7586, 9386, 9436, 9552, 9786, 12486, 15369, 17285, 19402, 21552, 21802, 23378, 25684, 25852, 27035, 27468, 28902, 29085, 31519, 33169, 34185, 36072]}, "edge": {"target": [], "time": []}}, "mouseout": {"state": {"target": ["31", "0", "23", "24", "25", "29", "33", "33", "32", "30", "25", "26", "27", "9", "5", "6", "7", "2", "10", "11", "10", "1", "12", "18", "16", "15", "17", "20", "21", "22", "19"], "time": [1585, 2368, 4070, 4102, 4135, 5202, 5419, 7035, 9352, 9402, 9470, 9702, 11818, 14885, 16935, 19269, 21368, 21652, 23235, 25485, 25552, 25768, 26120, 27118, 28785, 29034, 31119, 32902, 33885, 35335, 43902]}, "edge": {"target": [], "time": []}}}, "displayed_time": "41.25", "trialTime": 45409, "trial_type": "mouselab-mdp", "trial_index": 35, "time_elapsed": 1680061, "internal_node_id": "0.0-6.0-1.0-26.0"}}, {"uniqueid": "w96001217:a72486807", "current_trial": 36, "dateTime": 1693566887268, "trialdata": {"revealed_states": [], "clicked_states": ["11", "22", "21", "20"], "num_clicks_accrued": [0, 0, 0, 0, 0, 0, 0, 0, 0, 0, 0, 0, 0], "stateRewards": ["", 2, -4, 7, 3, 23, -42, 4, 7, -81, -33, 7, -2, -4, 5, -1, 50, -57, -14, -13, -14, 44, 55, -2, -2, 5, -2, 33, 1, 57, -13, -7, 58, 87], "withholdReward": false, "trial_id": "mdp_trial_28", "block": "test", "trialIndex": 29, "score": 24.4, "costs": -5.6, "simulationMode": [null, null, null, null, null], "rewards": [-2, -4, 5, -13, 44], "path": ["0", "0", "12", "13", "14", "19", "21"], "rt": [15909, 289, 75, 256, 234], "actions": ["right", "right", "right", "down", "down"], "actionTimes": [17768, 18560, 19144, 19908, 20654], "queries": {"click": {"state": {"target": ["11", "22", "21", "20"], "time": [4793, 8265, 10641, 13403]}, "edge": {"target": [], "time": []}}, "mouseover": {"state": {"target": ["2", "3", "3", "2", "2", "3", "8", "11", "8", "2", "1", "12", "22", "12", "7", "13", "22", "19", "21", "20", "19", "22", "13", "18", "16"], "time": [2618, 2637, 2886, 2935, 3351, 3418, 3968, 4468, 6052, 6185, 6335, 6535, 7035, 7351, 7618, 7718, 7919, 8885, 9202, 13055, 14718, 14736, 15600, 15719, 16067]}, "edge": {"target": [], "time": []}}, "mouseout": {"state": {"target": ["0", "2", "3", "3", "2", "2", "3", "8", "11", "8", "2", "1", "12", "22", "12", "7", "13", "22", "19", "21", "20", "19", "22", "13", "18", "16", "9", "3", "2", "1"], "time": [1567, 2635, 2668, 2902, 3072, 3384, 3902, 4102, 5302, 6068, 6252, 6368, 6801, 7318, 7367, 7668, 7751, 8836, 8919, 11418, 13435, 14734, 14761, 15634, 15818, 23600, 23818, 23967, 24117, 24150]}, "edge": {"target": [], "time": []}}}, "displayed_time": "21.15", "trialTime": 25091, "trial_type": "mouselab-mdp", "trial_index": 36, "time_elapsed": 1705392, "internal_node_id": "0.0-6.0-1.0-27.0"}}, {"uniqueid": "w96001217:a72486807", "current_trial": 37, "dateTime": 1693566907040, "trialdata": {"revealed_states": [], "clicked_states": ["29", "33"], "num_clicks_accrued": [0, 0, 0, 0, 0, 0, 0, 0, 0, 0, 0, 0, 0], "stateRewards": ["", -2, -1, -2, -15, 87, 57, 29, -10, 77, -80, -7, 1, -3, 6, 14, -11, 87, -59, 4, -71, 16, -11, 2, 2, -7, 2, -47, 61, 50, 14, -20, 17, 81], "withholdReward": false, "trial_id": "mdp_trial_29", "block": "test", "trialIndex": 30, "score": 89.2, "costs": -2.8, "simulationMode": [null, null, null, null, null], "rewards": [2, 2, -7, 14, 81], "path": ["0", "0", "23", "24", "25", "30", "33"], "rt": [7619, 257, 144, 427, 760], "actions": ["left", "left", "left", "down", "left"], "actionTimes": [10149, 10918, 11554, 12470, 13719], "queries": {"click": {"state": {"target": ["29", "33"], "time": [4411, 6779]}, "edge": {"target": [], "time": []}}, "mouseover": {"state": {"target": ["23", "24", "25", "25", "29", "33", "32"], "time": [3141, 3325, 3457, 3724, 4074, 5224, 7657]}, "edge": {"target": [], "time": []}}, "mouseout": {"state": {"target": ["23", "0", "23", "24", "25", "25", "29", "33", "32", "32", "32"], "time": [1924, 3107, 3208, 3425, 3474, 3741, 4975, 7141, 16724, 16941, 16992]}, "edge": {"target": [], "time": []}}}, "displayed_time": "16.53", "trialTime": 19538, "trial_type": "mouselab-mdp", "trial_index": 37, "time_elapsed": 1725164, "internal_node_id": "0.0-6.0-1.0-28.0"}}, {"uniqueid": "w96001217:a72486807", "current_trial": 38, "dateTime": 1693566930985, "trialdata": {"revealed_states": [], "clicked_states": [], "num_clicks_accrued": [0, 0, 0, 0, 0, 0, 0, 0, 0, 0, 0, 0, 0], "stateRewards": ["", 1, 3, 1, -13, 52, -28, 67, -14, 3, 63, -70, -1, -4, 7, -11, -10, 47, -18, 6, 69, -9, -61, 2, 3, -6, 10, 63, -34, 40, -6, -79, -35, -32], "withholdReward": false, "trial_id": "mdp_trial_30", "block": "test", "trialIndex": 31, "score": 59, "costs": 0, "simulationMode": [null, null, null, null, null], "rewards": [1, 3, 1, -13, 67], "path": ["0", "0", "1", "2", "3", "4", "7"], "rt": [9797, 171, 169, 433, 565], "actions": ["up", "up", "up", "right", "down"], "actionTimes": [13298, 13962, 14626, 15557, 16638], "queries": {"click": {"state": {"target": [], "time": []}, "edge": {"target": [], "time": []}}, "mouseover": {"state": {"target": ["2", "2", "3", "10", "28", "24", "25", "33", "30", "33", "30", "31", "0"], "time": [4555, 6872, 7172, 7523, 7789, 7905, 7991, 8222, 8989, 9623, 11239, 11257, 11321]}, "edge": {"target": [], "time": []}}, "mouseout": {"state": {"target": ["23", "2", "2", "3", "10", "28", "24", "25", "33", "30", "33", "30", "31", "0"], "time": [2721, 6439, 7008, 7339, 7723, 7856, 7955, 8056, 8955, 9072, 11224, 11255, 11272, 11506]}, "edge": {"target": [], "time": []}}}, "displayed_time": "17.50", "trialTime": 23699, "trial_type": "mouselab-mdp", "trial_index": 38, "time_elapsed": 1749110, "internal_node_id": "0.0-6.0-1.0-29.0"}}, {"uniqueid": "w96001217:a72486807", "current_trial": 39, "dateTime": 1693566963159, "trialdata": {"revealed_states": [], "clicked_states": ["25", "33", "32", "27", "29", "31", "21", "22", "20"], "num_clicks_accrued": [0, 0, 0, 0, 0, 0, 0, 0, 0, 0, 0, 0, 0], "stateRewards": ["", -2, -2, -7, -13, -10, 49, -68, -1, 84, 70, 88, 1, 4, 4, 12, -57, 25, 30, 8, -1, -77, 57, 2, 3, 2, 3, -18, -80, 23, -15, -41, 70, 11], "withholdReward": false, "trial_id": "mdp_trial_31", "block": "test", "trialIndex": 32, "score": 49.4, "costs": -12.600000000000001, "simulationMode": [null, null, null, null, null], "rewards": [2, 3, 2, -15, 70], "path": ["0", "0", "23", "24", "25", "30", "32"], "rt": [23464, 208, 732, 629, 348], "actions": ["left", "left", "left", "down", "down"], "actionTimes": [25735, 26461, 27701, 28848, 29716], "queries": {"click": {"state": {"target": ["25", "33", "32", "27", "29", "31", "21", "22", "20"], "time": [3538, 5345, 7825, 10871, 12737, 14759, 17855, 20271, 22704]}, "edge": {"target": [], "time": []}}, "mouseover": {"state": {"target": ["0", "24", "25", "33", "33", "32", "29", "30", "32", "32", "30", "29", "29", "27", "29", "25", "31", "31", "21", "22", "19", "20"], "time": [2935, 3167, 3234, 4385, 4668, 6134, 6734, 7167, 7201, 7484, 8268, 8550, 8685, 10550, 11283, 13384, 13850, 14134, 17600, 18400, 21317, 22239]}, "edge": {"target": [], "time": []}}, "mouseout": {"state": {"target": ["0", "0", "24", "25", "25", "33", "33", "32", "33", "29", "30", "32", "32", "30", "29", "29", "27", "29", "29", "25", "31", "31", "21", "22", "19", "20", "20", "20"], "time": [1867, 2968, 3201, 3545, 4235, 4435, 5885, 6418, 6551, 7134, 7184, 7234, 8167, 8284, 8567, 10451, 11217, 12893, 13200, 13750, 13884, 16717, 17997, 21285, 22100, 22855, 25616, 27283]}, "edge": {"target": [], "time": []}}}, "displayed_time": "30.23", "trialTime": 31885, "trial_type": "mouselab-mdp", "trial_index": 39, "time_elapsed": 1781283, "internal_node_id": "0.0-6.0-1.0-30.0"}}, {"uniqueid": "w96001217:a72486807", "current_trial": 40, "dateTime": 1693566990952, "trialdata": {"revealed_states": [], "clicked_states": ["23", "32", "33", "27", "29", "11"], "num_clicks_accrued": [0, 0, 0, 0, 0, 0, 0, 0, 0, 0, 0, 0, 0], "stateRewards": ["", 1, 1, -7, -9, -44, 24, -83, -15, 44, -24, 72, -2, -3, 4, -5, 57, 55, 29, -11, 22, 12, -25, -1, 2, 7, 12, 33, -8, 47, -4, 8, 50, -4], "withholdReward": false, "trial_id": "mdp_trial_32", "block": "test", "trialIndex": 33, "score": 43.6, "costs": -8.4, "simulationMode": [null, null, null, null, null], "rewards": [1, 1, -7, -15, 72], "path": ["0", "0", "1", "2", "3", "8", "11"], "rt": [17319, 366, 438, 483, 341], "actions": ["up", "up", "up", "left", "left"], "actionTimes": [21400, 22279, 23234, 24212, 25069], "queries": {"click": {"state": {"target": ["23", "32", "33", "27", "29", "11"], "time": [6677, 8279, 10636, 12620, 15748, 18036]}, "edge": {"target": [], "time": []}}, "mouseover": {"state": {"target": ["0", "1", "2", "1", "24", "23", "30", "32", "33", "29", "27", "11", "11", "10", "14", "19", "22", "23", "24", "29", "11", "8", "9"], "time": [4679, 4878, 4945, 5195, 6330, 6479, 7394, 7894, 9378, 11111, 11529, 13228, 14078, 14378, 14745, 14877, 14978, 15095, 15194, 15427, 17094, 19816, 20094]}, "edge": {"target": [], "time": []}}, "mouseout": {"state": {"target": ["14", "13", "1", "28", "26", "24", "23", "0", "1", "2", "1", "24", "23", "30", "32", "33", "29", "27", "11", "11", "10", "14", "19", "22", "23", "24", "29", "27", "11", "8"], "time": [3094, 3111, 3162, 3194, 3228, 3461, 3546, 4745, 4912, 5181, 6147, 6411, 7145, 7811, 8995, 11001, 11128, 13146, 13412, 14211, 14394, 14811, 14961, 14994, 15150, 15279, 16260, 16910, 19145, 19877]}, "edge": {"target": [], "time": []}}}, "displayed_time": "25.56", "trialTime": 27508, "trial_type": "mouselab-mdp", "trial_index": 40, "time_elapsed": 1809076, "internal_node_id": "0.0-6.0-1.0-31.0"}}, {"uniqueid": "w96001217:a72486807", "current_trial": 41, "dateTime": 1693567209934, "trialdata": {"revealed_states": [], "clicked_states": [], "num_clicks_accrued": [0, 0, 0, 0, 0, 0, 0, 0, 0, 0, 0, 0, 0], "stateRewards": ["", -2, -4, -6, 12, -58, -70, -80, 2, 16, -88, -62, 1, 2, -5, 11, 77, -35, -44, -5, 18, -83, 87, 1, -3, -5, 13, -44, -21, -86, 10, -52, 8, 29], "withholdReward": false, "trial_id": "mdp_trial_33", "block": "test", "trialIndex": 34, "score": 86, "costs": 0, "simulationMode": [null, null, null, null, null], "rewards": [1, 2, -5, 11, 77], "path": ["0", "0", "12", "13", "14", "15", "16"], "rt": [2070, 192, 227, 181, 115], "actions": ["right", "right", "right", "up", "up"], "actionTimes": [202815, 203521, 204241, 204929, 205545], "queries": {"click": {"state": {"target": [], "time": []}, "edge": {"target": [], "time": []}}, "mouseover": {"state": {"target": ["12"], "time": [201446]}, "edge": {"target": [], "time": []}}, "mouseout": {"state": {"target": ["9", "8", "23", "1", "1", "1", "1", "10", "10", "11", "11", "11", "1", "12", "12", "18", "7"], "time": [8353, 8387, 25286, 31170, 105617, 106135, 116566, 142286, 150447, 177913, 184934, 185174, 195478, 195844, 209163, 209311, 209645]}, "edge": {"target": [], "time": []}}}, "displayed_time": "214.75", "trialTime": 218701, "trial_type": "mouselab-mdp", "trial_index": 41, "time_elapsed": 2028059, "internal_node_id": "0.0-6.0-1.0-32.0"}}, {"uniqueid": "w96001217:a72486807", "current_trial": 42, "dateTime": 1693567248473, "trialdata": {"revealed_states": [], "clicked_states": ["29", "16", "17", "20", "21", "5", "7", "6", "11", "9", "10"], "num_clicks_accrued": [0, 0, 0, 0, 0, 0, 0, 0, 0, 0, 0, 0, 0], "stateRewards": ["", -1, 2, -2, 13, -56, -28, 10, 14, 53, -80, -29, 1, -3, -3, -14, 14, 9, -40, -9, 18, 18, 48, 1, 1, 1, -9, 64, -39, -9, 7, -52, -78, 7], "withholdReward": false, "trial_id": "mdp_trial_34", "block": "test", "trialIndex": 35, "score": 50.599999999999994, "costs": -15.400000000000002, "simulationMode": [null, null, null, null, null], "rewards": [-1, 2, -2, 14, 53], "path": ["0", "0", "1", "2", "3", "8", "9"], "rt": [27262, 175, 203, 278, 412], "actions": ["up", "up", "up", "left", "up"], "actionTimes": [30635, 31302, 32026, 32818, 33737], "queries": {"click": {"state": {"target": ["29", "16", "17", "20", "21", "5", "7", "6", "11", "9", "10"], "time": [5291, 7600, 9625, 11755, 13841, 16137, 18081, 20826, 22873, 24849, 27633]}, "edge": {"target": [], "time": []}}, "mouseover": {"state": {"target": ["23", "24", "25", "29", "33", "30", "24", "18", "15", "16", "17", "14", "20", "21", "19", "18", "4", "5", "4", "7", "6", "4", "3", "8", "11", "8", "9", "8", "10"], "time": [4330, 4474, 4591, 5040, 5924, 6657, 6790, 6907, 7057, 7173, 8226, 10224, 10840, 12406, 14256, 14374, 14657, 14790, 16523, 16608, 18690, 21240, 21323, 21390, 21539, 23407, 23856, 25240, 25574]}, "edge": {"target": [], "time": []}}, "mouseout": {"state": {"target": ["7", "7", "0", "23", "24", "25", "29", "29", "33", "30", "24", "18", "15", "16", "17", "14", "20", "21", "19", "18", "4", "5", "4", "7", "6", "4", "3", "8", "11", "8", "9", "8", "10"], "time": [1172, 1289, 3940, 4424, 4541, 4890, 5408, 5724, 6624, 6708, 6808, 6974, 7074, 7974, 10041, 10474, 12140, 14207, 14290, 14440, 14723, 16490, 16574, 18440, 21206, 21290, 21357, 21456, 23358, 23640, 25174, 25390, 28144]}, "edge": {"target": [], "time": []}}}, "displayed_time": "34.24", "trialTime": 38169, "trial_type": "mouselab-mdp", "trial_index": 42, "time_elapsed": 2066598, "internal_node_id": "0.0-6.0-1.0-33.0"}}, {"uniqueid": "w96001217:a72486807", "current_trial": 43, "dateTime": 1693567275640, "trialdata": {"revealed_states": [], "clicked_states": ["29", "33", "32", "27", "28", "31"], "num_clicks_accrued": [0, 0, 0, 0, 0, 0, 0, 0, 0, 0, 0, 0, 0], "stateRewards": ["", 2, -4, -8, -15, 71, -43, -41, 7, -17, 20, 67, -1, -1, -4, 6, 37, -24, -47, 9, 34, 57, 45, 1, 2, -4, -5, -23, 88, -5, 13, -40, 43, 44], "withholdReward": false, "trial_id": "mdp_trial_35", "block": "test", "trialIndex": 36, "score": 73.6, "costs": -8.4, "simulationMode": [null, null, null, null, null], "rewards": [1, 2, -4, -5, 88], "path": ["0", "0", "23", "24", "25", "26", "28"], "rt": [15945, 347, 257, 386, 665], "actions": ["left", "left", "left", "up", "right"], "actionTimes": [19828, 20695, 21472, 22368, 23547], "queries": {"click": {"state": {"target": ["29", "33", "32", "27", "28", "31"], "time": [5464, 7775, 10016, 12431, 14599, 17384]}, "edge": {"target": [], "time": []}}, "mouseover": {"state": {"target": ["23", "24", "25", "29", "33", "32", "30", "25", "26", "27", "28", "28", "24", "31"], "time": [4314, 4381, 4514, 5231, 6464, 8797, 10646, 10814, 11663, 12180, 13097, 14013, 15046, 15296]}, "edge": {"target": [], "time": []}}, "mouseout": {"state": {"target": ["9", "5", "3", "10", "0", "23", "24", "25", "29", "33", "32", "30", "25", "26", "27", "28", "28", "24", "31"], "time": [2564, 2748, 2814, 2913, 3263, 4364, 4430, 4614, 6165, 8397, 10152, 10747, 10930, 11930, 13030, 13263, 14964, 15197, 25781]}, "edge": {"target": [], "time": []}}}, "displayed_time": "24.06", "trialTime": 26911, "trial_type": "mouselab-mdp", "trial_index": 43, "time_elapsed": 2093765, "internal_node_id": "0.0-6.0-1.0-34.0"}}, {"uniqueid": "w96001217:a72486807", "current_trial": 44, "dateTime": 1693567295857, "trialdata": {"revealed_states": [], "clicked_states": ["28", "31", "18", "22"], "num_clicks_accrued": [0, 0, 0, 0, 0, 0, 0, 0, 0, 0, 0, 0, 0], "stateRewards": ["", -2, 1, 6, -2, -10, -78, -69, 14, -15, 7, -1, 1, -1, -2, 13, 77, 32, 87, 5, -74, 30, -26, 1, 3, 4, 12, 39, 54, -43, 2, 10, 23, 13], "withholdReward": false, "trial_id": "mdp_trial_36", "block": "test", "trialIndex": 37, "score": 92.4, "costs": -5.6, "simulationMode": [null, null, null, null, null], "rewards": [1, -1, -2, 13, 87], "path": ["0", "0", "12", "13", "14", "15", "18"], "rt": [10468, 287, 305, 272, 301], "actions": ["right", "right", "right", "up", "left"], "actionTimes": [13688, 14472, 15289, 16072, 16869], "queries": {"click": {"state": {"target": ["28", "31", "18", "22"], "time": [4324, 6292, 8788, 10947]}, "edge": {"target": [], "time": []}}, "mouseover": {"state": {"target": ["23", "28", "24", "31", "13", "18", "13", "22"], "time": [3633, 3866, 4683, 4850, 8316, 8551, 9249, 9516]}, "edge": {"target": [], "time": []}}, "mouseout": {"state": {"target": ["28", "0", "23", "28", "24", "31", "13", "18", "13", "22", "13", "12", "0"], "time": [2483, 3583, 3733, 4650, 4749, 6650, 8483, 9199, 9433, 11299, 18554, 18602, 18933]}, "edge": {"target": [], "time": []}}}, "displayed_time": "17.37", "trialTime": 19931, "trial_type": "mouselab-mdp", "trial_index": 44, "time_elapsed": 2113981, "internal_node_id": "0.0-6.0-1.0-35.0"}}, {"uniqueid": "w96001217:a72486807", "current_trial": 45, "dateTime": 1693567328889, "trialdata": {"revealed_states": [], "clicked_states": ["18", "7", "10", "22", "31", "32", "33", "29", "5", "9", "11"], "num_clicks_accrued": [0, 0, 0, 0, 0, 0, 0, 0, 0, 0, 0, 0, 0], "stateRewards": ["", -2, -3, 1, -14, 48, -49, 67, -1, -35, -48, 3, -2, 1, -4, -5, 86, -84, 39, 1, 48, 41, -42, -1, -4, 2, -7, 18, -86, 17, 7, -9, 57, -69], "withholdReward": false, "trial_id": "mdp_trial_37", "block": "test", "trialIndex": 38, "score": 33.599999999999994, "costs": -15.400000000000002, "simulationMode": [null, null, null, null, null], "rewards": [-2, -3, 1, -14, 67], "path": ["0", "0", "1", "2", "3", "4", "7"], "rt": [25272, 281, 180, 483, 104], "actions": ["up", "up", "up", "right", "down"], "actionTimes": [27530, 28312, 29009, 29996, 30600], "queries": {"click": {"state": {"target": ["18", "7", "10", "22", "31", "32", "33", "29", "5", "9", "11"], "time": [4722, 6497, 8448, 10810, 13193, 15097, 17161, 19057, 21321, 23314, 25289]}, "edge": {"target": [], "time": []}}, "mouseover": {"state": {"target": ["0", "18", "12", "7", "2", "10", "28", "12", "22", "31", "30", "32", "33", "29", "27", "11", "9", "5", "9", "11"], "time": [2580, 4593, 5928, 6232, 7283, 7511, 9045, 9978, 10282, 12978, 13878, 14011, 15628, 17911, 19711, 20128, 20528, 21179, 22128, 23745]}, "edge": {"target": [], "time": []}}, "mouseout": {"state": {"target": ["0", "18", "12", "7", "2", "10", "28", "12", "22", "31", "30", "32", "33", "29", "27", "11", "9", "5", "9", "11", "11"], "time": [2680, 5478, 5949, 7246, 7429, 8862, 9511, 10014, 11378, 13829, 13895, 15361, 17495, 19511, 20046, 20211, 20665, 21979, 23645, 28810, 32113]}, "edge": {"target": [], "time": []}}}, "displayed_time": "31.11", "trialTime": 32777, "trial_type": "mouselab-mdp", "trial_index": 45, "time_elapsed": 2147013, "internal_node_id": "0.0-6.0-1.0-36.0"}}, {"uniqueid": "w96001217:a72486807", "current_trial": 46, "dateTime": 1693567353637, "trialdata": {"revealed_states": [], "clicked_states": ["7", "18", "22", "10", "20", "21", "16"], "num_clicks_accrued": [0, 0, 0, 0, 0, 0, 0, 0, 0, 0, 0, 0, 0], "stateRewards": ["", -1, 2, -6, 6, 43, 78, 78, -2, 55, -29, -17, -2, -4, 1, -15, 13, 7, -79, 8, -28, -68, 36, -1, -3, 3, -16, 84, -18, 87, 10, 32, 13, -81], "withholdReward": false, "trial_id": "mdp_trial_38", "block": "test", "trialIndex": 39, "score": 69.2, "costs": -9.8, "simulationMode": [null, null, null, null, null], "rewards": [-1, 2, -6, 6, 78], "path": ["0", "0", "1", "2", "3", "4", "7"], "rt": [17236, 290, 173, 330, 66], "actions": ["up", "up", "up", "right", "down"], "actionTimes": [19443, 20252, 20935, 21775, 22361], "queries": {"click": {"state": {"target": ["7", "18", "22", "10", "20", "21", "16"], "time": [3681, 5953, 7881, 10248, 12401, 14440, 16546]}, "edge": {"target": [], "time": []}}, "mouseover": {"state": {"target": ["1", "7", "16", "15", "18", "13", "22", "22", "0", "10", "2", "17", "20", "21", "19", "14", "16"], "time": [2967, 3429, 5161, 5295, 5512, 6361, 6445, 6845, 8694, 10078, 11094, 11527, 11928, 14211, 15245, 15310, 15846]}, "edge": {"target": [], "time": []}}, "mouseout": {"state": {"target": ["10", "0", "0", "1", "7", "16", "15", "18", "13", "22", "22", "0", "10", "2", "17", "20", "21", "19", "14", "16"], "time": [1262, 1429, 2729, 3263, 5111, 5262, 5310, 6345, 6395, 6528, 8445, 8811, 11077, 11127, 11694, 12551, 14583, 15278, 15327, 16745]}, "edge": {"target": [], "time": []}}}, "displayed_time": "22.86", "trialTime": 24492, "trial_type": "mouselab-mdp", "trial_index": 46, "time_elapsed": 2171761, "internal_node_id": "0.0-6.0-1.0-37.0"}}, {"uniqueid": "w96001217:a72486807", "current_trial": 47, "dateTime": 1693567382526, "trialdata": {"revealed_states": [], "clicked_states": ["33", "29", "32", "31", "28", "20", "21", "22"], "num_clicks_accrued": [0, 0, 0, 0, 0, 0, 0, 0, 0, 0, 0, 0, 0], "stateRewards": ["", -1, 1, 3, -8, -23, -15, -14, -11, -23, 58, 68, 1, 3, 5, 12, -17, -41, -7, -10, -4, 82, 10, 1, 4, -4, 11, 73, 55, -55, -1, -86, -86, 54], "withholdReward": false, "trial_id": "mdp_trial_39", "block": "test", "trialIndex": 40, "score": 69.8, "costs": -11.200000000000001, "simulationMode": [null, null, null, null, null], "rewards": [1, 3, 5, -10, 82], "path": ["0", "0", "12", "13", "14", "19", "21"], "rt": [18501, 208, 176, 143, 500], "actions": ["right", "right", "right", "down", "down"], "actionTimes": [21367, 22088, 22756, 23406, 24415], "queries": {"click": {"state": {"target": ["33", "29", "32", "31", "28", "20", "21", "22"], "time": [4149, 5988, 7907, 9820, 11772, 14404, 16333, 18693]}, "edge": {"target": [], "time": []}}, "mouseover": {"state": {"target": ["0", "30", "33", "29", "25", "30", "32", "32", "31", "24", "28", "12", "13", "19", "20", "21", "22"], "time": [3331, 3529, 3896, 5145, 6429, 6462, 6513, 6879, 8513, 10345, 10546, 12245, 12345, 13828, 13978, 15462, 16878]}, "edge": {"target": [], "time": []}}, "mouseout": {"state": {"target": ["6", "9", "10", "23", "0", "0", "30", "33", "29", "25", "30", "32", "32", "31", "24", "28", "12", "13", "19", "20", "21", "22", "21"], "time": [1513, 1594, 1795, 2128, 3130, 3379, 3695, 4696, 6379, 6446, 6497, 6553, 8212, 10279, 10446, 12112, 12279, 12362, 13861, 14931, 16661, 19513, 20212]}, "edge": {"target": [], "time": []}}}, "displayed_time": "24.94", "trialTime": 28633, "trial_type": "mouselab-mdp", "trial_index": 47, "time_elapsed": 2200650, "internal_node_id": "0.0-6.0-1.0-38.0"}}, {"uniqueid": "w96001217:a72486807", "current_trial": 48, "dateTime": 1693567418147, "trialdata": {"revealed_states": [], "clicked_states": ["21", "22", "18", "16", "5", "7", "11", "10", "28", "29"], "num_clicks_accrued": [0, 0, 0, 0, 0, 0, 0, 0, 0, 0, 0, 0, 0], "stateRewards": ["", -1, -4, -6, -15, 21, -67, -63, 9, 51, 69, -14, -1, 3, 8, -8, 39, 72, 63, 15, 19, 47, 15, 1, 4, 5, 16, -18, 34, 35, -14, -80, 40, 1], "withholdReward": false, "trial_id": "mdp_trial_40", "block": "test", "trialIndex": 41, "score": 53, "costs": -14.000000000000002, "simulationMode": [null, null, null, null, null], "rewards": [-1, -4, -6, 9, 69], "path": ["0", "0", "1", "2", "3", "8", "10"], "rt": [24211, 209, 154, 169, 427], "actions": ["up", "up", "up", "left", "down"], "actionTimes": [28428, 29138, 29799, 30481, 31421], "queries": {"click": {"state": {"target": ["21", "22", "18", "16", "5", "7", "11", "10", "28", "29"], "time": [5539, 7577, 9520, 11784, 14257, 16368, 18681, 21017, 23345, 25794]}, "edge": {"target": [], "time": []}}, "mouseover": {"state": {"target": ["0", "12", "22", "21", "22", "13", "18", "16", "4", "5", "4", "7", "2", "11", "10", "28", "23", "31", "25", "29"], "time": [4327, 4661, 4777, 5178, 6644, 8011, 9045, 10478, 12578, 13961, 15044, 15847, 17710, 18028, 20777, 21895, 24594, 25078, 25260, 25527]}, "edge": {"target": [], "time": []}}, "mouseout": {"state": {"target": ["14", "15", "23", "0", "0", "12", "22", "21", "22", "13", "18", "16", "4", "5", "4", "7", "2", "11", "10", "10", "28", "23", "31", "25", "29"], "time": [1478, 2161, 2377, 3846, 4627, 4711, 4927, 6577, 7844, 8194, 10294, 12344, 13727, 14794, 15311, 17665, 17777, 20445, 21190, 21644, 23644, 24626, 25162, 25310, 34443]}, "edge": {"target": [], "time": []}}}, "displayed_time": "31.91", "trialTime": 35355, "trial_type": "mouselab-mdp", "trial_index": 48, "time_elapsed": 2236272, "internal_node_id": "0.0-6.0-1.0-39.0"}}, {"uniqueid": "w96001217:a72486807", "current_trial": 49, "dateTime": 1693567481869, "trialdata": {"rt": 63718, "response": {"Q0": "$-2 to $2", "Q1": "$-16 to $16", "Q2": "$-88 to $88", "Q3": "The cost for clicking on nodes varied between nodes.", "Q4": "Slightly motivated"}, "question_order": [0, 1, 2, 3, 4], "trial_id": "final_quiz_control", "trial_type": "survey-multi-choice", "trial_index": 49, "time_elapsed": 2299994, "internal_node_id": "0.0-6.0-2.0"}}, {"uniqueid": "w96001217:a72486807", "current_trial": 50, "dateTime": 1693567580549, "trialdata": {"rt": 97655, "response": {"Q0": "I used the node inspector to get the last node value andd just went to the highest", "Q1": "no, the level of uncertainity was high", "Q2": "very difficult"}, "trial_id": "self_report_control", "trial_type": "survey-text", "trial_index": 50, "time_elapsed": 2398674, "internal_node_id": "0.0-6.0-3.0"}}, {"uniqueid": "w96001217:a72486807", "current_trial": 51, "dateTime": 1693567609316, "trialdata": {"rt": 28765, "response": {"gender": "female", "age": "21", "colorblind": "0", "effort": "0"}, "trial_type": "survey-html-form", "trial_index": 51, "time_elapsed": 2427441, "internal_node_id": "0.0-6.0-4.0"}}, {"uniqueid": "w96001217:a72486807", "current_trial": 52, "dateTime": 1693567625052, "trialdata": {"rt": 15731, "response": {"Q0": "no", "Q1": "no", "Q2": "none"}, "trial_type": "survey-text", "trial_index": 52, "time_elapsed": 2443177, "internal_node_id": "0.0-6.0-5.0"}}, {"uniqueid": "w96001217:a72486807", "current_trial": 53, "dateTime": 1693567655557, "trialdata": {"rt": 30501, "stimulus": "<h1>Completion Code Instructions (1/2)</h1>\n<br><br><br><br>\nYou have reached the end of the experiment! The completion code consists of two parts: (1) a code with 2 characters (2) a code with 6 characters. On this page, you will receive the second part of the code. The first part of the completion code will be on the next page.\n<br><br>\nThe second part of your completion code is: <b>EWEK22</b>\n<br><br>\nPlease note this down. Then, press 'Finish HIT' in order to find the first part of your completion code. Once the data has been saved, you will receive this code either in this window or in the original browser window where you started the experiment.\n", "response": 0, "trial_type": "html-button-response", "trial_index": 53, "time_elapsed": 2473682, "internal_node_id": "0.0-6.0-6.0"}}, {"uniqueid": "w96001217:a72486807", "current_trial": 54, "dateTime": 1693567656560, "trialdata": {"success": true, "trial_type": "fullscreen", "trial_index": 54, "time_elapsed": 2474685, "internal_node_id": "0.0-7.0"}}], "questiondata": {"params": {"CODE": "C6DMOQA6", "MIN_TIME": 14, "inspectCost": 1, "startTime": "Fri Sep 01 2023 12:46:16 GMT+0200 (South Africa Standard Time)", "bonusRate": 0.002, "variance": "1_2_4_8_44", "branching": "31123"}, "final_score": 1808}, "eventdata": [{"eventtype": "initialized", "value": null, "timestamp": 1693565175866, "interval": 0}, {"eventtype": "window_resize", "value": [1366, 708], "timestamp": 1693565175866, "interval": 0}, {"eventtype": "window_resize", "value": [1366, 708], "timestamp": 1693565176501, "interval": 635}, {"eventtype": "window_resize", "value": [1366, 768], "timestamp": 1693565266870, "interval": 90369}, {"eventtype": "focus", "value": "off", "timestamp": 1693565630568, "interval": 363698}, {"eventtype": "focus", "value": "on", "timestamp": 1693565630569, "interval": 1}, {"eventtype": "window_resize", "value": [1366, 708], "timestamp": 1693565630783, "interval": 214}], "useragent": "Mozilla/5.0 (Windows NT 10.0; Win64; x64) AppleWebKit/537.36 (KHTML, like Gecko) Chrome/116.0.0.0 Safari/537.36", "mode": "live", "id": "w96001217:a72486807", "status": "user data saved", "Beginhit": "2023-09-01 10:46:09.706172", "Beginexp": "2023-09-01 10:47:49.510676", "Endhit": "2023-09-01 11:27:40.558311", "psiturkStatus": 3, "browser": "<redacted>", "platform": "windows", "language": "en-US"}