{"condition": 1, "counterbalance": 0, "assignmentId": "a80707856", "workerId": "w16937372", "hitId": "h33397216", "currenttrial": 56, "bonus": 0, "data": [{"uniqueid": "w16937372:a80707856", "current_trial": 0, "dateTime": 1693564722359, "trialdata": {"success": true, "trial_type": "fullscreen", "trial_index": 0, "time_elapsed": 5092, "internal_node_id": "0.0-0.0"}}, {"uniqueid": "w16937372:a80707856", "current_trial": 1, "dateTime": 1693564748485, "trialdata": {"view_history": [{"page_index": 0, "viewing_time": 26118}], "rt": 26118, "trial_id": "exp_instructions_misaligned", "trial_type": "instructions", "trial_index": 1, "time_elapsed": 31219, "internal_node_id": "0.0-1.0"}}, {"uniqueid": "w16937372:a80707856", "current_trial": 2, "dateTime": 1693564893923, "trialdata": {"view_history": [{"page_index": 0, "viewing_time": 50673}, {"page_index": 1, "viewing_time": 61}, {"page_index": 0, "viewing_time": 3310}, {"page_index": 1, "viewing_time": 38326}, {"page_index": 2, "viewing_time": 14334}, {"page_index": 3, "viewing_time": 38729}], "rt": 145434, "trial_id": "mouselab_instructions_1_misaligned", "trial_type": "instructions", "trial_index": 2, "time_elapsed": 176657, "internal_node_id": "0.0-2.0-1.0"}}, {"uniqueid": "w16937372:a80707856", "current_trial": 3, "dateTime": 1693564919990, "trialdata": {"revealed_states": [], "clicked_states": ["23", "24", "25", "12", "13", "14", "15", "19"], "num_clicks_accrued": [0, 0, 0, 0, 0, 0, 0, 0, 0, 0, 0, 0, 0], "stateRewards": ["", -10, -10, 10, -10, -10, 10, -10, 10, 10, -10, 10, 10, 10, -10, 10, 10, -10, -10, 10, 10, -10, -10, -10, 10, -10, 10, -10, 10, -10, 10, 10, 10, 10], "withholdReward": false, "trial_id": "practice_1", "block": "test", "trialIndex": 0, "score": 9.5, "costs": -4, "simulationMode": [null, null, null, null, null], "rewards": [10, 10, -10, 10, -10], "path": ["0", "0", "12", "13", "14", "19", "21"], "rt": [17021, 144, 271, 324, 551], "actions": ["right", "right", "right", "down", "down"], "actionTimes": [18508, 19155, 19937, 20766, 21826], "queries": {"click": {"state": {"target": ["23", "24", "25", "12", "13", "14", "15", "19"], "time": [2713, 4612, 6832, 9310, 11114, 12754, 14684, 16321]}, "edge": {"target": [], "time": []}}, "mouseover": {"state": {"target": ["23", "24", "25", "23", "0", "0", "12", "13", "14", "15", "19"], "time": [2313, 3170, 5192, 8520, 8637, 8664, 9018, 9962, 12492, 14537, 16089]}, "edge": {"target": [], "time": []}}, "mouseout": {"state": {"target": ["0", "23", "24", "25", "24", "23", "0", "0", "12", "13", "14", "15", "14", "19"], "time": [2255, 3136, 5143, 8208, 8465, 8615, 8656, 8670, 9851, 12087, 14255, 15351, 15728, 16526]}, "edge": {"target": [], "time": []}}}, "displayed_time": "22.33", "trialTime": 25820, "trial_type": "mouselab-mdp", "trial_index": 3, "time_elapsed": 202723, "internal_node_id": "0.0-2.0-2.0-0.0"}}, {"uniqueid": "w16937372:a80707856", "current_trial": 4, "dateTime": 1693564942784, "trialdata": {"revealed_states": [], "clicked_states": ["1", "2", "3", "8", "4", "6", "7", "5"], "num_clicks_accrued": [0, 0, 0, 0, 0, 0, 0, 0, 0, 0, 0, 0, 0], "stateRewards": ["", 10, 10, 10, -10, 10, -10, -10, -10, -10, -10, 10, -10, 10, -10, -10, 10, 10, 10, -10, -10, -10, 10, 10, -10, -10, 10, 10, 10, -10, 10, -10, 10, -10], "withholdReward": false, "trial_id": "practice_2", "block": "test", "trialIndex": 1, "score": 29.5, "costs": -4, "simulationMode": [null, null, null, null, null], "rewards": [10, 10, 10, -10, 10], "path": ["0", "0", "1", "2", "3", "4", "5"], "rt": [13618, 274, 104, 34, 33], "actions": ["up", "up", "up", "right", "up"], "actionTimes": [15217, 15997, 16605, 17146, 17686], "queries": {"click": {"state": {"target": ["1", "2", "3", "8", "4", "6", "7", "5"], "time": [2220, 3543, 5076, 6670, 8041, 9611, 11159, 12659]}, "edge": {"target": [], "time": []}}, "mouseover": {"state": {"target": ["1", "2", "3", "8", "4", "6", "7", "5", "9"], "time": [1939, 3174, 4869, 6454, 7458, 9509, 11023, 11902, 13500]}, "edge": {"target": [], "time": []}}, "mouseout": {"state": {"target": ["14", "13", "12", "0", "1", "2", "2", "2", "3", "8", "3", "4", "6", "7", "4", "5"], "time": [959, 980, 1029, 1883, 2653, 3627, 4563, 4772, 6317, 7055, 7173, 9280, 10710, 11230, 11597, 12958]}, "edge": {"target": [], "time": []}}}, "displayed_time": "18.20", "trialTime": 22694, "trial_type": "mouselab-mdp", "trial_index": 4, "time_elapsed": 225517, "internal_node_id": "0.0-2.0-2.0-1.0"}}, {"uniqueid": "w16937372:a80707856", "current_trial": 5, "dateTime": 1693564965926, "trialdata": {"view_history": [{"page_index": 0, "viewing_time": 20190}, {"page_index": 1, "viewing_time": 2946}], "rt": 23138, "trial_id": "mouselab_instructions_2_misaligned", "trial_type": "instructions", "trial_index": 5, "time_elapsed": 248659, "internal_node_id": "0.0-2.0-3.0"}}, {"uniqueid": "w16937372:a80707856", "current_trial": 6, "dateTime": 1693565007893, "trialdata": {"rt": 41960, "response": {"Q0": "The cost for clicking on nodes may vary between nodes.", "Q1": "The better I perform the higher my bonus will be.", "Q2": "No, the amount of cash at each node of the web may be different each time.", "Q3": "To get the highest total score.", "Q4": "Only before moving the spider.", "Q5": "3 seconds"}, "question_order": [0, 1, 2, 3, 4, 5], "correct": {"Q0": "The cost for clicking on nodes may vary between nodes.", "Q1": "The better I perform the higher my bonus will be.", "Q2": "No, the amount of cash at each node of the web may be different each time.", "Q3": "To get the highest total score.", "Q4": "Only before moving the spider.", "Q5": "3 seconds"}, "trial_id": "mouselab_quiz_misaligned", "trial_type": "survey-multi-choice", "trial_index": 6, "time_elapsed": 290627, "internal_node_id": "0.0-2.0-4.0"}}, {"uniqueid": "w16937372:a80707856", "current_trial": 7, "dateTime": 1693565014668, "trialdata": {"rt": 6768, "response": {"Q0": "No"}, "question_order": [0], "trial_id": "repeat_check", "trial_type": "survey-multi-choice", "trial_index": 7, "time_elapsed": 297401, "internal_node_id": "0.0-4.0-0.0"}}, {"uniqueid": "w16937372:a80707856", "current_trial": 8, "dateTime": 1693565021737, "trialdata": {"rt": 7062, "stimulus": "\n<h1> Get ready to start the game! </h1>\n\nThank you for reading the instructions. Get ready start with the 40 rounds of this game.\n<br><br>\nIf you need to take a break, feel free to take one after the end of a round, before continuing to the next one.\n<br><br>\nRemember, the more money the spider gets, the bigger your bonus will be!\n<br><br>\n<div style='text-align: center;'>Press <code>space</code> to begin.</div>\n\n<br><br>\n(If, at any point, the <code>space</code> key does not take you to the next page, click once on the text and try again.)", "response": " ", "trial_id": "mdp_ready", "trial_type": "html-keyboard-response", "trial_index": 8, "time_elapsed": 304471, "internal_node_id": "0.0-6.0-0.0"}}, {"uniqueid": "w16937372:a80707856", "current_trial": 9, "dateTime": 1693565044253, "trialdata": {"revealed_states": [], "clicked_states": ["12", "1", "23", "24", "25", "26", "30", "2", "4", "3", "8", "10"], "num_clicks_accrued": [0, 0, 0, 0, 0, 0, 0, 0, 0, 0, 0, 0, 0], "stateRewards": ["", -2, 2, -4, -4, -59, 88, 62, -3, 69, -15, -34, 1, -2, -5, 7, -54, -20, 78, -16, -74, -53, -21, 2, -4, 2, 13, -8, -44, 26, 9, 72, 4, 17], "withholdReward": false, "trial_id": "mdp_trial_1", "block": "test", "trialIndex": 2, "score": -5.200000000000001, "costs": -10.200000000000001, "simulationMode": [null, null, null, null, null], "rewards": [2, -4, 2, 13, -8], "path": ["0", "0", "23", "24", "25", "26", "27"], "rt": [16449, 2, 114, 50, 76], "actions": ["left", "left", "left", "up", "up"], "actionTimes": [17936, 18441, 19060, 19614, 20195], "queries": {"click": {"state": {"target": ["12", "1", "23", "24", "25", "26", "30", "2", "4", "3", "8", "10"], "time": [2697, 4043, 5026, 6029, 7151, 8140, 9236, 10823, 11744, 12518, 13359, 14184]}, "edge": {"target": [], "time": []}}, "mouseover": {"state": {"target": ["12", "1", "23", "24", "25", "26", "30", "10", "2", "2", "7", "4", "3", "8", "10", "13", "19", "13", "14", "13"], "time": [2542, 3063, 4654, 5813, 6507, 7938, 9139, 10014, 10188, 10680, 11236, 11459, 12285, 13216, 13979, 14563, 14632, 14965, 16363, 16917]}, "edge": {"target": [], "time": []}}, "mouseout": {"state": {"target": ["0", "12", "1", "23", "24", "25", "26", "25", "30", "10", "2", "2", "7", "4", "3", "8", "10", "13", "19", "13", "14", "13"], "time": [2342, 3014, 4403, 5459, 6473, 7626, 8632, 8882, 9306, 10042, 10319, 11215, 11257, 12125, 13007, 13848, 14502, 14569, 14792, 16279, 16855, 17113]}, "edge": {"target": [], "time": []}}}, "displayed_time": "20.70", "trialTime": 22403, "trial_type": "mouselab-mdp", "trial_index": 9, "time_elapsed": 326986, "internal_node_id": "0.0-6.0-1.0-0.0"}}, {"uniqueid": "w16937372:a80707856", "current_trial": 10, "dateTime": 1693565079858, "trialdata": {"revealed_states": [], "clicked_states": ["1", "12", "23", "24", "13", "14", "19", "15", "25", "26", "27"], "num_clicks_accrued": [0, 0, 0, 0, 0, 0, 0, 0, 0, 0, 0, 0, 0], "stateRewards": ["", -2, 2, 3, -7, 76, 63, 21, 15, 35, -8, -44, 1, 1, -2, -12, 23, 24, 76, -9, 46, 66, -49, -2, -1, 7, 12, 40, -71, -45, -6, 38, -49, 46], "withholdReward": false, "trial_id": "mdp_trial_2", "block": "test", "trialIndex": 3, "score": 47.35, "costs": -8.65, "simulationMode": [null, null, null, null, null], "rewards": [-2, -1, 7, 12, 40], "path": ["0", "0", "23", "24", "25", "26", "27"], "rt": [13099, 23, 23, 46, 30], "actions": ["left", "left", "left", "up", "up"], "actionTimes": [30218, 30742, 31270, 31820, 32353], "queries": {"click": {"state": {"target": ["1", "12", "23", "24", "13", "14", "19", "15", "25", "26", "27"], "time": [17754, 18618, 19474, 20499, 21332, 22114, 22939, 23643, 25115, 25850, 26596]}, "edge": {"target": [], "time": []}}, "mouseover": {"state": {"target": ["1", "1", "12", "0", "23", "0", "24", "0", "13", "14", "19", "15", "23", "24", "25", "26", "27", "28", "28"], "time": [17435, 17622, 18148, 18996, 19301, 19891, 20239, 20801, 21183, 21759, 22739, 23294, 24537, 24662, 25025, 25433, 26419, 26877, 27516]}, "edge": {"target": [], "time": []}}, "mouseout": {"state": {"target": ["12", "0", "18", "12", "1", "1", "12", "0", "23", "0", "23", "24", "23", "0", "12", "13", "14", "19", "14", "15", "23", "24", "25", "26", "27", "28", "28"], "time": [1622, 13528, 16466, 16618, 17450, 18079, 18940, 19141, 19870, 20051, 20204, 20752, 20787, 20829, 20884, 21711, 22530, 23169, 23217, 23982, 24620, 24669, 25377, 26356, 26821, 27301, 28370]}, "edge": {"target": [], "time": []}}}, "displayed_time": "32.85", "trialTime": 35506, "trial_type": "mouselab-mdp", "trial_index": 10, "time_elapsed": 362592, "internal_node_id": "0.0-6.0-1.0-1.0"}}, {"uniqueid": "w16937372:a80707856", "current_trial": 11, "dateTime": 1693565098236, "trialdata": {"revealed_states": [], "clicked_states": ["23", "24", "25", "30", "26", "27", "28"], "num_clicks_accrued": [0, 0, 0, 0, 0, 0, 0, 0, 0, 0, 0, 0, 0], "stateRewards": ["", 1, 4, -4, 14, 35, 51, 19, -13, 54, 78, -74, -2, -1, -3, 13, -11, -42, -73, -15, -24, -3, -69, 2, -1, 5, 16, -27, 73, 58, 9, -60, 5, -60], "withholdReward": false, "trial_id": "mdp_trial_3", "block": "test", "trialIndex": 4, "score": 86.55, "costs": -8.45, "simulationMode": [null, null, null, null, null], "rewards": [2, -1, 5, 16, 73], "path": ["0", "0", "23", "24", "25", "26", "28"], "rt": [11947, 351, 141, 141, 97], "actions": ["left", "left", "left", "up", "right"], "actionTimes": [13502, 14358, 14995, 15634, 16229], "queries": {"click": {"state": {"target": ["23", "24", "25", "30", "26", "27", "28"], "time": [2318, 3114, 3858, 4514, 5347, 6137, 9385]}, "edge": {"target": [], "time": []}}, "mouseover": {"state": {"target": ["23", "24", "25", "30", "26", "27", "28", "26", "29"], "time": [2137, 2881, 3533, 4138, 5124, 5999, 6450, 9693, 9936]}, "edge": {"target": [], "time": []}}, "mouseout": {"state": {"target": ["28", "23", "0", "23", "24", "25", "30", "25", "26", "27", "28", "26"], "time": [975, 1177, 1865, 2638, 3395, 4103, 4853, 4957, 5846, 6387, 9651, 9797]}, "edge": {"target": [], "time": []}}}, "displayed_time": "16.73", "trialTime": 18281, "trial_type": "mouselab-mdp", "trial_index": 11, "time_elapsed": 380969, "internal_node_id": "0.0-6.0-1.0-2.0"}}, {"uniqueid": "w16937372:a80707856", "current_trial": 12, "dateTime": 1693565118818, "trialdata": {"revealed_states": [], "clicked_states": ["28", "27", "29", "26", "25", "24", "23"], "num_clicks_accrued": [0, 0, 0, 0, 0, 0, 0, 0, 0, 0, 0, 0, 0], "stateRewards": ["", 1, 1, -7, -9, -44, 24, -83, -15, 44, -24, 72, -2, -3, 4, -5, 57, 55, 29, -11, 22, 12, -25, -1, 2, 7, 12, 33, -8, 47, -4, 8, 50, -4], "withholdReward": false, "trial_id": "mdp_trial_4", "block": "test", "trialIndex": 5, "score": 57.95, "costs": -9.049999999999999, "simulationMode": [null, null, null, null, null], "rewards": [-1, 2, 7, 12, 47], "path": ["0", "0", "23", "24", "25", "26", "29"], "rt": [13690, 17, 4, 23, 4], "actions": ["left", "left", "left", "up", "left"], "actionTimes": [15386, 15912, 16421, 16946, 17455], "queries": {"click": {"state": {"target": ["28", "27", "29", "26", "25", "24", "23"], "time": [2497, 5717, 8872, 12162, 12972, 13685, 14205]}, "edge": {"target": [], "time": []}}, "mouseover": {"state": {"target": ["23", "28", "27", "29", "26", "25", "24", "23"], "time": [2124, 2214, 2895, 6325, 9152, 12687, 13429, 13946]}, "edge": {"target": [], "time": []}}, "mouseout": {"state": {"target": ["29", "26", "23", "0", "12", "0", "23", "28", "27", "29", "26", "25", "25", "24"], "time": [855, 876, 907, 924, 1229, 2100, 2157, 2749, 6096, 9117, 12422, 13051, 13249, 13902]}, "edge": {"target": [], "time": []}}}, "displayed_time": "17.96", "trialTime": 20483, "trial_type": "mouselab-mdp", "trial_index": 12, "time_elapsed": 401552, "internal_node_id": "0.0-6.0-1.0-3.0"}}, {"uniqueid": "w16937372:a80707856", "current_trial": 13, "dateTime": 1693565138342, "trialdata": {"revealed_states": [], "clicked_states": ["23", "15", "19", "30", "26", "8", "4", "5", "6"], "num_clicks_accrued": [0, 0, 0, 0, 0, 0, 0, 0, 0, 0, 0, 0, 0], "stateRewards": ["", 1, 2, 3, 16, 63, -25, 16, -4, -14, 82, -66, -1, -3, -3, -11, -14, 19, 46, 3, -34, -82, 66, -2, -3, 4, -5, -63, 77, -37, -1, -45, -41, 84], "withholdReward": false, "trial_id": "mdp_trial_5", "block": "test", "trialIndex": 6, "score": 71.65, "costs": -13.350000000000001, "simulationMode": [null, null, null, null, null], "rewards": [1, 2, 3, 16, 63], "path": ["0", "0", "1", "2", "3", "4", "5"], "rt": [13146, 8, 25, 434, 179], "actions": ["up", "up", "up", "right", "up"], "actionTimes": [14400, 14906, 15436, 16366, 17043], "queries": {"click": {"state": {"target": ["23", "15", "19", "30", "26", "8", "4", "5", "6"], "time": [2013, 3119, 4154, 5194, 6081, 6959, 7783, 8609, 11630]}, "edge": {"target": [], "time": []}}, "mouseover": {"state": {"target": ["23", "0", "12", "13", "15", "14", "19", "22", "31", "30", "25", "26", "26", "8", "3", "4", "4", "5", "6", "7", "7"], "time": [1807, 2536, 2640, 2751, 2835, 3390, 3480, 4362, 4633, 5001, 5466, 5522, 5884, 6758, 7182, 7251, 7591, 8376, 8994, 12091, 12709]}, "edge": {"target": [], "time": []}}, "mouseout": {"state": {"target": ["23", "23", "23", "0", "12", "13", "15", "14", "19", "22", "31", "30", "25", "26", "26", "8", "3", "4", "4", "5", "6", "7", "7"], "time": [846, 2094, 2487, 2619, 2689, 2765, 3369, 3431, 4341, 4383, 4897, 5425, 5494, 5647, 6299, 7160, 7216, 7383, 8265, 8827, 11917, 12466, 13230]}, "edge": {"target": [], "time": []}}}, "displayed_time": "17.54", "trialTime": 19433, "trial_type": "mouselab-mdp", "trial_index": 13, "time_elapsed": 421075, "internal_node_id": "0.0-6.0-1.0-4.0"}}, {"uniqueid": "w16937372:a80707856", "current_trial": 14, "dateTime": 1693565167206, "trialdata": {"revealed_states": [], "clicked_states": ["4", "15", "19", "8", "26", "30", "16", "17", "18", "22", "21"], "num_clicks_accrued": [0, 0, 0, 0, 0, 0, 0, 0, 0, 0, 0, 0, 0], "stateRewards": ["", -2, -1, -1, 5, -54, -87, 35, 2, -8, 20, -22, 1, 3, 6, 13, -75, -32, -55, -3, 56, 62, -22, -1, -4, -1, -7, -51, 84, 70, 7, -15, 5, 55], "withholdReward": false, "trial_id": "mdp_trial_6", "block": "test", "trialIndex": 7, "score": 48.95, "costs": -20.05, "simulationMode": [null, null, null, null, null], "rewards": [1, 3, 6, -3, 62], "path": ["0", "0", "12", "13", "14", "19", "21"], "rt": [23339, 121, 69, 32, 66], "actions": ["right", "right", "right", "down", "down"], "actionTimes": [24628, 25256, 25828, 26368, 26944], "queries": {"click": {"state": {"target": ["4", "15", "19", "8", "26", "30", "16", "17", "18", "22", "21"], "time": [2356, 3244, 4277, 5474, 6284, 6891, 7845, 10955, 14084, 17260, 20419]}, "edge": {"target": [], "time": []}}, "mouseover": {"state": {"target": ["0", "7", "4", "18", "15", "14", "19", "13", "12", "0", "23", "24", "29", "27", "11", "8", "26", "25", "30", "23", "18", "16", "17", "15", "18", "13", "22", "19", "21", "20"], "time": [1456, 1740, 2034, 2676, 2912, 3516, 3856, 4620, 4648, 4683, 4703, 4717, 4897, 4981, 5080, 5307, 6071, 6557, 6654, 7182, 7453, 7654, 8182, 11237, 11460, 15085, 15682, 17620, 17772, 20869]}, "edge": {"target": [], "time": []}}, "mouseout": {"state": {"target": ["0", "0", "7", "4", "4", "18", "15", "15", "14", "19", "13", "12", "0", "23", "24", "29", "27", "11", "8", "26", "25", "30", "23", "18", "16", "16", "17", "15", "18", "18", "13", "22", "22", "19", "21", "20"], "time": [1148, 1483, 1988, 2435, 2613, 2711, 3324, 3496, 3558, 4495, 4633, 4668, 4689, 4710, 4731, 4932, 5002, 5175, 5682, 6515, 6615, 6912, 7196, 7460, 7929, 8120, 11203, 11356, 14432, 15029, 15370, 17353, 17592, 17626, 20654, 23618]}, "edge": {"target": [], "time": []}}}, "displayed_time": "27.46", "trialTime": 28749, "trial_type": "mouselab-mdp", "trial_index": 14, "time_elapsed": 449939, "internal_node_id": "0.0-6.0-1.0-5.0"}}, {"uniqueid": "w16937372:a80707856", "current_trial": 15, "dateTime": 1693565189199, "trialdata": {"revealed_states": [], "clicked_states": ["4", "8", "26", "30", "19", "15", "20", "21", "22"], "num_clicks_accrued": [0, 0, 0, 0, 0, 0, 0, 0, 0, 0, 0, 0, 0], "stateRewards": ["", 2, 3, 6, -5, -74, -53, 17, -12, 46, 44, 18, -2, 4, 1, -8, 22, -23, -49, 9, -45, 55, 81, 1, -1, -7, -16, -83, -71, -45, 2, 51, 82, 61], "withholdReward": false, "trial_id": "mdp_trial_7", "block": "test", "trialIndex": 8, "score": 77.25, "costs": -15.750000000000002, "simulationMode": [null, null, null, null, null], "rewards": [-2, 4, 1, 9, 81], "path": ["0", "0", "12", "13", "14", "19", "22"], "rt": [14309, 20, 1, 502, 168], "actions": ["right", "right", "right", "down", "left"], "actionTimes": [16838, 17361, 17870, 18878, 19544], "queries": {"click": {"state": {"target": ["4", "8", "26", "30", "19", "15", "20", "21", "22"], "time": [3191, 3948, 4741, 5361, 6108, 6771, 7500, 10630, 13723]}, "edge": {"target": [], "time": []}}, "mouseover": {"state": {"target": ["4", "3", "8", "10", "26", "25", "30", "31", "22", "19", "14", "15", "14", "20", "21", "21", "22"], "time": [2924, 3382, 3494, 4188, 4542, 4938, 5007, 5528, 5799, 5945, 6389, 6660, 7042, 7208, 7903, 8201, 11229]}, "edge": {"target": [], "time": []}}, "mouseout": {"state": {"target": ["20", "16", "4", "6", "7", "0", "4", "4", "3", "8", "10", "26", "25", "30", "31", "22", "19", "14", "15", "14", "20", "21", "21", "22", "19"], "time": [814, 915, 1342, 1717, 1962, 2579, 3259, 3354, 3458, 4160, 4215, 4910, 4979, 5507, 5549, 5917, 6122, 6487, 7021, 7056, 7848, 8035, 10805, 21115, 21180]}, "edge": {"target": [], "time": []}}}, "displayed_time": "20.05", "trialTime": 21893, "trial_type": "mouselab-mdp", "trial_index": 15, "time_elapsed": 471932, "internal_node_id": "0.0-6.0-1.0-6.0"}}, {"uniqueid": "w16937372:a80707856", "current_trial": 16, "dateTime": 1693565220269, "trialdata": {"revealed_states": [], "clicked_states": ["4", "8", "26", "30", "15", "19", "28", "27", "29", "6", "5", "7"], "num_clicks_accrued": [0, 0, 0, 0, 0, 0, 0, 0, 0, 0, 0, 0, 0], "stateRewards": ["", 1, -2, -2, 10, -31, -77, 35, 9, -47, 8, 48, -2, 1, -4, -3, -26, -50, 43, -11, 76, -38, 17, 1, -1, 6, 10, 15, -9, 12, -8, 85, 11, -55], "withholdReward": false, "trial_id": "mdp_trial_8", "block": "test", "trialIndex": 9, "score": 19.8, "costs": -22.2, "simulationMode": [null, null, null, null, null], "rewards": [1, -2, -2, 10, 35], "path": ["0", "0", "1", "2", "3", "4", "7"], "rt": [24863, 540, 172, 401, 175], "actions": ["up", "up", "up", "right", "down"], "actionTimes": [26085, 27133, 27815, 28723, 29406], "queries": {"click": {"state": {"target": ["4", "8", "26", "30", "15", "19", "28", "27", "29", "6", "5", "7"], "time": [2163, 3135, 4215, 4832, 5701, 6286, 7370, 10533, 13541, 16673, 19742, 22833]}, "edge": {"target": [], "time": []}}, "mouseover": {"state": {"target": ["7", "4", "4", "7", "7", "3", "8", "10", "24", "25", "26", "25", "30", "31", "13", "14", "15", "14", "19", "0", "23", "28", "28", "27", "29", "10", "2", "6", "5", "5", "4", "7"], "time": [1541, 1571, 1988, 2446, 2599, 2661, 2849, 3474, 3647, 3883, 4015, 4481, 4613, 5147, 5300, 5453, 5515, 5969, 6022, 6779, 6918, 7071, 7168, 7967, 10807, 13919, 13981, 14460, 16967, 17273, 19995, 20169]}, "edge": {"target": [], "time": []}}, "mouseout": {"state": {"target": ["19", "22", "22", "12", "0", "7", "4", "4", "4", "7", "7", "3", "8", "10", "24", "25", "26", "25", "30", "31", "13", "14", "15", "15", "14", "19", "0", "23", "28", "28", "28", "27", "29", "10", "2", "6", "5", "5", "5", "4", "7", "0"], "time": [389, 445, 661, 852, 1454, 1565, 1588, 2173, 2432, 2460, 2619, 2780, 3439, 3511, 3807, 3967, 4446, 4515, 5127, 5175, 5314, 5487, 5717, 5953, 6001, 6543, 6883, 6967, 7113, 7717, 7800, 10723, 13547, 13954, 14106, 16874, 17009, 19750, 19932, 20023, 23106, 30746]}, "edge": {"target": [], "time": []}}}, "displayed_time": "29.91", "trialTime": 30969, "trial_type": "mouselab-mdp", "trial_index": 16, "time_elapsed": 503003, "internal_node_id": "0.0-6.0-1.0-7.0"}}, {"uniqueid": "w16937372:a80707856", "current_trial": 17, "dateTime": 1693565240386, "trialdata": {"revealed_states": [], "clicked_states": ["23", "1", "12", "26", "30", "4", "8", "9", "10"], "num_clicks_accrued": [0, 0, 0, 0, 0, 0, 0, 0, 0, 0, 0, 0, 0], "stateRewards": ["", -1, -2, 4, 9, 10, -75, 39, 16, -43, 88, -19, -1, 1, 2, 4, -31, 10, 73, 12, 41, -64, -81, -2, 2, -6, 1, -81, -1, -26, 3, -59, -3, -20], "withholdReward": false, "trial_id": "mdp_trial_9", "block": "test", "trialIndex": 10, "score": 95.25, "costs": -9.75, "simulationMode": [null, null, null, null, null], "rewards": [-1, -2, 4, 16, 88], "path": ["0", "0", "1", "2", "3", "8", "10"], "rt": [13564, 31, 57, 336, 152], "actions": ["up", "up", "up", "left", "down"], "actionTimes": [15488, 16025, 16579, 17421, 18076], "queries": {"click": {"state": {"target": ["23", "1", "12", "26", "30", "4", "8", "9", "10"], "time": [2350, 2902, 3462, 4652, 5271, 6765, 7328, 8319, 11431]}, "edge": {"target": [], "time": []}}, "mouseover": {"state": {"target": ["23", "1", "12", "24", "25", "26", "25", "30", "25", "27", "2", "7", "4", "3", "8", "3", "9", "10", "11"], "time": [2260, 2632, 3194, 4125, 4194, 4550, 4924, 5069, 5486, 5771, 6327, 6390, 6552, 6951, 7028, 7944, 8153, 9014, 11868]}, "edge": {"target": [], "time": []}}, "mouseout": {"state": {"target": ["23", "0", "0", "23", "1", "12", "23", "24", "25", "26", "25", "30", "25", "26", "27", "2", "7", "4", "3", "8", "3", "9", "8", "10", "11", "10", "1", "0"], "time": [1271, 1607, 2106, 2563, 3118, 3791, 4118, 4153, 4306, 4875, 4986, 5458, 5514, 5590, 6153, 6342, 6463, 6910, 7007, 7528, 8006, 8639, 8882, 11673, 19422, 19478, 19631, 19662]}, "edge": {"target": [], "time": []}}}, "displayed_time": "18.58", "trialTime": 20013, "trial_type": "mouselab-mdp", "trial_index": 17, "time_elapsed": 523120, "internal_node_id": "0.0-6.0-1.0-8.0"}}, {"uniqueid": "w16937372:a80707856", "current_trial": 18, "dateTime": 1693565261104, "trialdata": {"revealed_states": [], "clicked_states": ["23", "1", "12", "13", "14", "15", "19", "26", "30", "8", "4", "20", "21"], "num_clicks_accrued": [0, 0, 0, 0, 0, 0, 0, 0, 0, 0, 0, 0, 0], "stateRewards": ["", 2, -1, 8, -2, -16, 69, -39, -7, -13, -27, -86, 2, -2, 2, 13, -34, -16, -20, -5, 19, 81, 32, -2, -1, 2, -14, 20, 80, 58, 4, 70, 12, 73], "withholdReward": false, "trial_id": "mdp_trial_10", "block": "test", "trialIndex": 11, "score": 63.849999999999994, "costs": -14.150000000000002, "simulationMode": [null, null, null, null, null], "rewards": [2, -2, 2, -5, 81], "path": ["0", "0", "12", "13", "14", "19", "21"], "rt": [15390, 27, 9, 383, 88], "actions": ["right", "right", "right", "down", "down"], "actionTimes": [16682, 17208, 17718, 18612, 19193], "queries": {"click": {"state": {"target": ["23", "1", "12", "13", "14", "15", "19", "26", "30", "8", "4", "20", "21"], "time": [2128, 2570, 3075, 3476, 4393, 4969, 5608, 6496, 7042, 7963, 8521, 9583, 12849]}, "edge": {"target": [], "time": []}}, "mouseover": {"state": {"target": ["23", "1", "12", "13", "14", "15", "19", "1", "26", "25", "30", "28", "10", "8", "3", "4", "7", "18", "13", "20", "21", "19", "21", "22", "13", "13", "22"], "time": [1952, 2368, 2882, 3382, 4138, 4763, 5251, 5972, 6339, 6707, 6784, 7403, 7563, 7820, 8124, 8263, 8971, 9020, 9055, 9235, 10027, 11916, 12347, 13145, 13583, 13923, 13971]}, "edge": {"target": [], "time": []}}, "mouseout": {"state": {"target": ["0", "23", "1", "12", "13", "14", "15", "14", "19", "12", "1", "26", "25", "30", "28", "10", "8", "3", "4", "4", "7", "18", "13", "20", "21", "19", "21", "21", "22", "13", "13", "22"], "time": [1713, 2228, 2784, 3256, 3680, 4402, 5152, 5228, 5909, 5951, 5986, 6680, 6736, 7257, 7466, 7653, 8096, 8173, 8541, 8937, 8985, 9034, 9076, 9854, 11833, 12235, 12897, 13034, 13548, 13611, 13930, 20239]}, "edge": {"target": [], "time": []}}}, "displayed_time": "19.70", "trialTime": 20613, "trial_type": "mouselab-mdp", "trial_index": 18, "time_elapsed": 543838, "internal_node_id": "0.0-6.0-1.0-9.0"}}, {"uniqueid": "w16937372:a80707856", "current_trial": 19, "dateTime": 1693565293445, "trialdata": {"revealed_states": [], "clicked_states": ["1", "12", "23", "26", "30", "19", "15", "4", "8", "16", "17", "18", "28", "27", "29"], "num_clicks_accrued": [0, 0, 0, 0, 0, 0, 0, 0, 0, 0, 0, 0, 0], "stateRewards": ["", -2, 2, 3, -7, -31, -33, 29, -8, -57, 50, -83, -1, -1, 5, 13, -23, -62, 25, 5, -66, -85, 14, 1, -2, -1, 16, 71, 33, -19, -14, 5, -43, 79], "withholdReward": false, "trial_id": "mdp_trial_11", "block": "test", "trialIndex": 12, "score": 63.55, "costs": -21.45, "simulationMode": [null, null, null, null, null], "rewards": [1, -2, -1, 16, 71], "path": ["0", "0", "23", "24", "25", "26", "27"], "rt": [26214, 451, 78, 12, 26], "actions": ["left", "left", "left", "up", "up"], "actionTimes": [28203, 29157, 29742, 30252, 30780], "queries": {"click": {"state": {"target": ["1", "12", "23", "26", "30", "19", "15", "4", "8", "16", "17", "18", "28", "27", "29"], "time": [3314, 3717, 4189, 5198, 5917, 6686, 7258, 8004, 8699, 9446, 12522, 15574, 18725, 21842, 25122]}, "edge": {"target": [], "time": []}}, "mouseover": {"state": {"target": ["1", "2", "1", "12", "0", "23", "24", "25", "26", "25", "30", "31", "22", "19", "14", "15", "6", "4", "3", "8", "8", "3", "16", "17", "15", "18", "1", "28", "28", "27", "29"], "time": [2483, 2658, 3051, 3470, 3892, 4052, 4385, 4455, 4962, 5427, 5767, 6170, 6330, 6510, 6837, 6997, 7677, 7858, 8191, 8240, 8608, 8976, 9260, 9754, 12712, 12969, 15781, 15935, 16316, 19114, 22642]}, "edge": {"target": [], "time": []}}, "mouseout": {"state": {"target": ["0", "1", "2", "1", "12", "0", "23", "24", "25", "26", "25", "30", "31", "22", "19", "14", "15", "6", "4", "3", "8", "8", "8", "3", "16", "17", "15", "18", "1", "28", "28", "27", "29", "30", "31"], "time": [2386, 2587, 2747, 3427, 3858, 3955, 4365, 4427, 4476, 5378, 5483, 6156, 6205, 6385, 6802, 6892, 7580, 7684, 8163, 8218, 8260, 8706, 8934, 8983, 9691, 12684, 12768, 15733, 15802, 15976, 18934, 22135, 31907, 32028, 32052]}, "edge": {"target": [], "time": []}}}, "displayed_time": "31.29", "trialTime": 32236, "trial_type": "mouselab-mdp", "trial_index": 19, "time_elapsed": 576178, "internal_node_id": "0.0-6.0-1.0-10.0"}}, {"uniqueid": "w16937372:a80707856", "current_trial": 20, "dateTime": 1693565313984, "trialdata": {"revealed_states": [], "clicked_states": ["23", "1", "12", "15", "19", "30", "26", "8", "4", "16", "17", "18"], "num_clicks_accrued": [0, 0, 0, 0, 0, 0, 0, 0, 0, 0, 0, 0, 0], "stateRewards": ["", -1, -3, -5, -14, -13, -47, 79, 8, -60, -64, 41, -1, 2, 3, 13, -46, 61, -79, -11, -64, -65, 23, 1, -2, 6, -14, 46, 32, 21, 7, 75, -66, 15], "withholdReward": false, "trial_id": "mdp_trial_12", "block": "test", "trialIndex": 13, "score": 63, "costs": -15.000000000000002, "simulationMode": [null, null, null, null, null, null], "rewards": [-1, 2, 3, 13, 61], "path": ["0", "0", "12", "13", "14", "15", "17"], "rt": [13506, 1568, 18, 555, 45, 446], "actions": ["right", "right", "right", "right", "up", "right"], "actionTimes": [14444, 16014, 16533, 17598, 18143, 19093], "queries": {"click": {"state": {"target": ["23", "1", "12", "15", "19", "30", "26", "8", "4", "16", "17", "18"], "time": [1395, 1764, 2283, 2708, 3349, 4173, 4733, 5436, 6157, 6727, 9804, 12962]}, "edge": {"target": [], "time": []}}, "mouseover": {"state": {"target": ["23", "1", "12", "15", "14", "19", "22", "30", "25", "26", "8", "3", "4", "4", "6", "16", "17", "15", "18"], "time": [1253, 1590, 1979, 2525, 2903, 2986, 3590, 4001, 4313, 4500, 5320, 5618, 5708, 6056, 6375, 6487, 6965, 9972, 10069]}, "edge": {"target": [], "time": []}}, "mouseout": {"state": {"target": ["0", "23", "1", "12", "15", "14", "19", "22", "30", "25", "26", "8", "3", "4", "4", "6", "16", "17", "15", "18"], "time": [1148, 1486, 1910, 2417, 2875, 2945, 3577, 3611, 4264, 4340, 4889, 5597, 5660, 5771, 6326, 6382, 6903, 9951, 10034, 13423]}, "edge": {"target": [], "time": []}}}, "displayed_time": "19.60", "trialTime": 20433, "trial_type": "mouselab-mdp", "trial_index": 20, "time_elapsed": 596718, "internal_node_id": "0.0-6.0-1.0-11.0"}}, {"uniqueid": "w16937372:a80707856", "current_trial": 21, "dateTime": 1693565353839, "trialdata": {"revealed_states": [], "clicked_states": ["1", "23", "12", "15", "19", "30", "26", "8", "4", "5", "6", "7", "9", "11", "10", "31", "32"], "num_clicks_accrued": [0, 0, 0, 0, 0, 0, 0, 0, 0, 0, 0, 0, 0], "stateRewards": ["", -2, 1, -8, 12, -65, -79, 16, 7, -80, -17, -45, -2, 2, -5, -2, -85, 23, -4, -7, 48, 27, -76, 2, 3, 5, 2, 43, 71, -13, 7, -49, 59, -31], "withholdReward": false, "trial_id": "mdp_trial_13", "block": "test", "trialIndex": 14, "score": 50.25, "costs": -25.749999999999996, "simulationMode": [null, null, null, null, null], "rewards": [2, 3, 5, 7, 59], "path": ["0", "0", "23", "24", "25", "30", "32"], "rt": [32404, 2, 21, 336, 73], "actions": ["left", "left", "left", "down", "down"], "actionTimes": [35826, 36335, 36858, 37709, 38279], "queries": {"click": {"state": {"target": ["1", "23", "12", "15", "19", "30", "26", "8", "4", "5", "6", "7", "9", "11", "10", "31", "32"], "time": [4179, 4604, 5106, 5683, 6286, 6938, 7419, 8060, 8925, 9683, 12771, 15887, 19302, 22407, 25611, 28698, 31760]}, "edge": {"target": [], "time": []}}, "mouseover": {"state": {"target": ["1", "2", "1", "23", "0", "12", "18", "15", "14", "19", "22", "31", "30", "25", "26", "11", "8", "3", "4", "4", "3", "5", "6", "7", "7", "3", "9", "11", "10", "27", "24", "31", "30", "32", "33"], "time": [3747, 3895, 4027, 4378, 4795, 4892, 5329, 5503, 5961, 6059, 6448, 6628, 6836, 7114, 7163, 7822, 8012, 8274, 8330, 8823, 9295, 9538, 10392, 13053, 13226, 16240, 16663, 19961, 22982, 25899, 27364, 27712, 28989, 29156, 32239]}, "edge": {"target": [], "time": []}}, "mouseout": {"state": {"target": ["12", "0", "0", "1", "2", "1", "23", "0", "12", "18", "15", "15", "14", "19", "22", "31", "30", "25", "26", "11", "8", "3", "4", "4", "3", "5", "6", "7", "7", "3", "9", "11", "10", "27", "24", "31", "30", "32", "33"], "time": [2882, 3013, 3345, 3769, 3928, 4318, 4767, 4843, 5267, 5343, 5691, 5948, 6003, 6427, 6461, 6712, 7066, 7142, 7489, 7885, 8246, 8309, 8489, 9136, 9365, 9886, 12962, 13163, 16086, 16274, 19816, 22725, 25830, 27205, 27426, 28947, 29031, 32024, 35059]}, "edge": {"target": [], "time": []}}}, "displayed_time": "38.78", "trialTime": 39742, "trial_type": "mouselab-mdp", "trial_index": 21, "time_elapsed": 636572, "internal_node_id": "0.0-6.0-1.0-12.0"}}, {"uniqueid": "w16937372:a80707856", "current_trial": 22, "dateTime": 1693565385179, "trialdata": {"revealed_states": [], "clicked_states": ["1", "12", "23", "30", "26", "8", "4", "15", "19", "31", "32", "33", "18", "16", "17"], "num_clicks_accrued": [0, 0, 0, 0, 0, 0, 0, 0, 0, 0, 0, 0, 0], "stateRewards": ["", 1, 4, -8, -13, -13, -87, -77, -10, -44, 54, 42, 2, -3, -4, 12, -9, -80, 52, 9, 84, -2, -65, 1, -4, -5, -6, 8, 80, 32, 13, -59, -5, -13], "withholdReward": false, "trial_id": "mdp_trial_14", "block": "test", "trialIndex": 15, "score": 37.55, "costs": -21.45, "simulationMode": [null, null, null, null, null], "rewards": [2, -3, -4, 12, 52], "path": ["0", "0", "12", "13", "14", "15", "18"], "rt": [25389, 507, 132, 90, 70], "actions": ["right", "right", "right", "up", "left"], "actionTimes": [26732, 27737, 28375, 28965, 29543], "queries": {"click": {"state": {"target": ["1", "12", "23", "30", "26", "8", "4", "15", "19", "31", "32", "33", "18", "16", "17"], "time": [1723, 2050, 2625, 3609, 4290, 4971, 5505, 6201, 6786, 7587, 10660, 14256, 17379, 20548, 23616]}, "edge": {"target": [], "time": []}}, "mouseover": {"state": {"target": ["1", "12", "0", "23", "31", "30", "25", "26", "26", "8", "3", "4", "18", "15", "14", "19", "31", "32", "30", "33", "24", "1", "16", "18", "16", "17"], "time": [1496, 1938, 2264, 2506, 3146, 3409, 3750, 3826, 4173, 4882, 5153, 5312, 5868, 6048, 6444, 6500, 7458, 8361, 10937, 14177, 14576, 14805, 15256, 15694, 17756, 21076]}, "edge": {"target": [], "time": []}}, "mouseout": {"state": {"target": ["24", "1", "1", "1", "12", "12", "0", "23", "31", "30", "25", "26", "26", "8", "3", "4", "18", "15", "14", "19", "31", "32", "30", "33", "24", "1", "16", "18", "16", "17"], "time": [728, 784, 952, 1840, 2097, 2208, 2368, 2909, 3305, 3708, 3805, 3993, 4396, 5132, 5201, 5771, 6021, 6416, 6465, 7076, 7785, 10805, 10944, 14513, 14615, 14826, 15542, 17576, 20819, 23696]}, "edge": {"target": [], "time": []}}}, "displayed_time": "30.04", "trialTime": 31233, "trial_type": "mouselab-mdp", "trial_index": 22, "time_elapsed": 667912, "internal_node_id": "0.0-6.0-1.0-13.0"}}, {"uniqueid": "w16937372:a80707856", "current_trial": 23, "dateTime": 1693565416600, "trialdata": {"revealed_states": [], "clicked_states": ["1", "23", "12", "15", "19", "30", "26", "8", "4", "32", "31", "33", "22", "21", "20"], "num_clicks_accrued": [0, 0, 0, 0, 0, 0, 0, 0, 0, 0, 0, 0, 0], "stateRewards": ["", -1, 1, 8, -3, -24, 11, -65, -6, -77, 48, 44, -2, 1, -2, -7, -55, -35, 33, 8, -28, 19, -53, -1, -1, -5, -5, -70, 10, 44, 8, -58, -70, 51], "withholdReward": false, "trial_id": "mdp_trial_15", "block": "test", "trialIndex": 16, "score": 30.55, "costs": -21.45, "simulationMode": [null, null, null, null, null], "rewards": [-1, -1, -5, 8, 51], "path": ["0", "0", "23", "24", "25", "30", "33"], "rt": [25896, 17, 54, 419, 35], "actions": ["left", "left", "left", "down", "left"], "actionTimes": [27341, 27862, 28412, 29339, 29872], "queries": {"click": {"state": {"target": ["1", "23", "12", "15", "19", "30", "26", "8", "4", "32", "31", "33", "22", "21", "20"], "time": [1824, 2170, 2706, 3546, 4122, 4787, 5292, 6022, 6619, 7348, 10699, 13761, 17880, 20990, 24194]}, "edge": {"target": [], "time": []}}, "mouseover": {"state": {"target": ["1", "23", "0", "12", "13", "15", "14", "19", "22", "31", "30", "25", "26", "8", "3", "4", "7", "1", "23", "31", "32", "31", "30", "33", "33", "30", "22", "21", "20"], "time": [1722, 2010, 2406, 2461, 3087, 3455, 3725, 4010, 4260, 4364, 4462, 4926, 4996, 5843, 6163, 6427, 6823, 6885, 6914, 7031, 7211, 7545, 10899, 11003, 11357, 13983, 14499, 18586, 21301]}, "edge": {"target": [], "time": []}}, "mouseout": {"state": {"target": ["17", "15", "23", "24", "25", "25", "24", "23", "1", "23", "0", "12", "13", "15", "14", "19", "22", "31", "30", "25", "26", "8", "3", "4", "7", "1", "23", "31", "32", "31", "31", "30", "33", "33", "30", "31", "22", "21"], "time": [600, 616, 673, 684, 698, 946, 1034, 1185, 1962, 2357, 2433, 2968, 3156, 3697, 3781, 4246, 4267, 4413, 4885, 4947, 5354, 6149, 6302, 6787, 6829, 6892, 6950, 7093, 7468, 10704, 10871, 10961, 11121, 13940, 14010, 14037, 18530, 21162]}, "edge": {"target": [], "time": []}}}, "displayed_time": "30.38", "trialTime": 31310, "trial_type": "mouselab-mdp", "trial_index": 23, "time_elapsed": 699334, "internal_node_id": "0.0-6.0-1.0-14.0"}}, {"uniqueid": "w16937372:a80707856", "current_trial": 24, "dateTime": 1693565440829, "trialdata": {"revealed_states": [], "clicked_states": ["1", "12", "23", "8", "4", "15", "19", "30", "26", "22", "21", "20"], "num_clicks_accrued": [0, 0, 0, 0, 0, 0, 0, 0, 0, 0, 0, 0, 0], "stateRewards": ["", 1, -4, 6, -3, 40, 76, -51, 5, -24, -63, 44, -2, -2, 8, 1, 76, -85, -58, 10, 59, 20, 11, -2, 3, -3, 3, -82, -10, 54, -7, -57, -6, -32], "withholdReward": false, "trial_id": "mdp_trial_16", "block": "test", "trialIndex": 17, "score": 58, "costs": -15.000000000000002, "simulationMode": [null, null, null, null, null], "rewards": [-2, -2, 8, 10, 59], "path": ["0", "0", "12", "13", "14", "19", "20"], "rt": [15996, 320, 73, 15, 24], "actions": ["right", "right", "right", "down", "right"], "actionTimes": [17401, 18224, 18803, 19321, 19851], "queries": {"click": {"state": {"target": ["1", "12", "23", "8", "4", "15", "19", "30", "26", "22", "21", "20"], "time": [1910, 2401, 3054, 3928, 4512, 5152, 5735, 6744, 7383, 8118, 11141, 14284]}, "edge": {"target": [], "time": []}}, "mouseover": {"state": {"target": ["1", "12", "0", "23", "10", "8", "3", "4", "15", "14", "19", "22", "31", "30", "25", "26", "24", "22", "21", "20"], "time": [1679, 2257, 2590, 2685, 3528, 3771, 4132, 4347, 5056, 5405, 5486, 5937, 6084, 6236, 6896, 7299, 7590, 7944, 8409, 11631]}, "edge": {"target": [], "time": []}}, "mouseout": {"state": {"target": ["20", "14", "13", "12", "0", "1", "12", "0", "23", "10", "8", "3", "4", "15", "15", "14", "19", "22", "31", "30", "25", "26", "24", "22", "21", "20"], "time": [543, 791, 974, 1000, 1214, 2069, 2562, 2646, 3257, 3534, 4097, 4188, 4694, 5167, 5382, 5451, 5910, 5979, 6111, 6847, 7201, 7562, 7618, 8319, 11375, 14777]}, "edge": {"target": [], "time": []}}}, "displayed_time": "20.36", "trialTime": 24120, "trial_type": "mouselab-mdp", "trial_index": 24, "time_elapsed": 723562, "internal_node_id": "0.0-6.0-1.0-15.0"}}, {"uniqueid": "w16937372:a80707856", "current_trial": 25, "dateTime": 1693565463499, "trialdata": {"revealed_states": [], "clicked_states": ["1", "12", "23", "26", "30", "19", "15", "4", "8", "9", "10", "11"], "num_clicks_accrued": [0, 0, 0, 0, 0, 0, 0, 0, 0, 0, 0, 0, 0], "stateRewards": ["", -1, -3, -7, -7, -76, 30, -49, 11, -70, 56, 2, 1, 4, -3, -14, -59, -83, -25, -9, -21, -67, -73, -2, 4, 4, -9, -11, -32, 60, 9, -87, 22, -64], "withholdReward": false, "trial_id": "mdp_trial_17", "block": "test", "trialIndex": 18, "score": 41, "costs": -15.000000000000002, "simulationMode": [null, null, null, null, null], "rewards": [-1, -3, -7, 11, 56], "path": ["0", "0", "1", "2", "3", "8", "10"], "rt": [16988, 46, 10, 342, 56], "actions": ["up", "up", "up", "left", "down"], "actionTimes": [18608, 19154, 19674, 20520, 21080], "queries": {"click": {"state": {"target": ["1", "12", "23", "26", "30", "19", "15", "4", "8", "9", "10", "11"], "time": [2965, 3280, 3794, 4361, 4944, 5558, 6481, 7238, 7890, 9227, 12292, 15556]}, "edge": {"target": [], "time": []}}, "mouseover": {"state": {"target": ["0", "1", "1", "1", "12", "23", "24", "25", "26", "30", "31", "22", "19", "14", "15", "15", "4", "3", "8", "8", "10", "23", "31", "24", "28", "11", "9", "10", "11"], "time": [1957, 1996, 2351, 2856, 3093, 3496, 3933, 3975, 4232, 4809, 5079, 5225, 5350, 5704, 5808, 6399, 7003, 7447, 7496, 7774, 8065, 8184, 8531, 8781, 8801, 8822, 9110, 9496, 12558]}, "edge": {"target": [], "time": []}}, "mouseout": {"state": {"target": ["19", "22", "0", "0", "1", "1", "1", "12", "23", "24", "25", "26", "30", "31", "22", "19", "14", "15", "15", "15", "4", "3", "8", "8", "10", "23", "31", "24", "28", "11", "9", "9", "8", "10", "11"], "time": [1022, 1045, 1758, 1964, 2004, 2790, 3061, 3406, 3919, 3961, 3989, 4496, 5065, 5107, 5301, 5669, 5760, 5971, 6753, 6871, 7422, 7482, 7544, 8051, 8086, 8212, 8767, 8795, 8808, 8829, 9293, 9405, 9475, 12461, 15766]}, "edge": {"target": [], "time": []}}}, "displayed_time": "21.59", "trialTime": 22559, "trial_type": "mouselab-mdp", "trial_index": 25, "time_elapsed": 746233, "internal_node_id": "0.0-6.0-1.0-16.0"}}, {"uniqueid": "w16937372:a80707856", "current_trial": 26, "dateTime": 1693565479485, "trialdata": {"revealed_states": [], "clicked_states": ["1", "12", "23", "26", "30", "19", "15", "20"], "num_clicks_accrued": [0, 0, 0, 0, 0, 0, 0, 0, 0, 0, 0, 0, 0], "stateRewards": ["", -1, 3, -4, -14, 78, 67, 2, 13, -32, 28, 39, -2, 1, -4, -4, -4, -42, -86, 11, 64, -29, -32, -1, -4, 2, -7, 5, 68, -61, 2, -21, 85, 50], "withholdReward": false, "trial_id": "mdp_trial_18", "block": "test", "trialIndex": 19, "score": 62.4, "costs": -7.6, "simulationMode": [null, null, null, null, null], "rewards": [-2, 1, -4, 11, 64], "path": ["0", "0", "12", "13", "14", "19", "20"], "rt": [8373, 14, 76, 29, 44], "actions": ["right", "right", "right", "down", "right"], "actionTimes": [9335, 9858, 10448, 10984, 11528], "queries": {"click": {"state": {"target": ["1", "12", "23", "26", "30", "19", "15", "20"], "time": [1323, 1662, 2469, 2982, 3584, 4293, 4903, 5558]}, "edge": {"target": [], "time": []}}, "mouseover": {"state": {"target": ["1", "12", "0", "23", "24", "26", "25", "30", "31", "19", "19", "14", "15", "14", "20", "21"], "time": [1141, 1572, 1871, 2281, 2662, 2802, 3183, 3232, 3760, 3982, 4191, 4482, 4767, 5128, 5454, 5885]}, "edge": {"target": [], "time": []}}, "mouseout": {"state": {"target": ["10", "1", "12", "12", "0", "23", "24", "26", "26", "25", "30", "31", "19", "19", "14", "15", "14", "20", "20", "21"], "time": [492, 1440, 1670, 1836, 1943, 2642, 2711, 3051, 3149, 3218, 3732, 3802, 4038, 4405, 4572, 5100, 5142, 5566, 5822, 12819]}, "edge": {"target": [], "time": []}}}, "displayed_time": "14.96", "trialTime": 15871, "trial_type": "mouselab-mdp", "trial_index": 26, "time_elapsed": 762218, "internal_node_id": "0.0-6.0-1.0-17.0"}}, {"uniqueid": "w16937372:a80707856", "current_trial": 27, "dateTime": 1693565496173, "trialdata": {"revealed_states": [], "clicked_states": ["1", "12", "23", "26", "30", "19", "15", "4", "8", "9"], "num_clicks_accrued": [0, 0, 0, 0, 0, 0, 0, 0, 0, 0, 0, 0, 0], "stateRewards": ["", -1, -3, -7, -4, -85, -70, 79, 8, 84, -66, 42, 2, -2, -3, -16, -54, -66, 68, -3, 21, -14, 7, -2, -1, -3, -8, 75, 80, 86, -7, -84, 73, -16], "withholdReward": false, "trial_id": "mdp_trial_19", "block": "test", "trialIndex": 20, "score": 70.3, "costs": -10.700000000000001, "simulationMode": [null, null, null, null, null], "rewards": [-1, -3, -7, 8, 84], "path": ["0", "0", "1", "2", "3", "8", "9"], "rt": [10131, 46, 82, 37, 56], "actions": ["up", "up", "up", "left", "up"], "actionTimes": [11993, 12546, 13137, 13675, 14236], "queries": {"click": {"state": {"target": ["1", "12", "23", "26", "30", "19", "15", "4", "8", "9"], "time": [2253, 2713, 3398, 4136, 4631, 5534, 6041, 6713, 7310, 8081]}, "edge": {"target": [], "time": []}}, "mouseover": {"state": {"target": ["1", "12", "0", "23", "24", "25", "29", "26", "25", "30", "31", "22", "19", "14", "15", "4", "4", "3", "8", "9", "11"], "time": [2054, 2610, 2992, 3270, 3554, 3575, 3624, 3880, 4304, 4394, 4769, 4901, 5374, 5686, 5742, 6403, 6589, 6887, 6985, 7887, 8269]}, "edge": {"target": [], "time": []}}, "mouseout": {"state": {"target": ["22", "0", "1", "12", "12", "0", "23", "24", "25", "29", "26", "25", "30", "31", "22", "19", "14", "15", "4", "4", "3", "8", "8", "9", "11", "0"], "time": [1117, 1525, 2374, 2718, 2971, 3151, 3526, 3568, 3582, 3846, 4276, 4346, 4742, 4783, 5082, 5541, 5721, 6188, 6408, 6718, 6950, 7519, 7825, 8242, 15518, 15766]}, "edge": {"target": [], "time": []}}}, "displayed_time": "15.86", "trialTime": 16575, "trial_type": "mouselab-mdp", "trial_index": 27, "time_elapsed": 778905, "internal_node_id": "0.0-6.0-1.0-18.0"}}, {"uniqueid": "w16937372:a80707856", "current_trial": 28, "dateTime": 1693565518883, "trialdata": {"revealed_states": [], "clicked_states": ["1", "12", "23", "26", "30", "19", "15", "4", "8", "33", "32", "31"], "num_clicks_accrued": [0, 0, 0, 0, 0, 0, 0, 0, 0, 0, 0, 0, 0], "stateRewards": ["", 1, 2, -6, -13, -51, 22, -4, -12, -44, -12, 6, -2, -2, -2, -14, -46, -4, -77, -2, 36, -79, 41, 2, -4, 2, -6, -55, 59, 70, -5, 39, -19, 24], "withholdReward": false, "trial_id": "mdp_trial_20", "block": "test", "trialIndex": 21, "score": 19, "costs": -15.000000000000002, "simulationMode": [null, null, null, null, null], "rewards": [2, -4, 2, -5, 39], "path": ["0", "0", "23", "24", "25", "30", "31"], "rt": [17465, 96, 86, 269, 123], "actions": ["left", "left", "left", "down", "right"], "actionTimes": [18832, 19427, 20014, 20781, 21406], "queries": {"click": {"state": {"target": ["1", "12", "23", "26", "30", "19", "15", "4", "8", "33", "32", "31"], "time": [1770, 2151, 2630, 3168, 3768, 4518, 5462, 6597, 7168, 8604, 11833, 14996]}, "edge": {"target": [], "time": []}}, "mouseover": {"state": {"target": ["1", "12", "0", "23", "24", "26", "25", "30", "31", "22", "19", "14", "15", "4", "4", "3", "8", "10", "28", "25", "30", "33", "32", "31", "22"], "time": [1518, 2004, 2323, 2399, 2816, 2997, 3330, 3566, 3955, 4219, 4358, 4665, 5205, 5767, 6421, 6788, 6928, 7823, 7949, 8142, 8221, 8469, 9045, 12358, 15670]}, "edge": {"target": [], "time": []}}, "mouseout": {"state": {"target": ["0", "1", "12", "0", "23", "24", "26", "25", "30", "31", "22", "19", "14", "15", "4", "4", "3", "8", "10", "28", "25", "30", "33", "32", "31"], "time": [1420, 1885, 2295, 2364, 2782, 2865, 3295, 3434, 3927, 3976, 4274, 4622, 4865, 5650, 5796, 6768, 6879, 7650, 7897, 8011, 8191, 8253, 8747, 12031, 15170]}, "edge": {"target": [], "time": []}}}, "displayed_time": "21.91", "trialTime": 22591, "trial_type": "mouselab-mdp", "trial_index": 28, "time_elapsed": 801616, "internal_node_id": "0.0-6.0-1.0-19.0"}}, {"uniqueid": "w16937372:a80707856", "current_trial": 29, "dateTime": 1693565548905, "trialdata": {"revealed_states": [], "clicked_states": ["1", "12", "23", "15", "19", "16", "17", "18", "5", "6", "7"], "num_clicks_accrued": [0, 0, 0, 0, 0, 0, 0, 0, 0, 0, 0, 0, 0], "stateRewards": ["", 2, 4, -6, -13, -75, -81, 30, 7, 5, 59, -65, -1, -1, 7, 14, -38, 36, -41, 1, -54, -5, 64, 2, -1, 5, 6, -19, 79, 11, 16, -33, -50, 58], "withholdReward": false, "trial_id": "mdp_trial_21", "block": "test", "trialIndex": 22, "score": 39.75, "costs": -15.250000000000002, "simulationMode": [null, null, null, null, null], "rewards": [-1, -1, 7, 14, 36], "path": ["0", "0", "12", "13", "14", "15", "17"], "rt": [25320, 39, 80, 73, 8], "actions": ["right", "right", "right", "up", "right"], "actionTimes": [25996, 26536, 27118, 27695, 28206], "queries": {"click": {"state": {"target": ["1", "12", "23", "15", "19", "16", "17", "18", "5", "6", "7"], "time": [1030, 1453, 2177, 2737, 3577, 4609, 7676, 10841, 15556, 18648, 21878]}, "edge": {"target": [], "time": []}}, "mouseover": {"state": {"target": ["1", "12", "0", "23", "15", "14", "19", "14", "6", "4", "16", "17", "15", "18", "15", "4", "5", "6", "6", "7"], "time": [881, 1294, 1739, 2086, 2426, 3023, 3433, 3746, 3836, 4253, 4475, 5113, 7891, 8057, 12801, 15233, 15457, 16016, 16294, 18982]}, "edge": {"target": [], "time": []}}, "mouseout": {"state": {"target": ["22", "12", "0", "1", "12", "0", "23", "15", "14", "19", "14", "6", "4", "16", "17", "15", "18", "18", "15", "4", "5", "6", "6", "7"], "time": [192, 336, 690, 1176, 1718, 1884, 2315, 2905, 3301, 3718, 3774, 3898, 4315, 4940, 7843, 7954, 11426, 12794, 12808, 15329, 15870, 16155, 18898, 29152]}, "edge": {"target": [], "time": []}}}, "displayed_time": "28.71", "trialTime": 29903, "trial_type": "mouselab-mdp", "trial_index": 29, "time_elapsed": 831638, "internal_node_id": "0.0-6.0-1.0-20.0"}}, {"uniqueid": "w16937372:a80707856", "current_trial": 30, "dateTime": 1693565576809, "trialdata": {"revealed_states": [], "clicked_states": ["1", "12", "23", "26", "30", "19", "15", "4", "8", "33", "32", "31", "22", "21"], "num_clicks_accrued": [0, 0, 0, 0, 0, 0, 0, 0, 0, 0, 0, 0, 0], "stateRewards": ["", -2, -3, -7, 7, -54, -69, -4, -14, -77, 22, 40, -2, -1, 5, 6, -35, 50, -60, 10, -28, 75, 57, 1, -4, -2, 2, 68, 34, -18, 12, 3, -21, -43], "withholdReward": false, "trial_id": "mdp_trial_22", "block": "test", "trialIndex": 23, "score": 67.7, "costs": -19.3, "simulationMode": [null, null, null, null, null], "rewards": [-2, -1, 5, 10, 75], "path": ["0", "0", "12", "13", "14", "19", "21"], "rt": [21691, 533, 77, 13, 77], "actions": ["right", "right", "right", "down", "down"], "actionTimes": [22349, 23388, 23966, 24486, 25078], "queries": {"click": {"state": {"target": ["1", "12", "23", "26", "30", "19", "15", "4", "8", "33", "32", "31", "22", "21"], "time": [1250, 1682, 2324, 2852, 3379, 4074, 4610, 5337, 5945, 6673, 9759, 12847, 15998, 19209]}, "edge": {"target": [], "time": []}}, "mouseover": {"state": {"target": ["1", "12", "0", "23", "26", "25", "30", "31", "22", "19", "14", "15", "18", "4", "3", "8", "28", "25", "33", "32", "31", "22", "21"], "time": [1148, 1444, 1909, 2222, 2572, 3034, 3152, 3520, 3673, 3791, 4229, 4395, 4826, 5041, 5555, 5819, 6242, 6347, 6451, 8520, 10326, 13402, 16360]}, "edge": {"target": [], "time": []}}, "mouseout": {"state": {"target": ["0", "1", "12", "0", "23", "26", "25", "30", "31", "22", "19", "14", "15", "18", "4", "3", "8", "28", "25", "33", "32", "31", "22", "21", "21"], "time": [905, 1368, 1867, 2118, 2486, 3013, 3118, 3500, 3548, 3708, 4194, 4264, 4680, 4875, 5507, 5604, 6125, 6298, 6395, 8389, 9909, 13027, 16263, 25959, 26152]}, "edge": {"target": [], "time": []}}}, "displayed_time": "25.58", "trialTime": 27791, "trial_type": "mouselab-mdp", "trial_index": 30, "time_elapsed": 859542, "internal_node_id": "0.0-6.0-1.0-21.0"}}, {"uniqueid": "w16937372:a80707856", "current_trial": 31, "dateTime": 1693565598457, "trialdata": {"revealed_states": [], "clicked_states": ["1", "12", "23", "26", "30", "19", "15", "4", "8", "5", "6", "7"], "num_clicks_accrued": [0, 0, 0, 0, 0, 0, 0, 0, 0, 0, 0, 0, 0], "stateRewards": ["", -2, -1, -5, 10, -36, -70, 68, -9, 86, 71, -10, 2, -4, 7, -7, 66, 44, -66, -13, -69, 43, 15, -2, 2, 6, -13, 62, 57, 50, -10, -69, 42, -72], "withholdReward": false, "trial_id": "mdp_trial_23", "block": "test", "trialIndex": 24, "score": 55, "costs": -15.000000000000002, "simulationMode": [null, null, null, null, null], "rewards": [-2, -1, -5, 10, 68], "path": ["0", "0", "1", "2", "3", "4", "7"], "rt": [16983, 37, 102, 64, 88], "actions": ["up", "up", "up", "right", "down"], "actionTimes": [17938, 18472, 19071, 19638, 20225], "queries": {"click": {"state": {"target": ["1", "12", "23", "26", "30", "19", "15", "4", "8", "5", "6", "7"], "time": [1366, 1676, 2746, 3273, 3779, 4450, 4921, 6552, 7073, 7865, 11003, 14081]}, "edge": {"target": [], "time": []}}, "mouseover": {"state": {"target": ["1", "12", "0", "23", "23", "28", "26", "25", "30", "31", "22", "19", "14", "15", "18", "4", "3", "8", "3", "5", "6", "7", "16"], "time": [1257, 1552, 1858, 2289, 2650, 2990, 3094, 3448, 3580, 3920, 4254, 4282, 4580, 4691, 5170, 5323, 6733, 6879, 7358, 7580, 8115, 11267, 14524]}, "edge": {"target": [], "time": []}}, "mouseout": {"state": {"target": ["0", "1", "12", "0", "23", "23", "28", "26", "26", "25", "30", "31", "22", "19", "14", "15", "18", "4", "3", "8", "3", "5", "6", "7"], "time": [1033, 1497, 1835, 1899, 2476, 2872, 3011, 3331, 3413, 3518, 3899, 3941, 4260, 4531, 4628, 5122, 5212, 6691, 6802, 7330, 7399, 8073, 11163, 14254]}, "edge": {"target": [], "time": []}}}, "displayed_time": "20.73", "trialTime": 21529, "trial_type": "mouselab-mdp", "trial_index": 31, "time_elapsed": 881191, "internal_node_id": "0.0-6.0-1.0-22.0"}}, {"uniqueid": "w16937372:a80707856", "current_trial": 32, "dateTime": 1693565620031, "trialdata": {"revealed_states": [], "clicked_states": ["1", "12", "23", "26", "30", "19", "15", "4", "8", "20", "21", "22"], "num_clicks_accrued": [0, 0, 0, 0, 0, 0, 0, 0, 0, 0, 0, 0, 0], "stateRewards": ["", -2, -4, 4, -11, -63, -60, -7, 2, -14, 81, -43, -1, -1, -5, 7, 10, 69, 40, 8, -83, 52, 60, 1, 2, 5, -5, 16, 64, 14, -3, 29, 7, -51], "withholdReward": false, "trial_id": "mdp_trial_24", "block": "test", "trialIndex": 25, "score": 46, "costs": -15.000000000000002, "simulationMode": [null, null, null, null, null], "rewards": [-1, -1, -5, 8, 60], "path": ["0", "0", "12", "13", "14", "19", "22"], "rt": [15836, 3, 6, 348, 117], "actions": ["right", "right", "right", "down", "left"], "actionTimes": [16786, 17287, 17796, 18660, 19283], "queries": {"click": {"state": {"target": ["1", "12", "23", "26", "30", "19", "15", "4", "8", "20", "21", "22"], "time": [1489, 1913, 2477, 3013, 3553, 4198, 5014, 5645, 6117, 6984, 10125, 13595]}, "edge": {"target": [], "time": []}}, "mouseover": {"state": {"target": ["1", "12", "0", "23", "24", "26", "25", "30", "31", "19", "14", "15", "15", "4", "3", "8", "2", "13", "20", "21", "22"], "time": [1332, 1831, 2144, 2352, 2679, 2769, 3192, 3429, 3685, 4047, 4318, 4401, 4929, 5352, 5798, 5848, 6470, 6609, 6887, 7428, 10755]}, "edge": {"target": [], "time": []}}, "mouseout": {"state": {"target": ["16", "18", "12", "0", "0", "1", "12", "12", "0", "23", "24", "26", "25", "30", "31", "19", "14", "15", "15", "4", "3", "8", "2", "13", "19", "20", "20", "21", "22"], "time": [436, 467, 499, 523, 1027, 1588, 1929, 2109, 2186, 2665, 2699, 3158, 3290, 3665, 3699, 4297, 4359, 4644, 5206, 5776, 5828, 6415, 6498, 6616, 6734, 7071, 7255, 10324, 20627]}, "edge": {"target": [], "time": []}}}, "displayed_time": "19.79", "trialTime": 21458, "trial_type": "mouselab-mdp", "trial_index": 32, "time_elapsed": 902764, "internal_node_id": "0.0-6.0-1.0-23.0"}}, {"uniqueid": "w16937372:a80707856", "current_trial": 33, "dateTime": 1693565639416, "trialdata": {"revealed_states": [], "clicked_states": ["1", "12", "23", "26", "30", "19", "15", "4", "8", "16", "17", "18"], "num_clicks_accrued": [0, 0, 0, 0, 0, 0, 0, 0, 0, 0, 0, 0, 0], "stateRewards": ["", 1, -1, 8, 4, 76, -33, -17, -3, -1, -54, -74, -2, 2, -5, 13, -51, 63, 83, 1, 84, 29, -36, 2, -1, 7, -12, -10, -44, -43, -14, 8, -69, 19], "withholdReward": false, "trial_id": "mdp_trial_25", "block": "test", "trialIndex": 26, "score": 76, "costs": -15.000000000000002, "simulationMode": [null, null, null, null, null], "rewards": [-2, 2, -5, 13, 83], "path": ["0", "0", "12", "13", "14", "15", "18"], "rt": [14908, 5, 18, 28, 75], "actions": ["right", "right", "right", "up", "left"], "actionTimes": [15667, 16171, 16704, 17235, 17810], "queries": {"click": {"state": {"target": ["1", "12", "23", "26", "30", "19", "15", "4", "8", "16", "17", "18"], "time": [1101, 1575, 2135, 2649, 3137, 4038, 4600, 5177, 5776, 6296, 9371, 12580]}, "edge": {"target": [], "time": []}}, "mouseover": {"state": {"target": ["1", "12", "0", "23", "24", "26", "25", "30", "31", "22", "19", "14", "15", "4", "3", "8", "3", "16", "17", "15", "18"], "time": [980, 1561, 1790, 1992, 2304, 2471, 2811, 2916, 3304, 3547, 3798, 4339, 4401, 5033, 5318, 5693, 5936, 6130, 6561, 9797, 9936]}, "edge": {"target": [], "time": []}}, "mouseout": {"state": {"target": ["1", "1", "12", "0", "23", "24", "26", "25", "30", "31", "22", "19", "14", "15", "4", "3", "8", "3", "4", "16", "16", "17", "15"], "time": [375, 1269, 1743, 1825, 2262, 2311, 2776, 2860, 3269, 3346, 3589, 4048, 4373, 4755, 5262, 5505, 5915, 5964, 5978, 6302, 6512, 9720, 9832]}, "edge": {"target": [], "time": []}}}, "displayed_time": "18.31", "trialTime": 19260, "trial_type": "mouselab-mdp", "trial_index": 33, "time_elapsed": 922149, "internal_node_id": "0.0-6.0-1.0-24.0"}}, {"uniqueid": "w16937372:a80707856", "current_trial": 34, "dateTime": 1693565672577, "trialdata": {"revealed_states": [], "clicked_states": ["1", "12", "23", "15", "19", "30", "26", "8", "4", "16", "17", "18", "22", "21", "20", "27"], "num_clicks_accrued": [0, 0, 0, 0, 0, 0, 0, 0, 0, 0, 0, 0, 0], "stateRewards": ["", -2, -2, -3, -6, -15, -11, 41, -12, -63, -76, 2, -2, -3, 8, 9, -36, -2, -18, -16, -32, -85, -17, -2, 1, 5, -16, 82, 35, -88, -1, 80, -82, -20], "withholdReward": false, "trial_id": "mdp_trial_26", "block": "test", "trialIndex": 27, "score": 46.400000000000006, "costs": -23.599999999999998, "simulationMode": [null, null, null, null, null], "rewards": [-2, 1, 5, -16, 82], "path": ["0", "0", "23", "24", "25", "26", "27"], "rt": [28206, 402, 99, 35, 118], "actions": ["left", "left", "left", "up", "up"], "actionTimes": [29115, 30016, 30616, 31156, 31780], "queries": {"click": {"state": {"target": ["1", "12", "23", "15", "19", "30", "26", "8", "4", "16", "17", "18", "22", "21", "20", "27"], "time": [1319, 1654, 2078, 2777, 3305, 4146, 4697, 5353, 6030, 6513, 9605, 12737, 15852, 18933, 22062, 25151]}, "edge": {"target": [], "time": []}}, "mouseover": {"state": {"target": ["1", "12", "0", "23", "0", "13", "15", "14", "19", "22", "30", "25", "26", "8", "3", "4", "6", "4", "6", "16", "17", "15", "18", "13", "22", "21", "20", "19", "22", "0", "28", "27", "28"], "time": [1182, 1523, 1821, 1939, 2217, 2440, 2634, 2967, 3155, 3432, 3981, 4439, 4529, 5231, 5578, 5620, 5661, 5898, 6224, 6310, 6939, 9786, 10168, 13967, 14175, 16216, 19453, 22307, 22369, 22494, 22550, 22862, 25487]}, "edge": {"target": [], "time": []}}, "mouseout": {"state": {"target": ["18", "12", "0", "1", "12", "0", "23", "0", "12", "13", "15", "14", "19", "22", "30", "25", "26", "8", "3", "4", "6", "4", "6", "16", "17", "15", "18", "13", "22", "22", "21", "20", "19", "22", "0", "28", "27", "27", "28", "0"], "time": [197, 549, 974, 1432, 1780, 1872, 2189, 2238, 2265, 2536, 2940, 3029, 3397, 3467, 4314, 4474, 4814, 5429, 5599, 5634, 5794, 6182, 6259, 6696, 9752, 9821, 13925, 14105, 15871, 16161, 19106, 22286, 22341, 22439, 22501, 22731, 25228, 25321, 32677, 32709]}, "edge": {"target": [], "time": []}}}, "displayed_time": "32.28", "trialTime": 33030, "trial_type": "mouselab-mdp", "trial_index": 34, "time_elapsed": 955310, "internal_node_id": "0.0-6.0-1.0-25.0"}}, {"uniqueid": "w16937372:a80707856", "current_trial": 35, "dateTime": 1693565703992, "trialdata": {"revealed_states": [], "clicked_states": ["1", "12", "23", "26", "30", "19", "15", "4", "8", "27", "29", "28", "22", "21", "20"], "num_clicks_accrued": [0, 0, 0, 0, 0, 0, 0, 0, 0, 0, 0, 0, 0], "stateRewards": ["", -1, -2, -1, -10, -57, 73, -72, -16, 75, -14, -46, -2, -3, -7, -1, -61, -60, 76, -4, 50, 4, 14, 2, 2, -7, 12, -65, -32, 15, -8, -76, -25, -61], "withholdReward": false, "trial_id": "mdp_trial_27", "block": "test", "trialIndex": 28, "score": 12.549999999999997, "costs": -21.45, "simulationMode": [null, null, null, null, null], "rewards": [-2, -3, -7, -4, 50], "path": ["0", "0", "12", "13", "14", "19", "20"], "rt": [26871, 7, 29, 2, 429], "actions": ["right", "right", "right", "down", "right"], "actionTimes": [27542, 28051, 28579, 29080, 30015], "queries": {"click": {"state": {"target": ["1", "12", "23", "26", "30", "19", "15", "4", "8", "27", "29", "28", "22", "21", "20"], "time": [1099, 1528, 1980, 2452, 3020, 4044, 4624, 5287, 5742, 6273, 9363, 12579, 17280, 20418, 23548]}, "edge": {"target": [], "time": []}}, "mouseover": {"state": {"target": ["1", "12", "0", "23", "28", "26", "25", "30", "31", "22", "19", "19", "14", "19", "14", "15", "4", "3", "8", "27", "29", "26", "28", "0", "22", "21", "19", "20"], "time": [995, 1348, 1688, 1758, 2195, 2265, 2612, 2702, 3153, 3320, 3459, 3709, 3771, 3952, 4237, 4480, 5169, 5438, 5508, 6035, 6522, 9501, 9960, 16957, 17132, 17737, 20772, 21098]}, "edge": {"target": [], "time": []}}, "mouseout": {"state": {"target": ["0", "1", "12", "0", "23", "28", "26", "26", "25", "30", "31", "22", "19", "19", "14", "19", "14", "15", "4", "3", "8", "27", "29", "26", "28", "0", "22", "21", "19", "20"], "time": [746, 1272, 1660, 1723, 2132, 2223, 2515, 2598, 2660, 3133, 3167, 3425, 3605, 3744, 3924, 4160, 4327, 4771, 5396, 5480, 5845, 6438, 9480, 9709, 16668, 16980, 17543, 20626, 20793, 23813]}, "edge": {"target": [], "time": []}}}, "displayed_time": "30.52", "trialTime": 31298, "trial_type": "mouselab-mdp", "trial_index": 35, "time_elapsed": 986725, "internal_node_id": "0.0-6.0-1.0-26.0"}}, {"uniqueid": "w16937372:a80707856", "current_trial": 36, "dateTime": 1693565730299, "trialdata": {"revealed_states": [], "clicked_states": ["23", "1", "12", "15", "19", "30", "26", "8", "4", "9", "11", "10", "31"], "num_clicks_accrued": [0, 0, 0, 0, 0, 0, 0, 0, 0, 0, 0, 0, 0], "stateRewards": ["", -1, -4, -3, 1, -45, -67, -24, 14, 32, 22, 22, -1, 1, -5, -7, 72, 84, -79, -5, 19, -40, -2, -1, -2, 8, -3, 84, -25, -28, 11, 64, -66, 77], "withholdReward": false, "trial_id": "mdp_trial_28", "block": "test", "trialIndex": 29, "score": 62.849999999999994, "costs": -17.150000000000002, "simulationMode": [null, null, null, null, null], "rewards": [-1, -2, 8, 11, 64], "path": ["0", "0", "23", "24", "25", "30", "31"], "rt": [20688, 52, 59, 484, 63], "actions": ["left", "left", "left", "down", "right"], "actionTimes": [22226, 22776, 23339, 24326, 24891], "queries": {"click": {"state": {"target": ["23", "1", "12", "15", "19", "30", "26", "8", "4", "9", "11", "10", "31"], "time": [1941, 2241, 2696, 3418, 4168, 4896, 5610, 6329, 6962, 7592, 10733, 13886, 18324]}, "edge": {"target": [], "time": []}}, "mouseover": {"state": {"target": ["0", "23", "1", "12", "18", "15", "14", "19", "19", "22", "31", "30", "25", "26", "27", "8", "3", "4", "3", "9", "11", "10", "24", "31", "31", "30", "33"], "time": [1640, 1767, 2064, 2515, 3084, 3272, 3591, 3661, 4036, 4362, 4668, 4737, 5056, 5508, 5793, 6195, 6584, 6640, 7119, 7321, 8167, 11084, 17903, 17959, 18207, 18570, 18591]}, "edge": {"target": [], "time": []}}, "mouseout": {"state": {"target": ["14", "13", "12", "0", "0", "23", "1", "12", "18", "15", "14", "19", "19", "22", "31", "30", "25", "26", "27", "8", "3", "4", "3", "9", "11", "10", "24", "31", "31", "30"], "time": [894, 1070, 1110, 1150, 1671, 1986, 2397, 3015, 3105, 3570, 3633, 3724, 4334, 4383, 4717, 5015, 5098, 5616, 5800, 6570, 6619, 7098, 7223, 8071, 10889, 14264, 17935, 17982, 18530, 18577]}, "edge": {"target": [], "time": []}}}, "displayed_time": "25.40", "trialTime": 26170, "trial_type": "mouselab-mdp", "trial_index": 36, "time_elapsed": 1013032, "internal_node_id": "0.0-6.0-1.0-27.0"}}, {"uniqueid": "w16937372:a80707856", "current_trial": 37, "dateTime": 1693565751415, "trialdata": {"revealed_states": [], "clicked_states": ["23", "1", "12", "15", "19", "30", "26", "8", "4", "31", "32", "33"], "num_clicks_accrued": [0, 0, 0, 0, 0, 0, 0, 0, 0, 0, 0, 0, 0], "stateRewards": ["", 2, 3, 8, 11, 25, -80, 6, -4, -56, 84, -23, -2, -4, -3, 4, -51, -9, -61, -15, -64, 67, -35, 1, -1, -7, -6, 83, 59, -15, 12, -79, 56, 41], "withholdReward": false, "trial_id": "mdp_trial_29", "block": "test", "trialIndex": 30, "score": 46, "costs": -15.000000000000002, "simulationMode": [null, null, null, null, null], "rewards": [1, -1, -7, 12, 56], "path": ["0", "0", "23", "24", "25", "30", "32"], "rt": [15383, 336, 48, 316, 190], "actions": ["left", "left", "left", "down", "down"], "actionTimes": [16834, 17677, 18228, 19046, 19752], "queries": {"click": {"state": {"target": ["23", "1", "12", "15", "19", "30", "26", "8", "4", "31", "32", "33"], "time": [1931, 2326, 2800, 3397, 3942, 4606, 5199, 5846, 6369, 7117, 10434, 13725]}, "edge": {"target": [], "time": []}}, "mouseover": {"state": {"target": ["23", "1", "12", "15", "14", "19", "22", "31", "30", "26", "8", "3", "4", "7", "1", "31", "32", "33"], "time": [1596, 2243, 2653, 3188, 3555, 3792, 4111, 4292, 4472, 5125, 5715, 5979, 6049, 6527, 6569, 6965, 10252, 10868]}, "edge": {"target": [], "time": []}}, "mouseout": {"state": {"target": ["33", "26", "28", "23", "1", "12", "15", "15", "14", "19", "19", "22", "31", "30", "26", "8", "3", "4", "4", "7", "1", "31", "32"], "time": [811, 875, 955, 2007, 2479, 2813, 3451, 3541, 3590, 4021, 4083, 4125, 4431, 4715, 5216, 5939, 6013, 6375, 6521, 6541, 6576, 10068, 10645]}, "edge": {"target": [], "time": []}}}, "displayed_time": "20.25", "trialTime": 20985, "trial_type": "mouselab-mdp", "trial_index": 37, "time_elapsed": 1034148, "internal_node_id": "0.0-6.0-1.0-28.0"}}, {"uniqueid": "w16937372:a80707856", "current_trial": 38, "dateTime": 1693565768534, "trialdata": {"revealed_states": [], "clicked_states": ["23", "1", "12", "15", "19", "30", "26", "8", "4", "27", "29"], "num_clicks_accrued": [0, 0, 0, 0, 0, 0, 0, 0, 0, 0, 0, 0, 0], "stateRewards": ["", -2, 2, 5, -14, -56, 64, 84, -5, 52, 39, 85, -2, 1, 7, 8, 21, 29, -78, -9, -10, -69, 10, -2, -1, -7, 15, 72, 20, 41, -2, 52, 80, 22], "withholdReward": false, "trial_id": "mdp_trial_30", "block": "test", "trialIndex": 31, "score": 64.15, "costs": -12.850000000000001, "simulationMode": [null, null, null, null, null], "rewards": [-2, -1, -7, 15, 72], "path": ["0", "0", "23", "24", "25", "26", "27"], "rt": [11946, 293, 3, 9, 37], "actions": ["left", "left", "left", "up", "up"], "actionTimes": [12548, 13348, 13856, 14376, 14919], "queries": {"click": {"state": {"target": ["23", "1", "12", "15", "19", "30", "26", "8", "4", "27", "29"], "time": [1129, 1455, 1922, 2512, 2990, 3582, 4198, 4992, 5465, 6206, 9412]}, "edge": {"target": [], "time": []}}, "mouseover": {"state": {"target": ["23", "1", "12", "18", "15", "14", "19", "22", "31", "30", "25", "26", "8", "3", "4", "2", "10", "29", "27", "29"], "time": [1001, 1311, 1846, 2284, 2353, 2707, 2749, 3145, 3318, 3374, 3770, 4089, 4825, 5152, 5263, 5659, 5672, 5846, 6117, 7499]}, "edge": {"target": [], "time": []}}, "mouseout": {"state": {"target": ["33", "0", "12", "0", "23", "1", "12", "18", "15", "14", "19", "22", "31", "30", "25", "26", "8", "3", "4", "2", "10", "29", "27", "29", "26", "24"], "time": [47, 100, 305, 423, 1221, 1672, 2141, 2298, 2679, 2728, 3131, 3165, 3353, 3604, 3888, 4471, 5131, 5193, 5617, 5665, 5686, 5895, 7186, 9651, 15949, 15996]}, "edge": {"target": [], "time": []}}}, "displayed_time": "15.42", "trialTime": 16986, "trial_type": "mouselab-mdp", "trial_index": 38, "time_elapsed": 1051267, "internal_node_id": "0.0-6.0-1.0-29.0"}}, {"uniqueid": "w16937372:a80707856", "current_trial": 39, "dateTime": 1693565788481, "trialdata": {"revealed_states": [], "clicked_states": ["1", "12", "23", "26", "30", "19", "15", "4", "8", "22", "21", "20"], "num_clicks_accrued": [0, 0, 0, 0, 0, 0, 0, 0, 0, 0, 0, 0, 0], "stateRewards": ["", -2, -4, -2, -13, -15, 87, -19, -6, -80, 30, 12, 1, 1, -8, 2, 55, 56, 15, 11, -68, -7, 55, -2, 3, -3, -3, 48, 62, 4, 1, -3, 69, -33], "withholdReward": false, "trial_id": "mdp_trial_31", "block": "test", "trialIndex": 32, "score": 45, "costs": -15.000000000000002, "simulationMode": [null, null, null, null, null], "rewards": [1, 1, -8, 11, 55], "path": ["0", "0", "12", "13", "14", "19", "22"], "rt": [15346, 399, 45, 73, 51], "actions": ["right", "right", "right", "down", "left"], "actionTimes": [16196, 17104, 17646, 18215, 18763], "queries": {"click": {"state": {"target": ["1", "12", "23", "26", "30", "19", "15", "4", "8", "22", "21", "20"], "time": [1243, 1531, 2024, 2454, 2904, 3592, 4049, 5260, 5809, 6799, 10074, 13142]}, "edge": {"target": [], "time": []}}, "mouseover": {"state": {"target": ["1", "12", "0", "23", "26", "25", "30", "31", "19", "14", "15", "18", "7", "3", "4", "4", "3", "8", "2", "12", "22", "21", "20"], "time": [1141, 1447, 1691, 1708, 2287, 2613, 2697, 3037, 3488, 3718, 3794, 4440, 4502, 4538, 4829, 5056, 5482, 5509, 6058, 6113, 6419, 7711, 10502]}, "edge": {"target": [], "time": []}}, "mouseout": {"state": {"target": ["0", "1", "12", "12", "0", "23", "26", "25", "30", "31", "19", "14", "15", "18", "7", "3", "4", "4", "3", "8", "2", "12", "22", "21", "20"], "time": [644, 1377, 1537, 1679, 1702, 2120, 2585, 2669, 3016, 3065, 3677, 3759, 4111, 4475, 4530, 4551, 4961, 5462, 5495, 6009, 6065, 6120, 6960, 10259, 13384]}, "edge": {"target": [], "time": []}}}, "displayed_time": "19.26", "trialTime": 19806, "trial_type": "mouselab-mdp", "trial_index": 39, "time_elapsed": 1071214, "internal_node_id": "0.0-6.0-1.0-30.0"}}, {"uniqueid": "w16937372:a80707856", "current_trial": 40, "dateTime": 1693565806578, "trialdata": {"revealed_states": [], "clicked_states": ["23", "1", "12", "15", "19", "30", "26", "8", "4", "20", "21"], "num_clicks_accrued": [0, 0, 0, 0, 0, 0, 0, 0, 0, 0, 0, 0, 0], "stateRewards": ["", 1, 1, 7, -11, 80, -20, -53, -14, 3, 31, 27, 2, -1, -8, -10, 33, 41, 86, 9, 78, -37, -13, -1, -2, -6, -8, -80, 75, 4, -16, -49, -74, 24], "withholdReward": false, "trial_id": "mdp_trial_32", "block": "test", "trialIndex": 33, "score": 67.15, "costs": -12.850000000000001, "simulationMode": [null, null, null, null, null], "rewards": [2, -1, -8, 9, 78], "path": ["0", "0", "12", "13", "14", "19", "20"], "rt": [12499, 12, 58, 37, 45], "actions": ["right", "right", "right", "down", "right"], "actionTimes": [14150, 14662, 15222, 15756, 16299], "queries": {"click": {"state": {"target": ["23", "1", "12", "15", "19", "30", "26", "8", "4", "20", "21"], "time": [2168, 2581, 3022, 3630, 4128, 4862, 5349, 5982, 6461, 7937, 11113]}, "edge": {"target": [], "time": []}}, "mouseover": {"state": {"target": ["0", "23", "1", "12", "18", "15", "14", "19", "22", "31", "30", "25", "26", "8", "3", "4", "15", "20", "21", "21"], "time": [1720, 1852, 2468, 2809, 3330, 3579, 3830, 3913, 4281, 4545, 4732, 4989, 5142, 5829, 6149, 6232, 7413, 7589, 8246, 8365]}, "edge": {"target": [], "time": []}}, "mouseout": {"state": {"target": ["14", "13", "12", "0", "0", "23", "1", "12", "18", "15", "14", "19", "22", "31", "30", "25", "26", "8", "3", "4", "15", "20", "21", "21"], "time": [755, 836, 867, 1076, 1788, 2260, 2739, 3212, 3407, 3809, 3871, 4260, 4309, 4628, 4941, 5045, 5502, 6128, 6184, 7253, 7441, 8128, 8295, 17652]}, "edge": {"target": [], "time": []}}}, "displayed_time": "16.80", "trialTime": 17974, "trial_type": "mouselab-mdp", "trial_index": 40, "time_elapsed": 1089311, "internal_node_id": "0.0-6.0-1.0-31.0"}}, {"uniqueid": "w16937372:a80707856", "current_trial": 41, "dateTime": 1693565821968, "trialdata": {"revealed_states": [], "clicked_states": ["23", "1", "12", "19", "15", "4", "8", "26", "30", "21"], "num_clicks_accrued": [0, 0, 0, 0, 0, 0, 0, 0, 0, 0, 0, 0, 0], "stateRewards": ["", 1, 2, -3, -6, 50, -7, 7, -7, -80, 21, -1, 2, 2, 4, -1, 33, 84, 1, 14, -53, 81, 6, -2, -2, -3, -9, -87, -38, -59, -5, -74, -3, -71], "withholdReward": false, "trial_id": "mdp_trial_33", "block": "test", "trialIndex": 34, "score": 92.3, "costs": -10.700000000000001, "simulationMode": [null, null, null, null, null], "rewards": [2, 2, 4, 14, 81], "path": ["0", "0", "12", "13", "14", "19", "21"], "rt": [9506, 80, 282, 342, 135], "actions": ["right", "right", "right", "down", "down"], "actionTimes": [10053, 10641, 11426, 12271, 12910], "queries": {"click": {"state": {"target": ["23", "1", "12", "19", "15", "4", "8", "26", "30", "21"], "time": [940, 1308, 1685, 2234, 2753, 3370, 3978, 4635, 5129, 5865]}, "edge": {"target": [], "time": []}}, "mouseover": {"state": {"target": ["23", "1", "12", "13", "22", "19", "14", "15", "18", "4", "3", "8", "26", "25", "30", "21", "20"], "time": [796, 1129, 1490, 1853, 1941, 2108, 2393, 2504, 3004, 3233, 3503, 3955, 4525, 4795, 4941, 5824, 6969]}, "edge": {"target": [], "time": []}}, "mouseout": {"state": {"target": ["23", "1", "12", "13", "22", "19", "14", "15", "18", "4", "3", "8", "26", "25", "30", "21", "20"], "time": [1003, 1435, 1816, 1877, 1962, 2337, 2448, 2963, 3025, 3487, 3642, 4184, 4768, 4886, 5289, 6275, 14296]}, "edge": {"target": [], "time": []}}}, "displayed_time": "14.55", "trialTime": 15241, "trial_type": "mouselab-mdp", "trial_index": 41, "time_elapsed": 1104702, "internal_node_id": "0.0-6.0-1.0-32.0"}}, {"uniqueid": "w16937372:a80707856", "current_trial": 42, "dateTime": 1693565841330, "trialdata": {"revealed_states": [], "clicked_states": ["23", "1", "12", "19", "15", "4", "8", "26", "30", "9", "11", "10"], "num_clicks_accrued": [0, 0, 0, 0, 0, 0, 0, 0, 0, 0, 0, 0, 0], "stateRewards": ["", 1, 1, -6, -2, 7, 77, 3, 16, -16, 66, 31, -1, 3, -8, -6, 33, -50, -48, 7, -60, -66, 36, 2, -3, 3, -7, -12, -61, -79, -4, 8, 74, -70], "withholdReward": false, "trial_id": "mdp_trial_34", "block": "test", "trialIndex": 35, "score": 63, "costs": -15.000000000000002, "simulationMode": [null, null, null, null, null], "rewards": [1, 1, -6, 16, 66], "path": ["0", "0", "1", "2", "3", "8", "10"], "rt": [14671, 35, 70, 293, 117], "actions": ["up", "up", "up", "left", "down"], "actionTimes": [15252, 15796, 16366, 17159, 17782], "queries": {"click": {"state": {"target": ["23", "1", "12", "19", "15", "4", "8", "26", "30", "9", "11", "10"], "time": [1003, 1454, 1859, 2366, 2810, 3670, 4128, 4718, 5267, 5871, 8984, 12186]}, "edge": {"target": [], "time": []}}, "mouseover": {"state": {"target": ["23", "1", "12", "13", "19", "14", "15", "4", "3", "8", "26", "25", "30", "30", "31", "24", "9", "11", "10"], "time": [928, 1199, 1719, 2024, 2177, 2496, 2656, 3434, 3829, 3927, 4628, 4866, 4927, 5170, 5441, 5461, 5663, 6385, 9357]}, "edge": {"target": [], "time": []}}, "mouseout": {"state": {"target": ["0", "23", "1", "12", "13", "19", "14", "15", "4", "3", "8", "26", "25", "30", "30", "31", "24", "8", "9", "8", "11", "10", "28", "23"], "time": [347, 1046, 1656, 1989, 2087, 2461, 2517, 3239, 3809, 3864, 4274, 4836, 4885, 4962, 5413, 5447, 5469, 5573, 6045, 6255, 9149, 18741, 18822, 18872]}, "edge": {"target": [], "time": []}}}, "displayed_time": "18.29", "trialTime": 19198, "trial_type": "mouselab-mdp", "trial_index": 42, "time_elapsed": 1124063, "internal_node_id": "0.0-6.0-1.0-33.0"}}, {"uniqueid": "w16937372:a80707856", "current_trial": 43, "dateTime": 1693565870120, "trialdata": {"revealed_states": [], "clicked_states": ["23", "1", "12", "19", "15", "4", "8", "26", "30", "5", "6", "7", "22", "21", "20"], "num_clicks_accrued": [0, 0, 0, 0, 0, 0, 0, 0, 0, 0, 0, 0, 0], "stateRewards": ["", -1, -3, 1, 13, -64, -29, 12, -4, -33, 50, 56, 2, -3, 4, 11, -64, -58, -55, 12, 47, 38, -25, -2, 2, 5, -15, 85, 7, 84, 10, 8, 57, 26], "withholdReward": false, "trial_id": "mdp_trial_35", "block": "test", "trialIndex": 36, "score": 40.55, "costs": -21.45, "simulationMode": [null, null, null, null, null], "rewards": [2, -3, 4, 12, 47], "path": ["0", "0", "12", "13", "14", "19", "20"], "rt": [24367, 26, 51, 48, 31], "actions": ["right", "right", "right", "down", "right"], "actionTimes": [25104, 25648, 26206, 26752, 27291], "queries": {"click": {"state": {"target": ["23", "1", "12", "19", "15", "4", "8", "26", "30", "5", "6", "7", "22", "21", "20"], "time": [1137, 1514, 1912, 2618, 3175, 3761, 4279, 4900, 5419, 6146, 9297, 12454, 15719, 18785, 21999]}, "edge": {"target": [], "time": []}}, "mouseover": {"state": {"target": ["23", "1", "12", "13", "19", "14", "15", "4", "3", "8", "26", "25", "30", "24", "23", "1", "2", "5", "6", "7", "18", "13", "22", "21", "20"], "time": [1013, 1468, 1759, 2324, 2530, 2745, 2801, 3495, 3919, 4023, 4808, 5099, 5148, 5622, 5639, 5683, 5703, 6071, 7252, 9523, 12676, 12759, 12891, 16148, 19312]}, "edge": {"target": [], "time": []}}, "mouseout": {"state": {"target": ["0", "0", "23", "1", "12", "13", "19", "14", "15", "4", "3", "8", "26", "25", "30", "24", "23", "1", "2", "4", "5", "6", "7", "18", "13", "22", "21", "20"], "time": [224, 919, 1245, 1689, 2198, 2344, 2710, 2766, 3308, 3877, 3974, 4419, 5072, 5120, 5567, 5636, 5656, 5689, 5717, 5863, 7030, 9453, 12606, 12703, 12807, 15995, 18960, 28558]}, "edge": {"target": [], "time": []}}}, "displayed_time": "27.79", "trialTime": 28664, "trial_type": "mouselab-mdp", "trial_index": 43, "time_elapsed": 1152854, "internal_node_id": "0.0-6.0-1.0-34.0"}}, {"uniqueid": "w16937372:a80707856", "current_trial": 44, "dateTime": 1693565889773, "trialdata": {"revealed_states": [], "clicked_states": ["23", "1", "12", "19", "15", "4", "8", "26", "30", "5", "6", "7"], "num_clicks_accrued": [0, 0, 0, 0, 0, 0, 0, 0, 0, 0, 0, 0, 0], "stateRewards": ["", 2, 3, 8, 14, 69, -27, 17, 2, -71, -65, -10, 2, -3, 7, 8, 65, -10, 65, -12, 73, -12, 13, -2, -2, 6, 10, -79, -69, -18, 10, -85, 67, 74], "withholdReward": false, "trial_id": "mdp_trial_36", "block": "test", "trialIndex": 37, "score": 81, "costs": -15.000000000000002, "simulationMode": [null, null, null, null, null], "rewards": [2, 3, 8, 14, 69], "path": ["0", "0", "1", "2", "3", "4", "5"], "rt": [15256, 52, 59, 9, 42], "actions": ["up", "up", "up", "right", "up"], "actionTimes": [16053, 16608, 17170, 17682, 18237], "queries": {"click": {"state": {"target": ["23", "1", "12", "19", "15", "4", "8", "26", "30", "5", "6", "7"], "time": [1455, 1824, 2213, 2770, 3262, 4039, 4672, 5376, 5930, 6590, 9909, 12949]}, "edge": {"target": [], "time": []}}, "mouseover": {"state": {"target": ["23", "1", "12", "19", "14", "15", "18", "4", "4", "3", "8", "26", "25", "30", "24", "28", "10", "3", "5", "6", "7", "18"], "time": [1181, 1638, 2041, 2464, 2901, 3006, 3485, 3749, 3888, 4173, 4228, 5131, 5575, 5728, 6152, 6166, 6201, 6249, 6381, 6902, 10367, 13283]}, "edge": {"target": [], "time": []}}, "mouseout": {"state": {"target": ["0", "23", "1", "12", "19", "14", "15", "18", "4", "4", "3", "8", "26", "25", "30", "24", "28", "10", "3", "5", "6", "7", "7", "18", "12"], "time": [894, 1513, 1978, 2360, 2853, 2944, 3464, 3520, 3819, 4152, 4207, 4888, 5534, 5645, 6103, 6159, 6173, 6208, 6256, 6784, 10110, 12965, 13103, 19165, 19212]}, "edge": {"target": [], "time": []}}}, "displayed_time": "18.74", "trialTime": 19514, "trial_type": "mouselab-mdp", "trial_index": 44, "time_elapsed": 1172506, "internal_node_id": "0.0-6.0-1.0-35.0"}}, {"uniqueid": "w16937372:a80707856", "current_trial": 45, "dateTime": 1693565909298, "trialdata": {"revealed_states": [], "clicked_states": ["23", "1", "12", "15", "19", "30", "26", "8", "4", "16", "17", "18"], "num_clicks_accrued": [0, 0, 0, 0, 0, 0, 0, 0, 0, 0, 0, 0, 0], "stateRewards": ["", 2, -3, 5, 11, -79, 54, 11, -9, -78, 33, 22, -2, -1, 2, 14, 43, 34, 1, 10, 49, -65, 39, -1, 1, -1, 3, -16, -2, 11, 2, 12, 48, -65], "withholdReward": false, "trial_id": "mdp_trial_37", "block": "test", "trialIndex": 38, "score": 41, "costs": -15.000000000000002, "simulationMode": [null, null, null, null, null], "rewards": [-2, -1, 2, 14, 43], "path": ["0", "0", "12", "13", "14", "15", "16"], "rt": [14970, 54, 85, 53, 82], "actions": ["right", "right", "right", "up", "up"], "actionTimes": [15615, 16167, 16754, 17314, 17904], "queries": {"click": {"state": {"target": ["23", "1", "12", "15", "19", "30", "26", "8", "4", "16", "17", "18"], "time": [1024, 1376, 1760, 2259, 2833, 3718, 4416, 5107, 5633, 6181, 9395, 12527]}, "edge": {"target": [], "time": []}}, "mouseover": {"state": {"target": ["23", "1", "12", "15", "14", "19", "22", "31", "30", "25", "26", "11", "8", "3", "4", "16", "17", "15", "18"], "time": [853, 1224, 1703, 2126, 2439, 2517, 3050, 3265, 3536, 3912, 4314, 4772, 4911, 5300, 5495, 6001, 6654, 9557, 9605]}, "edge": {"target": [], "time": []}}, "mouseout": {"state": {"target": ["0", "23", "1", "12", "15", "14", "19", "22", "31", "30", "25", "26", "11", "8", "3", "4", "16", "17", "15", "18"], "time": [726, 1161, 1529, 1830, 2418, 2487, 3022, 3078, 3279, 3805, 3980, 4709, 4814, 5279, 5349, 5807, 6383, 9543, 9584, 13008]}, "edge": {"target": [], "time": []}}}, "displayed_time": "18.41", "trialTime": 19374, "trial_type": "mouselab-mdp", "trial_index": 45, "time_elapsed": 1192031, "internal_node_id": "0.0-6.0-1.0-36.0"}}, {"uniqueid": "w16937372:a80707856", "current_trial": 46, "dateTime": 1693565929259, "trialdata": {"revealed_states": [], "clicked_states": ["23", "1", "12", "15", "19", "30", "26", "8", "4", "32", "31", "33"], "num_clicks_accrued": [0, 0, 0, 0, 0, 0, 0, 0, 0, 0, 0, 0, 0], "stateRewards": ["", 1, 2, -8, 9, 18, -83, -11, 6, -64, -48, 17, -2, -2, -5, -3, -24, -3, -86, -2, 48, -41, -22, -2, 4, 7, 8, 81, 13, -48, 10, 61, 19, 57], "withholdReward": false, "trial_id": "mdp_trial_38", "block": "test", "trialIndex": 39, "score": 65, "costs": -15.000000000000002, "simulationMode": [null, null, null, null, null], "rewards": [-2, 4, 7, 10, 61], "path": ["0", "0", "23", "24", "25", "30", "31"], "rt": [15219, 33, 33, 3, 14], "actions": ["left", "left", "left", "down", "right"], "actionTimes": [16426, 16961, 17502, 18007, 18525], "queries": {"click": {"state": {"target": ["23", "1", "12", "15", "19", "30", "26", "8", "4", "32", "31", "33"], "time": [1629, 1952, 2387, 2996, 3559, 4265, 4780, 5356, 5987, 7122, 10213, 13330]}, "edge": {"target": [], "time": []}}, "mouseover": {"state": {"target": ["23", "1", "12", "18", "15", "14", "19", "22", "31", "30", "25", "26", "11", "8", "3", "4", "4", "7", "0", "32", "31", "30", "33"], "time": [1431, 1781, 2253, 2607, 2843, 3211, 3308, 3711, 3995, 4107, 4391, 4468, 5093, 5225, 5502, 5544, 5899, 6232, 6329, 6847, 7371, 10391, 11016]}, "edge": {"target": [], "time": []}}, "mouseout": {"state": {"target": ["0", "23", "1", "12", "18", "15", "15", "14", "19", "22", "31", "30", "25", "26", "11", "8", "3", "4", "4", "7", "0", "32", "31", "30"], "time": [1304, 1704, 2126, 2446, 2626, 3041, 3176, 3239, 3697, 3739, 4058, 4357, 4412, 4905, 5107, 5364, 5523, 5662, 6162, 6266, 6336, 7315, 10371, 10440]}, "edge": {"target": [], "time": []}}}, "displayed_time": "19.03", "trialTime": 19811, "trial_type": "mouselab-mdp", "trial_index": 46, "time_elapsed": 1211993, "internal_node_id": "0.0-6.0-1.0-37.0"}}, {"uniqueid": "w16937372:a80707856", "current_trial": 47, "dateTime": 1693565947330, "trialdata": {"revealed_states": [], "clicked_states": ["23", "1", "12", "15", "19", "30", "26", "8", "4", "31", "32"], "num_clicks_accrued": [0, 0, 0, 0, 0, 0, 0, 0, 0, 0, 0, 0, 0], "stateRewards": ["", 1, 1, 5, 6, -29, -7, 3, -16, 9, -46, 65, -1, 4, -1, -16, -63, -77, -87, 8, 80, -50, 43, -1, -1, -5, 5, -38, -71, -62, 9, 81, -50, -52], "withholdReward": false, "trial_id": "mdp_trial_39", "block": "test", "trialIndex": 40, "score": 70.15, "costs": -12.850000000000001, "simulationMode": [null, null, null, null, null], "rewards": [-1, -1, -5, 9, 81], "path": ["0", "0", "23", "24", "25", "30", "31"], "rt": [12493, 46, 39, 331, 129], "actions": ["left", "left", "left", "down", "right"], "actionTimes": [13564, 14108, 14651, 15491, 16129], "queries": {"click": {"state": {"target": ["23", "1", "12", "15", "19", "30", "26", "8", "4", "31", "32"], "time": [1451, 1826, 2234, 2935, 3471, 4279, 4886, 5947, 6449, 7277, 10451]}, "edge": {"target": [], "time": []}}, "mouseover": {"state": {"target": ["23", "1", "12", "13", "14", "15", "14", "19", "22", "31", "30", "25", "26", "11", "8", "3", "4", "7", "1", "32", "31", "32"], "time": [1269, 1749, 2138, 2506, 2638, 2797, 3172, 3374, 3645, 4006, 4061, 4450, 4589, 5297, 5777, 6179, 6242, 6701, 6736, 7013, 7179, 7561]}, "edge": {"target": [], "time": []}}, "mouseout": {"state": {"target": ["33", "30", "24", "23", "23", "1", "12", "13", "14", "15", "14", "19", "19", "22", "31", "30", "25", "26", "11", "8", "3", "4", "4", "7", "1", "32", "31", "31", "32"], "time": [523, 564, 659, 723, 1512, 1964, 2478, 2526, 2770, 3151, 3221, 3478, 3624, 3679, 4041, 4408, 4492, 5013, 5318, 6138, 6214, 6525, 6679, 6721, 6744, 7068, 7358, 7513, 17124]}, "edge": {"target": [], "time": []}}}, "displayed_time": "16.63", "trialTime": 17925, "trial_type": "mouselab-mdp", "trial_index": 47, "time_elapsed": 1230064, "internal_node_id": "0.0-6.0-1.0-38.0"}}, {"uniqueid": "w16937372:a80707856", "current_trial": 48, "dateTime": 1693565983367, "trialdata": {"revealed_states": [], "clicked_states": ["23", "1", "12", "19", "15", "4", "8", "26", "30", "22", "21", "20", "33", "32", "31", "5", "6"], "num_clicks_accrued": [0, 0, 0, 0, 0, 0, 0, 0, 0, 0, 0, 0, 0], "stateRewards": ["", -1, -3, -6, -2, -7, 80, -45, -3, -38, -72, 76, 2, 1, 7, 4, -62, 14, -74, 14, -87, -21, -88, -2, 1, -7, -10, 66, 56, -76, 10, -29, -72, -70], "withholdReward": false, "trial_id": "mdp_trial_40", "block": "test", "trialIndex": 41, "score": 42.25, "costs": -25.749999999999996, "simulationMode": [null, null, null, null, null], "rewards": [-1, -3, -6, -2, 80], "path": ["0", "0", "1", "2", "3", "4", "6"], "rt": [31713, 23, 48, 8, 25], "actions": ["up", "up", "up", "right", "right"], "actionTimes": [32627, 33158, 33710, 34226, 34763], "queries": {"click": {"state": {"target": ["23", "1", "12", "19", "15", "4", "8", "26", "30", "22", "21", "20", "33", "32", "31", "5", "6"], "time": [1409, 1794, 2164, 2786, 3334, 4202, 4900, 5673, 6240, 7126, 10228, 13321, 16459, 19555, 22616, 25705, 28772]}, "edge": {"target": [], "time": []}}, "mouseover": {"state": {"target": ["23", "1", "12", "13", "19", "14", "15", "6", "5", "4", "3", "8", "8", "28", "26", "26", "25", "30", "31", "22", "21", "20", "19", "22", "30", "33", "32", "30", "31", "24", "2", "4", "5", "6", "7"], "time": [1260, 1613, 2064, 2385, 2481, 2911, 3036, 3676, 3856, 4078, 4342, 4398, 4772, 5161, 5287, 5550, 5849, 6033, 6487, 7029, 7439, 10585, 13536, 13557, 13675, 13869, 16960, 19807, 20064, 22925, 23335, 23397, 23529, 26237, 29043]}, "edge": {"target": [], "time": []}}, "mouseout": {"state": {"target": ["0", "23", "1", "12", "13", "19", "14", "15", "6", "5", "4", "3", "8", "8", "28", "26", "26", "25", "30", "30", "31", "22", "21", "20", "19", "22", "30", "33", "32", "30", "31", "24", "2", "4", "5", "5", "6", "6", "7", "18"], "time": [1101, 1416, 2001, 2351, 2401, 2863, 2953, 3416, 3684, 3995, 4314, 4376, 4529, 5029, 5168, 5300, 5814, 5891, 6246, 6467, 6501, 7314, 10390, 13529, 13550, 13571, 13710, 16746, 19744, 19814, 22869, 22939, 23369, 23418, 25797, 26022, 28853, 28952, 35764, 35851]}, "edge": {"target": [], "time": []}}}, "displayed_time": "35.27", "trialTime": 35877, "trial_type": "mouselab-mdp", "trial_index": 48, "time_elapsed": 1266100, "internal_node_id": "0.0-6.0-1.0-39.0"}}, {"uniqueid": "w16937372:a80707856", "current_trial": 49, "dateTime": 1693566029581, "trialdata": {"rt": 46212, "response": {"Q0": "$-2 to $2", "Q1": "$-16 to $16", "Q2": "$-88 to $88", "Q3": "The cost for clicking on nodes varied between nodes.", "Q4": "Slightly motivated"}, "question_order": [0, 1, 2, 3, 4], "trial_id": "final_quiz_control", "trial_type": "survey-multi-choice", "trial_index": 49, "time_elapsed": 1312315, "internal_node_id": "0.0-6.0-2.0"}}, {"uniqueid": "w16937372:a80707856", "current_trial": 50, "dateTime": 1693566222133, "trialdata": {"rt": 192545, "response": {"Q0": "- get the free money from the closest nodes.\n- inspect all 4th nodes and find highest.\n- inspect 3 around highest node (unless a value above 65 is found earlier)\n- if last above 40 go else:\n- go to 2nd best 4th node and if above 40\n", "Q1": "after understanding that the 5th node was most crucial is used the 4th node to decide which 5th node to inspect. \n\nlater clock closest node for free cash", "Q2": "you needed to understand the different to be expected numbers in the different boxes, this was not difficult to do."}, "trial_id": "self_report_control", "trial_type": "survey-text", "trial_index": 50, "time_elapsed": 1504867, "internal_node_id": "0.0-6.0-3.0"}}, {"uniqueid": "w16937372:a80707856", "current_trial": 51, "dateTime": 1693566265853, "trialdata": {"rt": 43716, "response": {"Q0": "Strongly agree", "Q1": "Strongly agree", "Q2": "Strongly disagree", "Q3": "Agree", "Q4": "Strongly agree", "Q5": "Disagree", "Q6": "Agree"}, "question_order": [0, 1, 2, 3, 4, 5, 6], "trial_id": "self_report_2", "trial_type": "survey-multi-choice", "trial_index": 51, "time_elapsed": 1548587, "internal_node_id": "0.0-6.0-4.0"}}, {"uniqueid": "w16937372:a80707856", "current_trial": 52, "dateTime": 1693566284484, "trialdata": {"rt": 18627, "response": {"gender": "male", "age": "28", "colorblind": "0", "effort": "0"}, "trial_type": "survey-html-form", "trial_index": 52, "time_elapsed": 1567218, "internal_node_id": "0.0-6.0-5.0"}}, {"uniqueid": "w16937372:a80707856", "current_trial": 53, "dateTime": 1693566301549, "trialdata": {"rt": 17061, "response": {"Q0": "no", "Q1": "no", "Q2": "no"}, "trial_type": "survey-text", "trial_index": 53, "time_elapsed": 1584283, "internal_node_id": "0.0-6.0-6.0"}}, {"uniqueid": "w16937372:a80707856", "current_trial": 54, "dateTime": 1693566336996, "trialdata": {"rt": 35444, "stimulus": "<h1>Completion Code Instructions (1/2)</h1>\n<br><br><br><br>\nYou have reached the end of the experiment! The completion code consists of two parts: (1) a code with 2 characters (2) a code with 6 characters. On this page, you will receive the second part of the code. The first part of the completion code will be on the next page.\n<br><br>\nThe second part of your completion code is: <b>EWEK22</b>\n<br><br>\nPlease note this down. Then, press 'Finish HIT' in order to find the first part of your completion code. Once the data has been saved, you will receive this code either in this window or in the original browser window where you started the experiment.\n", "response": 0, "trial_type": "html-button-response", "trial_index": 54, "time_elapsed": 1619730, "internal_node_id": "0.0-6.0-7.0"}}, {"uniqueid": "w16937372:a80707856", "current_trial": 55, "dateTime": 1693566338001, "trialdata": {"success": true, "trial_type": "fullscreen", "trial_index": 55, "time_elapsed": 1620735, "internal_node_id": "0.0-7.0"}}], "questiondata": {"params": {"CODE": "C6DMOQA6", "MIN_TIME": 14, "inspectCost": 1, "startTime": "Fri Sep 01 2023 12:38:36 GMT+0200 (Central European Summer Time)", "bonusRate": 0.002, "variance": "1_2_4_8_44", "branching": "31123"}, "final_score": 2182.8}, "eventdata": [{"eventtype": "initialized", "value": null, "timestamp": 1693564716147, "interval": 0}, {"eventtype": "window_resize", "value": [1024, 767], "timestamp": 1693564716147, "interval": 0}, {"eventtype": "window_resize", "value": [1024, 767], "timestamp": 1693564716480, "interval": 333}, {"eventtype": "window_resize", "value": [1920, 974], "timestamp": 1693564717373, "interval": 893}, {"eventtype": "window_resize", "value": [1920, 1080], "timestamp": 1693564721580, "interval": 4207}, {"eventtype": "window_resize", "value": [1920, 974], "timestamp": 1693566337226, "interval": 1615646}], "useragent": "Mozilla/5.0 (Windows NT 10.0; Win64; x64) AppleWebKit/537.36 (KHTML, like Gecko) Chrome/116.0.0.0 Safari/537.36", "mode": "live", "id": "w16937372:a80707856", "status": "user data saved", "Beginhit": "2023-09-01 10:38:33.969864", "Beginexp": "2023-09-01 10:38:41.635084", "Endhit": "2023-09-01 11:05:37.644269", "psiturkStatus": 3, "browser": "<redacted>", "platform": "windows", "language": "en-US", "excludeReason": "invalidClickStrats"}