{"condition": 1, "counterbalance": 0, "assignmentId": "a11075753", "workerId": "w23786950", "hitId": "h12218447", "currenttrial": 62, "bonus": 0, "data": [{"uniqueid": "w23786950:a11075753", "current_trial": 0, "dateTime": 1691142581254, "trialdata": {"success": true, "trial_type": "fullscreen", "trial_index": 0, "time_elapsed": 260661, "internal_node_id": "0.0-0.0"}}, {"uniqueid": "w23786950:a11075753", "current_trial": 1, "dateTime": 1691142622219, "trialdata": {"view_history": [{"page_index": 0, "viewing_time": 40948}], "rt": 40949, "trial_id": "exp_instructions_misaligned", "trial_type": "instructions", "trial_index": 1, "time_elapsed": 301626, "internal_node_id": "0.0-1.0"}}, {"uniqueid": "w23786950:a11075753", "current_trial": 2, "dateTime": 1691142628981, "trialdata": {"success": true, "trial_type": "fullscreen", "trial_index": 2, "time_elapsed": 308387, "internal_node_id": "0.0-2.0-0.0"}}, {"uniqueid": "w23786950:a11075753", "current_trial": 3, "dateTime": 1691142922483, "trialdata": {"view_history": [{"page_index": 0, "viewing_time": 47984}, {"page_index": 1, "viewing_time": 99033}, {"page_index": 2, "viewing_time": 33808}, {"page_index": 3, "viewing_time": 112672}], "rt": 293497, "trial_id": "mouselab_instructions_1_misaligned", "trial_type": "instructions", "trial_index": 3, "time_elapsed": 601890, "internal_node_id": "0.0-2.0-1.0"}}, {"uniqueid": "w23786950:a11075753", "current_trial": 4, "dateTime": 1691142976234, "trialdata": {"revealed_states": [], "clicked_states": ["12", "1"], "num_clicks_accrued": [0, 0, 0, 0, 0, 0, 0, 0, 0, 0, 0, 0, 0], "stateRewards": ["", -10, 10, -10, 10, -10, 10, -10, -10, 10, -10, -10, -10, 10, -10, 10, -10, 10, 10, 10, 10, -10, -10, 10, 10, -10, 10, 10, -10, -10, 10, 10, -10, -10], "withholdReward": false, "trial_id": "practice_1", "block": "test", "trialIndex": 0, "score": -7.5, "costs": -1, "simulationMode": [null, null, null, null, null], "rewards": [-10, 10, -10, 10, -10], "path": ["0", "0", "12", "13", "14", "15", "16"], "rt": [37081, 915, 324, 946, 25], "actions": ["right", "right", "right", "up", "up"], "actionTimes": [41441, 42864, 43708, 45162, 45705], "queries": {"click": {"state": {"target": ["12", "1"], "time": [9415, 13358]}, "edge": {"target": [], "time": []}}, "mouseover": {"state": {"target": ["12", "1", "2", "2", "1", "12", "13", "14", "14", "19", "19"], "time": [7704, 13002, 13948, 21495, 22045, 24859, 24891, 24910, 35820, 35954, 36254]}, "edge": {"target": [], "time": []}}, "mouseout": {"state": {"target": ["22", "19", "20", "20", "19", "22", "0", "12", "1", "2", "2", "1", "12", "13", "14", "14", "19", "19"], "time": [null, null, null, 1074, 1107, 1323, 7187, 10385, 13816, 18064, 21912, 22195, 24875, 24908, 24924, 35853, 36003, 36357]}, "edge": {"target": [], "time": []}}}, "displayed_time": "46.21", "trialTime": 52979, "trial_type": "mouselab-mdp", "trial_index": 4, "time_elapsed": 655640, "internal_node_id": "0.0-2.0-2.0-0.0"}}, {"uniqueid": "w23786950:a11075753", "current_trial": 5, "dateTime": 1691142996174, "trialdata": {"revealed_states": [], "clicked_states": ["23"], "num_clicks_accrued": [0, 0, 0, 0, 0, 0, 0, 0, 0, 0, 0, 0, 0], "stateRewards": ["", 10, 10, -10, 10, -10, 10, -10, -10, 10, 10, 10, 10, -10, 10, 10, -10, 10, 10, 10, -10, -10, 10, 10, 10, -10, -10, -10, 10, -10, 10, -10, 10, -10], "withholdReward": false, "trial_id": "practice_2", "block": "test", "trialIndex": 1, "score": -7, "costs": -0.5, "simulationMode": [null, null, null, null, null], "rewards": [10, 10, -10, -10, -10], "path": ["0", "0", "23", "24", "25", "26", "27"], "rt": [6246, 313, 241, 640, 780], "actions": ["left", "left", "left", "up", "up"], "actionTimes": [10437, 11268, 12028, 13176, 14465], "queries": {"click": {"state": {"target": ["23"], "time": [7313]}, "edge": {"target": [], "time": []}}, "mouseover": {"state": {"target": ["23", "12"], "time": [6522, 8438]}, "edge": {"target": [], "time": []}}, "mouseout": {"state": {"target": ["0", "23"], "time": [6256, 8287]}, "edge": {"target": [], "time": []}}}, "displayed_time": "14.98", "trialTime": 19821, "trial_type": "mouselab-mdp", "trial_index": 5, "time_elapsed": 675580, "internal_node_id": "0.0-2.0-2.0-1.0"}}, {"uniqueid": "w23786950:a11075753", "current_trial": 6, "dateTime": 1691143079756, "trialdata": {"view_history": [{"page_index": 0, "viewing_time": 35978}, {"page_index": 1, "viewing_time": 8008}, {"page_index": 0, "viewing_time": 30944}, {"page_index": 1, "viewing_time": 8648}], "rt": 83578, "trial_id": "mouselab_instructions_2_misaligned", "trial_type": "instructions", "trial_index": 6, "time_elapsed": 759163, "internal_node_id": "0.0-2.0-3.0"}}, {"uniqueid": "w23786950:a11075753", "current_trial": 7, "dateTime": 1691143158197, "trialdata": {"rt": 78435, "response": {"Q0": "The cost for clicking on nodes may vary between nodes.", "Q1": "The better I perform the higher my bonus will be.", "Q2": "No, the amount of cash at each node of the web may be different each time.", "Q3": "To click on the least number of nodes.", "Q4": "Only before moving the spider.", "Q5": "3 seconds"}, "question_order": [0, 1, 2, 3, 4, 5], "correct": {"Q0": "The cost for clicking on nodes may vary between nodes.", "Q1": "The better I perform the higher my bonus will be.", "Q2": "No, the amount of cash at each node of the web may be different each time.", "Q3": "To get the highest total score.", "Q4": "Only before moving the spider.", "Q5": "3 seconds"}, "trial_id": "mouselab_quiz_misaligned", "trial_type": "survey-multi-choice", "trial_index": 7, "time_elapsed": 837604, "internal_node_id": "0.0-2.0-4.0"}}, {"uniqueid": "w23786950:a11075753", "current_trial": 8, "dateTime": 1691143166341, "trialdata": {"success": true, "trial_type": "fullscreen", "trial_index": 8, "time_elapsed": 845748, "internal_node_id": "0.0-2.1-0.1"}}, {"uniqueid": "w23786950:a11075753", "current_trial": 9, "dateTime": 1691143238596, "trialdata": {"view_history": [{"page_index": 0, "viewing_time": 22530}, {"page_index": 1, "viewing_time": 10543}, {"page_index": 2, "viewing_time": 14681}, {"page_index": 3, "viewing_time": 24496}], "rt": 72251, "trial_id": "mouselab_instructions_1_misaligned", "trial_type": "instructions", "trial_index": 9, "time_elapsed": 918003, "internal_node_id": "0.0-2.1-1.1"}}, {"uniqueid": "w23786950:a11075753", "current_trial": 10, "dateTime": 1691143254293, "trialdata": {"revealed_states": [], "clicked_states": [], "num_clicks_accrued": [0, 0, 0, 0, 0, 0, 0, 0, 0, 0, 0, 0, 0], "stateRewards": ["", -10, 10, -10, 10, -10, 10, -10, -10, 10, -10, -10, -10, 10, -10, 10, -10, 10, 10, 10, 10, -10, -10, 10, 10, -10, 10, 10, -10, -10, 10, 10, -10, -10], "withholdReward": false, "trial_id": "practice_1", "block": "test", "trialIndex": 2, "score": -6.5, "costs": 0, "simulationMode": [null, null, null, null, null], "rewards": [-10, 10, -10, 10, -10], "path": ["0", "0", "12", "13", "14", "15", "16"], "rt": [6468, 448, 163, 741, 80], "actions": ["right", "right", "right", "up", "up"], "actionTimes": [8889, 9850, 10531, 11792, 12382], "queries": {"click": {"state": {"target": [], "time": []}, "edge": {"target": [], "time": []}}, "mouseover": {"state": {"target": ["0", "12", "0", "12"], "time": [3321, 3956, 5404, 7620]}, "edge": {"target": [], "time": []}}, "mouseout": {"state": {"target": ["12", "0", "12", "0", "12"], "time": [1291, 3389, 5205, 7336, 14669]}, "edge": {"target": [], "time": []}}}, "displayed_time": "12.90", "trialTime": 15571, "trial_type": "mouselab-mdp", "trial_index": 10, "time_elapsed": 933699, "internal_node_id": "0.0-2.1-2.1-0.1"}}, {"uniqueid": "w23786950:a11075753", "current_trial": 11, "dateTime": 1691143274287, "trialdata": {"revealed_states": [], "clicked_states": ["1"], "num_clicks_accrued": [0, 0, 0, 0, 0, 0, 0, 0, 0, 0, 0, 0, 0], "stateRewards": ["", 10, 10, -10, 10, -10, 10, -10, -10, 10, 10, 10, 10, -10, 10, 10, -10, 10, 10, 10, -10, -10, 10, 10, 10, -10, -10, -10, 10, -10, 10, -10, 10, -10], "withholdReward": false, "trial_id": "practice_2", "block": "test", "trialIndex": 3, "score": 13, "costs": -0.5, "simulationMode": [null, null, null, null, null], "rewards": [10, 10, -10, 10, -10], "path": ["0", "0", "1", "2", "3", "4", "5"], "rt": [4889, 605, 526, 3121, 1056], "actions": ["up", "up", "up", "right", "up"], "actionTimes": [6572, 7697, 8734, 12360, 13928], "queries": {"click": {"state": {"target": ["1"], "time": [3964]}, "edge": {"target": [], "time": []}}, "mouseover": {"state": {"target": ["1"], "time": [3393]}, "edge": {"target": [], "time": []}}, "mouseout": {"state": {"target": ["12", "1", "13", "14"], "time": [778, 5275, 15954, 15967]}, "edge": {"target": [], "time": []}}}, "displayed_time": "14.44", "trialTime": 19880, "trial_type": "mouselab-mdp", "trial_index": 11, "time_elapsed": 953693, "internal_node_id": "0.0-2.1-2.1-1.1"}}, {"uniqueid": "w23786950:a11075753", "current_trial": 12, "dateTime": 1691143281988, "trialdata": {"view_history": [{"page_index": 0, "viewing_time": 5810}, {"page_index": 1, "viewing_time": 1887}], "rt": 7697, "trial_id": "mouselab_instructions_2_misaligned", "trial_type": "instructions", "trial_index": 12, "time_elapsed": 961395, "internal_node_id": "0.0-2.1-3.1"}}, {"uniqueid": "w23786950:a11075753", "current_trial": 13, "dateTime": 1691143378038, "trialdata": {"rt": 96046, "response": {"Q0": "The cost for clicking on nodes may vary between nodes.", "Q1": "The better I perform the higher my bonus will be.", "Q2": "No, the amount of cash at each node of the web may be different each time.", "Q3": "To get the highest total score.", "Q4": "Only before moving the spider.", "Q5": "3 seconds"}, "question_order": [0, 1, 2, 3, 4, 5], "correct": {"Q0": "The cost for clicking on nodes may vary between nodes.", "Q1": "The better I perform the higher my bonus will be.", "Q2": "No, the amount of cash at each node of the web may be different each time.", "Q3": "To get the highest total score.", "Q4": "Only before moving the spider.", "Q5": "3 seconds"}, "trial_id": "mouselab_quiz_misaligned", "trial_type": "survey-multi-choice", "trial_index": 13, "time_elapsed": 1057445, "internal_node_id": "0.0-2.1-4.1"}}, {"uniqueid": "w23786950:a11075753", "current_trial": 14, "dateTime": 1691143385497, "trialdata": {"rt": 7449, "stimulus": "\n<h1> Get ready to start the game! </h1>\n\nThank you for reading the instructions. Get ready start with the 40 rounds of this game.\n<br><br>\nIf you need to take a break, feel free to take one after the end of a round, before continuing to the next one.\n<br><br>\nRemember, the more money the spider gets, the bigger your bonus will be!\n<br><br>\n<div style='text-align: center;'>Press <code>space</code> to begin.</div>\n\n<br><br>\n(If, at any point, the <code>space</code> key does not take you to the next page, click once on the text and try again.)", "response": " ", "trial_id": "mdp_ready", "trial_type": "html-keyboard-response", "trial_index": 14, "time_elapsed": 1064904, "internal_node_id": "0.0-4.0-0.0"}}, {"uniqueid": "w23786950:a11075753", "current_trial": 15, "dateTime": 1691143420052, "trialdata": {"revealed_states": [], "clicked_states": ["1"], "num_clicks_accrued": [0, 0, 0, 0, 0, 0, 0, 0, 0, 0, 0, 0, 0], "stateRewards": ["", 1, -2, -2, 10, -31, -77, 35, 9, -47, 8, 48, -2, 1, -4, -3, -26, -50, 43, -11, 76, -38, 17, 1, -1, 6, 10, 15, -9, 12, -8, 85, 11, -55], "withholdReward": false, "trial_id": "mdp_trial_1", "block": "test", "trialIndex": 4, "score": -23.75, "costs": 0.25, "simulationMode": [null, null, null, null, null], "rewards": [1, -2, -2, 10, -31], "path": ["0", "0", "1", "2", "3", "4", "5"], "rt": [4768, 317, 182, 906, 1120], "actions": ["up", "up", "up", "right", "up"], "actionTimes": [6881, 7710, 8408, 9832, 11462], "queries": {"click": {"state": {"target": ["1"], "time": [3681]}, "edge": {"target": [], "time": []}}, "mouseover": {"state": {"target": ["1"], "time": [2797]}, "edge": {"target": [], "time": []}}, "mouseout": {"state": {"target": ["14", "28", "1", "1", "12", "22"], "time": [978, 1280, 5041, 32340, 32409, 32560]}, "edge": {"target": [], "time": []}}}, "displayed_time": "16.11", "trialTime": 34429, "trial_type": "mouselab-mdp", "trial_index": 15, "time_elapsed": 1099458, "internal_node_id": "0.0-4.0-1.0-0.0"}}, {"uniqueid": "w23786950:a11075753", "current_trial": 16, "dateTime": 1691143479323, "trialdata": {"revealed_states": [], "clicked_states": [], "num_clicks_accrued": [0, 0, 0, 0, 0, 0, 0, 0, 0, 0, 0, 0, 0], "stateRewards": ["", 1, 1, 1, 15, -76, 52, -32, 14, -57, 37, 49, 1, -4, -3, 6, 83, -76, 25, 9, 36, -1, -17, -1, 4, 4, -2, -22, -21, 58, -15, -57, 49, -24], "withholdReward": false, "trial_id": "mdp_trial_2", "block": "test", "trialIndex": 5, "score": -40, "costs": 0, "simulationMode": [null, null, null, null, null], "rewards": [1, 1, 1, 14, -57], "path": ["0", "0", "1", "2", "3", "8", "9"], "rt": [30058, 279, 187, 450, 842], "actions": ["up", "up", "up", "left", "up"], "actionTimes": [37824, 38618, 39324, 40287, 41646], "queries": {"click": {"state": {"target": [], "time": []}, "edge": {"target": [], "time": []}}, "mouseover": {"state": {"target": ["1"], "time": [17267]}, "edge": {"target": [], "time": []}}, "mouseout": {"state": {"target": ["17", "15", "18", "1"], "time": [6158, 6173, 6207, 19032]}, "edge": {"target": [], "time": []}}}, "displayed_time": "42.15", "trialTime": 59137, "trial_type": "mouselab-mdp", "trial_index": 16, "time_elapsed": 1158730, "internal_node_id": "0.0-4.0-1.0-1.0"}}, {"uniqueid": "w23786950:a11075753", "current_trial": 17, "dateTime": 1691143503577, "trialdata": {"revealed_states": [], "clicked_states": ["1"], "num_clicks_accrued": [0, 0, 0, 0, 0, 0, 0, 0, 0, 0, 0, 0, 0], "stateRewards": ["", -2, 1, -8, 12, -65, -79, 16, 7, -80, -17, -45, -2, 2, -5, -2, -85, 23, -4, -7, 48, 27, -76, 2, 3, 5, 2, 43, 71, -13, 7, -49, 59, -31], "withholdReward": false, "trial_id": "mdp_trial_3", "block": "test", "trialIndex": 6, "score": -81.75, "costs": 0.25, "simulationMode": [null, null, null, null, null], "rewards": [-2, 1, -8, 7, -80], "path": ["0", "0", "1", "2", "3", "8", "9"], "rt": [3564, 993, 2737, 545, 703], "actions": ["up", "up", "up", "left", "up"], "actionTimes": [8079, 9592, 12836, 13891, 15132], "queries": {"click": {"state": {"target": ["1"], "time": [5709]}, "edge": {"target": [], "time": []}}, "mouseover": {"state": {"target": ["1", "2"], "time": [5400, 6648]}, "edge": {"target": [], "time": []}}, "mouseout": {"state": {"target": ["14", "1"], "time": [3715, 6398]}, "edge": {"target": [], "time": []}}}, "displayed_time": "18.52", "trialTime": 24104, "trial_type": "mouselab-mdp", "trial_index": 17, "time_elapsed": 1182984, "internal_node_id": "0.0-4.0-1.0-2.0"}}, {"uniqueid": "w23786950:a11075753", "current_trial": 18, "dateTime": 1691143535737, "trialdata": {"revealed_states": [], "clicked_states": [], "num_clicks_accrued": [0, 0, 0, 0, 0, 0, 0, 0, 0, 0, 0, 0, 0], "stateRewards": ["", -1, -2, 8, -6, -79, -6, 87, 9, -5, -66, -38, 2, 2, 5, -6, -82, 74, 85, -8, 67, -30, -15, 1, -2, -2, -2, 87, 64, 49, 7, 2, -38, -9], "withholdReward": false, "trial_id": "mdp_trial_4", "block": "test", "trialIndex": 7, "score": -79, "costs": 0, "simulationMode": [null, null, null, null, null], "rewards": [2, 2, 5, -6, -82], "path": ["0", "0", "12", "13", "14", "15", "16"], "rt": [8864, 399, 345, 477, 220], "actions": ["right", "right", "right", "up", "up"], "actionTimes": [13565, 14484, 15345, 16343, 17068], "queries": {"click": {"state": {"target": [], "time": []}, "edge": {"target": [], "time": []}}, "mouseover": {"state": {"target": ["0", "12", "12"], "time": [8303, 8852, 9920]}, "edge": {"target": [], "time": []}}, "mouseout": {"state": {"target": ["2", "1", "0", "12"], "time": [3372, 3521, 8803, 9435]}, "edge": {"target": [], "time": []}}}, "displayed_time": "18.70", "trialTime": 32017, "trial_type": "mouselab-mdp", "trial_index": 18, "time_elapsed": 1215143, "internal_node_id": "0.0-4.0-1.0-3.0"}}, {"uniqueid": "w23786950:a11075753", "current_trial": 19, "dateTime": 1691143561953, "trialdata": {"revealed_states": [], "clicked_states": ["1"], "num_clicks_accrued": [0, 0, 0, 0, 0, 0, 0, 0, 0, 0, 0, 0, 0], "stateRewards": ["", 1, 2, -3, -5, 66, -50, -47, -5, 1, 28, -27, 1, 1, -1, -6, 37, -25, 56, 1, -82, -66, -40, -1, -4, -7, 15, -61, -23, 26, 10, 14, -56, 29], "withholdReward": false, "trial_id": "mdp_trial_5", "block": "test", "trialIndex": 8, "score": 61.25, "costs": 0.25, "simulationMode": [null, null, null, null, null], "rewards": [1, 2, -3, -5, 66], "path": ["0", "0", "1", "2", "3", "4", "5"], "rt": [3499, 404, 970, 651, 1045], "actions": ["up", "up", "up", "right", "up"], "actionTimes": [5601, 6518, 8000, 9163, 10723], "queries": {"click": {"state": {"target": ["1"], "time": [3001]}, "edge": {"target": [], "time": []}}, "mouseover": {"state": {"target": ["1"], "time": [2682]}, "edge": {"target": [], "time": []}}, "mouseout": {"state": {"target": ["12"], "time": [1397]}, "edge": {"target": [], "time": []}}}, "displayed_time": "16.10", "trialTime": 26080, "trial_type": "mouselab-mdp", "trial_index": 19, "time_elapsed": 1241360, "internal_node_id": "0.0-4.0-1.0-4.0"}}, {"uniqueid": "w23786950:a11075753", "current_trial": 20, "dateTime": 1691143583179, "trialdata": {"revealed_states": [], "clicked_states": ["23"], "num_clicks_accrued": [0, 0, 0, 0, 0, 0, 0, 0, 0, 0, 0, 0, 0], "stateRewards": ["", 2, -4, 7, 3, 23, -42, 4, 7, -81, -33, 7, -2, -4, 5, -1, 50, -57, -14, -13, -14, 44, 55, -2, -2, 5, -2, 33, 1, 57, -13, -7, 58, 87], "withholdReward": false, "trial_id": "mdp_trial_6", "block": "test", "trialIndex": 9, "score": 46.25, "costs": 0.25, "simulationMode": [null, null, null, null, null], "rewards": [-2, -2, 5, -13, 58], "path": ["0", "0", "23", "24", "25", "30", "32"], "rt": [3264, 208, 206, 441, 306], "actions": ["left", "left", "left", "down", "down"], "actionTimes": [6362, 7076, 7792, 8743, 9557], "queries": {"click": {"state": {"target": ["23"], "time": [4699]}, "edge": {"target": [], "time": []}}, "mouseover": {"state": {"target": ["0", "23"], "time": [3756, 3839]}, "edge": {"target": [], "time": []}}, "mouseout": {"state": {"target": ["1", "0"], "time": [2539, 3788]}, "edge": {"target": [], "time": []}}}, "displayed_time": "17.10", "trialTime": 21079, "trial_type": "mouselab-mdp", "trial_index": 20, "time_elapsed": 1262586, "internal_node_id": "0.0-4.0-1.0-5.0"}}, {"uniqueid": "w23786950:a11075753", "current_trial": 21, "dateTime": 1691143609896, "trialdata": {"revealed_states": [], "clicked_states": [], "num_clicks_accrued": [0, 0, 0, 0, 0, 0, 0, 0, 0, 0, 0, 0, 0], "stateRewards": ["", 2, -3, -8, 14, -7, -51, 73, 2, 36, 36, -43, -1, 3, -4, 1, 6, 87, -65, 15, 61, -42, -83, -1, 3, -2, -7, 30, -48, 35, 13, 26, 60, 78], "withholdReward": false, "trial_id": "mdp_trial_7", "block": "test", "trialIndex": 10, "score": 5, "costs": 0, "simulationMode": [null, null, null, null, null], "rewards": [-1, 3, -4, 1, 6], "path": ["0", "0", "12", "13", "14", "15", "16"], "rt": [6108, 415, 470, 1007, 496], "actions": ["right", "right", "right", "up", "up"], "actionTimes": [8480, 9416, 10403, 11924, 12927], "queries": {"click": {"state": {"target": [], "time": []}, "edge": {"target": [], "time": []}}, "mouseover": {"state": {"target": ["13", "12", "0", "12"], "time": [5020, 5320, 6385, 6902]}, "edge": {"target": [], "time": []}}, "mouseout": {"state": {"target": ["23", "0", "13", "12", "0", "12", "21"], "time": [1838, 2071, 5086, 6336, 6869, 16776, 17842]}, "edge": {"target": [], "time": []}}}, "displayed_time": "16.37", "trialTime": 26591, "trial_type": "mouselab-mdp", "trial_index": 21, "time_elapsed": 1289302, "internal_node_id": "0.0-4.0-1.0-6.0"}}, {"uniqueid": "w23786950:a11075753", "current_trial": 22, "dateTime": 1691143629684, "trialdata": {"revealed_states": [], "clicked_states": [], "num_clicks_accrued": [0, 0, 0, 0, 0, 0, 0, 0, 0, 0, 0, 0, 0], "stateRewards": ["", -1, 2, 5, -6, 13, -64, -47, 8, -79, -80, -33, 1, 2, -2, -16, 56, -71, -10, 3, 29, 44, 85, -1, 4, 5, 4, -36, -56, 19, 8, 52, -13, -2], "withholdReward": false, "trial_id": "mdp_trial_8", "block": "test", "trialIndex": 11, "score": 3, "costs": 0, "simulationMode": [null, null, null, null, null], "rewards": [-1, 4, 5, 8, -13], "path": ["0", "0", "23", "24", "25", "30", "32"], "rt": [9194, 103, 143, 400, 72], "actions": ["left", "left", "left", "down", "down"], "actionTimes": [11775, 12385, 13040, 13948, 14537], "queries": {"click": {"state": {"target": [], "time": []}, "edge": {"target": [], "time": []}}, "mouseover": {"state": {"target": ["23"], "time": [5767]}, "edge": {"target": [], "time": []}}, "mouseout": {"state": {"target": ["21", "0", "23"], "time": [1170, 1635, 6551]}, "edge": {"target": [], "time": []}}}, "displayed_time": "16.58", "trialTime": 19661, "trial_type": "mouselab-mdp", "trial_index": 22, "time_elapsed": 1309090, "internal_node_id": "0.0-4.0-1.0-7.0"}}, {"uniqueid": "w23786950:a11075753", "current_trial": 23, "dateTime": 1691143662849, "trialdata": {"revealed_states": [], "clicked_states": ["12"], "num_clicks_accrued": [0, 0, 0, 0, 0, 0, 0, 0, 0, 0, 0, 0, 0], "stateRewards": ["", 1, -2, 7, -14, 88, -56, -44, -14, 64, -51, -57, -2, 3, -4, -9, -11, 19, -77, -1, 68, 75, -67, -1, 1, -2, 5, -37, 70, -34, -10, -72, 63, -41], "withholdReward": false, "trial_id": "mdp_trial_9", "block": "test", "trialIndex": 12, "score": -22.75, "costs": 0.25, "simulationMode": [null, null, null, null, null], "rewards": [-2, 3, -4, -9, -11], "path": ["0", "0", "12", "13", "14", "15", "16"], "rt": [2552, 57, 164, 641, 64], "actions": ["right", "right", "right", "up", "up"], "actionTimes": [4314, 4882, 5572, 6732, 7306], "queries": {"click": {"state": {"target": ["12"], "time": [2806]}, "edge": {"target": [], "time": []}}, "mouseover": {"state": {"target": ["12"], "time": [2262]}, "edge": {"target": [], "time": []}}, "mouseout": {"state": {"target": ["0", "12", "12", "13"], "time": [896, 2812, 31457, 31490]}, "edge": {"target": [], "time": []}}}, "displayed_time": "15.76", "trialTime": 33013, "trial_type": "mouselab-mdp", "trial_index": 23, "time_elapsed": 1342255, "internal_node_id": "0.0-4.0-1.0-8.0"}}, {"uniqueid": "w23786950:a11075753", "current_trial": 24, "dateTime": 1691143682729, "trialdata": {"revealed_states": [], "clicked_states": ["1"], "num_clicks_accrued": [0, 0, 0, 0, 0, 0, 0, 0, 0, 0, 0, 0, 0], "stateRewards": ["", -2, 1, -5, 2, -68, 80, 33, 10, 67, -59, 20, -1, -3, 3, 14, 74, -2, 24, -16, 63, 80, 46, -1, 4, 6, 12, 83, -38, -43, -4, 43, 14, -79], "withholdReward": false, "trial_id": "mdp_trial_10", "block": "test", "trialIndex": 13, "score": 71.25, "costs": 0.25, "simulationMode": [null, null, null, null, null], "rewards": [-2, 1, -5, 10, 67], "path": ["0", "0", "1", "2", "3", "8", "9"], "rt": [3533, 68, 1493, 667, 497], "actions": ["up", "up", "up", "left", "up"], "actionTimes": [6366, 6952, 8961, 10134, 11144], "queries": {"click": {"state": {"target": ["1"], "time": [4259]}, "edge": {"target": [], "time": []}}, "mouseover": {"state": {"target": ["23", "1", "1"], "time": [3536, 3802, 4031]}, "edge": {"target": [], "time": []}}, "mouseout": {"state": {"target": ["22", "19", "20", "12", "0", "23", "1"], "time": [388, 401, 418, 1370, 3387, 3769, 3835]}, "edge": {"target": [], "time": []}}}, "displayed_time": "16.83", "trialTime": 19742, "trial_type": "mouselab-mdp", "trial_index": 24, "time_elapsed": 1362135, "internal_node_id": "0.0-4.0-1.0-9.0"}}, {"uniqueid": "w23786950:a11075753", "current_trial": 25, "dateTime": 1691143705499, "trialdata": {"revealed_states": [], "clicked_states": ["1"], "num_clicks_accrued": [0, 0, 0, 0, 0, 0, 0, 0, 0, 0, 0, 0, 0], "stateRewards": ["", 2, 3, -1, 6, 44, -4, -59, -14, -3, 64, 16, 1, -3, 3, 6, 3, 49, 19, 3, -49, -14, -86, 1, 2, -3, -8, -33, 14, 32, -13, -77, -47, -67], "withholdReward": false, "trial_id": "mdp_trial_11", "block": "test", "trialIndex": 14, "score": 54.25, "costs": 0.25, "simulationMode": [null, null, null, null, null], "rewards": [2, 3, -1, 6, 44], "path": ["0", "0", "1", "2", "3", "4", "5"], "rt": [2551, 391, 2100, 576, 1808], "actions": ["up", "up", "up", "right", "up"], "actionTimes": [6722, 7623, 10231, 11322, 13637], "queries": {"click": {"state": {"target": ["1"], "time": [5183]}, "edge": {"target": [], "time": []}}, "mouseover": {"state": {"target": ["1"], "time": [4849]}, "edge": {"target": [], "time": []}}, "mouseout": {"state": {"target": ["1"], "time": [3633]}, "edge": {"target": [], "time": []}}}, "displayed_time": "18.17", "trialTime": 22637, "trial_type": "mouselab-mdp", "trial_index": 25, "time_elapsed": 1384906, "internal_node_id": "0.0-4.0-1.0-10.0"}}, {"uniqueid": "w23786950:a11075753", "current_trial": 26, "dateTime": 1691143726286, "trialdata": {"revealed_states": [], "clicked_states": ["23"], "num_clicks_accrued": [0, 0, 0, 0, 0, 0, 0, 0, 0, 0, 0, 0, 0], "stateRewards": ["", 2, -2, -8, 9, -20, 55, -58, 14, 42, 2, 36, 1, -3, -5, 5, -58, 57, 60, 16, 57, 30, -70, -2, 1, 3, 10, 59, 23, 77, -13, -26, 88, -72], "withholdReward": false, "trial_id": "mdp_trial_12", "block": "test", "trialIndex": 15, "score": 71.25, "costs": 0.25, "simulationMode": [null, null, null, null, null], "rewards": [-2, 1, 3, 10, 59], "path": ["0", "0", "23", "24", "25", "26", "27"], "rt": [3390, 364, 399, 417, 273], "actions": ["left", "left", "left", "up", "up"], "actionTimes": [6670, 7549, 8468, 9401, 10190], "queries": {"click": {"state": {"target": ["23"], "time": [4778]}, "edge": {"target": [], "time": []}}, "mouseover": {"state": {"target": ["23", "0"], "time": [4019, 5083]}, "edge": {"target": [], "time": []}}, "mouseout": {"state": {"target": ["1", "0", "0", "23", "0"], "time": [1220, 1405, 3986, 5067, 11931]}, "edge": {"target": [], "time": []}}}, "displayed_time": "17.28", "trialTime": 20643, "trial_type": "mouselab-mdp", "trial_index": 26, "time_elapsed": 1405693, "internal_node_id": "0.0-4.0-1.0-11.0"}}, {"uniqueid": "w23786950:a11075753", "current_trial": 27, "dateTime": 1691143747385, "trialdata": {"revealed_states": [], "clicked_states": ["12"], "num_clicks_accrued": [0, 0, 0, 0, 0, 0, 0, 0, 0, 0, 0, 0, 0], "stateRewards": ["", -1, 1, 6, -6, 70, 66, 67, -16, -75, -35, 37, -1, 4, 4, -6, 47, -9, 63, 15, 21, -63, 13, 1, 3, -6, 10, 79, -29, 18, -15, 9, -67, -19], "withholdReward": false, "trial_id": "mdp_trial_13", "block": "test", "trialIndex": 16, "score": 48.25, "costs": 0.25, "simulationMode": [null, null, null, null, null], "rewards": [-1, 4, 4, -6, 47], "path": ["0", "0", "12", "13", "14", "15", "16"], "rt": [4234, 378, 658, 670, 305], "actions": ["right", "right", "right", "up", "up"], "actionTimes": [6098, 6989, 8152, 9331, 10150], "queries": {"click": {"state": {"target": ["12"], "time": [4490]}, "edge": {"target": [], "time": []}}, "mouseover": {"state": {"target": ["12", "12"], "time": [2531, 4357]}, "edge": {"target": [], "time": []}}, "mouseout": {"state": {"target": ["0", "12", "12"], "time": [2464, 3362, 18933]}, "edge": {"target": [], "time": []}}}, "displayed_time": "15.87", "trialTime": 20914, "trial_type": "mouselab-mdp", "trial_index": 27, "time_elapsed": 1426791, "internal_node_id": "0.0-4.0-1.0-12.0"}}, {"uniqueid": "w23786950:a11075753", "current_trial": 28, "dateTime": 1691143772760, "trialdata": {"revealed_states": [], "clicked_states": ["23"], "num_clicks_accrued": [0, 0, 0, 0, 0, 0, 0, 0, 0, 0, 0, 0, 0], "stateRewards": ["", 2, -4, 1, -12, -59, -53, -74, 16, -88, -66, 66, 1, -2, 8, -9, -14, 22, 25, -1, -39, 47, -14, -1, -1, -2, 1, -4, 52, -26, 15, -7, 46, 43], "withholdReward": false, "trial_id": "mdp_trial_14", "block": "test", "trialIndex": 17, "score": 57.25, "costs": 0.25, "simulationMode": [null, null, null, null, null], "rewards": [-1, -1, -2, 15, 46], "path": ["0", "0", "23", "24", "25", "30", "32"], "rt": [4400, 360, 266, 554, 443], "actions": ["left", "left", "left", "down", "down"], "actionTimes": [6682, 7552, 8323, 9393, 10350], "queries": {"click": {"state": {"target": ["23"], "time": [5026]}, "edge": {"target": [], "time": []}}, "mouseover": {"state": {"target": ["12", "12", "1", "23", "23"], "time": [2842, 3275, 3773, 4175, 4778]}, "edge": {"target": [], "time": []}}, "mouseout": {"state": {"target": ["12", "0", "0", "12", "12", "1", "23"], "time": [1409, 1510, 2810, 2926, 3307, 3958, 4610]}, "edge": {"target": [], "time": []}}}, "displayed_time": "16.28", "trialTime": 25233, "trial_type": "mouselab-mdp", "trial_index": 28, "time_elapsed": 1452167, "internal_node_id": "0.0-4.0-1.0-13.0"}}, {"uniqueid": "w23786950:a11075753", "current_trial": 29, "dateTime": 1691143791780, "trialdata": {"revealed_states": [], "clicked_states": ["1"], "num_clicks_accrued": [0, 0, 0, 0, 0, 0, 0, 0, 0, 0, 0, 0, 0], "stateRewards": ["", 1, 4, -4, 14, 35, 51, 19, -13, 54, 78, -74, -2, -1, -3, 13, -11, -42, -73, -15, -24, -3, -69, 2, -1, 5, 16, -27, 73, 58, 9, -60, 5, -60], "withholdReward": false, "trial_id": "mdp_trial_15", "block": "test", "trialIndex": 18, "score": 66.25, "costs": 0.25, "simulationMode": [null, null, null, null, null], "rewards": [1, 4, -4, -13, 78], "path": ["0", "0", "1", "2", "3", "8", "10"], "rt": [3634, 437, 603, 943, 841], "actions": ["up", "up", "up", "left", "down"], "actionTimes": [5765, 6718, 7850, 9306, 10654], "queries": {"click": {"state": {"target": ["1"], "time": [3671]}, "edge": {"target": [], "time": []}}, "mouseover": {"state": {"target": ["1"], "time": [3315]}, "edge": {"target": [], "time": []}}, "mouseout": {"state": {"target": ["23", "1"], "time": [1268, 4331]}, "edge": {"target": [], "time": []}}}, "displayed_time": "16.13", "trialTime": 18844, "trial_type": "mouselab-mdp", "trial_index": 29, "time_elapsed": 1471187, "internal_node_id": "0.0-4.0-1.0-14.0"}}, {"uniqueid": "w23786950:a11075753", "current_trial": 30, "dateTime": 1691143810009, "trialdata": {"revealed_states": [], "clicked_states": ["1"], "num_clicks_accrued": [0, 0, 0, 0, 0, 0, 0, 0, 0, 0, 0, 0, 0], "stateRewards": ["", -2, -4, 6, 14, -34, 49, 36, -8, -3, 32, -4, 1, -2, 1, -8, -20, -71, -57, -7, -86, -62, -16, -2, -3, -5, 11, 23, -21, 53, 5, -5, 85, 73], "withholdReward": false, "trial_id": "mdp_trial_16", "block": "test", "trialIndex": 19, "score": 63.25, "costs": 0.25, "simulationMode": [null, null, null, null, null], "rewards": [-2, -4, 6, 14, 49], "path": ["0", "0", "1", "2", "3", "4", "6"], "rt": [4475, 563, 390, 516, 631], "actions": ["up", "up", "up", "right", "right"], "actionTimes": [5788, 6859, 7766, 8792, 9941], "queries": {"click": {"state": {"target": ["1"], "time": [3974]}, "edge": {"target": [], "time": []}}, "mouseover": {"state": {"target": ["0", "1", "2"], "time": [3262, 3728, 4493]}, "edge": {"target": [], "time": []}}, "mouseout": {"state": {"target": ["0", "1", "2", "18", "15"], "time": [3647, 4444, 13423, 13557, 17172]}, "edge": {"target": [], "time": []}}}, "displayed_time": "15.31", "trialTime": 18081, "trial_type": "mouselab-mdp", "trial_index": 30, "time_elapsed": 1489416, "internal_node_id": "0.0-4.0-1.0-15.0"}}, {"uniqueid": "w23786950:a11075753", "current_trial": 31, "dateTime": 1691143828416, "trialdata": {"revealed_states": [], "clicked_states": ["12"], "num_clicks_accrued": [0, 0, 0, 0, 0, 0, 0, 0, 0, 0, 0, 0, 0], "stateRewards": ["", -2, 3, -1, -9, 44, 48, -37, -3, 71, -39, 87, -1, 3, -4, 4, -21, 59, -15, -8, -1, 28, -38, 2, 4, 4, 8, -85, -72, -63, 14, 58, 63, -46], "withholdReward": false, "trial_id": "mdp_trial_17", "block": "test", "trialIndex": 20, "score": 18.25, "costs": 0.25, "simulationMode": [null, null, null, null, null], "rewards": [-1, 3, -4, -8, 28], "path": ["0", "0", "12", "13", "14", "19", "21"], "rt": [3128, 726, 342, 824, 286], "actions": ["right", "right", "right", "down", "down"], "actionTimes": [4291, 5523, 6373, 7703, 8496], "queries": {"click": {"state": {"target": ["12"], "time": [2673]}, "edge": {"target": [], "time": []}}, "mouseover": {"state": {"target": ["1", "12"], "time": [1765, 2098]}, "edge": {"target": [], "time": []}}, "mouseout": {"state": {"target": ["13", "0", "1"], "time": [281, 1465, 2015]}, "edge": {"target": [], "time": []}}}, "displayed_time": "15.17", "trialTime": 18233, "trial_type": "mouselab-mdp", "trial_index": 31, "time_elapsed": 1507822, "internal_node_id": "0.0-4.0-1.0-16.0"}}, {"uniqueid": "w23786950:a11075753", "current_trial": 32, "dateTime": 1691143848925, "trialdata": {"revealed_states": [], "clicked_states": ["1"], "num_clicks_accrued": [0, 0, 0, 0, 0, 0, 0, 0, 0, 0, 0, 0, 0], "stateRewards": ["", -1, -4, -1, -11, 43, 69, 39, 4, 17, -20, -82, -2, -1, 4, 8, -79, 24, -79, 11, 36, 64, 41, 2, 4, -1, 11, -79, -47, 75, -3, 63, -36, -19], "withholdReward": false, "trial_id": "mdp_trial_18", "block": "test", "trialIndex": 21, "score": 22.25, "costs": 0.25, "simulationMode": [null, null, null, null, null], "rewards": [-1, -4, -1, -11, 39], "path": ["0", "0", "1", "2", "3", "4", "7"], "rt": [4410, 639, 641, 972, 813], "actions": ["up", "up", "up", "right", "down"], "actionTimes": [5675, 6830, 7980, 9462, 10785], "queries": {"click": {"state": {"target": ["1"], "time": [3614]}, "edge": {"target": [], "time": []}}, "mouseover": {"state": {"target": ["23", "1", "1"], "time": [2476, 3042, 3325]}, "edge": {"target": [], "time": []}}, "mouseout": {"state": {"target": ["12", "0", "23", "1", "1"], "time": [575, 843, 2991, 3108, 18231]}, "edge": {"target": [], "time": []}}}, "displayed_time": "15.27", "trialTime": 20332, "trial_type": "mouselab-mdp", "trial_index": 32, "time_elapsed": 1528332, "internal_node_id": "0.0-4.0-1.0-17.0"}}, {"uniqueid": "w23786950:a11075753", "current_trial": 33, "dateTime": 1691143884552, "trialdata": {"revealed_states": [], "clicked_states": ["23"], "num_clicks_accrued": [0, 0, 0, 0, 0, 0, 0, 0, 0, 0, 0, 0, 0], "stateRewards": ["", 1, 4, -8, -5, -15, -7, 21, 13, -30, 40, -65, 1, 1, 5, -14, 35, 27, -38, -11, 36, -58, -47, -2, 4, -3, 13, -16, -49, 22, 15, -56, -44, -10], "withholdReward": false, "trial_id": "mdp_trial_19", "block": "test", "trialIndex": 22, "score": -41.75, "costs": 0.25, "simulationMode": [null, null, null, null, null], "rewards": [-2, 4, -3, 15, -56], "path": ["0", "0", "23", "24", "25", "30", "31"], "rt": [3445, 396, 1571, 724, 626], "actions": ["left", "left", "left", "down", "right"], "actionTimes": [4831, 5750, 7838, 9074, 10207], "queries": {"click": {"state": {"target": ["23"], "time": [2472]}, "edge": {"target": [], "time": []}}, "mouseover": {"state": {"target": ["23", "0"], "time": [2186, 2935]}, "edge": {"target": [], "time": []}}, "mouseout": {"state": {"target": ["1", "23", "0"], "time": [518, 2903, 2968]}, "edge": {"target": [], "time": []}}}, "displayed_time": "15.39", "trialTime": 35433, "trial_type": "mouselab-mdp", "trial_index": 33, "time_elapsed": 1563959, "internal_node_id": "0.0-4.0-1.0-18.0"}}, {"uniqueid": "w23786950:a11075753", "current_trial": 34, "dateTime": 1691143904402, "trialdata": {"revealed_states": [], "clicked_states": ["12"], "num_clicks_accrued": [0, 0, 0, 0, 0, 0, 0, 0, 0, 0, 0, 0, 0], "stateRewards": ["", 1, 2, -3, 6, -88, 74, -45, 7, -46, 40, -77, 1, -4, 4, 3, 22, -25, -59, 8, -83, 19, -60, -1, -1, -1, -8, 26, -29, 64, -7, -88, -51, -55], "withholdReward": false, "trial_id": "mdp_trial_20", "block": "test", "trialIndex": 23, "score": 26.25, "costs": 0.25, "simulationMode": [null, null, null, null, null], "rewards": [1, -4, 4, 3, 22], "path": ["0", "0", "12", "13", "14", "15", "16"], "rt": [3156, 338, 412, 588, 279], "actions": ["right", "right", "right", "up", "up"], "actionTimes": [6318, 7169, 8092, 9217, 9993], "queries": {"click": {"state": {"target": ["12"], "time": [4619]}, "edge": {"target": [], "time": []}}, "mouseover": {"state": {"target": ["1", "12", "13"], "time": [3597, 4358, 5180]}, "edge": {"target": [], "time": []}}, "mouseout": {"state": {"target": ["1", "12"], "time": [4165, 5147]}, "edge": {"target": [], "time": []}}}, "displayed_time": "17.16", "trialTime": 19683, "trial_type": "mouselab-mdp", "trial_index": 34, "time_elapsed": 1583808, "internal_node_id": "0.0-4.0-1.0-19.0"}}, {"uniqueid": "w23786950:a11075753", "current_trial": 35, "dateTime": 1691143925467, "trialdata": {"revealed_states": [], "clicked_states": ["1"], "num_clicks_accrued": [0, 0, 0, 0, 0, 0, 0, 0, 0, 0, 0, 0, 0], "stateRewards": ["", 2, 4, -3, 16, -58, 30, -35, 11, -60, 47, 27, -2, -1, -7, -16, 23, -70, 68, -10, -65, -43, -34, -2, 1, 7, 9, -63, 34, -31, -8, -12, -86, 59], "withholdReward": false, "trial_id": "mdp_trial_21", "block": "test", "trialIndex": 24, "score": -15.75, "costs": 0.25, "simulationMode": [null, null, null, null, null], "rewards": [2, 4, -3, 16, -35], "path": ["0", "0", "1", "2", "3", "4", "7"], "rt": [2490, 462, 251, 493, 517], "actions": ["up", "up", "up", "right", "down"], "actionTimes": [4330, 5307, 6063, 7071, 8096], "queries": {"click": {"state": {"target": ["1"], "time": [3073]}, "edge": {"target": [], "time": []}}, "mouseover": {"state": {"target": ["1"], "time": [2680]}, "edge": {"target": [], "time": []}}, "mouseout": {"state": {"target": ["13", "12", "1", "1", "1", "0"], "time": [1113, 1296, 12026, 13009, 20169, 20301]}, "edge": {"target": [], "time": []}}}, "displayed_time": "15.85", "trialTime": 20909, "trial_type": "mouselab-mdp", "trial_index": 35, "time_elapsed": 1604874, "internal_node_id": "0.0-4.0-1.0-20.0"}}, {"uniqueid": "w23786950:a11075753", "current_trial": 36, "dateTime": 1691143946487, "trialdata": {"revealed_states": [], "clicked_states": ["23"], "num_clicks_accrued": [0, 0, 0, 0, 0, 0, 0, 0, 0, 0, 0, 0, 0], "stateRewards": ["", -2, 1, -3, -16, -39, -52, 30, -7, -41, -59, 11, 2, 1, 8, 2, -11, -26, -42, -13, 87, -59, -48, -1, -1, -1, 16, -79, 31, 50, -1, -84, 34, -82], "withholdReward": false, "trial_id": "mdp_trial_22", "block": "test", "trialIndex": 25, "score": -65.75, "costs": 0.25, "simulationMode": [null, null, null, null, null], "rewards": [-1, -1, -1, 16, -79], "path": ["0", "0", "23", "24", "25", "26", "27"], "rt": [3052, 194, 382, 1187, 351], "actions": ["left", "left", "left", "up", "up"], "actionTimes": [6407, 7113, 8031, 9736, 10599], "queries": {"click": {"state": {"target": ["23"], "time": [4603]}, "edge": {"target": [], "time": []}}, "mouseover": {"state": {"target": ["1", "23"], "time": [3835, 4319]}, "edge": {"target": [], "time": []}}, "mouseout": {"state": {"target": ["0", "1", "23", "0"], "time": [3676, 4003, 5332, 20411]}, "edge": {"target": [], "time": []}}}, "displayed_time": "17.36", "trialTime": 20864, "trial_type": "mouselab-mdp", "trial_index": 36, "time_elapsed": 1625893, "internal_node_id": "0.0-4.0-1.0-21.0"}}, {"uniqueid": "w23786950:a11075753", "current_trial": 37, "dateTime": 1691143963846, "trialdata": {"revealed_states": [], "clicked_states": ["1"], "num_clicks_accrued": [0, 0, 0, 0, 0, 0, 0, 0, 0, 0, 0, 0, 0], "stateRewards": ["", 2, 4, 4, -8, -36, -33, 38, 16, -51, 57, 57, 1, 3, 4, -6, 45, 68, 87, 1, 63, 24, -55, -2, 2, -6, -13, -63, -50, 8, 2, 80, 6, 60], "withholdReward": false, "trial_id": "mdp_trial_23", "block": "test", "trialIndex": 26, "score": -33.75, "costs": 0.25, "simulationMode": [null, null, null, null, null], "rewards": [2, 4, 4, -8, -36], "path": ["0", "0", "1", "2", "3", "4", "5"], "rt": [3258, 393, 250, 445, 533], "actions": ["up", "up", "up", "right", "up"], "actionTimes": [4327, 5237, 5994, 6954, 7991], "queries": {"click": {"state": {"target": ["1"], "time": [2597]}, "edge": {"target": [], "time": []}}, "mouseover": {"state": {"target": ["1"], "time": [2046]}, "edge": {"target": [], "time": []}}, "mouseout": {"state": {"target": ["0"], "time": [1711]}, "edge": {"target": [], "time": []}}}, "displayed_time": "15.07", "trialTime": 17165, "trial_type": "mouselab-mdp", "trial_index": 37, "time_elapsed": 1643253, "internal_node_id": "0.0-4.0-1.0-22.0"}}, {"uniqueid": "w23786950:a11075753", "current_trial": 38, "dateTime": 1691143980869, "trialdata": {"revealed_states": [], "clicked_states": ["12"], "num_clicks_accrued": [0, 0, 0, 0, 0, 0, 0, 0, 0, 0, 0, 0, 0], "stateRewards": ["", -2, 3, 3, -14, 62, 36, 49, 16, 11, 17, -84, 2, -1, 6, 2, -82, -73, 49, -6, -87, 48, 50, -1, -2, -1, -16, -11, 37, -44, 4, 55, 73, -10], "withholdReward": false, "trial_id": "mdp_trial_24", "block": "test", "trialIndex": 27, "score": -72.75, "costs": 0.25, "simulationMode": [null, null, null, null, null], "rewards": [2, -1, 6, 2, -82], "path": ["0", "0", "12", "13", "14", "15", "16"], "rt": [3537, 305, 410, 164, 178], "actions": ["right", "right", "right", "up", "up"], "actionTimes": [4748, 5563, 6484, 7154, 7851], "queries": {"click": {"state": {"target": ["12"], "time": [3152]}, "edge": {"target": [], "time": []}}, "mouseover": {"state": {"target": ["12"], "time": [2626]}, "edge": {"target": [], "time": []}}, "mouseout": {"state": {"target": ["1", "12"], "time": [711, 3157]}, "edge": {"target": [], "time": []}}}, "displayed_time": "15.21", "trialTime": 16861, "trial_type": "mouselab-mdp", "trial_index": 38, "time_elapsed": 1660276, "internal_node_id": "0.0-4.0-1.0-23.0"}}, {"uniqueid": "w23786950:a11075753", "current_trial": 39, "dateTime": 1691143998656, "trialdata": {"revealed_states": [], "clicked_states": ["23"], "num_clicks_accrued": [0, 0, 0, 0, 0, 0, 0, 0, 0, 0, 0, 0, 0], "stateRewards": ["", 1, -3, -6, -5, 47, 80, -29, 11, -71, 10, -29, -2, 3, -6, 12, 2, -78, -6, 8, 34, -16, -5, -1, 3, 3, -13, 84, -36, -62, -3, -27, 66, 15], "withholdReward": false, "trial_id": "mdp_trial_25", "block": "test", "trialIndex": 28, "score": 68.25, "costs": 0.25, "simulationMode": [null, null, null, null, null], "rewards": [-1, 3, 3, -3, 66], "path": ["0", "0", "23", "24", "25", "30", "32"], "rt": [3410, 186, 185, 376, 77], "actions": ["left", "left", "left", "down", "down"], "actionTimes": [4655, 5355, 6052, 6942, 7525], "queries": {"click": {"state": {"target": ["23"], "time": [3457]}, "edge": {"target": [], "time": []}}, "mouseover": {"state": {"target": ["23"], "time": [3219]}, "edge": {"target": [], "time": []}}, "mouseout": {"state": {"target": ["12", "0", "23"], "time": [819, 2804, 3468]}, "edge": {"target": [], "time": []}}}, "displayed_time": "15.25", "trialTime": 17600, "trial_type": "mouselab-mdp", "trial_index": 39, "time_elapsed": 1678062, "internal_node_id": "0.0-4.0-1.0-24.0"}}, {"uniqueid": "w23786950:a11075753", "current_trial": 40, "dateTime": 1691144038853, "trialdata": {"revealed_states": [], "clicked_states": ["1"], "num_clicks_accrued": [0, 0, 0, 0, 0, 0, 0, 0, 0, 0, 0, 0, 0], "stateRewards": ["", -1, -2, -1, -10, -57, 73, -72, -16, 75, -14, -46, -2, -3, -7, -1, -61, -60, 76, -4, 50, 4, 14, 2, 2, -7, 12, -65, -32, 15, -8, -76, -25, -61], "withholdReward": false, "trial_id": "mdp_trial_26", "block": "test", "trialIndex": 29, "score": -33.75, "costs": 0.25, "simulationMode": [null, null, null, null, null], "rewards": [-1, -2, -1, -16, -14], "path": ["0", "0", "1", "2", "3", "8", "10"], "rt": [3204, 314, 366, 507, 640], "actions": ["up", "up", "up", "left", "down"], "actionTimes": [4172, 5003, 5887, 6911, 8060], "queries": {"click": {"state": {"target": ["1"], "time": [2674]}, "edge": {"target": [], "time": []}}, "mouseover": {"state": {"target": ["12", "1"], "time": [1840, 2425]}, "edge": {"target": [], "time": []}}, "mouseout": {"state": {"target": ["12", "1", "0"], "time": [2240, 11984, 39447]}, "edge": {"target": [], "time": []}}}, "displayed_time": "14.97", "trialTime": 40014, "trial_type": "mouselab-mdp", "trial_index": 40, "time_elapsed": 1718259, "internal_node_id": "0.0-4.0-1.0-25.0"}}, {"uniqueid": "w23786950:a11075753", "current_trial": 41, "dateTime": 1691144059527, "trialdata": {"revealed_states": [], "clicked_states": ["1"], "num_clicks_accrued": [0, 0, 0, 0, 0, 0, 0, 0, 0, 0, 0, 0, 0], "stateRewards": ["", 2, -3, 5, 11, -79, 54, 11, -9, -78, 33, 22, -2, -1, 2, 14, 43, 34, 1, 10, 49, -65, 39, -1, 1, -1, 3, -16, -2, 11, 2, 12, 48, -65], "withholdReward": false, "trial_id": "mdp_trial_27", "block": "test", "trialIndex": 30, "score": -82.75, "costs": 0.25, "simulationMode": [null, null, null, null, null], "rewards": [2, -3, 5, -9, -78], "path": ["0", "0", "1", "2", "3", "8", "9"], "rt": [2055, 219, 795, 830, 1402], "actions": ["up", "up", "up", "left", "up"], "actionTimes": [6752, 7490, 8797, 10117, 12037], "queries": {"click": {"state": {"target": ["1"], "time": [5609]}, "edge": {"target": [], "time": []}}, "mouseover": {"state": {"target": ["1"], "time": [5354]}, "edge": {"target": [], "time": []}}, "mouseout": {"state": {"target": ["22", "12", "0"], "time": [4056, 4170, 5155]}, "edge": {"target": [], "time": []}}}, "displayed_time": "18.70", "trialTime": 20482, "trial_type": "mouselab-mdp", "trial_index": 41, "time_elapsed": 1738934, "internal_node_id": "0.0-4.0-1.0-26.0"}}, {"uniqueid": "w23786950:a11075753", "current_trial": 42, "dateTime": 1691144090584, "trialdata": {"revealed_states": [], "clicked_states": ["12"], "num_clicks_accrued": [0, 0, 0, 0, 0, 0, 0, 0, 0, 0, 0, 0, 0], "stateRewards": ["", 1, 2, -3, -6, 50, -7, 7, -7, -80, 21, -1, 2, 2, 4, -1, 33, 84, 1, 14, -53, 81, 6, -2, -2, -3, -9, -87, -38, -59, -5, -74, -3, -71], "withholdReward": false, "trial_id": "mdp_trial_28", "block": "test", "trialIndex": 31, "score": 40.25, "costs": 0.25, "simulationMode": [null, null, null, null, null], "rewards": [2, 2, 4, -1, 33], "path": ["0", "0", "12", "13", "14", "15", "16"], "rt": [2504, 452, 314, 288, 135], "actions": ["right", "right", "right", "up", "up"], "actionTimes": [5425, 6395, 7222, 8028, 8674], "queries": {"click": {"state": {"target": ["12"], "time": [4247]}, "edge": {"target": [], "time": []}}, "mouseover": {"state": {"target": ["0", "12"], "time": [3626, 3793]}, "edge": {"target": [], "time": []}}, "mouseout": {"state": {"target": ["1", "0", "12", "12"], "time": [462, 3659, 28462, 29941]}, "edge": {"target": [], "time": []}}}, "displayed_time": "16.92", "trialTime": 30871, "trial_type": "mouselab-mdp", "trial_index": 42, "time_elapsed": 1769990, "internal_node_id": "0.0-4.0-1.0-27.0"}}, {"uniqueid": "w23786950:a11075753", "current_trial": 43, "dateTime": 1691144108581, "trialdata": {"revealed_states": [], "clicked_states": ["1"], "num_clicks_accrued": [0, 0, 0, 0, 0, 0, 0, 0, 0, 0, 0, 0, 0], "stateRewards": ["", -1, 1, -5, -6, -78, 47, -13, 12, 48, -88, 20, 2, -3, -2, 13, -20, 37, -57, 14, -38, 30, 31, -2, -2, 8, 2, -23, 78, 28, 12, -74, -88, 8], "withholdReward": false, "trial_id": "mdp_trial_29", "block": "test", "trialIndex": 32, "score": -88.75, "costs": 0.25, "simulationMode": [null, null, null, null, null], "rewards": [-1, 1, -5, -6, -78], "path": ["0", "0", "1", "2", "3", "4", "5"], "rt": [4409, 359, 2518, 86, 987], "actions": ["up", "up", "up", "right", "up"], "actionTimes": [5850, 6723, 9750, 10348, 11848], "queries": {"click": {"state": {"target": ["1"], "time": [3941]}, "edge": {"target": [], "time": []}}, "mouseover": {"state": {"target": ["12", "22", "12", "12", "1", "2"], "time": [1882, 2467, 3251, 3351, 3684, 4498]}, "edge": {"target": [], "time": []}}, "mouseout": {"state": {"target": ["12", "0", "12", "22", "12", "12", "1", "2"], "time": [634, 1868, 1899, 2483, 3266, 3518, 4414, 13366]}, "edge": {"target": [], "time": []}}}, "displayed_time": "15.45", "trialTime": 17811, "trial_type": "mouselab-mdp", "trial_index": 43, "time_elapsed": 1787988, "internal_node_id": "0.0-4.0-1.0-28.0"}}, {"uniqueid": "w23786950:a11075753", "current_trial": 44, "dateTime": 1691144129401, "trialdata": {"revealed_states": [], "clicked_states": ["23"], "num_clicks_accrued": [0, 0, 0, 0, 0, 0, 0, 0, 0, 0, 0, 0, 0], "stateRewards": ["", 2, -3, -5, 5, 11, -9, -33, 6, 67, 6, -30, -1, -2, -6, 13, 55, 13, 72, -14, 75, 21, -66, -2, -4, 6, 15, -1, -35, 60, 2, 51, -73, 12], "withholdReward": false, "trial_id": "mdp_trial_30", "block": "test", "trialIndex": 33, "score": -70.75, "costs": 0.25, "simulationMode": [null, null, null, null, null], "rewards": [-2, -4, 6, 2, -73], "path": ["0", "0", "23", "24", "25", "30", "32"], "rt": [2680, 245, 218, 899, 75], "actions": ["left", "left", "left", "down", "down"], "actionTimes": [6188, 6946, 7669, 9083, 9675], "queries": {"click": {"state": {"target": ["23"], "time": [4562]}, "edge": {"target": [], "time": []}}, "mouseover": {"state": {"target": ["23"], "time": [4202]}, "edge": {"target": [], "time": []}}, "mouseout": {"state": {"target": ["21", "26", "0", "23"], "time": [305, 836, 3935, 6665]}, "edge": {"target": [], "time": []}}}, "displayed_time": "17.51", "trialTime": 20629, "trial_type": "mouselab-mdp", "trial_index": 44, "time_elapsed": 1808807, "internal_node_id": "0.0-4.0-1.0-29.0"}}, {"uniqueid": "w23786950:a11075753", "current_trial": 45, "dateTime": 1691144149255, "trialdata": {"revealed_states": [], "clicked_states": ["12"], "num_clicks_accrued": [0, 0, 0, 0, 0, 0, 0, 0, 0, 0, 0, 0, 0], "stateRewards": ["", 1, 3, 1, -13, 52, -28, 67, -14, 3, 63, -70, -1, -4, 7, -11, -10, 47, -18, 6, 69, -9, -61, 2, 3, -6, 10, 63, -34, 40, -6, -79, -35, -32], "withholdReward": false, "trial_id": "mdp_trial_31", "block": "test", "trialIndex": 34, "score": -0.75, "costs": 0.25, "simulationMode": [null, null, null, null, null], "rewards": [-1, -4, 7, 6, -9], "path": ["0", "0", "12", "13", "14", "19", "21"], "rt": [3824, 288, 559, 1593, 88], "actions": ["right", "right", "right", "down", "down"], "actionTimes": [6377, 7181, 8251, 10351, 10945], "queries": {"click": {"state": {"target": ["12"], "time": [4930]}, "edge": {"target": [], "time": []}}, "mouseover": {"state": {"target": ["1", "12", "12"], "time": [3145, 3863, 4129]}, "edge": {"target": [], "time": []}}, "mouseout": {"state": {"target": ["1", "12"], "time": [3764, 3877]}, "edge": {"target": [], "time": []}}}, "displayed_time": "16.56", "trialTime": 19656, "trial_type": "mouselab-mdp", "trial_index": 45, "time_elapsed": 1828661, "internal_node_id": "0.0-4.0-1.0-30.0"}}, {"uniqueid": "w23786950:a11075753", "current_trial": 46, "dateTime": 1691144167253, "trialdata": {"revealed_states": [], "clicked_states": ["23"], "num_clicks_accrued": [0, 0, 0, 0, 0, 0, 0, 0, 0, 0, 0, 0, 0], "stateRewards": ["", 1, 2, 2, -15, -84, 28, -26, 13, 31, 86, 30, -2, 1, -1, -8, 66, -40, -1, -10, -32, 57, -17, 1, 2, -2, 9, -23, 77, 85, 12, -32, -62, -35], "withholdReward": false, "trial_id": "mdp_trial_32", "block": "test", "trialIndex": 35, "score": -12.75, "costs": 0.25, "simulationMode": [null, null, null, null, null], "rewards": [1, 2, -2, 9, -23], "path": ["0", "0", "23", "24", "25", "26", "27"], "rt": [3127, 277, 245, 293, 149], "actions": ["left", "left", "left", "up", "up"], "actionTimes": [4701, 5497, 6250, 7078, 7735], "queries": {"click": {"state": {"target": ["23"], "time": [3467]}, "edge": {"target": [], "time": []}}, "mouseover": {"state": {"target": ["12", "23"], "time": [2389, 2821]}, "edge": {"target": [], "time": []}}, "mouseout": {"state": {"target": ["12", "12", "23", "23"], "time": [920, 2674, 3474, 4485]}, "edge": {"target": [], "time": []}}}, "displayed_time": "15.58", "trialTime": 17792, "trial_type": "mouselab-mdp", "trial_index": 46, "time_elapsed": 1846660, "internal_node_id": "0.0-4.0-1.0-31.0"}}, {"uniqueid": "w23786950:a11075753", "current_trial": 47, "dateTime": 1691144186569, "trialdata": {"revealed_states": [], "clicked_states": ["1"], "num_clicks_accrued": [0, 0, 0, 0, 0, 0, 0, 0, 0, 0, 0, 0, 0], "stateRewards": ["", -2, -1, -4, -15, -14, -67, 32, -3, -59, 63, 31, 2, -1, -7, -15, 71, -66, -27, -3, -54, -39, 72, 2, 1, 1, -13, 77, -40, 35, -9, 35, 75, 57], "withholdReward": false, "trial_id": "mdp_trial_33", "block": "test", "trialIndex": 36, "score": -68.75, "costs": 0.25, "simulationMode": [null, null, null, null, null], "rewards": [-2, -1, -4, -3, -59], "path": ["0", "0", "1", "2", "3", "8", "9"], "rt": [1980, 309, 260, 757, 690], "actions": ["up", "up", "up", "left", "up"], "actionTimes": [3658, 4478, 5245, 6509, 7708], "queries": {"click": {"state": {"target": ["1"], "time": [2563]}, "edge": {"target": [], "time": []}}, "mouseover": {"state": {"target": ["1"], "time": [2286]}, "edge": {"target": [], "time": []}}, "mouseout": {"state": {"target": ["23", "0", "12", "0"], "time": [798, 835, 1069, 2154]}, "edge": {"target": [], "time": []}}}, "displayed_time": "15.68", "trialTime": 19117, "trial_type": "mouselab-mdp", "trial_index": 47, "time_elapsed": 1865975, "internal_node_id": "0.0-4.0-1.0-32.0"}}, {"uniqueid": "w23786950:a11075753", "current_trial": 48, "dateTime": 1691144205231, "trialdata": {"revealed_states": [], "clicked_states": ["12"], "num_clicks_accrued": [0, 0, 0, 0, 0, 0, 0, 0, 0, 0, 0, 0, 0], "stateRewards": ["", -1, 4, -6, -5, -22, -38, -38, -2, -56, 88, 14, -1, -1, -7, -6, 61, -60, 21, 11, 57, 31, -30, -2, -2, 6, -9, -44, -70, -44, -15, 34, 16, -78], "withholdReward": false, "trial_id": "mdp_trial_34", "block": "test", "trialIndex": 37, "score": 59.25, "costs": 0.25, "simulationMode": [null, null, null, null, null], "rewards": [-1, -1, -7, 11, 57], "path": ["0", "0", "12", "13", "14", "19", "20"], "rt": [3291, 152, 318, 365, 690], "actions": ["right", "right", "right", "down", "right"], "actionTimes": [4416, 5100, 5931, 6812, 8021], "queries": {"click": {"state": {"target": ["12"], "time": [3527]}, "edge": {"target": [], "time": []}}, "mouseover": {"state": {"target": ["12", "12"], "time": [2900, 3300]}, "edge": {"target": [], "time": []}}, "mouseout": {"state": {"target": ["1", "12", "12"], "time": [483, 3100, 16955]}, "edge": {"target": [], "time": []}}}, "displayed_time": "15.14", "trialTime": 18437, "trial_type": "mouselab-mdp", "trial_index": 48, "time_elapsed": 1884637, "internal_node_id": "0.0-4.0-1.0-33.0"}}, {"uniqueid": "w23786950:a11075753", "current_trial": 49, "dateTime": 1691144223119, "trialdata": {"revealed_states": [], "clicked_states": ["23"], "num_clicks_accrued": [0, 0, 0, 0, 0, 0, 0, 0, 0, 0, 0, 0, 0], "stateRewards": ["", -1, -4, -1, -5, -28, -23, -15, -15, -38, 59, -87, 2, 2, -5, 9, -55, -39, -71, -6, 85, -85, -11, -1, -2, 5, -10, 1, 25, 41, -4, 69, -35, 86], "withholdReward": false, "trial_id": "mdp_trial_35", "block": "test", "trialIndex": 38, "score": -36.75, "costs": 0.25, "simulationMode": [null, null, null, null, null], "rewards": [-1, -2, 5, -4, -35], "path": ["0", "0", "23", "24", "25", "30", "32"], "rt": [3139, 234, 126, 874, 131], "actions": ["left", "left", "left", "down", "down"], "actionTimes": [4354, 5101, 5743, 7123, 7764], "queries": {"click": {"state": {"target": ["23"], "time": [2460]}, "edge": {"target": [], "time": []}}, "mouseover": {"state": {"target": ["23", "24"], "time": [2152, 3333]}, "edge": {"target": [], "time": []}}, "mouseout": {"state": {"target": ["0", "23", "24"], "time": [2101, 3282, 8781]}, "edge": {"target": [], "time": []}}}, "displayed_time": "15.22", "trialTime": 17706, "trial_type": "mouselab-mdp", "trial_index": 49, "time_elapsed": 1902525, "internal_node_id": "0.0-4.0-1.0-34.0"}}, {"uniqueid": "w23786950:a11075753", "current_trial": 50, "dateTime": 1691144243614, "trialdata": {"revealed_states": [], "clicked_states": ["1"], "num_clicks_accrued": [0, 0, 0, 0, 0, 0, 0, 0, 0, 0, 0, 0, 0], "stateRewards": ["", -1, 2, -6, 6, -82, -19, -39, -16, -83, 11, -33, -2, -2, 4, -6, -82, -1, -19, -6, -10, -67, -41, -2, 1, -7, 16, -23, -78, -52, 14, 31, -71, 74], "withholdReward": false, "trial_id": "mdp_trial_36", "block": "test", "trialIndex": 39, "score": -80.75, "costs": 0.25, "simulationMode": [null, null, null, null, null], "rewards": [-1, 2, -6, 6, -82], "path": ["0", "0", "1", "2", "3", "4", "5"], "rt": [2475, 218, 418, 829, 656], "actions": ["up", "up", "up", "right", "up"], "actionTimes": [4793, 5526, 6461, 7805, 8964], "queries": {"click": {"state": {"target": ["1"], "time": [3201]}, "edge": {"target": [], "time": []}}, "mouseover": {"state": {"target": ["1"], "time": [2894]}, "edge": {"target": [], "time": []}}, "mouseout": {"state": {"target": ["23", "0"], "time": [1328, 2779]}, "edge": {"target": [], "time": []}}}, "displayed_time": "16.32", "trialTime": 20324, "trial_type": "mouselab-mdp", "trial_index": 50, "time_elapsed": 1923021, "internal_node_id": "0.0-4.0-1.0-35.0"}}, {"uniqueid": "w23786950:a11075753", "current_trial": 51, "dateTime": 1691144265735, "trialdata": {"revealed_states": [], "clicked_states": ["23"], "num_clicks_accrued": [0, 0, 0, 0, 0, 0, 0, 0, 0, 0, 0, 0, 0], "stateRewards": ["", 1, 2, -5, 14, 54, -14, -25, 16, -5, -87, 78, -1, 1, 3, -3, 52, 53, 53, -10, 73, -69, -48, 2, 3, 1, 8, -62, -7, 85, 7, 82, 52, -28], "withholdReward": false, "trial_id": "mdp_trial_37", "block": "test", "trialIndex": 40, "score": 99.25, "costs": 0.25, "simulationMode": [null, null, null, null, null], "rewards": [2, 3, 1, 8, 85], "path": ["0", "0", "23", "24", "25", "26", "29"], "rt": [2556, 91, 168, 527, 716], "actions": ["left", "left", "left", "up", "left"], "actionTimes": [6089, 6696, 7372, 8414, 9651], "queries": {"click": {"state": {"target": ["23"], "time": [4965]}, "edge": {"target": [], "time": []}}, "mouseover": {"state": {"target": ["23"], "time": [4522]}, "edge": {"target": [], "time": []}}, "mouseout": {"state": {"target": ["1", "0"], "time": [890, 4439]}, "edge": {"target": [], "time": []}}}, "displayed_time": "17.54", "trialTime": 21902, "trial_type": "mouselab-mdp", "trial_index": 51, "time_elapsed": 1945141, "internal_node_id": "0.0-4.0-1.0-36.0"}}, {"uniqueid": "w23786950:a11075753", "current_trial": 52, "dateTime": 1691144286580, "trialdata": {"revealed_states": [], "clicked_states": ["23"], "num_clicks_accrued": [0, 0, 0, 0, 0, 0, 0, 0, 0, 0, 0, 0, 0], "stateRewards": ["", 2, -1, 8, -2, -16, 69, -39, -7, -13, -27, -86, 2, -2, 2, 13, -34, -16, -20, -5, 19, 81, 32, -2, -1, 2, -14, 20, 80, 58, 4, 70, 12, 73], "withholdReward": false, "trial_id": "mdp_trial_38", "block": "test", "trialIndex": 41, "score": 73.25, "costs": 0.25, "simulationMode": [null, null, null, null, null], "rewards": [-2, -1, 2, 4, 70], "path": ["0", "0", "23", "24", "25", "30", "31"], "rt": [4531, 331, 260, 715, 602], "actions": ["left", "left", "left", "down", "right"], "actionTimes": [7063, 7898, 8676, 9899, 11018], "queries": {"click": {"state": {"target": ["23"], "time": [5327]}, "edge": {"target": [], "time": []}}, "mouseover": {"state": {"target": ["23"], "time": [5119]}, "edge": {"target": [], "time": []}}, "mouseout": {"state": {"target": ["23", "0"], "time": [1654, 1971]}, "edge": {"target": [], "time": []}}}, "displayed_time": "16.54", "trialTime": 20642, "trial_type": "mouselab-mdp", "trial_index": 52, "time_elapsed": 1965987, "internal_node_id": "0.0-4.0-1.0-37.0"}}, {"uniqueid": "w23786950:a11075753", "current_trial": 53, "dateTime": 1691144305348, "trialdata": {"revealed_states": [], "clicked_states": ["1"], "num_clicks_accrued": [0, 0, 0, 0, 0, 0, 0, 0, 0, 0, 0, 0, 0], "stateRewards": ["", 2, 3, 3, 10, 19, -21, 6, 9, 54, 68, 16, 2, 2, -6, -8, 40, -2, -75, -2, -42, 55, 59, -1, 2, 4, -14, 11, -34, -30, -6, 61, -53, 13], "withholdReward": false, "trial_id": "mdp_trial_39", "block": "test", "trialIndex": 42, "score": 85.25, "costs": 0.25, "simulationMode": [null, null, null, null, null], "rewards": [2, 3, 3, 9, 68], "path": ["0", "0", "1", "2", "3", "8", "10"], "rt": [3023, 297, 291, 856, 396], "actions": ["up", "up", "up", "left", "down"], "actionTimes": [4718, 5521, 6315, 7680, 8586], "queries": {"click": {"state": {"target": ["1"], "time": [3074]}, "edge": {"target": [], "time": []}}, "mouseover": {"state": {"target": ["1"], "time": [2445]}, "edge": {"target": [], "time": []}}, "mouseout": {"state": {"target": ["23", "0"], "time": [581, 2246]}, "edge": {"target": [], "time": []}}}, "displayed_time": "15.70", "trialTime": 18546, "trial_type": "mouselab-mdp", "trial_index": 53, "time_elapsed": 1984754, "internal_node_id": "0.0-4.0-1.0-38.0"}}, {"uniqueid": "w23786950:a11075753", "current_trial": 54, "dateTime": 1691144327217, "trialdata": {"revealed_states": [], "clicked_states": [], "num_clicks_accrued": [0, 0, 0, 0, 0, 0, 0, 0, 0, 0, 0, 0, 0], "stateRewards": ["", -2, 1, 6, -2, -10, -78, -69, 14, -15, 7, -1, 1, -1, -2, 13, 77, 32, 87, 5, -74, 30, -26, 1, 3, 4, 12, 39, 54, -43, 2, 10, 23, 13], "withholdReward": false, "trial_id": "mdp_trial_40", "block": "test", "trialIndex": 43, "score": -66, "costs": 0, "simulationMode": [null, null, null, null, null], "rewards": [-2, 1, 6, -2, -69], "path": ["0", "0", "1", "2", "3", "4", "7"], "rt": [5414, 398, 329, 557, 5957], "actions": ["up", "up", "up", "right", "down"], "actionTimes": [9214, 10118, 10964, 12025, 18492], "queries": {"click": {"state": {"target": [], "time": []}, "edge": {"target": [], "time": []}}, "mouseover": {"state": {"target": ["12", "1"], "time": [6571, 8147]}, "edge": {"target": [], "time": []}}, "mouseout": {"state": {"target": ["1", "0", "12", "1", "4", "16"], "time": [2273, 2840, 7886, 17793, 18147, 19298]}, "edge": {"target": [], "time": []}}}, "displayed_time": "19.00", "trialTime": 21656, "trial_type": "mouselab-mdp", "trial_index": 54, "time_elapsed": 2006623, "internal_node_id": "0.0-4.0-1.0-39.0"}}, {"uniqueid": "w23786950:a11075753", "current_trial": 55, "dateTime": 1691144409974, "trialdata": {"rt": 82752, "response": {"Q0": "$-2 to $2", "Q1": "$-16 to $16", "Q2": "$-88 to $88", "Q3": "The cost for clicking on nodes varied between nodes.", "Q4": "Very motivated"}, "question_order": [0, 1, 2, 3, 4], "trial_id": "final_quiz_control", "trial_type": "survey-multi-choice", "trial_index": 55, "time_elapsed": 2089380, "internal_node_id": "0.0-4.0-2.0"}}, {"uniqueid": "w23786950:a11075753", "current_trial": 56, "dateTime": 1691144495886, "trialdata": {"rt": 85900, "response": {"Q0": "I will follow to the path where the first node I clicked was positive then a minus", "Q1": "I doubt I got it right but I managed", "Q2": "Quite difficult, when I thought I got it right then my outcome will be a minus"}, "trial_id": "self_report_control", "trial_type": "survey-text", "trial_index": 56, "time_elapsed": 2175292, "internal_node_id": "0.0-4.0-3.0"}}, {"uniqueid": "w23786950:a11075753", "current_trial": 57, "dateTime": 1691144549702, "trialdata": {"rt": 53812, "response": {"Q0": "Strongly agree", "Q1": "Strongly disagree", "Q2": "Strongly agree", "Q3": "Strongly disagree", "Q4": "Neither disagree nor agree", "Q5": "Strongly agree", "Q6": "Strongly disagree"}, "question_order": [0, 1, 2, 3, 4, 5, 6], "trial_id": "self_report_2", "trial_type": "survey-multi-choice", "trial_index": 57, "time_elapsed": 2229109, "internal_node_id": "0.0-4.0-4.0"}}, {"uniqueid": "w23786950:a11075753", "current_trial": 58, "dateTime": 1691144578579, "trialdata": {"rt": 28871, "response": {"gender": "female", "age": "41", "colorblind": "0", "effort": "0"}, "trial_type": "survey-html-form", "trial_index": 58, "time_elapsed": 2257986, "internal_node_id": "0.0-4.0-5.0"}}, {"uniqueid": "w23786950:a11075753", "current_trial": 59, "dateTime": 1691144639755, "trialdata": {"rt": 61172, "response": {"Q0": "Before I took a practical test I really could not understand the theory.", "Q1": "I have never participated", "Q2": "No comments, this is a good practice for the brain!!"}, "trial_type": "survey-text", "trial_index": 59, "time_elapsed": 2319162, "internal_node_id": "0.0-4.0-6.0"}}, {"uniqueid": "w23786950:a11075753", "current_trial": 60, "dateTime": 1691144643334, "trialdata": {"rt": 3574, "stimulus": "Press 'Finish HIT' in order to reach the completion code. Once the data has been saved, you will receive the code either in this window or in the original browser window where you started the experiment.\n", "response": 0, "trial_type": "html-button-response", "trial_index": 60, "time_elapsed": 2322741, "internal_node_id": "0.0-5.0"}}, {"uniqueid": "w23786950:a11075753", "current_trial": 61, "dateTime": 1691144644340, "trialdata": {"success": true, "trial_type": "fullscreen", "trial_index": 61, "time_elapsed": 2323747, "internal_node_id": "0.0-6.0"}}], "questiondata": {"params": {"CODE": "C6DMOQA6", "MIN_TIME": 14, "inspectCost": 1, "startTime": "Fri Aug 04 2023 11:45:18 GMT+0200 (South Africa Standard Time)", "bonusRate": 0.002, "variance": "1_2_4_8_44", "branching": "31123"}, "final_score": 20.75}, "eventdata": [{"eventtype": "initialized", "value": null, "timestamp": 1691142318214, "interval": 0}, {"eventtype": "window_resize", "value": [1028, 744], "timestamp": 1691142318214, "interval": 0}, {"eventtype": "window_resize", "value": [1028, 744], "timestamp": 1691142318651, "interval": 437}, {"eventtype": "focus", "value": "off", "timestamp": 1691142340492, "interval": 21841}, {"eventtype": "focus", "value": "on", "timestamp": 1691142577721, "interval": 237229}, {"eventtype": "window_resize", "value": [1536, 864], "timestamp": 1691142580470, "interval": 2749}, {"eventtype": "focus", "value": "off", "timestamp": 1691143162351, "interval": 581881}, {"eventtype": "focus", "value": "on", "timestamp": 1691143162351, "interval": 0}, {"eventtype": "window_resize", "value": [1028, 744], "timestamp": 1691143162556, "interval": 205}, {"eventtype": "window_resize", "value": [1536, 864], "timestamp": 1691143165567, "interval": 3011}, {"eventtype": "window_resize", "value": [1028, 744], "timestamp": 1691144643576, "interval": 1478009}], "useragent": "Mozilla/5.0 (Windows NT 10.0; Win64; x64) AppleWebKit/537.36 (KHTML, like Gecko) Chrome/115.0.0.0 Safari/537.36", "mode": "live", "id": "w23786950:a11075753", "status": "user data saved", "Beginhit": "2023-08-04 09:45:15.04277", "Beginexp": "2023-08-04 09:49:41.809827", "Endhit": "2023-08-04 10:24:05.156651", "psiturkStatus": 3, "browser": "<redacted>", "platform": "windows", "language": "en-US"}