{"condition": 0, "counterbalance": 0, "assignmentId": "a64515204", "workerId": "w23414754", "hitId": "h62112643", "currenttrial": 7, "bonus": 0, "data": [{"uniqueid": "w23414754:a64515204", "current_trial": 0, "dateTime": 1693660295603, "trialdata": {"success": true, "trial_type": "fullscreen", "trial_index": 0, "time_elapsed": 7841, "internal_node_id": "0.0-0.0"}}, {"uniqueid": "w23414754:a64515204", "current_trial": 1, "dateTime": 1693660320696, "trialdata": {"view_history": [{"page_index": 0, "viewing_time": 25087}], "rt": 25087, "trial_id": "exp_instructions_control", "trial_type": "instructions", "trial_index": 1, "time_elapsed": 32934, "internal_node_id": "0.0-1.0"}}, {"uniqueid": "w23414754:a64515204", "current_trial": 2, "dateTime": 1693660581660, "trialdata": {"view_history": [{"page_index": 0, "viewing_time": 70702}, {"page_index": 1, "viewing_time": 88578}, {"page_index": 2, "viewing_time": 82087}, {"page_index": 3, "viewing_time": 19592}], "rt": 260960, "trial_id": "mouselab_instructions_1_control", "trial_type": "instructions", "trial_index": 2, "time_elapsed": 293899, "internal_node_id": "0.0-2.0-1.0"}}, {"uniqueid": "w23414754:a64515204", "current_trial": 3, "dateTime": 1693660621655, "trialdata": {"revealed_states": [], "clicked_states": ["20", "17", "6", "9", "29", "33", "32", "23"], "num_clicks_accrued": [0, 0, 0, 0, 0, 0, 0, 0, 0, 0, 0, 0, 0], "stateRewards": ["", -10, -10, -10, -10, 10, -10, -10, -10, 10, 10, 10, 10, 10, -10, 10, -10, -10, 10, 10, -10, 10, -10, -10, 10, -10, -10, -10, 10, -10, 10, 10, 10, 10], "withholdReward": false, "trial_id": "practice_1", "block": "test", "trialIndex": 0, "score": 9.5, "costs": -4, "simulationMode": [null, null, null, null, null], "rewards": [-10, 10, -10, 10, 10], "path": ["0", "0", "23", "24", "25", "30", "33"], "rt": [29983, 293, 257, 152, 230], "actions": ["left", "left", "left", "down", "left"], "actionTimes": [31830, 32638, 33405, 34067, 34811], "queries": {"click": {"state": {"target": ["20", "17", "6", "9", "29", "33", "32", "23"], "time": [5143, 7127, 9746, 11832, 13003, 15341, 17646, 21753]}, "edge": {"target": [], "time": []}}, "mouseover": {"state": {"target": ["12", "13", "14", "20", "14", "17", "14", "6", "4", "9", "11", "27", "26", "29", "33", "30", "30", "32", "21", "23", "24", "0", "0", "23", "23"], "time": [4545, 4578, 4611, 4953, 5894, 6716, 8952, 9601, 10465, 10748, 12477, 12546, 12614, 12862, 13564, 16784, 16980, 17381, 19452, 21416, 22431, 23033, 24917, 28284, 29866]}, "edge": {"target": [], "time": []}}, "mouseout": {"state": {"target": ["0", "12", "13", "14", "20", "14", "17", "14", "6", "4", "9", "9", "11", "27", "26", "29", "33", "30", "30", "32", "21", "23", "24", "23", "0", "23", "0", "23", "23"], "time": [4531, 4564, 4594, 4631, 5148, 6078, 7964, 8982, 10429, 10498, 11954, 12463, 12513, 12581, 12780, 13496, 16751, 16901, 17066, 17652, 19481, 22164, 22849, 22933, 23348, 24266, 24982, 28316, 30831]}, "edge": {"target": [], "time": []}}}, "displayed_time": "35.33", "trialTime": 38660, "trial_type": "mouselab-mdp", "trial_index": 3, "time_elapsed": 333893, "internal_node_id": "0.0-2.0-2.0-0.0"}}, {"uniqueid": "w23414754:a64515204", "current_trial": 4, "dateTime": 1693660642902, "trialdata": {"revealed_states": [], "clicked_states": ["14", "21", "33", "32", "31", "28"], "num_clicks_accrued": [0, 0, 0, 0, 0, 0, 0, 0, 0, 0, 0, 0, 0], "stateRewards": ["", -10, -10, 10, 10, -10, -10, -10, 10, -10, 10, -10, -10, -10, -10, -10, -10, 10, -10, 10, 10, -10, 10, -10, 10, -10, 10, -10, 10, -10, -10, -10, -10, -10], "withholdReward": false, "trial_id": "practice_2", "block": "test", "trialIndex": 1, "score": 10.5, "costs": -3, "simulationMode": [null, null, null, null, null], "rewards": [-10, 10, -10, 10, 10], "path": ["0", "0", "23", "24", "25", "26", "28"], "rt": [15739, 65, 29, 84, 58], "actions": ["left", "left", "left", "up", "right"], "actionTimes": [16960, 17546, 18093, 18712, 19289], "queries": {"click": {"state": {"target": ["14", "21", "33", "32", "31", "28"], "time": [3291, 5432, 8457, 10343, 11820, 13833]}, "edge": {"target": [], "time": []}}, "mouseover": {"state": {"target": ["20", "14", "20", "21", "33", "30", "31", "32", "31", "24", "28"], "time": [2550, 2965, 4313, 5049, 6816, 9279, 9343, 10098, 11517, 13099, 13181]}, "edge": {"target": [], "time": []}}, "mouseout": {"state": {"target": ["12", "20", "14", "20", "21", "33", "30", "31", "32", "31", "24"], "time": [932, 2881, 4147, 5000, 6210, 9246, 9313, 9364, 10424, 13067, 13127]}, "edge": {"target": [], "time": []}}}, "displayed_time": "19.80", "trialTime": 21155, "trial_type": "mouselab-mdp", "trial_index": 4, "time_elapsed": 355140, "internal_node_id": "0.0-2.0-2.0-1.0"}}, {"uniqueid": "w23414754:a64515204", "current_trial": 5, "dateTime": 1693660664668, "trialdata": {"view_history": [{"page_index": 0, "viewing_time": 12463}, {"page_index": 1, "viewing_time": 9299}], "rt": 21763, "trial_id": "mouselab_instructions_2_control", "trial_type": "instructions", "trial_index": 5, "time_elapsed": 376907, "internal_node_id": "0.0-2.0-3.0"}}, {"uniqueid": "w23414754:a64515204", "current_trial": 6, "dateTime": 1693660747370, "trialdata": {"rt": 82695, "response": {"Q0": "The cost for clicking on nodes may vary between nodes.", "Q1": "The better I perform the higher my bonus will be.", "Q2": "No, the structure of the web will be different each time.", "Q3": "To get the highest total score.", "Q4": "Only before moving the spider.", "Q5": "10 seconds"}, "question_order": [0, 1, 2, 3, 4, 5], "correct": {"Q0": "The cost for clicking on nodes may vary between nodes.", "Q1": "The better I perform the higher my bonus will be.", "Q2": "No, the amount of cash at each node of the web may be different each time.", "Q3": "To get the highest total score.", "Q4": "Only before moving the spider.", "Q5": "3 seconds"}, "trial_id": "mouselab_quiz_control", "trial_type": "survey-multi-choice", "trial_index": 6, "time_elapsed": 459609, "internal_node_id": "0.0-2.0-4.0"}}], "questiondata": {"params": {"CODE": "C6DMOQA6", "MIN_TIME": 14, "inspectCost": 1, "startTime": "Sat Sep 02 2023 21:11:25 GMT+0800 (Australian Western Standard Time)", "bonusRate": 0.002, "variance": "1_2_4_8_44", "branching": "31123"}}, "eventdata": [{"eventtype": "initialized", "value": null, "timestamp": 1693660284038, "interval": 0}, {"eventtype": "window_resize", "value": [1024, 768], "timestamp": 1693660284038, "interval": 0}, {"eventtype": "window_resize", "value": [1024, 768], "timestamp": 1693660285121, "interval": 1083}, {"eventtype": "focus", "value": "on", "timestamp": 1693660291139, "interval": 6018}, {"eventtype": "window_resize", "value": [1470, 920], "timestamp": 1693660294850, "interval": 3711}, {"eventtype": "focus", "value": "off", "timestamp": 1693660747958, "interval": 453108}, {"eventtype": "window_resize", "value": [1024, 768], "timestamp": 1693660748180, "interval": 222}], "useragent": "Mozilla/5.0 (Macintosh; Intel Mac OS X 10_15_7) AppleWebKit/537.36 (KHTML, like Gecko) Chrome/116.0.0.0 Safari/537.36 Edg/116.0.1938.69", "mode": "live", "id": "w23414754:a64515204", "status": "user data saved", "Beginhit": "2023-09-02 13:11:17.177194", "Beginexp": "2023-09-02 13:11:35.803936", "Endhit": null, "psiturkStatus": 6, "browser": "<redacted>", "platform": "macos", "language": "en-AU", "excludeReason": "quizfail"}