{"condition": 0, "counterbalance": 0, "assignmentId": "a28925393", "workerId": "w63830498", "hitId": "h19504603", "currenttrial": 55, "bonus": 0, "data": [{"uniqueid": "w63830498:a28925393", "current_trial": 0, "dateTime": 1693660454944, "trialdata": {"success": true, "trial_type": "fullscreen", "trial_index": 0, "time_elapsed": 3650, "internal_node_id": "0.0-0.0"}}, {"uniqueid": "w63830498:a28925393", "current_trial": 1, "dateTime": 1693660466746, "trialdata": {"view_history": [{"page_index": 0, "viewing_time": 11800}], "rt": 11800, "trial_id": "exp_instructions_control", "trial_type": "instructions", "trial_index": 1, "time_elapsed": 15453, "internal_node_id": "0.0-1.0"}}, {"uniqueid": "w63830498:a28925393", "current_trial": 2, "dateTime": 1693660651324, "trialdata": {"view_history": [{"page_index": 0, "viewing_time": 61046}, {"page_index": 1, "viewing_time": 76614}, {"page_index": 2, "viewing_time": 14500}, {"page_index": 3, "viewing_time": 32416}], "rt": 184577, "trial_id": "mouselab_instructions_1_control", "trial_type": "instructions", "trial_index": 2, "time_elapsed": 200031, "internal_node_id": "0.0-2.0-1.0"}}, {"uniqueid": "w63830498:a28925393", "current_trial": 3, "dateTime": 1693660677249, "trialdata": {"revealed_states": [], "clicked_states": ["28", "27", "2", "8", "25", "30", "31", "14", "19"], "num_clicks_accrued": [0, 0, 0, 0, 0, 0, 0, 0, 0, 0, 0, 0, 0], "stateRewards": ["", 10, -10, -10, -10, -10, 10, 10, -10, -10, 10, -10, -10, -10, 10, -10, 10, -10, 10, -10, -10, 10, -10, 10, 10, -10, -10, -10, 10, -10, -10, -10, -10, -10], "withholdReward": false, "trial_id": "practice_1", "block": "test", "trialIndex": 0, "score": -11, "costs": -4.5, "simulationMode": [null, null, null, null, null], "rewards": [-10, -10, 10, -10, 10], "path": ["0", "0", "12", "13", "14", "19", "21"], "rt": [15498, 383, 108, 241, 337], "actions": ["right", "right", "right", "down", "down"], "actionTimes": [18475, 19362, 19971, 20714, 21554], "queries": {"click": {"state": {"target": ["28", "27", "2", "8", "25", "30", "31", "14", "19"], "time": [4035, 5250, 6489, 7892, 9604, 11002, 12446, 13913, 15452]}, "edge": {"target": [], "time": []}}, "mouseover": {"state": {"target": ["28", "26", "27", "10", "2", "3", "8", "28", "25", "30", "32", "31", "14", "14", "19", "21", "13", "2", "11"], "time": [3532, 4498, 4999, 5861, 6320, 6869, 7640, 8975, 9301, 10200, 11540, 12193, 13375, 13729, 14884, 16044, 16969, 17761, 17838]}, "edge": {"target": [], "time": []}}, "mouseout": {"state": {"target": ["12", "1", "11", "3", "2", "1", "0", "28", "26", "27", "27", "10", "2", "3", "8", "8", "2", "28", "25", "30", "32", "31", "14", "14", "19", "21", "19", "13", "2", "11", "11", "8"], "time": [98, 160, 494, 1578, 1926, 2392, 3386, 4443, 4957, 5645, 5770, 5909, 6765, 7599, 7973, 8294, 8628, 8996, 10011, 11324, 12061, 12765, 13389, 14272, 15739, 16309, 16420, 17699, 17789, 17859, 22871, 22905]}, "edge": {"target": [], "time": []}}}, "displayed_time": "22.06", "trialTime": 25402, "trial_type": "mouselab-mdp", "trial_index": 3, "time_elapsed": 225956, "internal_node_id": "0.0-2.0-2.0-0.0"}}, {"uniqueid": "w63830498:a28925393", "current_trial": 4, "dateTime": 1693660686161, "trialdata": {"revealed_states": [], "clicked_states": [], "num_clicks_accrued": [0, 0, 0, 0, 0, 0, 0, 0, 0, 0, 0, 0, 0], "stateRewards": ["", -10, -10, 10, -10, -10, -10, 10, -10, -10, 10, 10, -10, -10, 10, -10, -10, 10, 10, 10, 10, -10, 10, 10, 10, -10, -10, -10, 10, 10, -10, -10, -10, 10], "withholdReward": false, "trial_id": "practice_2", "block": "test", "trialIndex": 1, "score": -6.5, "costs": 0, "simulationMode": [null, null, null, null, null], "rewards": [-10, -10, 10, -10, 10], "path": ["0", "0", "12", "13", "14", "15", "18"], "rt": [705, 378, 142, 94, 352], "actions": ["right", "right", "right", "up", "left"], "actionTimes": [3253, 4132, 4772, 5365, 6220], "queries": {"click": {"state": {"target": [], "time": []}, "edge": {"target": [], "time": []}}, "mouseover": {"state": {"target": [], "time": []}, "edge": {"target": [], "time": []}}, "mouseout": {"state": {"target": ["16"], "time": [1911]}, "edge": {"target": [], "time": []}}}, "displayed_time": "6.72", "trialTime": 8732, "trial_type": "mouselab-mdp", "trial_index": 4, "time_elapsed": 234868, "internal_node_id": "0.0-2.0-2.0-1.0"}}, {"uniqueid": "w63830498:a28925393", "current_trial": 5, "dateTime": 1693660714898, "trialdata": {"view_history": [{"page_index": 0, "viewing_time": 22350}, {"page_index": 1, "viewing_time": 6385}], "rt": 28735, "trial_id": "mouselab_instructions_2_control", "trial_type": "instructions", "trial_index": 5, "time_elapsed": 263605, "internal_node_id": "0.0-2.0-3.0"}}, {"uniqueid": "w63830498:a28925393", "current_trial": 6, "dateTime": 1693660746070, "trialdata": {"rt": 31169, "response": {"Q0": "The cost for clicking on nodes may vary between nodes.", "Q1": "The better I perform the higher my bonus will be.", "Q2": "No, the amount of cash at each node of the web may be different each time.", "Q3": "To get the highest total score.", "Q4": "Only before moving the spider.", "Q5": "3 seconds"}, "question_order": [0, 1, 2, 3, 4, 5], "correct": {"Q0": "The cost for clicking on nodes may vary between nodes.", "Q1": "The better I perform the higher my bonus will be.", "Q2": "No, the amount of cash at each node of the web may be different each time.", "Q3": "To get the highest total score.", "Q4": "Only before moving the spider.", "Q5": "3 seconds"}, "trial_id": "mouselab_quiz_control", "trial_type": "survey-multi-choice", "trial_index": 6, "time_elapsed": 294777, "internal_node_id": "0.0-2.0-4.0"}}, {"uniqueid": "w63830498:a28925393", "current_trial": 7, "dateTime": 1693660754322, "trialdata": {"rt": 8246, "response": {"Q0": "No"}, "question_order": [0], "trial_id": "repeat_check", "trial_type": "survey-multi-choice", "trial_index": 7, "time_elapsed": 303028, "internal_node_id": "0.0-4.0-0.0"}}, {"uniqueid": "w63830498:a28925393", "current_trial": 8, "dateTime": 1693660764282, "trialdata": {"rt": 9957, "stimulus": "\n<h1> Get ready to start the game! </h1>\n\nThank you for reading the instructions. Get ready start with the 40 rounds of this game.\n<br><br>\nIf you need to take a break, feel free to take one after the end of a round, before continuing to the next one.\n<br><br>\nRemember, the more money the spider gets, the bigger your bonus will be!\n<br><br>\n<div style='text-align: center;'>Press <code>space</code> to begin.</div>\n\n<br><br>\n(If, at any point, the <code>space</code> key does not take you to the next page, click once on the text and try again.)", "response": " ", "trial_id": "mdp_ready", "trial_type": "html-keyboard-response", "trial_index": 8, "time_elapsed": 312989, "internal_node_id": "0.0-6.0-0.0"}}, {"uniqueid": "w63830498:a28925393", "current_trial": 9, "dateTime": 1693660784154, "trialdata": {"revealed_states": [], "clicked_states": ["11"], "num_clicks_accrued": [0, 0, 0, 0, 0, 0, 0, 0, 0, 0, 0, 0, 0], "stateRewards": ["", -1, -3, -6, -2, -7, 80, -45, -3, -38, -72, 76, 2, 1, 7, 4, -62, 14, -74, 14, -87, -21, -88, -2, 1, -7, -10, 66, 56, -76, 10, -29, -72, -70], "withholdReward": false, "trial_id": "mdp_trial_1", "block": "test", "trialIndex": 2, "score": 61.6, "costs": -1.4, "simulationMode": [null, null, null, null, null], "rewards": [-1, -3, -6, -3, 76], "path": ["0", "0", "1", "2", "3", "8", "11"], "rt": [4670, 250, 76, 82, 11], "actions": ["up", "up", "up", "left", "left"], "actionTimes": [8170, 8922, 9498, 10082, 10594], "queries": {"click": {"state": {"target": ["11"], "time": [5709]}, "edge": {"target": [], "time": []}}, "mouseover": {"state": {"target": ["1", "2", "11"], "time": [3930, 4514, 5111]}, "edge": {"target": [], "time": []}}, "mouseout": {"state": {"target": ["0", "1", "2", "11"], "time": [3860, 4222, 4611, 6099]}, "edge": {"target": [], "time": []}}}, "displayed_time": "17.50", "trialTime": 19674, "trial_type": "mouselab-mdp", "trial_index": 9, "time_elapsed": 332861, "internal_node_id": "0.0-6.0-1.0-0.0"}}, {"uniqueid": "w63830498:a28925393", "current_trial": 10, "dateTime": 1693660805818, "trialdata": {"revealed_states": [], "clicked_states": ["11", "17", "29", "32"], "num_clicks_accrued": [0, 0, 0, 0, 0, 0, 0, 0, 0, 0, 0, 0, 0], "stateRewards": ["", 1, 1, 5, 6, -29, -7, 3, -16, 9, -46, 65, -1, 4, -1, -16, -63, -77, -87, 8, 80, -50, 43, -1, -1, -5, 5, -38, -71, -62, 9, 81, -50, -52], "withholdReward": false, "trial_id": "mdp_trial_2", "block": "test", "trialIndex": 3, "score": 50.4, "costs": -5.6, "simulationMode": [null, null, null, null, null], "rewards": [1, 1, 5, -16, 65], "path": ["0", "0", "1", "2", "3", "8", "11"], "rt": [12362, 448, 87, 78, 57], "actions": ["up", "up", "up", "left", "left"], "actionTimes": [16290, 17241, 17833, 18417, 18977], "queries": {"click": {"state": {"target": ["11", "17", "29", "32"], "time": [4983, 7499, 10569, 13812]}, "edge": {"target": [], "time": []}}, "mouseover": {"state": {"target": ["1", "10", "11", "10", "1", "18", "15", "17", "20", "19", "12", "0", "28", "26", "29", "26", "28", "23", "24", "30", "33", "32", "0", "7"], "time": [4488, 4578, 4807, 5238, 5277, 6858, 6893, 6934, 7950, 9680, 9750, 9777, 9847, 9931, 10163, 11168, 11453, 12621, 12648, 12697, 12950, 13309, 14526, 15276]}, "edge": {"target": [], "time": []}}, "mouseout": {"state": {"target": ["2", "12", "18", "15", "16", "16", "1", "10", "11", "10", "1", "18", "15", "17", "20", "19", "12", "0", "28", "26", "29", "26", "28", "23", "24", "30", "33", "32", "0", "7", "18", "14", "19", "21"], "time": [1722, 1887, 1950, 1971, 1985, 3430, 4529, 4648, 5211, 5252, 5294, 6879, 6914, 7818, 9653, 9701, 9770, 9785, 9882, 10021, 10646, 11419, 11488, 12628, 12663, 12739, 13149, 14289, 14554, 19997, 20121, 20178, 20246, 20338]}, "edge": {"target": [], "time": []}}}, "displayed_time": "19.48", "trialTime": 21473, "trial_type": "mouselab-mdp", "trial_index": 10, "time_elapsed": 354524, "internal_node_id": "0.0-6.0-1.0-1.0"}}, {"uniqueid": "w63830498:a28925393", "current_trial": 11, "dateTime": 1693660825178, "trialdata": {"revealed_states": [], "clicked_states": ["17", "21", "11", "5"], "num_clicks_accrued": [0, 0, 0, 0, 0, 0, 0, 0, 0, 0, 0, 0, 0], "stateRewards": ["", 1, 2, 3, 16, 63, -25, 16, -4, -14, 82, -66, -1, -3, -3, -11, -14, 19, 46, 3, -34, -82, 66, -2, -3, 4, -5, -63, 77, -37, -1, -45, -41, 84], "withholdReward": false, "trial_id": "mdp_trial_3", "block": "test", "trialIndex": 4, "score": 79.4, "costs": -5.6, "simulationMode": [null, null, null, null, null], "rewards": [1, 2, 3, 16, 63], "path": ["0", "0", "1", "2", "3", "4", "5"], "rt": [10947, 409, 163, 94, 33], "actions": ["up", "up", "up", "right", "up"], "actionTimes": [14586, 15497, 16161, 16753, 17289], "queries": {"click": {"state": {"target": ["17", "21", "11", "5"], "time": [4558, 6923, 9160, 11241]}, "edge": {"target": [], "time": []}}, "mouseover": {"state": {"target": ["12", "13", "15", "17", "21", "0", "11", "8", "3", "5", "4", "18", "18"], "time": [3915, 3957, 4165, 4291, 6487, 8795, 8976, 9512, 9625, 9789, 11577, 11681, 13313]}, "edge": {"target": [], "time": []}}, "mouseout": {"state": {"target": ["12", "0", "0", "12", "13", "15", "17", "21", "0", "11", "8", "3", "5", "4", "18", "18"], "time": [3129, 3192, 3895, 3936, 3985, 4179, 4930, 8442, 8802, 9469, 9588, 9657, 11548, 11590, 13098, 13362]}, "edge": {"target": [], "time": []}}}, "displayed_time": "17.79", "trialTime": 19177, "trial_type": "mouselab-mdp", "trial_index": 11, "time_elapsed": 373885, "internal_node_id": "0.0-6.0-1.0-2.0"}}, {"uniqueid": "w63830498:a28925393", "current_trial": 12, "dateTime": 1693660845666, "trialdata": {"revealed_states": [], "clicked_states": ["33", "32", "5", "9", "17", "21"], "num_clicks_accrued": [0, 0, 0, 0, 0, 0, 0, 0, 0, 0, 0, 0, 0], "stateRewards": ["", 1, -4, -4, 8, 1, -79, 68, -10, -79, 8, -74, -1, -3, -6, 14, 43, 23, 9, 5, -51, 63, 61, -2, 4, 6, -10, 69, -32, 57, 15, -80, -80, -77], "withholdReward": false, "trial_id": "mdp_trial_4", "block": "test", "trialIndex": 5, "score": 49.6, "costs": -8.4, "simulationMode": [null, null, null, null, null], "rewards": [-1, -3, -6, 5, 63], "path": ["0", "0", "12", "13", "14", "19", "21"], "rt": [14420, 114, 62, 147, 44], "actions": ["right", "right", "right", "down", "down"], "actionTimes": [16170, 16785, 17345, 17993, 18537], "queries": {"click": {"state": {"target": ["33", "32", "5", "9", "17", "21"], "time": [3360, 5552, 7384, 9385, 11739, 13723]}, "edge": {"target": [], "time": []}}, "mouseover": {"state": {"target": ["23", "24", "30", "33", "33", "32", "12", "13", "15", "18", "7", "4", "5", "6", "16", "15", "18", "7", "2", "8", "9", "3", "7", "1", "10", "2", "7", "16", "17", "20", "19", "21", "20", "14", "18"], "time": [2308, 2378, 2468, 2774, 3136, 3657, 5972, 6013, 6117, 6327, 6424, 6611, 6730, 7689, 7753, 7814, 8579, 8697, 8794, 8893, 9155, 9698, 9754, 10455, 10907, 11186, 11213, 11262, 11526, 12576, 12744, 12979, 15009, 15704, 15780]}, "edge": {"target": [], "time": []}}, "mouseout": {"state": {"target": ["1", "0", "23", "24", "30", "33", "33", "32", "12", "13", "15", "18", "7", "4", "5", "5", "6", "16", "15", "18", "7", "2", "8", "9", "3", "7", "1", "10", "2", "7", "16", "17", "20", "19", "21", "20", "14", "18", "0"], "time": [1182, 2253, 2357, 2426, 2503, 2892, 3601, 5805, 5999, 6034, 6299, 6356, 6493, 6639, 7465, 7661, 7710, 7773, 8467, 8593, 8767, 8833, 9009, 9649, 9714, 9775, 10525, 11157, 11199, 11227, 11345, 12374, 12590, 12798, 14390, 15690, 15732, 19256, 19555]}, "edge": {"target": [], "time": []}}}, "displayed_time": "19.04", "trialTime": 20297, "trial_type": "mouselab-mdp", "trial_index": 12, "time_elapsed": 394373, "internal_node_id": "0.0-6.0-1.0-3.0"}}, {"uniqueid": "w63830498:a28925393", "current_trial": 13, "dateTime": 1693660869626, "trialdata": {"revealed_states": [], "clicked_states": ["11", "27", "32", "21", "17", "20", "22"], "num_clicks_accrued": [0, 0, 0, 0, 0, 0, 0, 0, 0, 0, 0, 0, 0], "stateRewards": ["", 2, -1, -2, -5, -47, -57, -33, -11, 31, -18, -72, -2, 1, -4, -8, -46, -53, -50, 15, -85, -9, 39, -2, -2, 1, 14, -1, -8, 53, -12, -41, -74, 62], "withholdReward": false, "trial_id": "mdp_trial_5", "block": "test", "trialIndex": 6, "score": 39.2, "costs": -9.8, "simulationMode": [null, null, null, null, null], "rewards": [-2, 1, -4, 15, 39], "path": ["0", "0", "12", "13", "14", "19", "22"], "rt": [15948, 413, 56, 60, 113], "actions": ["right", "right", "right", "down", "left"], "actionTimes": [19501, 20420, 20980, 21540, 22156], "queries": {"click": {"state": {"target": ["11", "27", "32", "21", "17", "20", "22"], "time": [4474, 6293, 8684, 10815, 12635, 14775, 16992]}, "edge": {"target": [], "time": []}}, "mouseover": {"state": {"target": ["11", "27", "28", "0", "23", "31", "32", "21", "17", "17", "20", "20", "21", "19", "22", "13"], "time": [4302, 5540, 6638, 6750, 7257, 8216, 8466, 10315, 11497, 11706, 12985, 14460, 15425, 16620, 16829, 18170]}, "edge": {"target": [], "time": []}}, "mouseout": {"state": {"target": ["0", "0", "11", "27", "28", "0", "23", "31", "32", "21", "17", "17", "17", "20", "20", "21", "19", "22"], "time": [3064, 3649, 4844, 6604, 6666, 6784, 7806, 8257, 9134, 11177, 11553, 12692, 12917, 12992, 15154, 15612, 16627, 17996]}, "edge": {"target": [], "time": []}}}, "displayed_time": "22.66", "trialTime": 23756, "trial_type": "mouselab-mdp", "trial_index": 13, "time_elapsed": 418333, "internal_node_id": "0.0-6.0-1.0-4.0"}}, {"uniqueid": "w63830498:a28925393", "current_trial": 14, "dateTime": 1693660888274, "trialdata": {"revealed_states": [], "clicked_states": ["5", "7", "16", "20"], "num_clicks_accrued": [0, 0, 0, 0, 0, 0, 0, 0, 0, 0, 0, 0, 0], "stateRewards": ["", 1, -1, 4, 5, -32, 18, 20, 6, -88, -74, 9, -2, 1, -2, -14, 34, -77, -38, -1, 80, -36, 73, 2, 3, -8, 10, -48, -73, -71, -11, -22, 20, 54], "withholdReward": false, "trial_id": "mdp_trial_6", "block": "test", "trialIndex": 7, "score": 70.4, "costs": -5.6, "simulationMode": [null, null, null, null, null], "rewards": [-2, 1, -2, -1, 80], "path": ["0", "0", "12", "13", "14", "19", "20"], "rt": [10062, 92, 93, 134, 166], "actions": ["right", "right", "right", "down", "right"], "actionTimes": [13100, 13691, 14283, 14915, 15579], "queries": {"click": {"state": {"target": ["5", "7", "16", "20"], "time": [3883, 5728, 7669, 10464]}, "edge": {"target": [], "time": []}}, "mouseover": {"state": {"target": ["6", "5", "7", "6", "16", "16", "15", "17", "20", "20", "19", "14"], "time": [3324, 3650, 5145, 6146, 6334, 6709, 8038, 9107, 10143, 10236, 12472, 12514]}, "edge": {"target": [], "time": []}}, "mouseout": {"state": {"target": ["13", "28", "24", "23", "0", "12", "12", "0", "6", "5", "7", "6", "16", "16", "15", "17", "20", "20", "20", "19", "14", "14", "13"], "time": [1961, 2155, 2287, 2301, 2315, 2336, 2572, 2829, 3449, 4290, 6063, 6223, 6362, 7968, 8093, 10101, 10164, 10471, 10838, 12499, 12555, 16650, 16691]}, "edge": {"target": [], "time": []}}}, "displayed_time": "17.04", "trialTime": 18451, "trial_type": "mouselab-mdp", "trial_index": 14, "time_elapsed": 436981, "internal_node_id": "0.0-6.0-1.0-5.0"}}, {"uniqueid": "w63830498:a28925393", "current_trial": 15, "dateTime": 1693660906706, "trialdata": {"revealed_states": [], "clicked_states": ["33", "32", "27", "5", "17"], "num_clicks_accrued": [0, 0, 0, 0, 0, 0, 0, 0, 0, 0, 0, 0, 0], "stateRewards": ["", 1, 4, 5, 8, -55, -11, 8, 16, -37, 77, -22, -2, 3, -8, -10, 45, 87, -67, 4, 17, -33, -22, -1, -3, 7, 6, -39, -85, 75, -1, 7, -48, 45], "withholdReward": false, "trial_id": "mdp_trial_7", "block": "test", "trialIndex": 8, "score": 63, "costs": -7, "simulationMode": [null, null, null, null, null], "rewards": [-2, 3, -8, -10, 87], "path": ["0", "0", "12", "13", "14", "15", "17"], "rt": [11844, 22, 46, 65, 334], "actions": ["right", "right", "right", "up", "right"], "actionTimes": [13301, 13829, 14381, 14949, 15781], "queries": {"click": {"state": {"target": ["33", "32", "27", "5", "17"], "time": [2198, 4477, 6381, 8512, 10823]}, "edge": {"target": [], "time": []}}, "mouseover": {"state": {"target": ["23", "24", "25", "33", "32", "32", "30", "25", "26", "27", "28", "28", "10", "3", "5", "4", "6", "17", "20"], "time": [1571, 1612, 1661, 2001, 2889, 4149, 5567, 5595, 5706, 5887, 7264, 7667, 7882, 8146, 8362, 9189, 10329, 10475, 12713]}, "edge": {"target": [], "time": []}}, "mouseout": {"state": {"target": ["12", "23", "0", "23", "24", "25", "33", "32", "32", "30", "25", "26", "27", "28", "28", "10", "3", "5", "4", "6", "17", "17", "20"], "time": [805, 1090, 1550, 1599, 1633, 1730, 2822, 2989, 5533, 5588, 5616, 5743, 6784, 7562, 7673, 7952, 8209, 9015, 10315, 10350, 10867, 11136, 12790]}, "edge": {"target": [], "time": []}}}, "displayed_time": "16.28", "trialTime": 18245, "trial_type": "mouselab-mdp", "trial_index": 15, "time_elapsed": 455413, "internal_node_id": "0.0-6.0-1.0-6.0"}}, {"uniqueid": "w63830498:a28925393", "current_trial": 16, "dateTime": 1693660923298, "trialdata": {"revealed_states": [], "clicked_states": ["25", "17", "5"], "num_clicks_accrued": [0, 0, 0, 0, 0, 0, 0, 0, 0, 0, 0, 0, 0], "stateRewards": ["", -1, -4, -1, -11, 43, 69, 39, 4, 17, -20, -82, -2, -1, 4, 8, -79, 24, -79, 11, 36, 64, 41, 2, 4, -1, 11, -79, -47, 75, -3, 63, -36, -19], "withholdReward": false, "trial_id": "mdp_trial_8", "block": "test", "trialIndex": 9, "score": 21.8, "costs": -4.199999999999999, "simulationMode": [null, null, null, null, null], "rewards": [-1, -4, -1, -11, 43], "path": ["0", "0", "1", "2", "3", "4", "5"], "rt": [8742, 36, 22, 29, 429], "actions": ["up", "up", "up", "right", "up"], "actionTimes": [10069, 10605, 11125, 11661, 12589], "queries": {"click": {"state": {"target": ["25", "17", "5"], "time": [2121, 4533, 7413]}, "edge": {"target": [], "time": []}}, "mouseover": {"state": {"target": ["1", "24", "25", "29", "1", "18", "15", "17", "17", "16", "4", "5", "4"], "time": [1627, 1752, 1849, 2607, 3956, 3984, 3997, 4220, 4275, 6868, 7126, 7299, 8578]}, "edge": {"target": [], "time": []}}, "mouseout": {"state": {"target": ["14", "13", "0", "1", "24", "25", "29", "1", "18", "15", "17", "17", "17", "16", "4", "5", "4", "12"], "time": [681, 702, 987, 1696, 1821, 2174, 3608, 3963, 3991, 4011, 4227, 4943, 6820, 6910, 7146, 8029, 14807, 15016]}, "edge": {"target": [], "time": []}}}, "displayed_time": "15.33", "trialTime": 16389, "trial_type": "mouselab-mdp", "trial_index": 16, "time_elapsed": 472004, "internal_node_id": "0.0-6.0-1.0-7.0"}}, {"uniqueid": "w63830498:a28925393", "current_trial": 17, "dateTime": 1693660940530, "trialdata": {"revealed_states": [], "clicked_states": ["33", "16", "11"], "num_clicks_accrued": [0, 0, 0, 0, 0, 0, 0, 0, 0, 0, 0, 0, 0], "stateRewards": ["", -1, -3, 1, -4, -48, -63, -49, -2, -84, -19, 65, 2, -2, -2, -12, -4, 59, 9, 6, 75, 69, -13, -1, -3, -3, -2, -37, -68, -36, 13, 32, 18, -14], "withholdReward": false, "trial_id": "mdp_trial_9", "block": "test", "trialIndex": 10, "score": 55.8, "costs": -4.199999999999999, "simulationMode": [null, null, null, null, null], "rewards": [-1, -3, 1, -2, 65], "path": ["0", "0", "1", "2", "3", "8", "11"], "rt": [8219, 130, 202, 148, 125], "actions": ["up", "up", "up", "left", "left"], "actionTimes": [9574, 10206, 10910, 11558, 12182], "queries": {"click": {"state": {"target": ["33", "16", "11"], "time": [2342, 4562, 6804]}, "edge": {"target": [], "time": []}}, "mouseover": {"state": {"target": ["23", "24", "25", "33", "33", "19", "16", "17", "15", "7", "3", "8", "11", "10", "3"], "time": [1760, 1802, 1857, 2066, 2177, 3248, 3658, 5020, 6154, 6278, 6355, 6383, 6647, 7266, 8781]}, "edge": {"target": [], "time": []}}, "mouseout": {"state": {"target": ["0", "1", "23", "24", "25", "33", "33", "19", "16", "17", "15", "7", "3", "8", "11", "10", "3", "12"], "time": [821, 967, 1788, 1837, 1899, 2080, 2691, 3310, 4923, 6126, 6174, 6299, 6362, 6425, 7189, 8538, 8795, 13731]}, "edge": {"target": [], "time": []}}}, "displayed_time": "15.37", "trialTime": 17022, "trial_type": "mouselab-mdp", "trial_index": 17, "time_elapsed": 489237, "internal_node_id": "0.0-6.0-1.0-8.0"}}, {"uniqueid": "w63830498:a28925393", "current_trial": 18, "dateTime": 1693660956594, "trialdata": {"revealed_states": [], "clicked_states": ["21", "16", "29", "32"], "num_clicks_accrued": [0, 0, 0, 0, 0, 0, 0, 0, 0, 0, 0, 0, 0], "stateRewards": ["", 1, 1, -5, 10, -31, 73, 14, -8, -23, 63, -70, -1, 2, 8, 7, 25, -59, 27, -10, -40, -71, -15, -2, 3, -8, -5, -19, 77, -34, 7, 67, 63, 19], "withholdReward": false, "trial_id": "mdp_trial_10", "block": "test", "trialIndex": 11, "score": 57.4, "costs": -5.6, "simulationMode": [null, null, null, null, null], "rewards": [-2, 3, -8, 7, 63], "path": ["0", "0", "23", "24", "25", "30", "32"], "rt": [9639, 1, 38, 80, 312], "actions": ["left", "left", "left", "down", "down"], "actionTimes": [10867, 11371, 11915, 12499, 13315], "queries": {"click": {"state": {"target": ["21", "16", "29", "32"], "time": [1910, 4197, 6569, 8402]}, "edge": {"target": [], "time": []}}, "mouseover": {"state": {"target": ["12", "22", "21", "17", "16", "7", "2", "10", "27", "29", "30", "32", "31"], "time": [1406, 1490, 1691, 3527, 3992, 6091, 6114, 6127, 6161, 6363, 7941, 8100, 9651]}, "edge": {"target": [], "time": []}}, "mouseout": {"state": {"target": ["0", "0", "12", "22", "21", "21", "17", "16", "16", "7", "2", "10", "27", "29", "29", "30", "32"], "time": [572, 1378, 1462, 1517, 1986, 2623, 3589, 4771, 6015, 6106, 6120, 6140, 6175, 6637, 7068, 8045, 9359]}, "edge": {"target": [], "time": []}}}, "displayed_time": "15.23", "trialTime": 15875, "trial_type": "mouselab-mdp", "trial_index": 18, "time_elapsed": 505301, "internal_node_id": "0.0-6.0-1.0-9.0"}}, {"uniqueid": "w63830498:a28925393", "current_trial": 19, "dateTime": 1693660976034, "trialdata": {"revealed_states": [], "clicked_states": ["9", "7", "22", "20", "16", "17"], "num_clicks_accrued": [0, 0, 0, 0, 0, 0, 0, 0, 0, 0, 0, 0, 0], "stateRewards": ["", -1, 1, -1, 2, 19, 85, -18, 2, -3, -26, 36, 2, 4, 7, -9, -18, 70, 72, -5, 35, -20, -28, 1, -2, -4, -3, -59, -11, -63, -2, -72, 59, -69], "withholdReward": false, "trial_id": "mdp_trial_11", "block": "test", "trialIndex": 12, "score": 65.6, "costs": -8.4, "simulationMode": [null, null, null, null, null], "rewards": [2, 4, 7, -9, 70], "path": ["0", "0", "12", "13", "14", "15", "17"], "rt": [12355, 88, 104, 140, 4], "actions": ["right", "right", "right", "up", "right"], "actionTimes": [15086, 15677, 16285, 16925, 17429], "queries": {"click": {"state": {"target": ["9", "7", "22", "20", "16", "17"], "time": [3317, 5171, 6980, 8843, 10729, 12557]}, "edge": {"target": [], "time": []}}, "mouseover": {"state": {"target": ["9", "5", "6", "7", "13", "22", "21", "20", "21", "17", "16", "14", "17", "14", "22", "22"], "time": [3131, 3980, 4362, 4779, 5988, 6517, 7316, 8755, 9228, 9741, 9860, 11195, 11605, 12933, 13142, 14574]}, "edge": {"target": [], "time": []}}, "mouseout": {"state": {"target": ["31", "23", "0", "9", "5", "6", "7", "13", "22", "21", "20", "21", "20", "17", "16", "14", "17", "14", "22", "22"], "time": [642, 1865, 2819, 3938, 4000, 4535, 5419, 6454, 7274, 7393, 8998, 9541, 9645, 9762, 11056, 11509, 12863, 12968, 13190, 14733]}, "edge": {"target": [], "time": []}}}, "displayed_time": "17.94", "trialTime": 19237, "trial_type": "mouselab-mdp", "trial_index": 19, "time_elapsed": 524741, "internal_node_id": "0.0-6.0-1.0-10.0"}}, {"uniqueid": "w63830498:a28925393", "current_trial": 20, "dateTime": 1693660993626, "trialdata": {"revealed_states": [], "clicked_states": ["29", "5", "17", "21", "22"], "num_clicks_accrued": [0, 0, 0, 0, 0, 0, 0, 0, 0, 0, 0, 0, 0], "stateRewards": ["", -2, -4, -2, -13, -15, 87, -19, -6, -80, 30, 12, 1, 1, -8, 2, 55, 56, 15, 11, -68, -7, 55, -2, 3, -3, -3, 48, 62, 4, 1, -3, 69, -33], "withholdReward": false, "trial_id": "mdp_trial_12", "block": "test", "trialIndex": 13, "score": 45, "costs": -7, "simulationMode": [null, null, null, null, null], "rewards": [1, 1, -8, 2, 56], "path": ["0", "0", "12", "13", "14", "15", "17"], "rt": [11655, 184, 97, 67, 345], "actions": ["right", "right", "right", "up", "right"], "actionTimes": [13101, 13788, 14388, 14956, 15804], "queries": {"click": {"state": {"target": ["29", "5", "17", "21", "22"], "time": [2051, 4705, 6872, 8940, 10890]}, "edge": {"target": [], "time": []}}, "mouseover": {"state": {"target": ["0", "23", "24", "25", "29", "25", "30", "32", "30", "24", "28", "10", "3", "4", "5", "5", "6", "16", "15", "15", "15", "17", "21", "22", "14", "15", "16", "15", "15"], "time": [1562, 1611, 1639, 1661, 1861, 2557, 2739, 3560, 3815, 3864, 3933, 3968, 4058, 4301, 4385, 4559, 5177, 5386, 5420, 5601, 6547, 6693, 8062, 10766, 11545, 11607, 11997, 12476, 12706]}, "edge": {"target": [], "time": []}}, "mouseout": {"state": {"target": ["22", "12", "1", "0", "23", "24", "25", "29", "25", "30", "32", "30", "24", "28", "10", "3", "4", "5", "5", "6", "16", "15", "15", "15", "17", "21", "22", "14", "15", "16", "15"], "time": [540, 811, 867, 1597, 1632, 1653, 1681, 2398, 2612, 3426, 3795, 3822, 3919, 3940, 3995, 4281, 4315, 4405, 5108, 5267, 5400, 5455, 5719, 6581, 7451, 9004, 11433, 11580, 11948, 12428, 12567]}, "edge": {"target": [], "time": []}}}, "displayed_time": "16.31", "trialTime": 17388, "trial_type": "mouselab-mdp", "trial_index": 20, "time_elapsed": 542333, "internal_node_id": "0.0-6.0-1.0-11.0"}}, {"uniqueid": "w63830498:a28925393", "current_trial": 21, "dateTime": 1693661010698, "trialdata": {"revealed_states": [], "clicked_states": ["29", "5", "11", "32"], "num_clicks_accrued": [0, 0, 0, 0, 0, 0, 0, 0, 0, 0, 0, 0, 0], "stateRewards": ["", -2, -3, 7, -13, 60, 9, 37, -6, 37, 20, 1, 2, -2, -8, 6, -80, -31, -10, -7, 70, -65, -44, -1, 1, 7, 6, -11, 73, -85, 16, -21, 47, 34], "withholdReward": false, "trial_id": "mdp_trial_13", "block": "test", "trialIndex": 14, "score": 43.4, "costs": -5.6, "simulationMode": [null, null, null, null, null], "rewards": [-2, -3, 7, -13, 60], "path": ["0", "0", "1", "2", "3", "4", "5"], "rt": [9929, 15, 30, 13, 451], "actions": ["up", "up", "up", "right", "up"], "actionTimes": [11660, 12179, 12715, 13227, 14179], "queries": {"click": {"state": {"target": ["29", "5", "11", "32"], "time": [2681, 4697, 7238, 9830]}, "edge": {"target": [], "time": []}}, "mouseover": {"state": {"target": ["26", "29", "26", "8", "3", "5", "5", "4", "3", "9", "11", "10", "24", "31", "30", "32", "30", "25", "26", "9"], "time": [2270, 2548, 3049, 3612, 3640, 3800, 4343, 5593, 5955, 6643, 7026, 7769, 9222, 9333, 9424, 9451, 10237, 10264, 10286, 10591]}, "edge": {"target": [], "time": []}}, "mouseout": {"state": {"target": ["15", "18", "0", "26", "29", "26", "8", "3", "5", "5", "5", "4", "3", "9", "11", "11", "10", "24", "31", "30", "32", "30", "25", "26", "11", "9", "12"], "time": [942, 977, 1826, 2291, 3028, 3056, 3619, 3647, 4148, 4762, 5441, 5628, 6601, 6983, 7309, 7679, 7950, 9291, 9347, 9430, 10216, 10258, 10279, 10307, 10536, 10598, 16166]}, "edge": {"target": [], "time": []}}}, "displayed_time": "15.73", "trialTime": 16851, "trial_type": "mouselab-mdp", "trial_index": 21, "time_elapsed": 559405, "internal_node_id": "0.0-6.0-1.0-12.0"}}, {"uniqueid": "w63830498:a28925393", "current_trial": 22, "dateTime": 1693661037946, "trialdata": {"revealed_states": [], "clicked_states": ["17", "21", "29", "5", "11", "20", "18", "33", "32"], "num_clicks_accrued": [0, 0, 0, 0, 0, 0, 0, 0, 0, 0, 0, 0, 0], "stateRewards": ["", 1, 1, -5, 8, -6, 45, 16, -6, -7, -22, -38, -1, -4, 8, -11, -16, 21, -45, -15, -59, -32, 42, -1, 3, 6, 11, -7, 34, -27, -8, 85, 43, -9], "withholdReward": false, "trial_id": "mdp_trial_14", "block": "test", "trialIndex": 15, "score": 30.4, "costs": -12.600000000000001, "simulationMode": [null, null, null, null, null], "rewards": [-1, 3, 6, -8, 43], "path": ["0", "0", "23", "24", "25", "30", "32"], "rt": [20504, 7, 235, 32, 11], "actions": ["left", "left", "left", "down", "down"], "actionTimes": [22936, 23447, 24183, 24719, 25231], "queries": {"click": {"state": {"target": ["17", "21", "29", "5", "11", "20", "18", "33", "32"], "time": [3007, 4909, 6957, 9421, 11427, 13950, 16238, 18691, 20486]}, "edge": {"target": [], "time": []}}, "mouseover": {"state": {"target": ["12", "17", "20", "21", "31", "24", "25", "26", "29", "30", "8", "5", "4", "3", "8", "11", "22", "19", "20", "19", "14", "18", "13", "12", "0", "30", "33", "33", "32", "31", "23"], "time": [2564, 2744, 3440, 4253, 5963, 6089, 6137, 6221, 6727, 8751, 8924, 9153, 10217, 10336, 10475, 11211, 13457, 13658, 13811, 15737, 15834, 16084, 16794, 18066, 18100, 18170, 18226, 18531, 20220, 22438, 22473]}, "edge": {"target": [], "time": []}}, "mouseout": {"state": {"target": ["12", "0", "0", "12", "17", "20", "21", "31", "24", "25", "26", "29", "30", "8", "5", "4", "3", "8", "11", "11", "22", "19", "20", "20", "19", "14", "18", "13", "12", "0", "30", "33", "33", "32", "31", "23"], "time": [1416, 1993, 2515, 2571, 3363, 3461, 5692, 6026, 6098, 6179, 6241, 7569, 8764, 8959, 9933, 10266, 10405, 10579, 11434, 11810, 13526, 13686, 13957, 14882, 15800, 15862, 16696, 17002, 18086, 18107, 18197, 18344, 19936, 20895, 22459, 22480]}, "edge": {"target": [], "time": []}}}, "displayed_time": "25.73", "trialTime": 27007, "trial_type": "mouselab-mdp", "trial_index": 22, "time_elapsed": 586653, "internal_node_id": "0.0-6.0-1.0-13.0"}}, {"uniqueid": "w63830498:a28925393", "current_trial": 23, "dateTime": 1693661053842, "trialdata": {"revealed_states": [], "clicked_states": ["27", "17"], "num_clicks_accrued": [0, 0, 0, 0, 0, 0, 0, 0, 0, 0, 0, 0, 0], "stateRewards": ["", 2, 3, 8, 11, 25, -80, 6, -4, -56, 84, -23, -2, -4, -3, 4, -51, -9, -61, -15, -64, 67, -35, 1, -1, -7, -6, 83, 59, -15, 12, -79, 56, 41], "withholdReward": false, "trial_id": "mdp_trial_15", "block": "test", "trialIndex": 16, "score": 67.2, "costs": -2.8, "simulationMode": [null, null, null, null, null, null], "rewards": [1, -1, -7, -6, 83], "path": ["0", "0", "23", "24", "25", "26", "27"], "rt": [4010, 435, 85, 101, 30, 150], "actions": ["left", "left", "left", "left", "up", "up"], "actionTimes": [5025, 5462, 6053, 6653, 7181, 7829], "queries": {"click": {"state": {"target": ["27", "17"], "time": [2207, 3963]}, "edge": {"target": [], "time": []}}, "mouseover": {"state": {"target": ["28", "27", "27", "10", "2", "7", "16", "17", "17", "15", "18"], "time": [1213, 1324, 1998, 2527, 2541, 2562, 2596, 3055, 3521, 4313, 4341]}, "edge": {"target": [], "time": []}}, "mouseout": {"state": {"target": ["28", "27", "27", "10", "2", "7", "16", "17", "17", "15", "18"], "time": [1240, 1373, 2485, 2533, 2555, 2575, 2617, 3090, 4299, 4327, 4404]}, "edge": {"target": [], "time": []}}}, "displayed_time": "15.02", "trialTime": 15637, "trial_type": "mouselab-mdp", "trial_index": 23, "time_elapsed": 602549, "internal_node_id": "0.0-6.0-1.0-14.0"}}, {"uniqueid": "w63830498:a28925393", "current_trial": 24, "dateTime": 1693661070570, "trialdata": {"revealed_states": [], "clicked_states": ["11"], "num_clicks_accrued": [0, 0, 0, 0, 0, 0, 0, 0, 0, 0, 0, 0, 0], "stateRewards": ["", -2, -2, -7, -13, -10, 49, -68, -1, 84, 70, 88, 1, 4, 4, 12, -57, 25, 30, 8, -1, -77, 57, 2, 3, 2, 3, -18, -80, 23, -15, -41, 70, 11], "withholdReward": false, "trial_id": "mdp_trial_16", "block": "test", "trialIndex": 17, "score": 74.6, "costs": -1.4, "simulationMode": [null, null, null, null, null], "rewards": [-2, -2, -7, -1, 88], "path": ["0", "0", "1", "2", "3", "8", "11"], "rt": [3002, 93, 24, 64, 245], "actions": ["up", "up", "up", "left", "left"], "actionTimes": [4267, 4859, 5387, 5955, 6699], "queries": {"click": {"state": {"target": ["11"], "time": [1869]}, "edge": {"target": [], "time": []}}, "mouseover": {"state": {"target": ["11", "11", "8", "5", "6"], "time": [1442, 1719, 2352, 2408, 2623]}, "edge": {"target": [], "time": []}}, "mouseout": {"state": {"target": ["18", "7", "1", "0", "11", "11", "8", "5", "6", "7"], "time": [516, 572, 697, 1058, 1449, 2345, 2366, 2518, 3853, 8045]}, "edge": {"target": [], "time": []}}}, "displayed_time": "15.27", "trialTime": 16459, "trial_type": "mouselab-mdp", "trial_index": 24, "time_elapsed": 619277, "internal_node_id": "0.0-6.0-1.0-15.0"}}, {"uniqueid": "w63830498:a28925393", "current_trial": 25, "dateTime": 1693661087555, "trialdata": {"revealed_states": [], "clicked_states": ["16"], "num_clicks_accrued": [0, 0, 0, 0, 0, 0, 0, 0, 0, 0, 0, 0, 0], "stateRewards": ["", 1, 1, 1, 15, -76, 52, -32, 14, -57, 37, 49, 1, -4, -3, 6, 83, -76, 25, 9, 36, -1, -17, -1, 4, 4, -2, -22, -21, 58, -15, -57, 49, -24], "withholdReward": false, "trial_id": "mdp_trial_17", "block": "test", "trialIndex": 18, "score": 81.6, "costs": -1.4, "simulationMode": [null, null, null, null, null], "rewards": [1, -4, -3, 6, 83], "path": ["0", "0", "12", "13", "14", "15", "16"], "rt": [3160, 12, 49, 60, 378], "actions": ["right", "right", "right", "up", "up"], "actionTimes": [4605, 5116, 5668, 6228, 7108], "queries": {"click": {"state": {"target": ["16"], "time": [2283]}, "edge": {"target": [], "time": []}}, "mouseover": {"state": {"target": ["18", "16", "16", "15", "14", "20", "20"], "time": [1731, 1947, 2136, 2768, 2851, 3574, 4192]}, "edge": {"target": [], "time": []}}, "mouseout": {"state": {"target": ["7", "2", "0", "12", "0", "18", "16", "16", "16", "15", "14", "20", "20", "19", "22", "22", "13", "18", "6"], "time": [625, 743, 841, 1126, 1682, 1738, 1961, 2356, 2747, 2809, 3296, 3686, 4206, 13639, 14404, 15245, 15308, 15384, 15697]}, "edge": {"target": [], "time": []}}}, "displayed_time": "15.45", "trialTime": 16717, "trial_type": "mouselab-mdp", "trial_index": 25, "time_elapsed": 636261, "internal_node_id": "0.0-6.0-1.0-16.0"}}, {"uniqueid": "w63830498:a28925393", "current_trial": 26, "dateTime": 1693661105747, "trialdata": {"revealed_states": [], "clicked_states": ["29", "32"], "num_clicks_accrued": [0, 0, 0, 0, 0, 0, 0, 0, 0, 0, 0, 0, 0], "stateRewards": ["", 2, -1, -1, 7, 11, -40, -22, -2, 69, 37, 8, -2, 4, -8, -12, -2, -72, -3, -12, 17, 63, 12, 1, 3, -7, 6, 25, 61, 61, -9, 28, -17, 27], "withholdReward": false, "trial_id": "mdp_trial_18", "block": "test", "trialIndex": 19, "score": 61.2, "costs": -2.8, "simulationMode": [null, null, null, null, null], "rewards": [1, 3, -7, 6, 61], "path": ["0", "0", "23", "24", "25", "26", "29"], "rt": [4651, 49, 67, 354, 203], "actions": ["left", "left", "left", "up", "left"], "actionTimes": [7794, 8345, 8913, 9770, 10473], "queries": {"click": {"state": {"target": ["29", "32"], "time": [3860, 5866]}, "edge": {"target": [], "time": []}}, "mouseover": {"state": {"target": ["23", "28", "26", "29", "25", "32", "18"], "time": [3193, 3269, 3415, 3700, 4646, 5174, 6717]}, "edge": {"target": [], "time": []}}, "mouseout": {"state": {"target": ["14", "13", "0", "23", "28", "26", "29", "25", "32", "18"], "time": [2295, 2344, 3151, 3199, 3304, 3623, 4604, 4701, 6175, 11152]}, "edge": {"target": [], "time": []}}}, "displayed_time": "17.14", "trialTime": 17913, "trial_type": "mouselab-mdp", "trial_index": 26, "time_elapsed": 654453, "internal_node_id": "0.0-6.0-1.0-17.0"}}, {"uniqueid": "w63830498:a28925393", "current_trial": 27, "dateTime": 1693661133467, "trialdata": {"revealed_states": [], "clicked_states": ["5", "17", "21", "29", "11", "32", "31"], "num_clicks_accrued": [0, 0, 0, 0, 0, 0, 0, 0, 0, 0, 0, 0, 0], "stateRewards": ["", -1, -4, 8, 8, -68, 47, 24, -7, -61, 49, -69, -1, -1, 8, -7, 42, 1, -45, -11, 10, -63, -6, 1, 4, 6, -16, 79, -37, -58, -12, 81, 18, -53], "withholdReward": false, "trial_id": "mdp_trial_19", "block": "test", "trialIndex": 20, "score": 70.2, "costs": -9.8, "simulationMode": [null, null, null, null, null], "rewards": [1, 4, 6, -12, 81], "path": ["0", "0", "23", "24", "25", "30", "31"], "rt": [16693, 11, 48, 51, 57], "actions": ["left", "left", "left", "down", "right"], "actionTimes": [23728, 24240, 24791, 25343, 25899], "queries": {"click": {"state": {"target": ["5", "17", "21", "29", "11", "32", "31"], "time": [8274, 10124, 11946, 14158, 16439, 19141, 21095]}, "edge": {"target": [], "time": []}}, "mouseover": {"state": {"target": ["16", "6", "5", "4", "16", "17", "20", "21", "21", "30", "29", "26", "27", "11", "2", "2", "23", "31", "32", "31", "12", "13", "15", "17", "16", "16"], "time": [7697, 7933, 8190, 9032, 9268, 9894, 10867, 11152, 11402, 13793, 14099, 16073, 16108, 16240, 17012, 17207, 18458, 18590, 19035, 20501, 22114, 22136, 22171, 22188, 22420, 22726]}, "edge": {"target": [], "time": []}}, "mouseout": {"state": {"target": ["22", "0", "16", "6", "5", "4", "16", "17", "17", "20", "21", "21", "21", "30", "29", "26", "27", "11", "2", "2", "23", "31", "32", "32", "31", "12", "13", "15", "17", "16", "16"], "time": [1739, 7530, 7739, 7940, 8955, 9129, 9338, 10217, 10673, 10985, 11215, 12018, 13258, 13856, 14551, 16094, 16136, 16894, 17078, 18353, 18513, 18670, 19226, 20030, 22045, 22128, 22150, 22179, 22351, 22462, 23164]}, "edge": {"target": [], "time": []}}}, "displayed_time": "26.40", "trialTime": 27456, "trial_type": "mouselab-mdp", "trial_index": 27, "time_elapsed": 682173, "internal_node_id": "0.0-6.0-1.0-18.0"}}, {"uniqueid": "w63830498:a28925393", "current_trial": 28, "dateTime": 1693661150403, "trialdata": {"revealed_states": [], "clicked_states": ["17", "5", "29"], "num_clicks_accrued": [0, 0, 0, 0, 0, 0, 0, 0, 0, 0, 0, 0, 0], "stateRewards": ["", -1, 2, -6, 6, 43, 78, 78, -2, 55, -29, -17, -2, -4, 1, -15, 13, 7, -79, 8, -28, -68, 36, -1, -3, 3, -16, 84, -18, 87, 10, 32, 13, -81], "withholdReward": false, "trial_id": "mdp_trial_20", "block": "test", "trialIndex": 21, "score": 65.8, "costs": -4.199999999999999, "simulationMode": [null, null, null, null, null], "rewards": [-1, -3, 3, -16, 87], "path": ["0", "0", "23", "24", "25", "26", "29"], "rt": [7036, 47, 50, 157, 113], "actions": ["left", "left", "left", "up", "left"], "actionTimes": [9408, 9960, 10512, 11168, 11784], "queries": {"click": {"state": {"target": ["17", "5", "29"], "time": [2922, 4993, 7035]}, "edge": {"target": [], "time": []}}, "mouseover": {"state": {"target": ["17", "15", "6", "5", "4", "1", "24", "26", "29", "33", "33", "24"], "time": [2744, 3958, 4281, 4864, 5372, 5636, 5714, 5887, 5937, 7673, 7882, 8938]}, "edge": {"target": [], "time": []}}, "mouseout": {"state": {"target": ["12", "0", "17", "15", "6", "5", "4", "1", "24", "26", "29", "33", "33", "24"], "time": [693, 2118, 3891, 4024, 4711, 5295, 5407, 5651, 5782, 5902, 7333, 7681, 8896, 8945]}, "edge": {"target": [], "time": []}}}, "displayed_time": "16.37", "trialTime": 16680, "trial_type": "mouselab-mdp", "trial_index": 28, "time_elapsed": 699110, "internal_node_id": "0.0-6.0-1.0-19.0"}}, {"uniqueid": "w63830498:a28925393", "current_trial": 29, "dateTime": 1693661166795, "trialdata": {"revealed_states": [], "clicked_states": ["16", "20", "11", "5", "33"], "num_clicks_accrued": [0, 0, 0, 0, 0, 0, 0, 0, 0, 0, 0, 0, 0], "stateRewards": ["", -2, 3, 3, -14, 62, 36, 49, 16, 11, 17, -84, 2, -1, 6, 2, -82, -73, 49, -6, -87, 48, 50, -1, -2, -1, -16, -11, 37, -44, 4, 55, 73, -10], "withholdReward": false, "trial_id": "mdp_trial_21", "block": "test", "trialIndex": 22, "score": 45, "costs": -7, "simulationMode": [null, null, null, null, null], "rewards": [-2, 3, 3, -14, 62], "path": ["0", "0", "1", "2", "3", "4", "5"], "rt": [11290, 2, 13, 58, 22], "actions": ["up", "up", "up", "right", "up"], "actionTimes": [12776, 13281, 13799, 14359, 14879], "queries": {"click": {"state": {"target": ["16", "20", "11", "5", "33"], "time": [2394, 4183, 6061, 8006, 10527]}, "edge": {"target": [], "time": []}}, "mouseover": {"state": {"target": ["22", "13", "14", "15", "15", "16", "16", "17", "20", "19", "22", "12", "1", "2", "3", "8", "11", "10", "3", "5", "5", "3", "10", "24", "30", "30", "33", "26", "28", "10", "3"], "time": [1724, 1745, 1766, 1793, 1891, 2016, 2156, 2857, 3641, 4553, 5067, 5193, 5262, 5306, 5374, 5492, 5618, 7271, 7355, 7501, 7918, 8434, 8518, 8713, 9197, 9864, 10399, 10881, 10912, 10970, 11101]}, "edge": {"target": [], "time": []}}, "mouseout": {"state": {"target": ["1", "0", "22", "13", "14", "15", "15", "16", "16", "16", "17", "20", "20", "19", "22", "12", "1", "2", "3", "8", "11", "10", "3", "5", "5", "3", "10", "24", "30", "30", "33", "26", "28", "10", "3"], "time": [813, 1633, 1731, 1751, 1772, 1800, 1904, 2064, 2455, 2822, 2879, 4277, 4491, 4595, 5116, 5215, 5290, 5332, 5388, 5540, 6604, 7320, 7417, 7509, 8397, 8463, 8533, 8831, 9440, 9878, 10598, 10896, 10921, 11004, 11199]}, "edge": {"target": [], "time": []}}}, "displayed_time": "15.49", "trialTime": 16119, "trial_type": "mouselab-mdp", "trial_index": 29, "time_elapsed": 715501, "internal_node_id": "0.0-6.0-1.0-20.0"}}, {"uniqueid": "w63830498:a28925393", "current_trial": 30, "dateTime": 1693661183691, "trialdata": {"revealed_states": [], "clicked_states": ["29", "5", "17", "21", "18"], "num_clicks_accrued": [0, 0, 0, 0, 0, 0, 0, 0, 0, 0, 0, 0, 0], "stateRewards": ["", -1, -2, 4, 9, 10, -75, 39, 16, -43, 88, -19, -1, 1, 2, 4, -31, 10, 73, 12, 41, -64, -81, -2, 2, -6, 1, -81, -1, -26, 3, -59, -3, -20], "withholdReward": false, "trial_id": "mdp_trial_22", "block": "test", "trialIndex": 23, "score": 72, "costs": -7, "simulationMode": [null, null, null, null, null], "rewards": [-1, 1, 2, 4, 73], "path": ["0", "0", "12", "13", "14", "15", "18"], "rt": [11224, 393, 81, 146, 59], "actions": ["right", "right", "right", "up", "left"], "actionTimes": [12532, 13428, 14012, 14668, 15228], "queries": {"click": {"state": {"target": ["29", "5", "17", "21", "18"], "time": [1898, 3679, 5588, 7565, 10033]}, "edge": {"target": [], "time": []}}, "mouseover": {"state": {"target": ["23", "24", "26", "29", "26", "28", "1", "7", "4", "5", "5", "4", "15", "17", "14", "19", "21", "13", "14", "18", "13", "0", "10", "11"], "time": [1397, 1439, 1584, 1654, 2607, 2638, 2700, 2778, 2921, 3060, 3239, 4015, 4177, 4414, 5889, 5980, 6388, 9412, 9447, 9718, 10651, 11108, 11256, 11359]}, "edge": {"target": [], "time": []}}, "mouseout": {"state": {"target": ["0", "23", "24", "26", "29", "26", "28", "1", "7", "4", "5", "5", "4", "15", "17", "14", "19", "21", "13", "14", "18", "13", "0", "10", "11"], "time": [1383, 1425, 1494, 1626, 2516, 2630, 2653, 2722, 2865, 2996, 3108, 3992, 4054, 4233, 5818, 5927, 5995, 8084, 9419, 9488, 10545, 10872, 11137, 11282, 11997]}, "edge": {"target": [], "time": []}}}, "displayed_time": "15.73", "trialTime": 16644, "trial_type": "mouselab-mdp", "trial_index": 30, "time_elapsed": 732397, "internal_node_id": "0.0-6.0-1.0-21.0"}}, {"uniqueid": "w63830498:a28925393", "current_trial": 31, "dateTime": 1693661200082, "trialdata": {"revealed_states": [], "clicked_states": ["32", "9", "17", "21", "22"], "num_clicks_accrued": [0, 0, 0, 0, 0, 0, 0, 0, 0, 0, 0, 0, 0], "stateRewards": ["", -1, 2, 5, -6, 13, -64, -47, 8, -79, -80, -33, 1, 2, -2, -16, 56, -71, -10, 3, 29, 44, 85, -1, 4, 5, 4, -36, -56, 19, 8, 52, -13, -2], "withholdReward": false, "trial_id": "mdp_trial_23", "block": "test", "trialIndex": 24, "score": 82, "costs": -7, "simulationMode": [null, null, null, null, null], "rewards": [1, 2, -2, 3, 85], "path": ["0", "0", "12", "13", "14", "19", "22"], "rt": [11371, 65, 78, 133, 101], "actions": ["right", "right", "right", "down", "left"], "actionTimes": [12379, 12946, 13522, 14154, 14754], "queries": {"click": {"state": {"target": ["32", "9", "17", "21", "22"], "time": [1898, 3895, 5758, 7568, 10125]}, "edge": {"target": [], "time": []}}, "mouseover": {"state": {"target": ["23", "24", "25", "30", "32", "31", "12", "2", "8", "9", "3", "7", "15", "17", "21", "21", "22", "13"], "time": [1306, 1459, 1494, 1570, 1619, 2490, 2561, 2746, 2838, 3586, 4414, 4483, 4563, 4878, 6186, 6534, 9925, 12080]}, "edge": {"target": [], "time": []}}, "mouseout": {"state": {"target": ["8", "10", "1", "23", "24", "25", "30", "32", "31", "12", "2", "8", "9", "3", "7", "15", "17", "21", "21", "22"], "time": [611, 638, 666, 1355, 1473, 1543, 1598, 2432, 2499, 2598, 2788, 3029, 4354, 4442, 4502, 4584, 6061, 6210, 9037, 12039]}, "edge": {"target": [], "time": []}}}, "displayed_time": "15.26", "trialTime": 16122, "trial_type": "mouselab-mdp", "trial_index": 31, "time_elapsed": 748789, "internal_node_id": "0.0-6.0-1.0-22.0"}}, {"uniqueid": "w63830498:a28925393", "current_trial": 32, "dateTime": 1693661216842, "trialdata": {"revealed_states": [], "clicked_states": ["5"], "num_clicks_accrued": [0, 0, 0, 0, 0, 0, 0, 0, 0, 0, 0, 0, 0], "stateRewards": ["", -1, 1, -6, -1, 80, 23, 2, -11, 73, -81, 59, 1, 3, 5, -1, -26, 28, -3, 16, -59, -13, -50, -2, -2, 2, 15, -50, 86, 17, -4, 37, 35, 44], "withholdReward": false, "trial_id": "mdp_trial_24", "block": "test", "trialIndex": 25, "score": 71.6, "costs": -1.4, "simulationMode": [null, null, null, null, null], "rewards": [-1, 1, -6, -1, 80], "path": ["0", "0", "1", "2", "3", "4", "5"], "rt": [3693, 24, 23, 32, 72], "actions": ["up", "up", "up", "right", "up"], "actionTimes": [5338, 5865, 6393, 6930, 7505], "queries": {"click": {"state": {"target": ["5"], "time": [2657]}, "edge": {"target": [], "time": []}}, "mouseover": {"state": {"target": ["6", "5", "4", "18", "15", "17", "15", "4", "3", "9"], "time": [2205, 2525, 3111, 3320, 3350, 3560, 4687, 4791, 4812, 4840]}, "edge": {"target": [], "time": []}}, "mouseout": {"state": {"target": ["13", "12", "0", "6", "5", "5", "4", "18", "15", "17", "15", "4", "3"], "time": [1057, 1266, 1927, 2309, 2734, 3081, 3120, 3335, 3428, 4645, 4714, 4798, 4825]}, "edge": {"target": [], "time": []}}}, "displayed_time": "15.65", "trialTime": 16521, "trial_type": "mouselab-mdp", "trial_index": 32, "time_elapsed": 765549, "internal_node_id": "0.0-6.0-1.0-23.0"}}, {"uniqueid": "w63830498:a28925393", "current_trial": 33, "dateTime": 1693661232794, "trialdata": {"revealed_states": [], "clicked_states": ["21", "29", "32", "5"], "num_clicks_accrued": [0, 0, 0, 0, 0, 0, 0, 0, 0, 0, 0, 0, 0], "stateRewards": ["", 1, 3, 3, -10, 52, 68, 59, 12, 7, 49, 21, -2, -3, -4, -2, -2, 63, 63, -4, 44, 43, -76, -2, -3, -6, 13, 48, 36, 12, -5, -36, -33, -11], "withholdReward": false, "trial_id": "mdp_trial_25", "block": "test", "trialIndex": 26, "score": 43.4, "costs": -5.6, "simulationMode": [null, null, null, null, null], "rewards": [1, 3, 3, -10, 52], "path": ["0", "0", "1", "2", "3", "4", "5"], "rt": [9126, 36, 445, 115, 33], "actions": ["up", "up", "up", "right", "up"], "actionTimes": [10488, 11023, 11967, 12583, 13119], "queries": {"click": {"state": {"target": ["21", "29", "32", "5"], "time": [2039, 4404, 6276, 8117]}, "edge": {"target": [], "time": []}}, "mouseover": {"state": {"target": ["22", "21", "31", "24", "25", "29", "29", "33", "30", "32", "31", "1", "7", "5", "5", "4", "18", "14", "15", "16"], "time": [1525, 1949, 3013, 3764, 3805, 3993, 4209, 4962, 5622, 6051, 6736, 6851, 6901, 7107, 7316, 8516, 8610, 8663, 8854, 8952]}, "edge": {"target": [], "time": []}}, "mouseout": {"state": {"target": ["9", "2", "1", "0", "22", "21", "31", "24", "25", "29", "29", "33", "30", "32", "31", "1", "7", "5", "5", "4", "18", "14", "15", "16"], "time": [767, 830, 865, 1415, 1574, 2135, 3292, 3771, 3854, 4049, 4676, 5546, 5752, 6355, 6746, 6879, 6942, 7129, 8485, 8532, 8619, 8817, 8905, 9612]}, "edge": {"target": [], "time": []}}}, "displayed_time": "15.36", "trialTime": 15687, "trial_type": "mouselab-mdp", "trial_index": 33, "time_elapsed": 781501, "internal_node_id": "0.0-6.0-1.0-24.0"}}, {"uniqueid": "w63830498:a28925393", "current_trial": 34, "dateTime": 1693661252578, "trialdata": {"revealed_states": [], "clicked_states": ["20", "16", "11", "5", "7", "32"], "num_clicks_accrued": [0, 0, 0, 0, 0, 0, 0, 0, 0, 0, 0, 0, 0], "stateRewards": ["", 1, -2, -8, -13, 4, 34, -84, -4, -49, 88, -70, -1, 3, -4, 10, -77, 13, -34, 15, -21, -16, 27, 1, -2, 8, -8, -6, 38, -26, 6, -15, 66, -3], "withholdReward": false, "trial_id": "mdp_trial_26", "block": "test", "trialIndex": 27, "score": 70.6, "costs": -8.4, "simulationMode": [null, null, null, null, null], "rewards": [1, -2, 8, 6, 66], "path": ["0", "0", "23", "24", "25", "30", "32"], "rt": [13427, 38, 128, 208, 131], "actions": ["left", "left", "left", "down", "down"], "actionTimes": [15290, 15834, 16465, 17177, 17809], "queries": {"click": {"state": {"target": ["20", "16", "11", "5", "7", "32"], "time": [2757, 4662, 6770, 9093, 11037, 12814]}, "edge": {"target": [], "time": []}}, "mouseover": {"state": {"target": ["12", "13", "14", "20", "20", "16", "16", "7", "2", "8", "11", "9", "5", "3", "2", "7", "31", "32", "33", "30"], "time": [1886, 1911, 1932, 2231, 2579, 3203, 4158, 6221, 6284, 6409, 6444, 8320, 8892, 10186, 10371, 10656, 11917, 12308, 14333, 14855]}, "edge": {"target": [], "time": []}}, "mouseout": {"state": {"target": ["6", "4", "9", "26", "28", "23", "0", "12", "13", "14", "20", "20", "16", "16", "16", "7", "2", "8", "11", "11", "9", "5", "3", "2", "7", "31", "32", "33", "30"], "time": [972, 979, 993, 1299, 1320, 1355, 1566, 1898, 1925, 1939, 2301, 3114, 3225, 4738, 6103, 6263, 6319, 6416, 6844, 8231, 8404, 9697, 10333, 10560, 11411, 11957, 12878, 14827, 14889]}, "edge": {"target": [], "time": []}}}, "displayed_time": "18.31", "trialTime": 19521, "trial_type": "mouselab-mdp", "trial_index": 34, "time_elapsed": 801285, "internal_node_id": "0.0-6.0-1.0-25.0"}}, {"uniqueid": "w63830498:a28925393", "current_trial": 35, "dateTime": 1693661269122, "trialdata": {"revealed_states": [], "clicked_states": ["5", "21"], "num_clicks_accrued": [0, 0, 0, 0, 0, 0, 0, 0, 0, 0, 0, 0, 0], "stateRewards": ["", -1, -1, 4, -16, -75, 81, -51, -7, -84, 73, -30, -2, 1, -3, -16, -77, 33, 14, 1, 45, 87, -66, 2, 2, -5, -7, -19, -17, 79, -3, 8, 49, 47], "withholdReward": false, "trial_id": "mdp_trial_27", "block": "test", "trialIndex": 28, "score": 81.2, "costs": -2.8, "simulationMode": [null, null, null, null, null], "rewards": [-2, 1, -3, 1, 87], "path": ["0", "0", "12", "13", "14", "19", "21"], "rt": [5021, 3, 48, 34, 11], "actions": ["right", "right", "right", "down", "down"], "actionTimes": [6679, 7182, 7734, 8270, 8782], "queries": {"click": {"state": {"target": ["5", "21"], "time": [2532, 4315]}, "edge": {"target": [], "time": []}}, "mouseover": {"state": {"target": ["12", "18", "6", "5", "18", "13", "22", "21", "17", "16", "7"], "time": [2034, 2069, 2152, 2382, 2920, 2946, 2978, 3258, 5043, 5454, 6420]}, "edge": {"target": [], "time": []}}, "mouseout": {"state": {"target": ["0", "0", "12", "18", "6", "5", "18", "13", "22", "21", "17", "16", "7", "7", "1"], "time": [1032, 1916, 2041, 2076, 2207, 2823, 2937, 2969, 3003, 4698, 5134, 6358, 6434, 9847, 9890]}, "edge": {"target": [], "time": []}}}, "displayed_time": "15.66", "trialTime": 16230, "trial_type": "mouselab-mdp", "trial_index": 35, "time_elapsed": 817829, "internal_node_id": "0.0-6.0-1.0-26.0"}}, {"uniqueid": "w63830498:a28925393", "current_trial": 36, "dateTime": 1693661284819, "trialdata": {"revealed_states": [], "clicked_states": ["29"], "num_clicks_accrued": [0, 0, 0, 0, 0, 0, 0, 0, 0, 0, 0, 0, 0], "stateRewards": ["", -2, -3, -6, -7, 9, 16, 65, 5, -41, 20, -25, -1, -4, 1, -11, -49, -4, 71, 1, 39, -62, 52, -2, -3, 7, -9, -28, -70, 84, 8, 24, -58, 82], "withholdReward": false, "trial_id": "mdp_trial_28", "block": "test", "trialIndex": 29, "score": 75.6, "costs": -1.4, "simulationMode": [null, null, null, null, null], "rewards": [-2, -3, 7, -9, 84], "path": ["0", "0", "23", "24", "25", "26", "29"], "rt": [3379, 3, 465, 154, 117], "actions": ["left", "left", "left", "up", "left"], "actionTimes": [4584, 5085, 6055, 6711, 7327], "queries": {"click": {"state": {"target": ["29"], "time": [2126]}, "edge": {"target": [], "time": []}}, "mouseover": {"state": {"target": ["0", "23", "24", "26", "29", "26", "28", "1", "14", "19", "21", "19", "13"], "time": [1331, 1453, 1487, 1578, 1981, 3110, 3143, 3206, 3327, 3511, 3640, 4074, 4122]}, "edge": {"target": [], "time": []}}, "mouseout": {"state": {"target": ["0", "23", "24", "26", "29", "26", "28", "1", "14", "19", "21", "19", "13", "19", "20"], "time": [1439, 1473, 1508, 1780, 3052, 3135, 3160, 3228, 3442, 3587, 4053, 4081, 8453, 8515, 8550]}, "edge": {"target": [], "time": []}}}, "displayed_time": "15.21", "trialTime": 15447, "trial_type": "mouselab-mdp", "trial_index": 36, "time_elapsed": 833525, "internal_node_id": "0.0-6.0-1.0-27.0"}}, {"uniqueid": "w63830498:a28925393", "current_trial": 37, "dateTime": 1693661301115, "trialdata": {"revealed_states": [], "clicked_states": ["17", "21"], "num_clicks_accrued": [0, 0, 0, 0, 0, 0, 0, 0, 0, 0, 0, 0, 0], "stateRewards": ["", -2, -3, -5, 8, 27, 11, 43, -6, -24, -87, 69, -2, 1, 1, 9, 19, 48, -37, 9, -14, 45, 62, 1, 2, 1, 16, -81, -41, 22, 4, -6, -63, 47], "withholdReward": false, "trial_id": "mdp_trial_29", "block": "test", "trialIndex": 30, "score": 54.2, "costs": -2.8, "simulationMode": [null, null, null, null, null], "rewards": [-2, 1, 1, 9, 48], "path": ["0", "0", "12", "13", "14", "15", "17"], "rt": [5504, 34, 99, 68, 10], "actions": ["right", "right", "right", "up", "right"], "actionTimes": [6996, 7531, 8131, 8699, 9211], "queries": {"click": {"state": {"target": ["17", "21"], "time": [2182, 4113]}, "edge": {"target": [], "time": []}}, "mouseover": {"state": {"target": ["12", "17", "19", "21", "31", "30", "29", "10", "3", "4", "6"], "time": [1596, 2019, 2657, 2759, 4825, 4845, 5178, 6648, 6663, 6672, 6682]}, "edge": {"target": [], "time": []}}, "mouseout": {"state": {"target": ["13", "12", "0", "12", "17", "19", "21", "31", "30", "29", "10", "3", "4", "6"], "time": [906, 1142, 1567, 1629, 2501, 2697, 4690, 4836, 4886, 6614, 6656, 6671, 6680, 6695]}, "edge": {"target": [], "time": []}}}, "displayed_time": "15.49", "trialTime": 15988, "trial_type": "mouselab-mdp", "trial_index": 37, "time_elapsed": 849821, "internal_node_id": "0.0-6.0-1.0-28.0"}}, {"uniqueid": "w63830498:a28925393", "current_trial": 38, "dateTime": 1693661317307, "trialdata": {"revealed_states": [], "clicked_states": ["29"], "num_clicks_accrued": [0, 0, 0, 0, 0, 0, 0, 0, 0, 0, 0, 0, 0], "stateRewards": ["", -2, 4, -3, -13, 63, -36, 62, 11, 78, 34, -51, 2, -2, 8, -6, -40, -18, 31, 9, 64, 39, 79, 1, 4, -4, 15, -12, 76, 73, -10, -77, 86, -4], "withholdReward": false, "trial_id": "mdp_trial_30", "block": "test", "trialIndex": 31, "score": 87.6, "costs": -1.4, "simulationMode": [null, null, null, null, null], "rewards": [1, 4, -4, 15, 73], "path": ["0", "0", "23", "24", "25", "26", "29"], "rt": [3119, 210, 3, 395, 124], "actions": ["left", "left", "left", "up", "left"], "actionTimes": [4628, 5339, 5841, 6747, 7379], "queries": {"click": {"state": {"target": ["29"], "time": [2234]}, "edge": {"target": [], "time": []}}, "mouseover": {"state": {"target": ["28", "26", "29", "26", "10", "3", "8"], "time": [1860, 1943, 2159, 3283, 3622, 3980, 4119]}, "edge": {"target": [], "time": []}}, "mouseout": {"state": {"target": ["17", "15", "28", "26", "29", "26", "10", "3", "8"], "time": [699, 733, 1895, 2055, 3266, 3301, 3663, 4105, 4140]}, "edge": {"target": [], "time": []}}}, "displayed_time": "15.51", "trialTime": 15908, "trial_type": "mouselab-mdp", "trial_index": 38, "time_elapsed": 866014, "internal_node_id": "0.0-6.0-1.0-29.0"}}, {"uniqueid": "w63830498:a28925393", "current_trial": 39, "dateTime": 1693661334018, "trialdata": {"revealed_states": [], "clicked_states": ["11", "21", "17", "33"], "num_clicks_accrued": [0, 0, 0, 0, 0, 0, 0, 0, 0, 0, 0, 0, 0], "stateRewards": ["", 2, 3, 8, 14, 69, -27, 17, 2, -71, -65, -10, 2, -3, 7, 8, 65, -10, 65, -12, 73, -12, 13, -2, -2, 6, 10, -79, -69, -18, 10, -85, 67, 74], "withholdReward": false, "trial_id": "mdp_trial_31", "block": "test", "trialIndex": 32, "score": 80.4, "costs": -5.6, "simulationMode": [null, null, null, null, null], "rewards": [-2, -2, 6, 10, 74], "path": ["0", "0", "23", "24", "25", "30", "33"], "rt": [8868, 23, 107, 116, 3], "actions": ["left", "left", "left", "down", "left"], "actionTimes": [10810, 11337, 11961, 12578, 13083], "queries": {"click": {"state": {"target": ["11", "21", "17", "33"], "time": [2471, 4267, 6047, 8313]}, "edge": {"target": [], "time": []}}, "mouseover": {"state": {"target": ["11", "8", "16", "15", "14", "19", "21", "20", "17", "17", "14", "23", "30", "33", "32", "30", "24", "28", "10"], "time": [2305, 2824, 2950, 3034, 3087, 3175, 3382, 4764, 4980, 5350, 7259, 7837, 7970, 8172, 9855, 10298, 10326, 10342, 10367]}, "edge": {"target": [], "time": []}}, "mouseout": {"state": {"target": ["24", "23", "0", "12", "11", "8", "16", "15", "14", "19", "21", "20", "17", "17", "14", "23", "30", "33", "32", "30", "24", "28", "10", "2", "7"], "time": [1302, 1379, 1413, 1567, 2812, 2842, 3008, 3068, 3121, 3286, 4663, 4871, 5145, 7201, 7302, 7872, 8004, 9197, 10284, 10306, 10341, 10351, 14253, 14281, 14302]}, "edge": {"target": [], "time": []}}}, "displayed_time": "15.94", "trialTime": 16393, "trial_type": "mouselab-mdp", "trial_index": 39, "time_elapsed": 882725, "internal_node_id": "0.0-6.0-1.0-30.0"}}, {"uniqueid": "w63830498:a28925393", "current_trial": 40, "dateTime": 1693661350411, "trialdata": {"revealed_states": [], "clicked_states": ["5"], "num_clicks_accrued": [0, 0, 0, 0, 0, 0, 0, 0, 0, 0, 0, 0, 0], "stateRewards": ["", -1, 3, -4, -14, 78, 67, 2, 13, -32, 28, 39, -2, 1, -4, -4, -4, -42, -86, 11, 64, -29, -32, -1, -4, 2, -7, 5, 68, -61, 2, -21, 85, 50], "withholdReward": false, "trial_id": "mdp_trial_32", "block": "test", "trialIndex": 33, "score": 60.6, "costs": -1.4, "simulationMode": [null, null, null, null, null], "rewards": [-1, 3, -4, -14, 78], "path": ["0", "0", "1", "2", "3", "4", "5"], "rt": [3061, 272, 69, 50, 285], "actions": ["up", "up", "up", "right", "up"], "actionTimes": [4957, 5733, 6301, 6853, 7637], "queries": {"click": {"state": {"target": ["5"], "time": [2459]}, "edge": {"target": [], "time": []}}, "mouseover": {"state": {"target": ["7", "6", "4", "5", "6", "17"], "time": [2060, 2164, 2276, 2366, 2923, 3614]}, "edge": {"target": [], "time": []}}, "mouseout": {"state": {"target": ["15", "16", "7", "2", "10", "28", "24", "23", "0", "0", "7", "6", "4", "5", "6", "17"], "time": [686, 857, 892, 912, 934, 975, 1079, 1232, 1295, 1566, 2101, 2178, 2303, 2897, 2942, 4534]}, "edge": {"target": [], "time": []}}}, "displayed_time": "15.90", "trialTime": 16109, "trial_type": "mouselab-mdp", "trial_index": 40, "time_elapsed": 899117, "internal_node_id": "0.0-6.0-1.0-31.0"}}, {"uniqueid": "w63830498:a28925393", "current_trial": 41, "dateTime": 1693661366667, "trialdata": {"revealed_states": [], "clicked_states": ["32", "21"], "num_clicks_accrued": [0, 0, 0, 0, 0, 0, 0, 0, 0, 0, 0, 0, 0], "stateRewards": ["", 2, 4, -5, 7, 81, 35, 6, 11, 14, -72, 42, -1, 2, 3, -7, -77, -44, -40, -15, -85, 51, -32, -2, -1, -5, 7, -74, 47, 52, 16, -49, 48, -46], "withholdReward": false, "trial_id": "mdp_trial_33", "block": "test", "trialIndex": 34, "score": 37.2, "costs": -2.8, "simulationMode": [null, null, null, null, null], "rewards": [-1, 2, 3, -15, 51], "path": ["0", "0", "12", "13", "14", "19", "21"], "rt": [5132, 38, 23, 312, 123], "actions": ["right", "right", "right", "down", "down"], "actionTimes": [6594, 7138, 7666, 8482, 9106], "queries": {"click": {"state": {"target": ["32", "21"], "time": [2091, 4435]}, "edge": {"target": [], "time": []}}, "mouseover": {"state": {"target": ["23", "31", "32", "21", "21", "22", "13", "7", "18"], "time": [1606, 1739, 1919, 2595, 2902, 4785, 4820, 4891, 5883]}, "edge": {"target": [], "time": []}}, "mouseout": {"state": {"target": ["16", "0", "23", "31", "32", "21", "21", "22", "13", "7", "18"], "time": [674, 1578, 1669, 1815, 2390, 2630, 4687, 4803, 4839, 5831, 5922]}, "edge": {"target": [], "time": []}}}, "displayed_time": "15.46", "trialTime": 15930, "trial_type": "mouselab-mdp", "trial_index": 41, "time_elapsed": 915373, "internal_node_id": "0.0-6.0-1.0-32.0"}}, {"uniqueid": "w63830498:a28925393", "current_trial": 42, "dateTime": 1693661389491, "trialdata": {"revealed_states": [], "clicked_states": ["9", "21", "17", "32", "29", "11", "5", "22"], "num_clicks_accrued": [0, 0, 0, 0, 0, 0, 0, 0, 0, 0, 0, 0, 0], "stateRewards": ["", 1, -2, -3, 14, -42, -87, -37, -11, -50, 33, -44, -2, 4, -7, 13, 48, -75, -66, 12, 23, -2, 82, 1, -4, 3, 12, 51, -15, -26, -11, -52, -29, 82], "withholdReward": false, "trial_id": "mdp_trial_34", "block": "test", "trialIndex": 35, "score": 77.8, "costs": -11.200000000000001, "simulationMode": [null, null, null, null, null], "rewards": [-2, 4, -7, 12, 82], "path": ["0", "0", "12", "13", "14", "19", "22"], "rt": [16648, 229, 30, 29, 253], "actions": ["right", "right", "right", "down", "left"], "actionTimes": [18307, 19034, 19579, 20106, 20858], "queries": {"click": {"state": {"target": ["9", "21", "17", "32", "29", "11", "5", "22"], "time": [2931, 4732, 6508, 8217, 9985, 11672, 13312, 15841]}, "edge": {"target": [], "time": []}}, "mouseover": {"state": {"target": ["1", "1", "2", "8", "9", "9", "11", "10", "18", "15", "14", "19", "21", "20", "17", "17", "15", "18", "23", "30", "33", "32", "29", "26", "28", "11", "10", "2", "4", "5", "7", "12", "13", "22", "22", "22", "19", "20", "20"], "time": [1939, 2057, 2106, 2203, 2293, 2733, 3224, 3285, 3386, 3452, 3482, 3561, 3691, 5223, 5532, 5790, 6940, 7042, 7192, 7255, 7334, 7708, 9260, 10295, 10431, 10977, 12117, 12137, 12334, 12629, 13752, 14166, 14509, 14709, 15398, 15683, 16232, 16278, 16945]}, "edge": {"target": [], "time": []}}, "mouseout": {"state": {"target": ["18", "0", "0", "1", "1", "2", "8", "9", "9", "11", "10", "18", "15", "14", "19", "21", "20", "17", "17", "15", "18", "23", "30", "33", "32", "29", "26", "28", "11", "10", "2", "4", "5", "5", "7", "12", "13", "22", "22", "22", "22", "19", "20", "20"], "time": [687, 979, 1313, 1960, 2065, 2148, 2225, 2335, 3156, 3267, 3313, 3424, 3461, 3511, 3630, 5174, 5233, 5583, 6865, 7000, 7108, 7203, 7282, 7376, 8271, 10268, 10386, 10680, 12081, 12127, 12213, 12370, 13409, 13624, 13788, 14239, 14650, 14744, 15439, 15911, 16213, 16260, 16323, 17865]}, "edge": {"target": [], "time": []}}}, "displayed_time": "21.36", "trialTime": 22410, "trial_type": "mouselab-mdp", "trial_index": 42, "time_elapsed": 938198, "internal_node_id": "0.0-6.0-1.0-33.0"}}, {"uniqueid": "w63830498:a28925393", "current_trial": 43, "dateTime": 1693661405579, "trialdata": {"revealed_states": [], "clicked_states": ["22", "17", "21", "33", "11"], "num_clicks_accrued": [0, 0, 0, 0, 0, 0, 0, 0, 0, 0, 0, 0, 0], "stateRewards": ["", -1, 4, -8, 12, 14, 69, -8, 5, -72, -14, 56, -1, -1, -1, 9, 67, 19, 11, -9, -88, -58, 3, 2, -4, -8, 4, 62, 77, -74, 5, -31, 65, 88], "withholdReward": false, "trial_id": "mdp_trial_35", "block": "test", "trialIndex": 36, "score": 76, "costs": -7, "simulationMode": [null, null, null, null, null], "rewards": [2, -4, -8, 5, 88], "path": ["0", "0", "23", "24", "25", "30", "33"], "rt": [9322, 192, 324, 56, 364], "actions": ["left", "left", "left", "down", "left"], "actionTimes": [10856, 11551, 12391, 12951, 13815], "queries": {"click": {"state": {"target": ["22", "17", "21", "33", "11"], "time": [2150, 3936, 5749, 7473, 9189]}, "edge": {"target": [], "time": []}}, "mouseover": {"state": {"target": ["22", "19", "20", "17", "16", "17", "21", "33", "33", "32", "31", "24", "26", "27", "11"], "time": [1994, 2402, 2422, 2973, 3238, 3739, 4941, 6447, 6725, 7788, 7944, 7993, 8126, 8224, 8460]}, "edge": {"target": [], "time": []}}, "mouseout": {"state": {"target": ["18", "1", "24", "31", "23", "0", "22", "19", "20", "17", "16", "17", "17", "21", "33", "33", "32", "31", "24", "26", "27", "11"], "time": [472, 499, 527, 694, 763, 1548, 2384, 2413, 2434, 3026, 3336, 4008, 4262, 5950, 6481, 7724, 7845, 7974, 8047, 8179, 8269, 9544]}, "edge": {"target": [], "time": []}}}, "displayed_time": "15.54", "trialTime": 15759, "trial_type": "mouselab-mdp", "trial_index": 43, "time_elapsed": 954286, "internal_node_id": "0.0-6.0-1.0-34.0"}}, {"uniqueid": "w63830498:a28925393", "current_trial": 44, "dateTime": 1693661421468, "trialdata": {"revealed_states": [], "clicked_states": ["29", "17", "21", "5"], "num_clicks_accrued": [0, 0, 0, 0, 0, 0, 0, 0, 0, 0, 0, 0, 0], "stateRewards": ["", 1, 1, 7, -11, 80, -20, -53, -14, 3, 31, 27, 2, -1, -8, -10, 33, 41, 86, 9, 78, -37, -13, -1, -2, -6, -8, -80, 75, 4, -16, -49, -74, 24], "withholdReward": false, "trial_id": "mdp_trial_36", "block": "test", "trialIndex": 37, "score": 72.4, "costs": -5.6, "simulationMode": [null, null, null, null, null], "rewards": [1, 1, 7, -11, 80], "path": ["0", "0", "1", "2", "3", "4", "5"], "rt": [8831, 4, 130, 66, 136], "actions": ["up", "up", "up", "right", "up"], "actionTimes": [9868, 10372, 11011, 11579, 12220], "queries": {"click": {"state": {"target": ["29", "17", "21", "5"], "time": [1571, 3350, 5716, 7497]}, "edge": {"target": [], "time": []}}, "mouseover": {"state": {"target": ["27", "29", "26", "28", "1", "16", "17", "20", "21", "21", "13", "18", "5", "5", "3", "10", "28", "24", "30", "32", "30", "24", "2"], "time": [1280, 1426, 1843, 1872, 1918, 2112, 2241, 3606, 3861, 5583, 6128, 6156, 6295, 6599, 7862, 7901, 7921, 7934, 7955, 8306, 9441, 9469, 9524]}, "edge": {"target": [], "time": []}}, "mouseout": {"state": {"target": ["10", "23", "0", "27", "29", "26", "28", "1", "16", "17", "20", "21", "21", "13", "18", "5", "5", "3", "10", "28", "24", "30", "32", "30", "24"], "time": [292, 584, 1064, 1329, 1833, 1862, 1882, 1928, 2122, 3511, 3642, 4470, 6064, 6146, 6167, 6322, 7805, 7883, 7911, 7932, 7945, 7974, 9420, 9455, 9483]}, "edge": {"target": [], "time": []}}}, "displayed_time": "15.04", "trialTime": 15564, "trial_type": "mouselab-mdp", "trial_index": 44, "time_elapsed": 970174, "internal_node_id": "0.0-6.0-1.0-35.0"}}, {"uniqueid": "w63830498:a28925393", "current_trial": 45, "dateTime": 1693661437507, "trialdata": {"revealed_states": [], "clicked_states": ["29", "17", "21", "5"], "num_clicks_accrued": [0, 0, 0, 0, 0, 0, 0, 0, 0, 0, 0, 0, 0], "stateRewards": ["", 2, 3, -3, 12, -43, 81, -82, -15, 58, -7, -75, -1, -1, 3, -5, 50, -25, -8, 4, 66, 65, -66, 2, -4, 2, -1, -10, 10, 37, 11, 88, -37, 8], "withholdReward": false, "trial_id": "mdp_trial_37", "block": "test", "trialIndex": 38, "score": 64.4, "costs": -5.6, "simulationMode": [null, null, null, null, null], "rewards": [-1, -1, 3, 4, 65], "path": ["0", "0", "12", "13", "14", "19", "21"], "rt": [8707, 154, 324, 57, 85], "actions": ["right", "right", "right", "down", "down"], "actionTimes": [10172, 10827, 11651, 12211, 12795], "queries": {"click": {"state": {"target": ["29", "17", "21", "5"], "time": [2557, 4454, 6414, 8388]}, "edge": {"target": [], "time": []}}, "mouseover": {"state": {"target": ["0", "23", "24", "25", "29", "29", "25", "30", "13", "14", "17", "20", "21", "19", "14", "6", "5", "5", "6", "16", "15"], "time": [1991, 2095, 2112, 2132, 2178, 2414, 2837, 2866, 3232, 3311, 3759, 6091, 6314, 6916, 6956, 7078, 7156, 7392, 8787, 8874, 8913]}, "edge": {"target": [], "time": []}}, "mouseout": {"state": {"target": ["2", "2", "1", "0", "0", "0", "0", "23", "24", "25", "29", "29", "25", "30", "13", "14", "17", "20", "21", "21", "19", "14", "6", "5", "5", "5", "6", "16", "15"], "time": [405, 467, 495, 668, 953, 1545, 2081, 2104, 2124, 2140, 2227, 2792, 2847, 2885, 3276, 3328, 4813, 6112, 6487, 6780, 6935, 6974, 7111, 7277, 8397, 8750, 8834, 8893, 8924]}, "edge": {"target": [], "time": []}}}, "displayed_time": "15.46", "trialTime": 15755, "trial_type": "mouselab-mdp", "trial_index": 45, "time_elapsed": 986214, "internal_node_id": "0.0-6.0-1.0-36.0"}}, {"uniqueid": "w63830498:a28925393", "current_trial": 46, "dateTime": 1693661454515, "trialdata": {"revealed_states": [], "clicked_states": ["29", "21", "16", "17", "11"], "num_clicks_accrued": [0, 0, 0, 0, 0, 0, 0, 0, 0, 0, 0, 0, 0], "stateRewards": ["", 2, -4, 1, -12, -59, -53, -74, 16, -88, -66, 66, 1, -2, 8, -9, -14, 22, 25, -1, -39, 47, -14, -1, -1, -2, 1, -4, 52, -26, 15, -7, 46, 43], "withholdReward": false, "trial_id": "mdp_trial_38", "block": "test", "trialIndex": 39, "score": 74, "costs": -7, "simulationMode": [null, null, null, null, null], "rewards": [2, -4, 1, 16, 66], "path": ["0", "0", "1", "2", "3", "8", "11"], "rt": [11435, 188, 100, 182, 25], "actions": ["up", "up", "up", "left", "left"], "actionTimes": [12869, 13556, 14156, 14836, 15377], "queries": {"click": {"state": {"target": ["29", "21", "16", "17", "11"], "time": [2224, 3993, 6012, 8411, 10455]}, "edge": {"target": [], "time": []}}, "mouseover": {"state": {"target": ["28", "26", "29", "23", "19", "20", "21", "20", "17", "16", "17", "15", "18", "3", "8", "11", "8"], "time": [1806, 1959, 2077, 2527, 2593, 2614, 3211, 4313, 4388, 5054, 8264, 9587, 9628, 9989, 10037, 10217, 11636]}, "edge": {"target": [], "time": []}}, "mouseout": {"state": {"target": ["17", "15", "12", "0", "28", "26", "29", "23", "19", "20", "21", "20", "17", "16", "17", "15", "18", "3", "8", "11", "8"], "time": [589, 756, 895, 1591, 1931, 2029, 2466, 2538, 2603, 2670, 4233, 4324, 4442, 7791, 9566, 9616, 9646, 9998, 10099, 11569, 11741]}, "edge": {"target": [], "time": []}}}, "displayed_time": "15.88", "trialTime": 16668, "trial_type": "mouselab-mdp", "trial_index": 46, "time_elapsed": 1003222, "internal_node_id": "0.0-6.0-1.0-37.0"}}, {"uniqueid": "w63830498:a28925393", "current_trial": 47, "dateTime": 1693661472555, "trialdata": {"revealed_states": [], "clicked_states": ["32", "16", "21", "29", "5", "11"], "num_clicks_accrued": [0, 0, 0, 0, 0, 0, 0, 0, 0, 0, 0, 0, 0], "stateRewards": ["", -2, 1, -3, -16, -39, -52, 30, -7, -41, -59, 11, 2, 1, 8, 2, -11, -26, -42, -13, 87, -59, -48, -1, -1, -1, 16, -79, 31, 50, -1, -84, 34, -82], "withholdReward": false, "trial_id": "mdp_trial_39", "block": "test", "trialIndex": 40, "score": 54.6, "costs": -8.4, "simulationMode": [null, null, null, null, null], "rewards": [-1, -1, -1, 16, 50], "path": ["0", "0", "23", "24", "25", "26", "29"], "rt": [12880, 129, 57, 141, 167], "actions": ["left", "left", "left", "up", "left"], "actionTimes": [14217, 14848, 15408, 16056, 16728], "queries": {"click": {"state": {"target": ["32", "16", "21", "29", "5", "11"], "time": [2027, 3838, 5640, 7481, 9638, 12323]}, "edge": {"target": [], "time": []}}, "mouseover": {"state": {"target": ["31", "30", "32", "12", "18", "16", "16", "17", "20", "21", "19", "22", "29", "27", "9", "5", "4", "3", "8", "11", "11", "9"], "time": [1676, 1697, 1975, 2366, 2396, 2462, 2878, 4144, 4354, 4628, 6103, 6160, 6741, 7879, 8782, 9503, 10128, 10172, 11485, 11623, 12179, 12669]}, "edge": {"target": [], "time": []}}, "mouseout": {"state": {"target": ["6", "4", "2", "1", "23", "0", "31", "30", "32", "12", "18", "16", "16", "17", "20", "21", "19", "22", "29", "27", "9", "5", "4", "3", "8", "11", "11", "9"], "time": [618, 640, 681, 709, 757, 1393, 1685, 1706, 2099, 2375, 2407, 2610, 4070, 4217, 4573, 5917, 6141, 6189, 7767, 7908, 8963, 10037, 10139, 10221, 11533, 11651, 12613, 12680]}, "edge": {"target": [], "time": []}}}, "displayed_time": "17.23", "trialTime": 17720, "trial_type": "mouselab-mdp", "trial_index": 47, "time_elapsed": 1021262, "internal_node_id": "0.0-6.0-1.0-38.0"}}, {"uniqueid": "w63830498:a28925393", "current_trial": 48, "dateTime": 1693661489867, "trialdata": {"revealed_states": [], "clicked_states": ["33"], "num_clicks_accrued": [0, 0, 0, 0, 0, 0, 0, 0, 0, 0, 0, 0, 0], "stateRewards": ["", 2, -1, 8, -2, -16, 69, -39, -7, -13, -27, -86, 2, -2, 2, 13, -34, -16, -20, -5, 19, 81, 32, -2, -1, 2, -14, 20, 80, 58, 4, 70, 12, 73], "withholdReward": false, "trial_id": "mdp_trial_40", "block": "test", "trialIndex": 41, "score": 74.6, "costs": -1.4, "simulationMode": [null, null, null, null, null], "rewards": [-2, -1, 2, 4, 73], "path": ["0", "0", "23", "24", "25", "30", "33"], "rt": [3001, 105, 165, 70, 4], "actions": ["left", "left", "left", "down", "left"], "actionTimes": [4759, 5367, 6031, 6607, 7115], "queries": {"click": {"state": {"target": ["33"], "time": [2375]}, "edge": {"target": [], "time": []}}, "mouseover": {"state": {"target": ["23", "25", "33", "23", "0", "12", "13", "14", "17"], "time": [1794, 2021, 2188, 2695, 2877, 2907, 2940, 2962, 3225]}, "edge": {"target": [], "time": []}}, "mouseout": {"state": {"target": ["9", "23", "0", "0", "23", "25", "33", "23", "0", "12", "13", "14", "17", "15"], "time": [845, 1159, 1235, 1779, 1860, 2063, 2451, 2848, 2896, 2928, 2951, 2973, 4405, 16258]}, "edge": {"target": [], "time": []}}}, "displayed_time": "15.76", "trialTime": 16991, "trial_type": "mouselab-mdp", "trial_index": 48, "time_elapsed": 1038574, "internal_node_id": "0.0-6.0-1.0-39.0"}}, {"uniqueid": "w63830498:a28925393", "current_trial": 49, "dateTime": 1693661527767, "trialdata": {"rt": 37896, "response": {"Q0": "$-2 to $2", "Q1": "$-16 to $16", "Q2": "$-88 to $88", "Q3": "The cost was always $1.4.", "Q4": "Slightly motivated"}, "question_order": [0, 1, 2, 3, 4], "trial_id": "final_quiz_control", "trial_type": "survey-multi-choice", "trial_index": 49, "time_elapsed": 1076474, "internal_node_id": "0.0-6.0-2.0"}}, {"uniqueid": "w63830498:a28925393", "current_trial": 50, "dateTime": 1693661589532, "trialdata": {"rt": 61759, "response": {"Q0": "i only revealed the nodes on the edges and chose the one with the highest score", "Q1": "no i stuck with the same strategy", "Q2": "my performance stayed relatively constant"}, "trial_id": "self_report_control", "trial_type": "survey-text", "trial_index": 50, "time_elapsed": 1138238, "internal_node_id": "0.0-6.0-3.0"}}, {"uniqueid": "w63830498:a28925393", "current_trial": 51, "dateTime": 1693661607099, "trialdata": {"rt": 17564, "response": {"gender": "male", "age": "25", "colorblind": "0", "effort": "0"}, "trial_type": "survey-html-form", "trial_index": 51, "time_elapsed": 1155806, "internal_node_id": "0.0-6.0-4.0"}}, {"uniqueid": "w63830498:a28925393", "current_trial": 52, "dateTime": 1693661621154, "trialdata": {"rt": 14051, "response": {"Q0": "no", "Q1": "no", "Q2": "no"}, "trial_type": "survey-text", "trial_index": 52, "time_elapsed": 1169861, "internal_node_id": "0.0-6.0-5.0"}}, {"uniqueid": "w63830498:a28925393", "current_trial": 53, "dateTime": 1693661651970, "trialdata": {"rt": 30813, "stimulus": "<h1>Completion Code Instructions (1/2)</h1>\n<br><br><br><br>\nYou have reached the end of the experiment! The completion code consists of two parts: (1) a code with 2 characters (2) a code with 6 characters. On this page, you will receive the second part of the code. The first part of the completion code will be on the next page.\n<br><br>\nThe second part of your completion code is: <b>EWEK22</b>\n<br><br>\nPlease note this down. Then, press 'Next' in order to find the first part of your completion code. Once the data has been saved, you will receive this code either in this window or in the original browser window where you started the experiment.\n <br><br>\n<h2 style='color: red;'>Note: this is <strong>NOT</strong> the full completion code. Copy this down and click 'Next' to get the full completion code on the next page.</h2>", "response": 0, "trial_type": "html-button-response", "trial_index": 53, "time_elapsed": 1200677, "internal_node_id": "0.0-6.0-6.0"}}, {"uniqueid": "w63830498:a28925393", "current_trial": 54, "dateTime": 1693661652987, "trialdata": {"success": true, "trial_type": "fullscreen", "trial_index": 54, "time_elapsed": 1201694, "internal_node_id": "0.0-7.0"}}], "questiondata": {"params": {"CODE": "C6DMOQA6", "MIN_TIME": 14, "inspectCost": 1, "startTime": "Sat Sep 02 2023 14:14:10 GMT+0100 (British Summer Time)", "bonusRate": 0.002, "variance": "1_2_4_8_44", "branching": "31123"}, "final_score": 2508.8}, "eventdata": [{"eventtype": "initialized", "value": null, "timestamp": 1693660450166, "interval": 0}, {"eventtype": "window_resize", "value": [1024, 767], "timestamp": 1693660450166, "interval": 0}, {"eventtype": "window_resize", "value": [1024, 767], "timestamp": 1693660450483, "interval": 317}, {"eventtype": "window_resize", "value": [1920, 1080], "timestamp": 1693660454153, "interval": 3670}, {"eventtype": "window_resize", "value": [1024, 767], "timestamp": 1693661652201, "interval": 1198048}], "useragent": "Mozilla/5.0 (Windows NT 10.0; Win64; x64) AppleWebKit/537.36 (KHTML, like Gecko) Chrome/116.0.0.0 Safari/537.36", "mode": "live", "id": "w63830498:a28925393", "status": "user data saved", "Beginhit": "2023-09-02 13:14:09.685469", "Beginexp": "2023-09-02 13:14:15.731832", "Endhit": "2023-09-02 13:34:14.746866", "psiturkStatus": 3, "browser": "<redacted>", "platform": "windows", "language": "en-US"}