{"condition": 0, "counterbalance": 0, "assignmentId": "a90864797", "workerId": "w86310454", "hitId": "h84912717", "currenttrial": 55, "bonus": 0, "data": [{"uniqueid": "w86310454:a90864797", "current_trial": 0, "dateTime": 1691159496983, "trialdata": {"success": true, "trial_type": "fullscreen", "trial_index": 0, "time_elapsed": 4587, "internal_node_id": "0.0-0.0"}}, {"uniqueid": "w86310454:a90864797", "current_trial": 1, "dateTime": 1691159511824, "trialdata": {"view_history": [{"page_index": 0, "viewing_time": 14826}], "rt": 14827, "trial_id": "exp_instructions_control", "trial_type": "instructions", "trial_index": 1, "time_elapsed": 19429, "internal_node_id": "0.0-1.0"}}, {"uniqueid": "w86310454:a90864797", "current_trial": 2, "dateTime": 1691159516435, "trialdata": {"success": true, "trial_type": "fullscreen", "trial_index": 2, "time_elapsed": 24040, "internal_node_id": "0.0-2.0-0.0"}}, {"uniqueid": "w86310454:a90864797", "current_trial": 3, "dateTime": 1691159686038, "trialdata": {"view_history": [{"page_index": 0, "viewing_time": 54163}, {"page_index": 1, "viewing_time": 66701}, {"page_index": 2, "viewing_time": 15770}, {"page_index": 3, "viewing_time": 32965}], "rt": 169599, "trial_id": "mouselab_instructions_1_control", "trial_type": "instructions", "trial_index": 3, "time_elapsed": 193643, "internal_node_id": "0.0-2.0-1.0"}}, {"uniqueid": "w86310454:a90864797", "current_trial": 4, "dateTime": 1691159722346, "trialdata": {"revealed_states": [], "clicked_states": ["1", "23", "12", "2"], "num_clicks_accrued": [0, 0, 0, 0, 0, 0, 0, 0, 0, 0, 0, 0, 0], "stateRewards": ["", 10, 10, 10, 10, -10, -10, 10, 10, -10, -10, -10, -10, -10, 10, 10, 10, 10, 10, -10, 10, 10, -10, -10, 10, -10, 10, -10, 10, 10, 10, 10, 10, -10], "withholdReward": false, "trial_id": "practice_1", "block": "test", "trialIndex": 0, "score": 31.5, "costs": -2, "simulationMode": [null, null, null, null, null], "rewards": [10, 10, 10, 10, -10], "path": ["0", "0", "1", "2", "3", "4", "5"], "rt": [15002, 500, 6280, 381, 476], "actions": ["up", "up", "up", "right", "up"], "actionTimes": [17900, 18915, 25711, 26612, 27608], "queries": {"click": {"state": {"target": ["1", "23", "12", "2"], "time": [6526, 10513, 12662, 16378]}, "edge": {"target": [], "time": []}}, "mouseover": {"state": {"target": ["1", "0", "1", "0", "23", "0", "12", "1", "2"], "time": [4303, 5204, 5949, 8296, 10103, 11852, 12234, 15430, 15551]}, "edge": {"target": [], "time": []}}, "mouseout": {"state": {"target": ["0", "1", "0", "1", "0", "23", "0", "12", "1", "2", "3"], "time": [3949, 4701, 5901, 7783, 9916, 11834, 12067, 14802, 15464, 22294, 31149]}, "edge": {"target": [], "time": []}}}, "displayed_time": "28.13", "trialTime": 35620, "trial_type": "mouselab-mdp", "trial_index": 4, "time_elapsed": 229950, "internal_node_id": "0.0-2.0-2.0-0.0"}}, {"uniqueid": "w86310454:a90864797", "current_trial": 5, "dateTime": 1691159739553, "trialdata": {"revealed_states": [], "clicked_states": [], "num_clicks_accrued": [0, 0, 0, 0, 0, 0, 0, 0, 0, 0, 0, 0, 0], "stateRewards": ["", 10, -10, -10, -10, -10, 10, -10, 10, 10, -10, 10, 10, 10, -10, -10, 10, 10, -10, -10, 10, -10, -10, 10, -10, 10, 10, 10, 10, -10, -10, 10, 10, -10], "withholdReward": false, "trial_id": "practice_2", "block": "test", "trialIndex": 1, "score": 33.5, "costs": 0, "simulationMode": [null, null, null, null, null], "rewards": [10, -10, 10, 10, 10], "path": ["0", "0", "23", "24", "25", "26", "27"], "rt": [1288, 4177, 520, 592, 422], "actions": ["left", "left", "left", "up", "up"], "actionTimes": [4252, 8940, 9982, 11087, 12017], "queries": {"click": {"state": {"target": [], "time": []}, "edge": {"target": [], "time": []}}, "mouseover": {"state": {"target": [], "time": []}, "edge": {"target": [], "time": []}}, "mouseout": {"state": {"target": ["14", "13", "12", "0", "23", "28", "21"], "time": [1712, 1796, 1976, 6282, 8527, 13030, 16309]}, "edge": {"target": [], "time": []}}}, "displayed_time": "12.51", "trialTime": 16910, "trial_type": "mouselab-mdp", "trial_index": 5, "time_elapsed": 247157, "internal_node_id": "0.0-2.0-2.0-1.0"}}, {"uniqueid": "w86310454:a90864797", "current_trial": 6, "dateTime": 1691159765722, "trialdata": {"view_history": [{"page_index": 0, "viewing_time": 22717}, {"page_index": 1, "viewing_time": 3442}], "rt": 26159, "trial_id": "mouselab_instructions_2_control", "trial_type": "instructions", "trial_index": 6, "time_elapsed": 273327, "internal_node_id": "0.0-2.0-3.0"}}, {"uniqueid": "w86310454:a90864797", "current_trial": 7, "dateTime": 1691159804818, "trialdata": {"rt": 39092, "response": {"Q0": "The cost for clicking on nodes may vary between nodes.", "Q1": "The better I perform the higher my bonus will be.", "Q2": "No, the amount of cash at each node of the web may be different each time.", "Q3": "To get the highest total score.", "Q4": "Only before moving the spider.", "Q5": "3 seconds"}, "question_order": [0, 1, 2, 3, 4, 5], "correct": {"Q0": "The cost for clicking on nodes may vary between nodes.", "Q1": "The better I perform the higher my bonus will be.", "Q2": "No, the amount of cash at each node of the web may be different each time.", "Q3": "To get the highest total score.", "Q4": "Only before moving the spider.", "Q5": "3 seconds"}, "trial_id": "mouselab_quiz_control", "trial_type": "survey-multi-choice", "trial_index": 7, "time_elapsed": 312423, "internal_node_id": "0.0-2.0-4.0"}}, {"uniqueid": "w86310454:a90864797", "current_trial": 8, "dateTime": 1691159818545, "trialdata": {"rt": 13717, "stimulus": "\n<h1> Get ready to start the game! </h1>\n\nThank you for reading the instructions. Get ready start with the 40 rounds of this game.\n<br><br>\nIf you need to take a break, feel free to take one after the end of a round, before continuing to the next one.\n<br><br>\nRemember, the more money the spider gets, the bigger your bonus will be!\n<br><br>\n<div style='text-align: center;'>Press <code>space</code> to begin.</div>\n\n<br><br>\n(If, at any point, the <code>space</code> key does not take you to the next page, click once on the text and try again.)", "response": " ", "trial_id": "mdp_ready", "trial_type": "html-keyboard-response", "trial_index": 8, "time_elapsed": 326149, "internal_node_id": "0.0-4.0-0.0"}}, {"uniqueid": "w86310454:a90864797", "current_trial": 9, "dateTime": 1691159836551, "trialdata": {"revealed_states": [], "clicked_states": ["1"], "num_clicks_accrued": [0, 0, 0, 0, 0, 0, 0, 0, 0, 0, 0, 0, 0], "stateRewards": ["", -2, 3, 8, -9, 59, 41, -50, -1, 82, 66, 33, 2, -2, 7, 8, 1, -38, 12, -16, 24, -37, 67, 1, 4, -2, 5, 35, -83, 28, 8, -27, 69, -64], "withholdReward": false, "trial_id": "mdp_trial_1", "block": "test", "trialIndex": 2, "score": 41.6, "costs": -1.4, "simulationMode": [null, null, null, null, null], "rewards": [1, 4, -2, 5, 35], "path": ["0", "0", "23", "24", "25", "26", "27"], "rt": [4617, 314, 132, 539, 407], "actions": ["left", "left", "left", "up", "up"], "actionTimes": [6140, 6971, 7623, 8679, 9597], "queries": {"click": {"state": {"target": ["1"], "time": [3130]}, "edge": {"target": [], "time": []}}, "mouseover": {"state": {"target": ["1", "0", "0", "23"], "time": [2226, 4405, 4821, 5293]}, "edge": {"target": [], "time": []}}, "mouseout": {"state": {"target": ["0", "1", "0", "0", "23", "28", "27", "27", "14"], "time": [960, 4339, 4588, 5191, 10645, 10859, 11022, 14143, 17142]}, "edge": {"target": [], "time": []}}}, "displayed_time": "15.52", "trialTime": 17693, "trial_type": "mouselab-mdp", "trial_index": 9, "time_elapsed": 344154, "internal_node_id": "0.0-4.0-1.0-0.0"}}, {"uniqueid": "w86310454:a90864797", "current_trial": 10, "dateTime": 1691159854632, "trialdata": {"revealed_states": [], "clicked_states": ["12", "23"], "num_clicks_accrued": [0, 0, 0, 0, 0, 0, 0, 0, 0, 0, 0, 0, 0], "stateRewards": ["", 1, 3, -2, 15, 51, 15, -19, 11, 67, -45, -73, 2, 4, -2, -13, 36, 9, -28, 10, -30, 31, 16, 1, 2, -1, -16, 14, -22, 36, -1, 88, -5, 45], "withholdReward": false, "trial_id": "mdp_trial_2", "block": "test", "trialIndex": 3, "score": 24.2, "costs": -2.8, "simulationMode": [null, null, null, null, null, null], "rewards": [2, 4, -2, -13, 36], "path": ["0", "0", "12", "13", "14", "15", "16"], "rt": [4437, 462, 606, 276, 387, 462], "actions": ["right", "right", "right", "right", "up", "up"], "actionTimes": [6206, 6671, 7794, 8582, 9493, 10466], "queries": {"click": {"state": {"target": ["12", "23"], "time": [3081, 5262]}, "edge": {"target": [], "time": []}}, "mouseover": {"state": {"target": ["12", "12", "0", "23"], "time": [2241, 2583, 4557, 4635]}, "edge": {"target": [], "time": []}}, "mouseout": {"state": {"target": ["23", "12", "12", "0", "23", "2", "4", "6", "16"], "time": [822, 2260, 4269, 4585, 11369, 11517, 11636, 11786, 13612]}, "edge": {"target": [], "time": []}}}, "displayed_time": "15.77", "trialTime": 17777, "trial_type": "mouselab-mdp", "trial_index": 10, "time_elapsed": 362236, "internal_node_id": "0.0-4.0-1.0-1.0"}}, {"uniqueid": "w86310454:a90864797", "current_trial": 11, "dateTime": 1691159873400, "trialdata": {"revealed_states": [], "clicked_states": ["1"], "num_clicks_accrued": [0, 0, 0, 0, 0, 0, 0, 0, 0, 0, 0, 0, 0], "stateRewards": ["", 1, 1, 5, 6, -29, -7, 3, -16, 9, -46, 65, -1, 4, -1, -16, -63, -77, -87, 8, 80, -50, 43, -1, -1, -5, 5, -38, -71, -62, 9, 81, -50, -52], "withholdReward": false, "trial_id": "mdp_trial_3", "block": "test", "trialIndex": 4, "score": -17.4, "costs": -1.4, "simulationMode": [null, null, null, null, null, null], "rewards": [1, 1, 5, 6, -29], "path": ["0", "0", "1", "2", "3", "4", "5"], "rt": [3495, 560, 128, 2575, 343, 150], "actions": ["up", "up", "up", "up", "right", "up"], "actionTimes": [5939, 6503, 7156, 10252, 11105, 11778], "queries": {"click": {"state": {"target": ["1"], "time": [4521]}, "edge": {"target": [], "time": []}}, "mouseover": {"state": {"target": ["1"], "time": [3931]}, "edge": {"target": [], "time": []}}, "mouseout": {"state": {"target": ["0", "1", "2", "3"], "time": [3819, 4662, 12630, 12829]}, "edge": {"target": [], "time": []}}}, "displayed_time": "16.45", "trialTime": 18416, "trial_type": "mouselab-mdp", "trial_index": 11, "time_elapsed": 381004, "internal_node_id": "0.0-4.0-1.0-2.0"}}, {"uniqueid": "w86310454:a90864797", "current_trial": 12, "dateTime": 1691159893118, "trialdata": {"revealed_states": [], "clicked_states": [], "num_clicks_accrued": [0, 0, 0, 0, 0, 0, 0, 0, 0, 0, 0, 0, 0], "stateRewards": ["", 1, -1, 4, -2, -75, -75, 84, -9, -60, -79, 59, 2, -4, 8, 9, -17, -82, 80, 14, -4, 49, 49, -1, 3, 6, -11, -33, 34, 55, 9, -57, 5, 59], "withholdReward": false, "trial_id": "mdp_trial_4", "block": "test", "trialIndex": 5, "score": 69, "costs": 0, "simulationMode": [null, null, null, null, null], "rewards": [2, -4, 8, 14, 49], "path": ["0", "0", "12", "13", "14", "19", "21"], "rt": [1741, 19, 308, 270, 557], "actions": ["right", "right", "right", "down", "down"], "actionTimes": [4079, 4614, 5433, 6216, 7282], "queries": {"click": {"state": {"target": [], "time": []}, "edge": {"target": [], "time": []}}, "mouseover": {"state": {"target": [], "time": []}, "edge": {"target": [], "time": []}}, "mouseout": {"state": {"target": ["22", "0", "22", "21"], "time": [1089, 1641, 8409, 17837]}, "edge": {"target": [], "time": []}}}, "displayed_time": "16.34", "trialTime": 19351, "trial_type": "mouselab-mdp", "trial_index": 12, "time_elapsed": 400721, "internal_node_id": "0.0-4.0-1.0-3.0"}}, {"uniqueid": "w86310454:a90864797", "current_trial": 13, "dateTime": 1691159911294, "trialdata": {"revealed_states": [], "clicked_states": ["23"], "num_clicks_accrued": [0, 0, 0, 0, 0, 0, 0, 0, 0, 0, 0, 0, 0], "stateRewards": ["", 1, 1, -2, 7, -31, -6, 76, 1, -36, -16, -53, 2, 1, 7, 13, -47, -10, 47, -7, 72, 46, -56, -2, -2, -2, 11, -80, 44, 38, 16, 67, 85, -78], "withholdReward": false, "trial_id": "mdp_trial_5", "block": "test", "trialIndex": 6, "score": 93.6, "costs": -1.4, "simulationMode": [null, null, null, null, null, null], "rewards": [-2, -2, -2, 16, 85], "path": ["0", "0", "23", "24", "25", "30", "32"], "rt": [2101, 712, 798, 199, 304, 10], "actions": ["left", "left", "left", "left", "down", "down"], "actionTimes": [4265, 4982, 6307, 7022, 7843, 8383], "queries": {"click": {"state": {"target": ["23"], "time": [3296]}, "edge": {"target": [], "time": []}}, "mouseover": {"state": {"target": ["23"], "time": [2757]}, "edge": {"target": [], "time": []}}, "mouseout": {"state": {"target": ["23", "12"], "time": [9833, 9860]}, "edge": {"target": [], "time": []}}}, "displayed_time": "16.17", "trialTime": 17793, "trial_type": "mouselab-mdp", "trial_index": 13, "time_elapsed": 418898, "internal_node_id": "0.0-4.0-1.0-4.0"}}, {"uniqueid": "w86310454:a90864797", "current_trial": 14, "dateTime": 1691159930418, "trialdata": {"revealed_states": [], "clicked_states": ["1"], "num_clicks_accrued": [0, 0, 0, 0, 0, 0, 0, 0, 0, 0, 0, 0, 0], "stateRewards": ["", -2, 2, -5, -6, 10, -66, -58, -10, -11, -63, -70, -1, -4, -5, 7, 66, -64, -43, -3, 45, -37, 4, -2, -2, -6, -4, -30, 33, 43, 15, -32, -65, -59], "withholdReward": false, "trial_id": "mdp_trial_6", "block": "test", "trialIndex": 7, "score": -27.4, "costs": -1.4, "simulationMode": [null, null, null, null, null, null], "rewards": [-2, 2, -5, -10, -11], "path": ["0", "0", "1", "2", "3", "8", "9"], "rt": [2576, 670, 194, 1089, 159, 137], "actions": ["up", "up", "up", "up", "left", "up"], "actionTimes": [5489, 6161, 6866, 8482, 9163, 9808], "queries": {"click": {"state": {"target": ["1"], "time": [4278]}, "edge": {"target": [], "time": []}}, "mouseover": {"state": {"target": ["1"], "time": [3774]}, "edge": {"target": [], "time": []}}, "mouseout": {"state": {"target": ["20", "14", "13", "12", "1", "8"], "time": [1372, 1536, 1873, 1988, 4411, 11043]}, "edge": {"target": [], "time": []}}}, "displayed_time": "16.91", "trialTime": 18734, "trial_type": "mouselab-mdp", "trial_index": 14, "time_elapsed": 438022, "internal_node_id": "0.0-4.0-1.0-5.0"}}, {"uniqueid": "w86310454:a90864797", "current_trial": 15, "dateTime": 1691159948114, "trialdata": {"revealed_states": [], "clicked_states": [], "num_clicks_accrued": [0, 0, 0, 0, 0, 0, 0, 0, 0, 0, 0, 0, 0], "stateRewards": ["", 2, 1, -3, 7, 46, 11, -36, 16, 71, 5, 1, 2, -2, -8, -3, -4, 6, 55, 7, 68, -54, 2, 1, 1, 6, -6, 42, -4, -84, -11, -65, 63, 25], "withholdReward": false, "trial_id": "mdp_trial_7", "block": "test", "trialIndex": 8, "score": 44, "costs": 0, "simulationMode": [null, null, null, null, null], "rewards": [1, 1, 6, -6, 42], "path": ["0", "0", "23", "24", "25", "26", "27"], "rt": [1403, 430, 467, 341, 553], "actions": ["left", "left", "left", "up", "up"], "actionTimes": [3477, 4428, 5415, 6253, 7316], "queries": {"click": {"state": {"target": [], "time": []}, "edge": {"target": [], "time": []}}, "mouseover": {"state": {"target": [], "time": []}, "edge": {"target": [], "time": []}}, "mouseout": {"state": {"target": ["0", "17"], "time": [11774, 11869]}, "edge": {"target": [], "time": []}}}, "displayed_time": "16.07", "trialTime": 17306, "trial_type": "mouselab-mdp", "trial_index": 15, "time_elapsed": 455718, "internal_node_id": "0.0-4.0-1.0-6.0"}}, {"uniqueid": "w86310454:a90864797", "current_trial": 16, "dateTime": 1691159967106, "trialdata": {"revealed_states": [], "clicked_states": ["12"], "num_clicks_accrued": [0, 0, 0, 0, 0, 0, 0, 0, 0, 0, 0, 0, 0], "stateRewards": ["", 2, -3, -4, -1, 25, -16, 16, 10, -71, -20, -55, 1, 3, -4, -9, 1, 32, 11, -6, 32, -50, -41, -1, 4, 4, -8, 7, -81, 70, 2, -52, 45, -10], "withholdReward": false, "trial_id": "mdp_trial_8", "block": "test", "trialIndex": 9, "score": 21.6, "costs": -1.4, "simulationMode": [null, null, null, null, null], "rewards": [1, 3, -4, -9, 32], "path": ["0", "0", "12", "13", "14", "15", "17"], "rt": [4190, 157, 185, 263, 146], "actions": ["right", "right", "right", "up", "right"], "actionTimes": [7073, 7747, 8441, 9219, 9885], "queries": {"click": {"state": {"target": ["12"], "time": [5207]}, "edge": {"target": [], "time": []}}, "mouseover": {"state": {"target": ["12"], "time": [4757]}, "edge": {"target": [], "time": []}}, "mouseout": {"state": {"target": ["16", "7", "12", "15"], "time": [1401, 1614, 12278, 12358]}, "edge": {"target": [], "time": []}}}, "displayed_time": "16.89", "trialTime": 18527, "trial_type": "mouselab-mdp", "trial_index": 16, "time_elapsed": 474709, "internal_node_id": "0.0-4.0-1.0-7.0"}}, {"uniqueid": "w86310454:a90864797", "current_trial": 17, "dateTime": 1691159985510, "trialdata": {"revealed_states": [], "clicked_states": [], "num_clicks_accrued": [0, 0, 0, 0, 0, 0, 0, 0, 0, 0, 0, 0, 0], "stateRewards": ["", -2, -3, 1, -7, 39, -67, 16, 5, -20, 73, 66, -1, 4, 5, -3, 23, -68, -87, -8, 3, -3, 17, 1, -4, -2, -13, -32, 34, 61, -5, -11, -18, 12], "withholdReward": false, "trial_id": "mdp_trial_9", "block": "test", "trialIndex": 10, "score": 5, "costs": 0, "simulationMode": [null, null, null, null, null], "rewards": [-2, -3, 1, -7, 16], "path": ["0", "0", "1", "2", "3", "4", "7"], "rt": [1958, 33, 568, 296, 679], "actions": ["up", "up", "up", "right", "down"], "actionTimes": [4334, 4877, 5944, 6756, 7956], "queries": {"click": {"state": {"target": [], "time": []}, "edge": {"target": [], "time": []}}, "mouseover": {"state": {"target": [], "time": []}, "edge": {"target": [], "time": []}}, "mouseout": {"state": {"target": ["28", "16"], "time": [1342, 9346]}, "edge": {"target": [], "time": []}}}, "displayed_time": "16.38", "trialTime": 18020, "trial_type": "mouselab-mdp", "trial_index": 17, "time_elapsed": 493113, "internal_node_id": "0.0-4.0-1.0-8.0"}}, {"uniqueid": "w86310454:a90864797", "current_trial": 18, "dateTime": 1691160003802, "trialdata": {"revealed_states": [], "clicked_states": [], "num_clicks_accrued": [0, 0, 0, 0, 0, 0, 0, 0, 0, 0, 0, 0, 0], "stateRewards": ["", -2, -2, -3, -6, -15, -11, 41, -12, -63, -76, 2, -2, -3, 8, 9, -36, -2, -18, -16, -32, -85, -17, -2, 1, 5, -16, 82, 35, -88, -1, 80, -82, -20], "withholdReward": false, "trial_id": "mdp_trial_10", "block": "test", "trialIndex": 11, "score": -17, "costs": 0, "simulationMode": [null, null, null, null, null], "rewards": [-2, -2, -3, -12, 2], "path": ["0", "0", "1", "2", "3", "8", "11"], "rt": [1050, 525, 126, 308, 391], "actions": ["up", "up", "up", "left", "left"], "actionTimes": [3528, 4576, 5195, 6026, 6926], "queries": {"click": {"state": {"target": [], "time": []}, "edge": {"target": [], "time": []}}, "mouseover": {"state": {"target": [], "time": []}, "edge": {"target": [], "time": []}}, "mouseout": {"state": {"target": ["19", "22", "16"], "time": [1248, 1404, 9187]}, "edge": {"target": [], "time": []}}}, "displayed_time": "16.48", "trialTime": 17888, "trial_type": "mouselab-mdp", "trial_index": 18, "time_elapsed": 511405, "internal_node_id": "0.0-4.0-1.0-9.0"}}, {"uniqueid": "w86310454:a90864797", "current_trial": 19, "dateTime": 1691160022480, "trialdata": {"revealed_states": [], "clicked_states": ["12"], "num_clicks_accrued": [0, 0, 0, 0, 0, 0, 0, 0, 0, 0, 0, 0, 0], "stateRewards": ["", -2, 3, -1, -9, 44, 48, -37, -3, 71, -39, 87, -1, 3, -4, 4, -21, 59, -15, -8, -1, 28, -38, 2, 4, 4, 8, -85, -72, -63, 14, 58, 63, -46], "withholdReward": false, "trial_id": "mdp_trial_11", "block": "test", "trialIndex": 12, "score": 85.6, "costs": -1.4, "simulationMode": [null, null, null, null, null], "rewards": [2, 4, 4, 14, 63], "path": ["0", "0", "23", "24", "25", "30", "32"], "rt": [3665, 508, 192, 143, 251], "actions": ["left", "left", "left", "down", "down"], "actionTimes": [6430, 7433, 8133, 8768, 9542], "queries": {"click": {"state": {"target": ["12"], "time": [3839]}, "edge": {"target": [], "time": []}}, "mouseover": {"state": {"target": ["12"], "time": [3340]}, "edge": {"target": [], "time": []}}, "mouseout": {"state": {"target": ["16", "13", "12", "0", "12", "17"], "time": [1343, 1695, 1909, 3281, 3964, 16046]}, "edge": {"target": [], "time": []}}}, "displayed_time": "16.77", "trialTime": 18275, "trial_type": "mouselab-mdp", "trial_index": 19, "time_elapsed": 530084, "internal_node_id": "0.0-4.0-1.0-10.0"}}, {"uniqueid": "w86310454:a90864797", "current_trial": 20, "dateTime": 1691160040425, "trialdata": {"revealed_states": [], "clicked_states": [], "num_clicks_accrued": [0, 0, 0, 0, 0, 0, 0, 0, 0, 0, 0, 0, 0], "stateRewards": ["", -2, -3, 8, -4, -30, 31, 69, 9, 66, 87, 64, -2, 2, 8, 5, 47, 16, -39, -8, -54, 51, -19, 1, -2, -2, -11, -25, -26, 43, -9, 19, -84, 86], "withholdReward": false, "trial_id": "mdp_trial_12", "block": "test", "trialIndex": 13, "score": -26, "costs": 0, "simulationMode": [null, null, null, null, null], "rewards": [-2, 2, 8, 5, -39], "path": ["0", "0", "12", "13", "14", "15", "18"], "rt": [1607, 2, 78, 314, 780], "actions": ["right", "right", "right", "up", "left"], "actionTimes": [3794, 4307, 4916, 5753, 7052], "queries": {"click": {"state": {"target": [], "time": []}, "edge": {"target": [], "time": []}}, "mouseover": {"state": {"target": [], "time": []}, "edge": {"target": [], "time": []}}, "mouseout": {"state": {"target": ["14", "13", "12", "0", "12", "18"], "time": [823, 841, 956, 7958, 8041, 8060]}, "edge": {"target": [], "time": []}}}, "displayed_time": "16.19", "trialTime": 17551, "trial_type": "mouselab-mdp", "trial_index": 20, "time_elapsed": 548029, "internal_node_id": "0.0-4.0-1.0-11.0"}}, {"uniqueid": "w86310454:a90864797", "current_trial": 21, "dateTime": 1691160058702, "trialdata": {"revealed_states": [], "clicked_states": ["1"], "num_clicks_accrued": [0, 0, 0, 0, 0, 0, 0, 0, 0, 0, 0, 0, 0], "stateRewards": ["", 2, -1, 5, 6, 10, 86, 55, 10, -45, 63, -71, 1, -2, 5, -8, -50, -72, 36, 15, 61, 12, 33, -1, -4, 6, 5, 79, -56, -21, -16, -87, 60, -81], "withholdReward": false, "trial_id": "mdp_trial_13", "block": "test", "trialIndex": 14, "score": 20.6, "costs": -1.4, "simulationMode": [null, null, null, null, null], "rewards": [2, -1, 5, 6, 10], "path": ["0", "0", "1", "2", "3", "4", "5"], "rt": [3968, 88, 1079, 654, 153], "actions": ["up", "up", "up", "right", "up"], "actionTimes": [6398, 7010, 8600, 9776, 10440], "queries": {"click": {"state": {"target": ["1"], "time": [4126]}, "edge": {"target": [], "time": []}}, "mouseover": {"state": {"target": ["1"], "time": [3708]}, "edge": {"target": [], "time": []}}, "mouseout": {"state": {"target": ["13", "0", "1", "16"], "time": [1107, 1889, 11561, 11686]}, "edge": {"target": [], "time": []}}}, "displayed_time": "16.43", "trialTime": 17847, "trial_type": "mouselab-mdp", "trial_index": 21, "time_elapsed": 566306, "internal_node_id": "0.0-4.0-1.0-12.0"}}, {"uniqueid": "w86310454:a90864797", "current_trial": 22, "dateTime": 1691160076930, "trialdata": {"revealed_states": [], "clicked_states": ["12"], "num_clicks_accrued": [0, 0, 0, 0, 0, 0, 0, 0, 0, 0, 0, 0, 0], "stateRewards": ["", 2, -3, 5, 11, -79, 54, 11, -9, -78, 33, 22, -2, -1, 2, 14, 43, 34, 1, 10, 49, -65, 39, -1, 1, -1, 3, -16, -2, 11, 2, 12, 48, -65], "withholdReward": false, "trial_id": "mdp_trial_14", "block": "test", "trialIndex": 15, "score": -15.4, "costs": -1.4, "simulationMode": [null, null, null, null, null], "rewards": [-1, 1, -1, 3, -16], "path": ["0", "0", "23", "24", "25", "26", "27"], "rt": [3810, 16, 50, 215, 19], "actions": ["left", "left", "left", "up", "up"], "actionTimes": [6381, 6914, 7472, 8213, 8735], "queries": {"click": {"state": {"target": ["12"], "time": [3970]}, "edge": {"target": [], "time": []}}, "mouseover": {"state": {"target": ["12"], "time": [3612]}, "edge": {"target": [], "time": []}}, "mouseout": {"state": {"target": ["18", "23", "0", "12", "17"], "time": [996, 1434, 1701, 9819, 9863]}, "edge": {"target": [], "time": []}}}, "displayed_time": "16.57", "trialTime": 17786, "trial_type": "mouselab-mdp", "trial_index": 22, "time_elapsed": 584533, "internal_node_id": "0.0-4.0-1.0-13.0"}}, {"uniqueid": "w86310454:a90864797", "current_trial": 23, "dateTime": 1691160095301, "trialdata": {"revealed_states": [], "clicked_states": [], "num_clicks_accrued": [0, 0, 0, 0, 0, 0, 0, 0, 0, 0, 0, 0, 0], "stateRewards": ["", -2, -3, -7, 7, -54, -69, -4, -14, -77, 22, 40, -2, -1, 5, 6, -35, 50, -60, 10, -28, 75, 57, 1, -4, -2, 2, 68, 34, -18, 12, 3, -21, -43], "withholdReward": false, "trial_id": "mdp_trial_15", "block": "test", "trialIndex": 16, "score": -103, "costs": 0, "simulationMode": [null, null, null, null, null], "rewards": [-2, -3, -7, -14, -77], "path": ["0", "0", "1", "2", "3", "8", "9"], "rt": [1570, 336, 18, 304, 212], "actions": ["up", "up", "up", "left", "up"], "actionTimes": [4093, 4953, 5485, 6322, 7046], "queries": {"click": {"state": {"target": [], "time": []}, "edge": {"target": [], "time": []}}, "mouseover": {"state": {"target": [], "time": []}, "edge": {"target": [], "time": []}}, "mouseout": {"state": {"target": ["0", "18"], "time": [8696, 8733]}, "edge": {"target": [], "time": []}}}, "displayed_time": "16.52", "trialTime": 17911, "trial_type": "mouselab-mdp", "trial_index": 23, "time_elapsed": 602905, "internal_node_id": "0.0-4.0-1.0-14.0"}}, {"uniqueid": "w86310454:a90864797", "current_trial": 24, "dateTime": 1691160113411, "trialdata": {"revealed_states": [], "clicked_states": ["23"], "num_clicks_accrued": [0, 0, 0, 0, 0, 0, 0, 0, 0, 0, 0, 0, 0], "stateRewards": ["", -1, 2, 7, 8, 75, 67, -11, 6, 52, -17, 38, -1, 4, -8, 14, 74, -37, -17, -12, 52, 55, 71, -2, -1, -5, 2, 21, 6, -88, -14, 64, -61, -47], "withholdReward": false, "trial_id": "mdp_trial_16", "block": "test", "trialIndex": 17, "score": 81.6, "costs": -1.4, "simulationMode": [null, null, null, null, null], "rewards": [-1, 2, 7, 8, 67], "path": ["0", "0", "1", "2", "3", "4", "6"], "rt": [5168, 33, 70, 217, 306], "actions": ["up", "up", "up", "right", "right"], "actionTimes": [7643, 8193, 8781, 9527, 10351], "queries": {"click": {"state": {"target": ["23"], "time": [3996]}, "edge": {"target": [], "time": []}}, "mouseover": {"state": {"target": ["23"], "time": [3310]}, "edge": {"target": [], "time": []}}, "mouseout": {"state": {"target": ["0", "23", "1", "16"], "time": [3283, 12081, 12140, 12191]}, "edge": {"target": [], "time": []}}}, "displayed_time": "16.48", "trialTime": 17665, "trial_type": "mouselab-mdp", "trial_index": 24, "time_elapsed": 621015, "internal_node_id": "0.0-4.0-1.0-15.0"}}, {"uniqueid": "w86310454:a90864797", "current_trial": 25, "dateTime": 1691160131228, "trialdata": {"revealed_states": [], "clicked_states": ["12"], "num_clicks_accrued": [0, 0, 0, 0, 0, 0, 0, 0, 0, 0, 0, 0, 0], "stateRewards": ["", -1, -3, -6, 14, 41, 18, 63, -14, 80, 21, 17, -2, -4, -2, -5, 13, 70, 8, -4, -64, -10, -20, 2, -1, 4, -1, -17, -55, 42, -7, 47, 54, 15], "withholdReward": false, "trial_id": "mdp_trial_17", "block": "test", "trialIndex": 18, "score": -4.399999999999999, "costs": -1.4, "simulationMode": [null, null, null, null, null], "rewards": [-1, -3, -6, -14, 21], "path": ["0", "0", "1", "2", "3", "8", "10"], "rt": [4397, 2, 16, 108, 160], "actions": ["up", "up", "up", "left", "down"], "actionTimes": [6564, 7083, 7629, 8255, 8924], "queries": {"click": {"state": {"target": ["12"], "time": [3155]}, "edge": {"target": [], "time": []}}, "mouseover": {"state": {"target": ["12"], "time": [2647]}, "edge": {"target": [], "time": []}}, "mouseout": {"state": {"target": ["14", "13", "12", "0", "12", "1", "16"], "time": [994, 1272, 1347, 2622, 5550, 11100, 11179]}, "edge": {"target": [], "time": []}}}, "displayed_time": "16.17", "trialTime": 17354, "trial_type": "mouselab-mdp", "trial_index": 25, "time_elapsed": 638832, "internal_node_id": "0.0-4.0-1.0-16.0"}}, {"uniqueid": "w86310454:a90864797", "current_trial": 26, "dateTime": 1691160149293, "trialdata": {"revealed_states": [], "clicked_states": ["12"], "num_clicks_accrued": [0, 0, 0, 0, 0, 0, 0, 0, 0, 0, 0, 0, 0], "stateRewards": ["", -1, 3, 8, 9, -53, 20, -84, 2, -28, -62, -31, -1, -2, -7, 2, 51, 58, 45, -4, -17, -41, 36, 2, -2, -7, -15, 29, -54, -37, -16, -43, 65, -17], "withholdReward": false, "trial_id": "mdp_trial_18", "block": "test", "trialIndex": 19, "score": 5.600000000000001, "costs": -1.4, "simulationMode": [null, null, null, null, null], "rewards": [2, -2, -7, -15, 29], "path": ["0", "0", "23", "24", "25", "26", "27"], "rt": [3445, 504, 480, 208, 36], "actions": ["left", "left", "left", "up", "up"], "actionTimes": [5777, 6777, 7770, 8498, 9025], "queries": {"click": {"state": {"target": ["12"], "time": [3173]}, "edge": {"target": [], "time": []}}, "mouseover": {"state": {"target": ["12"], "time": [2638]}, "edge": {"target": [], "time": []}}, "mouseout": {"state": {"target": ["14", "13", "12", "0", "12", "15"], "time": [1042, 1071, 1120, 2543, 9865, 9904]}, "edge": {"target": [], "time": []}}}, "displayed_time": "16.33", "trialTime": 17563, "trial_type": "mouselab-mdp", "trial_index": 26, "time_elapsed": 656896, "internal_node_id": "0.0-4.0-1.0-17.0"}}, {"uniqueid": "w86310454:a90864797", "current_trial": 27, "dateTime": 1691160166539, "trialdata": {"revealed_states": [], "clicked_states": ["12"], "num_clicks_accrued": [0, 0, 0, 0, 0, 0, 0, 0, 0, 0, 0, 0, 0], "stateRewards": ["", 2, -3, -5, 5, 11, -9, -33, 6, 67, 6, -30, -1, -2, -6, 13, 55, 13, 72, -14, 75, 21, -66, -2, -4, 6, 15, -1, -35, 60, 2, 51, -73, 12], "withholdReward": false, "trial_id": "mdp_trial_19", "block": "test", "trialIndex": 20, "score": 15.6, "costs": -1.4, "simulationMode": [null, null, null, null, null], "rewards": [-1, -2, -6, 13, 13], "path": ["0", "0", "12", "13", "14", "15", "17"], "rt": [3190, 76, 30, 106, 652], "actions": ["right", "right", "right", "up", "right"], "actionTimes": [4940, 5540, 6094, 6718, 7882], "queries": {"click": {"state": {"target": ["12"], "time": [3011]}, "edge": {"target": [], "time": []}}, "mouseover": {"state": {"target": ["12"], "time": [2141]}, "edge": {"target": [], "time": []}}, "mouseout": {"state": {"target": ["0", "12", "18"], "time": [2103, 8626, 8660]}, "edge": {"target": [], "time": []}}}, "displayed_time": "15.75", "trialTime": 16801, "trial_type": "mouselab-mdp", "trial_index": 27, "time_elapsed": 674142, "internal_node_id": "0.0-4.0-1.0-18.0"}}, {"uniqueid": "w86310454:a90864797", "current_trial": 28, "dateTime": 1691160184396, "trialdata": {"revealed_states": [], "clicked_states": ["1"], "num_clicks_accrued": [0, 0, 0, 0, 0, 0, 0, 0, 0, 0, 0, 0, 0], "stateRewards": ["", 2, 4, -3, 16, -58, 30, -35, 11, -60, 47, 27, -2, -1, -7, -16, 23, -70, 68, -10, -65, -43, -34, -2, 1, 7, 9, -63, 34, -31, -8, -12, -86, 59], "withholdReward": false, "trial_id": "mdp_trial_20", "block": "test", "trialIndex": 21, "score": 39.6, "costs": -1.4, "simulationMode": [null, null, null, null, null], "rewards": [2, 4, -3, 11, 27], "path": ["0", "0", "1", "2", "3", "8", "11"], "rt": [3092, 174, 189, 665, 745], "actions": ["up", "up", "up", "left", "left"], "actionTimes": [5117, 5793, 6492, 7667, 8930], "queries": {"click": {"state": {"target": ["1"], "time": [2869]}, "edge": {"target": [], "time": []}}, "mouseover": {"state": {"target": ["1"], "time": [2368]}, "edge": {"target": [], "time": []}}, "mouseout": {"state": {"target": ["17", "15", "13", "12", "0", "1"], "time": [720, 783, 1021, 1050, 1081, 9835]}, "edge": {"target": [], "time": []}}}, "displayed_time": "16.03", "trialTime": 17382, "trial_type": "mouselab-mdp", "trial_index": 28, "time_elapsed": 692000, "internal_node_id": "0.0-4.0-1.0-19.0"}}, {"uniqueid": "w86310454:a90864797", "current_trial": 29, "dateTime": 1691160202021, "trialdata": {"revealed_states": [], "clicked_states": ["23"], "num_clicks_accrued": [0, 0, 0, 0, 0, 0, 0, 0, 0, 0, 0, 0, 0], "stateRewards": ["", 2, -1, 1, 10, -52, 86, -22, -2, -14, -63, 38, 1, 3, 7, -8, 11, -32, -27, 9, -71, 40, -87, -2, -1, 5, -7, 12, 31, -57, 13, 86, -58, 29], "withholdReward": false, "trial_id": "mdp_trial_21", "block": "test", "trialIndex": 22, "score": -41.4, "costs": -1.4, "simulationMode": [null, null, null, null, null], "rewards": [2, -1, 1, 10, -52], "path": ["0", "0", "1", "2", "3", "4", "5"], "rt": [4659, 27, 508, 278, 437], "actions": ["up", "up", "up", "right", "up"], "actionTimes": [6981, 7527, 8560, 9345, 10303], "queries": {"click": {"state": {"target": ["23"], "time": [3525]}, "edge": {"target": [], "time": []}}, "mouseover": {"state": {"target": ["23"], "time": [3112]}, "edge": {"target": [], "time": []}}, "mouseout": {"state": {"target": ["2", "10", "1", "0", "23"], "time": [883, 1170, 1248, 2903, 10998]}, "edge": {"target": [], "time": []}}}, "displayed_time": "16.32", "trialTime": 17172, "trial_type": "mouselab-mdp", "trial_index": 29, "time_elapsed": 709624, "internal_node_id": "0.0-4.0-1.0-20.0"}}, {"uniqueid": "w86310454:a90864797", "current_trial": 30, "dateTime": 1691160219608, "trialdata": {"revealed_states": [], "clicked_states": ["12"], "num_clicks_accrued": [0, 0, 0, 0, 0, 0, 0, 0, 0, 0, 0, 0, 0], "stateRewards": ["", -1, -3, -6, -2, -7, 80, -45, -3, -38, -72, 76, 2, 1, 7, 4, -62, 14, -74, 14, -87, -21, -88, -2, 1, -7, -10, 66, 56, -76, 10, -29, -72, -70], "withholdReward": false, "trial_id": "mdp_trial_22", "block": "test", "trialIndex": 23, "score": 1.6000000000000014, "costs": -1.4, "simulationMode": [null, null, null, null, null], "rewards": [2, 1, 7, 14, -21], "path": ["0", "0", "12", "13", "14", "19", "21"], "rt": [3202, 138, 106, 402, 392], "actions": ["right", "right", "right", "down", "down"], "actionTimes": [5384, 6029, 6647, 7560, 8466], "queries": {"click": {"state": {"target": ["12"], "time": [3192]}, "edge": {"target": [], "time": []}}, "mouseover": {"state": {"target": ["12", "12"], "time": [2422, 2808]}, "edge": {"target": [], "time": []}}, "mouseout": {"state": {"target": ["0", "12", "12", "16"], "time": [2344, 2490, 9303, 9340]}, "edge": {"target": [], "time": []}}}, "displayed_time": "16.18", "trialTime": 17086, "trial_type": "mouselab-mdp", "trial_index": 30, "time_elapsed": 727211, "internal_node_id": "0.0-4.0-1.0-21.0"}}, {"uniqueid": "w86310454:a90864797", "current_trial": 31, "dateTime": 1691160237161, "trialdata": {"revealed_states": [], "clicked_states": ["1"], "num_clicks_accrued": [0, 0, 0, 0, 0, 0, 0, 0, 0, 0, 0, 0, 0], "stateRewards": ["", 2, 4, 7, 7, -79, -2, -21, -5, -53, 47, -21, 1, -3, -1, 7, 83, 7, 84, -7, 80, -37, 69, 2, -4, 5, 2, 4, -20, -30, 7, 71, 44, -81], "withholdReward": false, "trial_id": "mdp_trial_23", "block": "test", "trialIndex": 24, "score": -2.3999999999999986, "costs": -1.4, "simulationMode": [null, null, null, null, null], "rewards": [2, 4, 7, 7, -21], "path": ["0", "0", "1", "2", "3", "4", "7"], "rt": [4076, 510, 134, 599, 760], "actions": ["up", "up", "up", "right", "down"], "actionTimes": [6447, 7474, 8131, 9229, 10507], "queries": {"click": {"state": {"target": ["1"], "time": [4028]}, "edge": {"target": [], "time": []}}, "mouseover": {"state": {"target": ["1"], "time": [3496]}, "edge": {"target": [], "time": []}}, "mouseout": {"state": {"target": ["0", "1", "18", "15"], "time": [3267, 11533, 11567, 11582]}, "edge": {"target": [], "time": []}}}, "displayed_time": "16.37", "trialTime": 17113, "trial_type": "mouselab-mdp", "trial_index": 31, "time_elapsed": 744765, "internal_node_id": "0.0-4.0-1.0-22.0"}}, {"uniqueid": "w86310454:a90864797", "current_trial": 32, "dateTime": 1691160254492, "trialdata": {"revealed_states": [], "clicked_states": [], "num_clicks_accrued": [0, 0, 0, 0, 0, 0, 0, 0, 0, 0, 0, 0, 0], "stateRewards": ["", -2, 2, -4, -4, -59, 88, 62, -3, 69, -15, -34, 1, -2, -5, 7, -54, -20, 78, -16, -74, -53, -21, 2, -4, 2, 13, -8, -44, 26, 9, 72, 4, 17], "withholdReward": false, "trial_id": "mdp_trial_24", "block": "test", "trialIndex": 25, "score": 5, "costs": 0, "simulationMode": [null, null, null, null, null], "rewards": [2, -4, 2, 13, -8], "path": ["0", "0", "23", "24", "25", "26", "27"], "rt": [961, 93, 403, 122, 333], "actions": ["left", "left", "left", "up", "up"], "actionTimes": [3014, 3628, 4555, 5191, 6035], "queries": {"click": {"state": {"target": [], "time": []}, "edge": {"target": [], "time": []}}, "mouseover": {"state": {"target": [], "time": []}, "edge": {"target": [], "time": []}}, "mouseout": {"state": {"target": ["14", "13", "12", "0"], "time": [754, 845, 966, 1317]}, "edge": {"target": [], "time": []}}}, "displayed_time": "16.05", "trialTime": 16850, "trial_type": "mouselab-mdp", "trial_index": 32, "time_elapsed": 762096, "internal_node_id": "0.0-4.0-1.0-23.0"}}, {"uniqueid": "w86310454:a90864797", "current_trial": 33, "dateTime": 1691160272405, "trialdata": {"revealed_states": [], "clicked_states": [], "num_clicks_accrued": [0, 0, 0, 0, 0, 0, 0, 0, 0, 0, 0, 0, 0], "stateRewards": ["", -2, -3, 1, -14, 48, -49, 67, -1, -35, -48, 3, -2, 1, -4, -5, 86, -84, 39, 1, 48, 41, -42, -1, -4, 2, -7, 18, -86, 17, 7, -9, 57, -69], "withholdReward": false, "trial_id": "mdp_trial_25", "block": "test", "trialIndex": 26, "score": -5, "costs": 0, "simulationMode": [null, null, null, null, null], "rewards": [-1, -4, 2, 7, -9], "path": ["0", "0", "23", "24", "25", "30", "31"], "rt": [1141, 242, 3, 161, 240], "actions": ["left", "left", "left", "down", "right"], "actionTimes": [3369, 4125, 4669, 5360, 6122], "queries": {"click": {"state": {"target": [], "time": []}, "edge": {"target": [], "time": []}}, "mouseover": {"state": {"target": ["0"], "time": [2586]}, "edge": {"target": [], "time": []}}, "mouseout": {"state": {"target": ["0", "0", "15", "17"], "time": [1450, 6852, 6913, 6933]}, "edge": {"target": [], "time": []}}}, "displayed_time": "16.23", "trialTime": 17395, "trial_type": "mouselab-mdp", "trial_index": 33, "time_elapsed": 780009, "internal_node_id": "0.0-4.0-1.0-24.0"}}, {"uniqueid": "w86310454:a90864797", "current_trial": 34, "dateTime": 1691160289402, "trialdata": {"revealed_states": [], "clicked_states": [], "num_clicks_accrued": [0, 0, 0, 0, 0, 0, 0, 0, 0, 0, 0, 0, 0], "stateRewards": ["", -1, -2, -1, -10, -57, 73, -72, -16, 75, -14, -46, -2, -3, -7, -1, -61, -60, 76, -4, 50, 4, 14, 2, 2, -7, 12, -65, -32, 15, -8, -76, -25, -61], "withholdReward": false, "trial_id": "mdp_trial_26", "block": "test", "trialIndex": 27, "score": 55, "costs": 0, "simulationMode": [null, null, null, null, null], "rewards": [-1, -2, -1, -16, 75], "path": ["0", "0", "1", "2", "3", "8", "9"], "rt": [317, 94, 256, 66, 463], "actions": ["up", "up", "up", "left", "up"], "actionTimes": [2026, 2624, 3388, 3946, 4926], "queries": {"click": {"state": {"target": [], "time": []}, "edge": {"target": [], "time": []}}, "mouseover": {"state": {"target": [], "time": []}, "edge": {"target": [], "time": []}}, "mouseout": {"state": {"target": ["14", "13", "12", "0", "15", "17"], "time": [713, 736, 776, 5732, 5778, 5813]}, "edge": {"target": [], "time": []}}}, "displayed_time": "15.71", "trialTime": 16491, "trial_type": "mouselab-mdp", "trial_index": 34, "time_elapsed": 797006, "internal_node_id": "0.0-4.0-1.0-25.0"}}, {"uniqueid": "w86310454:a90864797", "current_trial": 35, "dateTime": 1691160306847, "trialdata": {"revealed_states": [], "clicked_states": [], "num_clicks_accrued": [0, 0, 0, 0, 0, 0, 0, 0, 0, 0, 0, 0, 0], "stateRewards": ["", 1, 1, 4, 11, 83, -66, 18, -16, -23, 5, 25, 1, -3, 1, -12, 18, 24, -86, -11, -64, 36, 40, 2, 1, -6, 13, 55, 29, 72, -2, 81, -72, -41], "withholdReward": false, "trial_id": "mdp_trial_27", "block": "test", "trialIndex": 28, "score": 11, "costs": 0, "simulationMode": [null, null, null, null, null], "rewards": [1, -3, 1, -12, 24], "path": ["0", "0", "12", "13", "14", "15", "17"], "rt": [664, 49, 502, 87, 530], "actions": ["right", "right", "right", "up", "right"], "actionTimes": [2883, 3430, 4448, 5052, 6095], "queries": {"click": {"state": {"target": [], "time": []}, "edge": {"target": [], "time": []}}, "mouseover": {"state": {"target": [], "time": []}, "edge": {"target": [], "time": []}}, "mouseout": {"state": {"target": ["0"], "time": [6884]}, "edge": {"target": [], "time": []}}}, "displayed_time": "16.22", "trialTime": 16939, "trial_type": "mouselab-mdp", "trial_index": 35, "time_elapsed": 814451, "internal_node_id": "0.0-4.0-1.0-26.0"}}, {"uniqueid": "w86310454:a90864797", "current_trial": 36, "dateTime": 1691160324719, "trialdata": {"revealed_states": [], "clicked_states": [], "num_clicks_accrued": [0, 0, 0, 0, 0, 0, 0, 0, 0, 0, 0, 0, 0], "stateRewards": ["", 2, -2, -3, 10, -4, -1, -11, -8, -9, -36, -78, 2, 1, 7, -7, 44, -1, -31, -1, 26, 47, 83, 2, -4, -4, -6, -52, -76, -81, -1, -59, 45, 67], "withholdReward": false, "trial_id": "mdp_trial_28", "block": "test", "trialIndex": 29, "score": 3, "costs": 0, "simulationMode": [null, null, null, null, null], "rewards": [2, -2, -3, 10, -4], "path": ["0", "0", "1", "2", "3", "4", "5"], "rt": [659, 201, 338, 164, 375], "actions": ["up", "up", "up", "right", "up"], "actionTimes": [3214, 3919, 4756, 5434, 6326], "queries": {"click": {"state": {"target": [], "time": []}, "edge": {"target": [], "time": []}}, "mouseover": {"state": {"target": [], "time": []}, "edge": {"target": [], "time": []}}, "mouseout": {"state": {"target": ["20", "23", "0"], "time": [952, 1484, 7087]}, "edge": {"target": [], "time": []}}}, "displayed_time": "16.56", "trialTime": 17366, "trial_type": "mouselab-mdp", "trial_index": 36, "time_elapsed": 832322, "internal_node_id": "0.0-4.0-1.0-27.0"}}, {"uniqueid": "w86310454:a90864797", "current_trial": 37, "dateTime": 1691160342511, "trialdata": {"revealed_states": [], "clicked_states": [], "num_clicks_accrued": [0, 0, 0, 0, 0, 0, 0, 0, 0, 0, 0, 0, 0], "stateRewards": ["", -2, 2, -5, 1, 42, -63, -58, -6, 2, 16, 81, -2, 4, 7, -10, 33, 3, -33, -2, -52, -84, -27, 2, -3, -3, 15, -74, -14, -5, -5, -84, 79, -31], "withholdReward": false, "trial_id": "mdp_trial_29", "block": "test", "trialIndex": 30, "score": -3, "costs": 0, "simulationMode": [null, null, null, null, null], "rewards": [2, -3, -3, 15, -14], "path": ["0", "0", "23", "24", "25", "26", "28"], "rt": [846, 210, 505, 165, 3], "actions": ["left", "left", "left", "up", "right"], "actionTimes": [3335, 4044, 5072, 5749, 6270], "queries": {"click": {"state": {"target": [], "time": []}, "edge": {"target": [], "time": []}}, "mouseover": {"state": {"target": [], "time": []}, "edge": {"target": [], "time": []}}, "mouseout": {"state": {"target": ["14", "13", "12", "0", "15"], "time": [1018, 1083, 1235, 7086, 7134]}, "edge": {"target": [], "time": []}}}, "displayed_time": "16.49", "trialTime": 17290, "trial_type": "mouselab-mdp", "trial_index": 37, "time_elapsed": 850114, "internal_node_id": "0.0-4.0-1.0-28.0"}}, {"uniqueid": "w86310454:a90864797", "current_trial": 38, "dateTime": 1691160360297, "trialdata": {"revealed_states": [], "clicked_states": [], "num_clicks_accrued": [0, 0, 0, 0, 0, 0, 0, 0, 0, 0, 0, 0, 0], "stateRewards": ["", 2, 4, 7, -6, -76, -81, 2, 5, -66, -3, 36, -2, -4, 6, -2, -69, 4, -49, -6, 67, 38, -67, 2, 1, 1, 6, -68, -21, 52, -16, -16, 6, -70], "withholdReward": false, "trial_id": "mdp_trial_30", "block": "test", "trialIndex": 31, "score": 32, "costs": 0, "simulationMode": [null, null, null, null, null], "rewards": [-2, -4, 6, -6, 38], "path": ["0", "0", "12", "13", "14", "19", "21"], "rt": [303, 248, 289, 88, 6], "actions": ["right", "right", "right", "down", "down"], "actionTimes": [2129, 2883, 3690, 4290, 4806], "queries": {"click": {"state": {"target": [], "time": []}, "edge": {"target": [], "time": []}}, "mouseover": {"state": {"target": [], "time": []}, "edge": {"target": [], "time": []}}, "mouseout": {"state": {"target": ["14", "13", "0", "23", "23", "0", "18", "16"], "time": [682, 699, 713, 746, 1083, 6020, 6048, 6082]}, "edge": {"target": [], "time": []}}}, "displayed_time": "15.83", "trialTime": 17280, "trial_type": "mouselab-mdp", "trial_index": 38, "time_elapsed": 867901, "internal_node_id": "0.0-4.0-1.0-29.0"}}, {"uniqueid": "w86310454:a90864797", "current_trial": 39, "dateTime": 1691160379910, "trialdata": {"revealed_states": [], "clicked_states": [], "num_clicks_accrued": [0, 0, 0, 0, 0, 0, 0, 0, 0, 0, 0, 0, 0], "stateRewards": ["", -2, 2, -2, -7, -50, -62, -45, 7, 36, -24, -72, -1, -1, 8, -1, -67, 20, -52, 2, 35, -50, 80, -1, 1, 6, -6, -70, 6, 88, 8, -47, 74, -19], "withholdReward": false, "trial_id": "mdp_trial_31", "block": "test", "trialIndex": 32, "score": -67, "costs": 0, "simulationMode": [null, null, null, null, null], "rewards": [-2, 2, -2, 7, -72], "path": ["0", "0", "1", "2", "3", "8", "11"], "rt": [281, 225, 343, 294, 420], "actions": ["up", "up", "up", "left", "left"], "actionTimes": [3602, 4350, 5214, 6015, 6941], "queries": {"click": {"state": {"target": [], "time": []}, "edge": {"target": [], "time": []}}, "mouseover": {"state": {"target": [], "time": []}, "edge": {"target": [], "time": []}}, "mouseout": {"state": {"target": ["21", "21", "19", "22", "0", "12", "13"], "time": [1638, 1786, 1939, 2254, 7822, 7853, 7868]}, "edge": {"target": [], "time": []}}}, "displayed_time": "17.32", "trialTime": 19097, "trial_type": "mouselab-mdp", "trial_index": 39, "time_elapsed": 887513, "internal_node_id": "0.0-4.0-1.0-30.0"}}, {"uniqueid": "w86310454:a90864797", "current_trial": 40, "dateTime": 1691160398397, "trialdata": {"revealed_states": [], "clicked_states": [], "num_clicks_accrued": [0, 0, 0, 0, 0, 0, 0, 0, 0, 0, 0, 0, 0], "stateRewards": ["", 1, 4, 7, -16, -84, -6, -46, -12, -7, -49, -26, -1, 2, -4, 2, 22, 37, -64, 1, 88, -13, -10, 1, -4, -2, 5, 2, -10, -34, 9, 66, 55, 38], "withholdReward": false, "trial_id": "mdp_trial_32", "block": "test", "trialIndex": 33, "score": 86, "costs": 0, "simulationMode": [null, null, null, null, null], "rewards": [-1, 2, -4, 1, 88], "path": ["0", "0", "12", "13", "14", "19", "20"], "rt": [769, 54, 384, 114, 163], "actions": ["right", "right", "right", "down", "right"], "actionTimes": [3689, 4253, 5149, 5780, 6464], "queries": {"click": {"state": {"target": [], "time": []}, "edge": {"target": [], "time": []}}, "mouseover": {"state": {"target": [], "time": []}, "edge": {"target": [], "time": []}}, "mouseout": {"state": {"target": ["19", "22", "1", "10", "0", "18", "16"], "time": [1548, 1584, 1613, 1934, 7668, 7735, 7879]}, "edge": {"target": [], "time": []}}}, "displayed_time": "16.92", "trialTime": 17949, "trial_type": "mouselab-mdp", "trial_index": 40, "time_elapsed": 906001, "internal_node_id": "0.0-4.0-1.0-31.0"}}, {"uniqueid": "w86310454:a90864797", "current_trial": 41, "dateTime": 1691160415742, "trialdata": {"revealed_states": [], "clicked_states": [], "num_clicks_accrued": [0, 0, 0, 0, 0, 0, 0, 0, 0, 0, 0, 0, 0], "stateRewards": ["", -2, 2, -1, -6, 22, 6, 6, -5, 70, -42, 65, 1, 3, 5, -6, -67, -9, 3, 14, 7, -62, -13, -2, 4, 1, 16, 42, -21, -52, -8, 32, 53, 81], "withholdReward": false, "trial_id": "mdp_trial_33", "block": "test", "trialIndex": 34, "score": 59, "costs": 0, "simulationMode": [null, null, null, null, null], "rewards": [-2, 2, -1, -5, 65], "path": ["0", "0", "1", "2", "3", "8", "11"], "rt": [919, 527, 213, 185, 329], "actions": ["up", "up", "up", "left", "left"], "actionTimes": [3092, 4131, 4866, 5572, 6416], "queries": {"click": {"state": {"target": [], "time": []}, "edge": {"target": [], "time": []}}, "mouseover": {"state": {"target": [], "time": []}, "edge": {"target": [], "time": []}}, "mouseout": {"state": {"target": ["1", "0", "18"], "time": [1288, 7540, 7618]}, "edge": {"target": [], "time": []}}}, "displayed_time": "16.18", "trialTime": 16817, "trial_type": "mouselab-mdp", "trial_index": 41, "time_elapsed": 923346, "internal_node_id": "0.0-4.0-1.0-32.0"}}, {"uniqueid": "w86310454:a90864797", "current_trial": 42, "dateTime": 1691160433782, "trialdata": {"revealed_states": [], "clicked_states": [], "num_clicks_accrued": [0, 0, 0, 0, 0, 0, 0, 0, 0, 0, 0, 0, 0], "stateRewards": ["", 1, 4, -8, -13, -13, -87, -77, -10, -44, 54, 42, 2, -3, -4, 12, -9, -80, 52, 9, 84, -2, -65, 1, -4, -5, -6, 8, 80, 32, 13, -59, -5, -13], "withholdReward": false, "trial_id": "mdp_trial_34", "block": "test", "trialIndex": 35, "score": 66, "costs": 0, "simulationMode": [null, null, null, null, null], "rewards": [1, -4, -5, -6, 80], "path": ["0", "0", "23", "24", "25", "26", "28"], "rt": [1212, 279, 141, 452, 38], "actions": ["left", "left", "left", "up", "right"], "actionTimes": [3541, 4340, 5003, 5964, 6523], "queries": {"click": {"state": {"target": [], "time": []}, "edge": {"target": [], "time": []}}, "mouseover": {"state": {"target": [], "time": []}, "edge": {"target": [], "time": []}}, "mouseout": {"state": {"target": ["21", "12", "17"], "time": [962, 13070, 13110]}, "edge": {"target": [], "time": []}}}, "displayed_time": "16.33", "trialTime": 17532, "trial_type": "mouselab-mdp", "trial_index": 42, "time_elapsed": 941386, "internal_node_id": "0.0-4.0-1.0-33.0"}}, {"uniqueid": "w86310454:a90864797", "current_trial": 43, "dateTime": 1691160451638, "trialdata": {"revealed_states": [], "clicked_states": [], "num_clicks_accrued": [0, 0, 0, 0, 0, 0, 0, 0, 0, 0, 0, 0, 0], "stateRewards": ["", -2, -3, -3, 9, 79, 67, 22, -15, -56, 27, -85, -2, 4, -4, -15, -20, -32, 60, 15, 71, 57, 17, 1, 2, -8, 15, -37, -81, 82, 15, 21, -3, 2], "withholdReward": false, "trial_id": "mdp_trial_35", "block": "test", "trialIndex": 36, "score": 23, "costs": 0, "simulationMode": [null, null, null, null, null], "rewards": [-2, -3, -3, 9, 22], "path": ["0", "0", "1", "2", "3", "4", "7"], "rt": [650, 141, 75, 186, 169], "actions": ["up", "up", "up", "right", "down"], "actionTimes": [3108, 3776, 4356, 5067, 5750], "queries": {"click": {"state": {"target": [], "time": []}, "edge": {"target": [], "time": []}}, "mouseover": {"state": {"target": [], "time": []}, "edge": {"target": [], "time": []}}, "mouseout": {"state": {"target": ["20", "22", "0", "23", "0", "12", "13", "14"], "time": [1050, 1128, 1364, 1616, 7601, 7662, 7712, 7731]}, "edge": {"target": [], "time": []}}}, "displayed_time": "16.46", "trialTime": 17326, "trial_type": "mouselab-mdp", "trial_index": 43, "time_elapsed": 959242, "internal_node_id": "0.0-4.0-1.0-34.0"}}, {"uniqueid": "w86310454:a90864797", "current_trial": 44, "dateTime": 1691160469463, "trialdata": {"revealed_states": [], "clicked_states": [], "num_clicks_accrued": [0, 0, 0, 0, 0, 0, 0, 0, 0, 0, 0, 0, 0], "stateRewards": ["", -2, 2, 5, -14, -56, 64, 84, -5, 52, 39, 85, -2, 1, 7, 8, 21, 29, -78, -9, -10, -69, 10, -2, -1, -7, 15, 72, 20, 41, -2, 52, 80, 22], "withholdReward": false, "trial_id": "mdp_trial_36", "block": "test", "trialIndex": 37, "score": 40, "costs": 0, "simulationMode": [null, null, null, null, null], "rewards": [-2, -1, -7, -2, 52], "path": ["0", "0", "23", "24", "25", "30", "31"], "rt": [393, 462, 221, 221, 252], "actions": ["left", "left", "left", "down", "right"], "actionTimes": [2686, 3650, 4405, 5141, 5906], "queries": {"click": {"state": {"target": [], "time": []}, "edge": {"target": [], "time": []}}, "mouseover": {"state": {"target": [], "time": []}, "edge": {"target": [], "time": []}}, "mouseout": {"state": {"target": ["21", "12", "1", "0", "18"], "time": [923, 1222, 1471, 7358, 7404]}, "edge": {"target": [], "time": []}}}, "displayed_time": "16.30", "trialTime": 17308, "trial_type": "mouselab-mdp", "trial_index": 44, "time_elapsed": 977066, "internal_node_id": "0.0-4.0-1.0-35.0"}}, {"uniqueid": "w86310454:a90864797", "current_trial": 45, "dateTime": 1691160487059, "trialdata": {"revealed_states": [], "clicked_states": [], "num_clicks_accrued": [0, 0, 0, 0, 0, 0, 0, 0, 0, 0, 0, 0, 0], "stateRewards": ["", -1, -3, 1, 13, -64, -29, 12, -4, -33, 50, 56, 2, -3, 4, 11, -64, -58, -55, 12, 47, 38, -25, -2, 2, 5, -15, 85, 7, 84, 10, 8, 57, 26], "withholdReward": false, "trial_id": "mdp_trial_37", "block": "test", "trialIndex": 38, "score": 43, "costs": 0, "simulationMode": [null, null, null, null, null], "rewards": [-1, -3, 1, -4, 50], "path": ["0", "0", "1", "2", "3", "8", "10"], "rt": [209, 413, 9, 220, 339], "actions": ["up", "up", "up", "left", "down"], "actionTimes": [2464, 3385, 3913, 4658, 5493], "queries": {"click": {"state": {"target": [], "time": []}, "edge": {"target": [], "time": []}}, "mouseover": {"state": {"target": [], "time": []}, "edge": {"target": [], "time": []}}, "mouseout": {"state": {"target": ["0", "12", "17"], "time": [1573, 6457, 6502]}, "edge": {"target": [], "time": []}}}, "displayed_time": "16.26", "trialTime": 17040, "trial_type": "mouselab-mdp", "trial_index": 45, "time_elapsed": 994663, "internal_node_id": "0.0-4.0-1.0-36.0"}}, {"uniqueid": "w86310454:a90864797", "current_trial": 46, "dateTime": 1691160504850, "trialdata": {"revealed_states": [], "clicked_states": [], "num_clicks_accrued": [0, 0, 0, 0, 0, 0, 0, 0, 0, 0, 0, 0, 0], "stateRewards": ["", 1, 2, -3, -5, 66, -50, -47, -5, 1, 28, -27, 1, 1, -1, -6, 37, -25, 56, 1, -82, -66, -40, -1, -4, -7, 15, -61, -23, 26, 10, 14, -56, 29], "withholdReward": false, "trial_id": "mdp_trial_38", "block": "test", "trialIndex": 39, "score": 61, "costs": 0, "simulationMode": [null, null, null, null, null], "rewards": [1, 2, -3, -5, 66], "path": ["0", "0", "1", "2", "3", "4", "5"], "rt": [281, 325, 116, 119, 458], "actions": ["up", "up", "up", "right", "up"], "actionTimes": [2584, 3414, 4038, 4658, 5629], "queries": {"click": {"state": {"target": [], "time": []}, "edge": {"target": [], "time": []}}, "mouseover": {"state": {"target": [], "time": []}, "edge": {"target": [], "time": []}}, "mouseout": {"state": {"target": ["14", "13", "23", "0", "0", "18", "15", "17"], "time": [774, 953, 1473, 1519, 6434, 6539, 6566, 6582]}, "edge": {"target": [], "time": []}}}, "displayed_time": "16.30", "trialTime": 17267, "trial_type": "mouselab-mdp", "trial_index": 46, "time_elapsed": 1012453, "internal_node_id": "0.0-4.0-1.0-37.0"}}, {"uniqueid": "w86310454:a90864797", "current_trial": 47, "dateTime": 1691160523221, "trialdata": {"revealed_states": [], "clicked_states": [], "num_clicks_accrued": [0, 0, 0, 0, 0, 0, 0, 0, 0, 0, 0, 0, 0], "stateRewards": ["", -2, -1, 3, -3, 71, -58, -21, 7, -10, -75, -37, 2, 4, -1, -12, -79, -29, -48, 3, -41, -10, -30, -1, -2, 1, -15, 13, 66, 22, -1, -42, -86, -55], "withholdReward": false, "trial_id": "mdp_trial_39", "block": "test", "trialIndex": 40, "score": -22, "costs": 0, "simulationMode": [null, null, null, null, null], "rewards": [2, 4, -1, 3, -30], "path": ["0", "0", "12", "13", "14", "19", "22"], "rt": [147, 177, 506, 159, 153], "actions": ["right", "right", "right", "down", "left"], "actionTimes": [3249, 3938, 4949, 5620, 6297], "queries": {"click": {"state": {"target": [], "time": []}, "edge": {"target": [], "time": []}}, "mouseover": {"state": {"target": [], "time": []}, "edge": {"target": [], "time": []}}, "mouseout": {"state": {"target": ["18", "0", "15", "17"], "time": [1942, 7077, 7123, 7143]}, "edge": {"target": [], "time": []}}}, "displayed_time": "17.11", "trialTime": 17844, "trial_type": "mouselab-mdp", "trial_index": 47, "time_elapsed": 1030825, "internal_node_id": "0.0-4.0-1.0-38.0"}}, {"uniqueid": "w86310454:a90864797", "current_trial": 48, "dateTime": 1691160540966, "trialdata": {"revealed_states": [], "clicked_states": [], "num_clicks_accrued": [0, 0, 0, 0, 0, 0, 0, 0, 0, 0, 0, 0, 0], "stateRewards": ["", 1, 4, -4, 14, 35, 51, 19, -13, 54, 78, -74, -2, -1, -3, 13, -11, -42, -73, -15, -24, -3, -69, 2, -1, 5, 16, -27, 73, 58, 9, -60, 5, -60], "withholdReward": false, "trial_id": "mdp_trial_40", "block": "test", "trialIndex": 41, "score": 42, "costs": 0, "simulationMode": [null, null, null, null, null], "rewards": [1, 4, -4, -13, 54], "path": ["0", "0", "1", "2", "3", "8", "9"], "rt": [344, 379, 115, 118, 4], "actions": ["up", "up", "up", "left", "up"], "actionTimes": [2566, 3450, 4085, 4722, 5242], "queries": {"click": {"state": {"target": [], "time": []}, "edge": {"target": [], "time": []}}, "mouseover": {"state": {"target": [], "time": []}, "edge": {"target": [], "time": []}}, "mouseout": {"state": {"target": ["0", "0", "18", "15"], "time": [1504, 6307, 6335, 6353]}, "edge": {"target": [], "time": []}}}, "displayed_time": "16.22", "trialTime": 17201, "trial_type": "mouselab-mdp", "trial_index": 48, "time_elapsed": 1048569, "internal_node_id": "0.0-4.0-1.0-39.0"}}, {"uniqueid": "w86310454:a90864797", "current_trial": 49, "dateTime": 1691160585152, "trialdata": {"rt": 44173, "response": {"Q0": "$-2 to $2", "Q1": "$-4 to $4", "Q2": "$-32 to $32", "Q3": "The cost was always $1.4.", "Q4": "Very motivated"}, "question_order": [0, 1, 2, 3, 4], "trial_id": "final_quiz_control", "trial_type": "survey-multi-choice", "trial_index": 49, "time_elapsed": 1092757, "internal_node_id": "0.0-4.0-2.0"}}, {"uniqueid": "w86310454:a90864797", "current_trial": 50, "dateTime": 1691160672110, "trialdata": {"rt": 86949, "response": {"Q0": "By always taking different route for each try", "Q1": "yes i certainly did, by using my mind to think about if the last paid so much then the next should pay so much ", "Q2": "it was not difficult "}, "trial_id": "self_report_control", "trial_type": "survey-text", "trial_index": 50, "time_elapsed": 1179715, "internal_node_id": "0.0-4.0-3.0"}}, {"uniqueid": "w86310454:a90864797", "current_trial": 51, "dateTime": 1691160697460, "trialdata": {"rt": 25345, "response": {"gender": "female", "age": "22", "colorblind": "0", "effort": "0"}, "trial_type": "survey-html-form", "trial_index": 51, "time_elapsed": 1205065, "internal_node_id": "0.0-4.0-4.0"}}, {"uniqueid": "w86310454:a90864797", "current_trial": 52, "dateTime": 1691160742556, "trialdata": {"rt": 45091, "response": {"Q0": "No everything was understandble", "Q1": "no", "Q2": ""}, "trial_type": "survey-text", "trial_index": 52, "time_elapsed": 1250161, "internal_node_id": "0.0-4.0-5.0"}}, {"uniqueid": "w86310454:a90864797", "current_trial": 53, "dateTime": 1691160747980, "trialdata": {"rt": 5419, "stimulus": "Press 'Finish HIT' in order to reach the completion code. Once the data has been saved, you will receive the code either in this window or in the original browser window where you started the experiment.\n", "response": 0, "trial_type": "html-button-response", "trial_index": 53, "time_elapsed": 1255585, "internal_node_id": "0.0-5.0"}}, {"uniqueid": "w86310454:a90864797", "current_trial": 54, "dateTime": 1691160748984, "trialdata": {"success": true, "trial_type": "fullscreen", "trial_index": 54, "time_elapsed": 1256589, "internal_node_id": "0.0-6.0"}}], "questiondata": {"params": {"CODE": "C6DMOQA6", "MIN_TIME": 14, "inspectCost": 1, "startTime": "Fri Aug 04 2023 16:31:19 GMT+0200 (South Africa Standard Time)", "bonusRate": 0.002, "variance": "1_2_4_8_44", "branching": "31123"}, "final_score": 723.8}, "eventdata": [{"eventtype": "initialized", "value": null, "timestamp": 1691159478180, "interval": 0}, {"eventtype": "window_resize", "value": [1032, 608], "timestamp": 1691159478180, "interval": 0}, {"eventtype": "window_resize", "value": [1032, 608], "timestamp": 1691159478949, "interval": 769}, {"eventtype": "focus", "value": "on", "timestamp": 1691159492029, "interval": 13080}, {"eventtype": "window_resize", "value": [1280, 720], "timestamp": 1691159496187, "interval": 4158}, {"eventtype": "window_resize", "value": [1032, 608], "timestamp": 1691160748247, "interval": 1252060}], "useragent": "Mozilla/5.0 (Windows NT 10.0; Win64; x64) AppleWebKit/537.36 (KHTML, like Gecko) Chrome/115.0.0.0 Safari/537.36", "mode": "live", "id": "w86310454:a90864797", "status": "user data saved", "Beginhit": "2023-08-04 14:31:03.971924", "Beginexp": "2023-08-04 14:31:36.29104", "Endhit": "2023-08-04 14:52:30.56587", "psiturkStatus": 3, "browser": "<redacted>", "platform": "windows", "language": "en-US"}