{"condition": 1, "counterbalance": 0, "assignmentId": "a54106959", "workerId": "w74769093", "hitId": "h56616991", "currenttrial": 55, "bonus": 0, "data": [{"uniqueid": "w74769093:a54106959", "current_trial": 0, "dateTime": 1693834860372, "trialdata": {"success": true, "trial_type": "fullscreen", "trial_index": 0, "time_elapsed": 5702, "internal_node_id": "0.0-0.0"}}, {"uniqueid": "w74769093:a54106959", "current_trial": 1, "dateTime": 1693834883700, "trialdata": {"view_history": [{"page_index": 0, "viewing_time": 23310}], "rt": 23312, "trial_id": "exp_instructions_misaligned", "trial_type": "instructions", "trial_index": 1, "time_elapsed": 29030, "internal_node_id": "0.0-1.0"}}, {"uniqueid": "w74769093:a54106959", "current_trial": 2, "dateTime": 1693835113167, "trialdata": {"view_history": [{"page_index": 0, "viewing_time": 75713}, {"page_index": 1, "viewing_time": 92437}, {"page_index": 2, "viewing_time": 22008}, {"page_index": 3, "viewing_time": 39304}], "rt": 229462, "trial_id": "mouselab_instructions_1_misaligned", "trial_type": "instructions", "trial_index": 2, "time_elapsed": 258498, "internal_node_id": "0.0-2.0-1.0"}}, {"uniqueid": "w74769093:a54106959", "current_trial": 3, "dateTime": 1693835147331, "trialdata": {"revealed_states": [], "clicked_states": ["20", "6", "9", "29", "32"], "num_clicks_accrued": [0, 0, 0, 0, 0, 0, 0, 0, 0, 0, 0, 0, 0], "stateRewards": ["", -10, 10, -10, -10, 10, -10, 10, -10, -10, 10, -10, 10, 10, 10, 10, -10, 10, -10, 10, -10, -10, -10, -10, -10, 10, -10, 10, 10, -10, 10, 10, -10, -10], "withholdReward": false, "trial_id": "practice_1", "block": "test", "trialIndex": 0, "score": -29, "costs": -2.5, "simulationMode": [null, null, null, null, null], "rewards": [-10, 10, -10, -10, -10], "path": ["0", "0", "1", "2", "3", "4", "6"], "rt": [15332, 262, 194, 2982, 211], "actions": ["up", "up", "up", "right", "right"], "actionTimes": [18639, 19403, 20112, 23598, 24362], "queries": {"click": {"state": {"target": ["20", "6", "9", "29", "32"], "time": [6276, 7840, 9198, 12160, 14686]}, "edge": {"target": [], "time": []}}, "mouseover": {"state": {"target": ["12", "14", "20", "15", "16", "6", "9", "11", "27", "29", "30", "32"], "time": [4823, 4870, 5586, 7087, 7169, 7386, 8734, 9788, 11269, 11473, 13520, 13886]}, "edge": {"target": [], "time": []}}, "mouseout": {"state": {"target": ["0", "12", "14", "20", "15", "16", "6", "9", "11", "27", "29", "30", "32"], "time": [4819, 4838, 4888, 7055, 7152, 7194, 8438, 9737, 11037, 11352, 13102, 13669, 15719]}, "edge": {"target": [], "time": []}}}, "displayed_time": "24.90", "trialTime": 32118, "trial_type": "mouselab-mdp", "trial_index": 3, "time_elapsed": 292661, "internal_node_id": "0.0-2.0-2.0-0.0"}}, {"uniqueid": "w74769093:a54106959", "current_trial": 4, "dateTime": 1693835169045, "trialdata": {"revealed_states": [], "clicked_states": ["29"], "num_clicks_accrued": [0, 0, 0, 0, 0, 0, 0, 0, 0, 0, 0, 0, 0], "stateRewards": ["", -10, 10, 10, -10, -10, 10, -10, -10, 10, 10, 10, 10, -10, -10, -10, 10, 10, -10, 10, -10, -10, 10, -10, -10, -10, 10, -10, -10, 10, -10, -10, -10, -10], "withholdReward": false, "trial_id": "practice_2", "block": "test", "trialIndex": 1, "score": -7, "costs": -0.5, "simulationMode": [null, null, null, null, null], "rewards": [-10, -10, -10, 10, 10], "path": ["0", "0", "23", "24", "25", "26", "29"], "rt": [6195, 71, 17, 653, 150], "actions": ["left", "left", "left", "up", "left"], "actionTimes": [11243, 11842, 12405, 13566, 14215], "queries": {"click": {"state": {"target": ["29"], "time": [6491]}, "edge": {"target": [], "time": []}}, "mouseover": {"state": {"target": ["23", "28", "26", "29", "27", "25", "25", "31"], "time": [5792, 5824, 5845, 5929, 8063, 8450, 8636, 8759]}, "edge": {"target": [], "time": []}}, "mouseout": {"state": {"target": ["24", "23", "0", "23", "28", "26", "29", "27", "25", "25", "31"], "time": [3225, 3475, 5780, 5809, 5842, 5879, 7741, 8447, 8475, 8729, 8848]}, "edge": {"target": [], "time": []}}}, "displayed_time": "14.71", "trialTime": 20788, "trial_type": "mouselab-mdp", "trial_index": 4, "time_elapsed": 314375, "internal_node_id": "0.0-2.0-2.0-1.0"}}, {"uniqueid": "w74769093:a54106959", "current_trial": 5, "dateTime": 1693835220068, "trialdata": {"view_history": [{"page_index": 0, "viewing_time": 40397}, {"page_index": 1, "viewing_time": 10620}], "rt": 51018, "trial_id": "mouselab_instructions_2_misaligned", "trial_type": "instructions", "trial_index": 5, "time_elapsed": 365399, "internal_node_id": "0.0-2.0-3.0"}}, {"uniqueid": "w74769093:a54106959", "current_trial": 6, "dateTime": 1693835261976, "trialdata": {"rt": 41882, "response": {"Q0": "The cost for clicking on nodes may vary between nodes.", "Q1": "The better I perform the higher my bonus will be.", "Q2": "No, the amount of cash at each node of the web may be different each time.", "Q3": "To get the highest total score.", "Q4": "Only before moving the spider.", "Q5": "3 seconds"}, "question_order": [0, 1, 2, 3, 4, 5], "correct": {"Q0": "The cost for clicking on nodes may vary between nodes.", "Q1": "The better I perform the higher my bonus will be.", "Q2": "No, the amount of cash at each node of the web may be different each time.", "Q3": "To get the highest total score.", "Q4": "Only before moving the spider.", "Q5": "3 seconds"}, "trial_id": "mouselab_quiz_misaligned", "trial_type": "survey-multi-choice", "trial_index": 6, "time_elapsed": 407306, "internal_node_id": "0.0-2.0-4.0"}}, {"uniqueid": "w74769093:a54106959", "current_trial": 7, "dateTime": 1693835270363, "trialdata": {"rt": 8363, "response": {"Q0": "No"}, "question_order": [0], "trial_id": "repeat_check", "trial_type": "survey-multi-choice", "trial_index": 7, "time_elapsed": 415694, "internal_node_id": "0.0-4.0-0.0"}}, {"uniqueid": "w74769093:a54106959", "current_trial": 8, "dateTime": 1693835286073, "trialdata": {"rt": 15697, "stimulus": "\n<h1> Get ready to start the game! </h1>\n\nThank you for reading the instructions. Get ready start with the 40 rounds of this game.\n<br><br>\nIf you need to take a break, feel free to take one after the end of a round, before continuing to the next one.\n<br><br>\nRemember, the more money the spider gets, the bigger your bonus will be!\n<br><br>\n<div style='text-align: center;'>Press <code>space</code> to begin.</div>\n\n<br><br>\n(If, at any point, the <code>space</code> key does not take you to the next page, click once on the text and try again.)", "response": " ", "trial_id": "mdp_ready", "trial_type": "html-keyboard-response", "trial_index": 8, "time_elapsed": 431404, "internal_node_id": "0.0-6.0-0.0"}}, {"uniqueid": "w74769093:a54106959", "current_trial": 9, "dateTime": 1693835314952, "trialdata": {"revealed_states": [], "clicked_states": ["9", "21", "20", "17"], "num_clicks_accrued": [0, 0, 0, 0, 0, 0, 0, 0, 0, 0, 0, 0, 0], "stateRewards": ["", -1, -4, -3, 1, -45, -67, -24, 14, 32, 22, 22, -1, 1, -5, -7, 72, 84, -79, -5, 19, -40, -2, -1, -2, 8, -3, 84, -25, -28, 11, 64, -66, 77], "withholdReward": false, "trial_id": "mdp_trial_1", "block": "test", "trialIndex": 2, "score": 0.3999999999999986, "costs": -8.6, "simulationMode": [null, null, null, null, null], "rewards": [-1, 1, -5, -5, 19], "path": ["0", "0", "12", "13", "14", "19", "20"], "rt": [15363, 446, 292, 511, 94], "actions": ["right", "right", "right", "down", "right"], "actionTimes": [19028, 20013, 20841, 21877, 22491], "queries": {"click": {"state": {"target": ["9", "21", "20", "17"], "time": [5885, 9415, 12315, 15471]}, "edge": {"target": [], "time": []}}, "mouseover": {"state": {"target": ["23", "24", "26", "27", "9", "2", "13", "19", "21", "21", "20", "12", "17", "12"], "time": [4276, 4310, 4476, 4847, 5243, 7481, 7611, 7664, 7776, 8030, 11067, 14529, 14762, 17013]}, "edge": {"target": [], "time": []}}, "mouseout": {"state": {"target": ["0", "23", "24", "26", "27", "9", "2", "13", "19", "21", "21", "20", "12", "17", "12"], "time": [2627, 4294, 4326, 4510, 4894, 7434, 7514, 7627, 7700, 7828, 10903, 13543, 14548, 16935, 17052]}, "edge": {"target": [], "time": []}}}, "displayed_time": "23.03", "trialTime": 27793, "trial_type": "mouselab-mdp", "trial_index": 9, "time_elapsed": 460283, "internal_node_id": "0.0-6.0-1.0-0.0"}}, {"uniqueid": "w74769093:a54106959", "current_trial": 10, "dateTime": 1693835337300, "trialdata": {"revealed_states": [], "clicked_states": [], "num_clicks_accrued": [0, 0, 0, 0, 0, 0, 0, 0, 0, 0, 0, 0, 0], "stateRewards": ["", -2, 2, -4, -4, -59, 88, 62, -3, 69, -15, -34, 1, -2, -5, 7, -54, -20, 78, -16, -74, -53, -21, 2, -4, 2, 13, -8, -44, 26, 9, 72, 4, 17], "withholdReward": false, "trial_id": "mdp_trial_2", "block": "test", "trialIndex": 3, "score": 62, "costs": 0, "simulationMode": [null, null, null, null, null], "rewards": [-2, 2, -4, -3, 69], "path": ["0", "0", "1", "2", "3", "8", "9"], "rt": [3120, 483, 269, 766, 716], "actions": ["up", "up", "up", "left", "up"], "actionTimes": [5900, 6919, 7702, 8987, 10214], "queries": {"click": {"state": {"target": [], "time": []}, "edge": {"target": [], "time": []}}, "mouseover": {"state": {"target": ["1", "2", "3"], "time": [3747, 3785, 3950]}, "edge": {"target": [], "time": []}}, "mouseout": {"state": {"target": ["0", "1", "2", "3"], "time": [3636, 3773, 3849, 4467]}, "edge": {"target": [], "time": []}}}, "displayed_time": "16.79", "trialTime": 21296, "trial_type": "mouselab-mdp", "trial_index": 10, "time_elapsed": 482631, "internal_node_id": "0.0-6.0-1.0-1.0"}}, {"uniqueid": "w74769093:a54106959", "current_trial": 11, "dateTime": 1693835360503, "trialdata": {"revealed_states": [], "clicked_states": [], "num_clicks_accrued": [0, 0, 0, 0, 0, 0, 0, 0, 0, 0, 0, 0, 0], "stateRewards": ["", 2, -3, -4, -1, 25, -16, 16, 10, -71, -20, -55, 1, 3, -4, -9, 1, 32, 11, -6, 32, -50, -41, -1, 4, 4, -8, 7, -81, 70, 2, -52, 45, -10], "withholdReward": false, "trial_id": "mdp_trial_3", "block": "test", "trialIndex": 4, "score": -43, "costs": 0, "simulationMode": [null, null, null, null, null], "rewards": [-1, 4, 4, 2, -52], "path": ["0", "0", "23", "24", "25", "30", "31"], "rt": [3412, 334, 185, 793, 151], "actions": ["left", "left", "left", "down", "right"], "actionTimes": [8800, 9637, 10373, 11672, 12332], "queries": {"click": {"state": {"target": [], "time": []}, "edge": {"target": [], "time": []}}, "mouseover": {"state": {"target": ["0"], "time": [5932]}, "edge": {"target": [], "time": []}}, "mouseout": {"state": {"target": ["0", "0"], "time": [3797, 6351]}, "edge": {"target": [], "time": []}}}, "displayed_time": "19.39", "trialTime": 22223, "trial_type": "mouselab-mdp", "trial_index": 11, "time_elapsed": 505833, "internal_node_id": "0.0-6.0-1.0-2.0"}}, {"uniqueid": "w74769093:a54106959", "current_trial": 12, "dateTime": 1693835383813, "trialdata": {"revealed_states": [], "clicked_states": ["9", "29"], "num_clicks_accrued": [0, 0, 0, 0, 0, 0, 0, 0, 0, 0, 0, 0, 0], "stateRewards": ["", 2, 3, -1, 6, 44, -4, -59, -14, -3, 64, 16, 1, -3, 3, 6, 3, 49, 19, 3, -49, -14, -86, 1, 2, -3, -8, -33, 14, 32, -13, -77, -47, -67], "withholdReward": false, "trial_id": "mdp_trial_4", "block": "test", "trialIndex": 5, "score": 19.7, "costs": -4.3, "simulationMode": [null, null, null, null, null], "rewards": [1, 2, -3, -8, 32], "path": ["0", "0", "23", "24", "25", "26", "29"], "rt": [11737, 49, 103, 627, 172], "actions": ["left", "left", "left", "up", "left"], "actionTimes": [14097, 14651, 15281, 16427, 17106], "queries": {"click": {"state": {"target": ["9", "29"], "time": [4196, 9289]}, "edge": {"target": [], "time": []}}, "mouseover": {"state": {"target": ["0", "23", "9", "8", "10", "31", "30", "25", "29", "30", "32"], "time": [2746, 2869, 3101, 5552, 5715, 7937, 8132, 8235, 8361, 12780, 13064]}, "edge": {"target": [], "time": []}}, "mouseout": {"state": {"target": ["0", "0", "23", "9", "8", "10", "31", "30", "25", "29", "30"], "time": [1061, 2798, 2883, 5526, 5654, 5782, 7980, 8196, 8259, 12730, 12930]}, "edge": {"target": [], "time": []}}}, "displayed_time": "17.60", "trialTime": 22286, "trial_type": "mouselab-mdp", "trial_index": 12, "time_elapsed": 529143, "internal_node_id": "0.0-6.0-1.0-3.0"}}, {"uniqueid": "w74769093:a54106959", "current_trial": 13, "dateTime": 1693835406532, "trialdata": {"revealed_states": [], "clicked_states": ["32"], "num_clicks_accrued": [0, 0, 0, 0, 0, 0, 0, 0, 0, 0, 0, 0, 0], "stateRewards": ["", -2, 2, 2, -6, 9, 37, 50, -13, -7, -18, -75, -2, -4, 4, 7, 23, -57, -66, -7, -81, -48, -76, 1, 1, -8, 1, 51, -2, 70, 14, 59, 71, -37], "withholdReward": false, "trial_id": "mdp_trial_5", "block": "test", "trialIndex": 6, "score": 76.85, "costs": -2.15, "simulationMode": [null, null, null, null, null], "rewards": [1, 1, -8, 14, 71], "path": ["0", "0", "23", "24", "25", "30", "32"], "rt": [6924, 188, 192, 181, 179], "actions": ["left", "left", "left", "down", "down"], "actionTimes": [9178, 9870, 10559, 11300, 11978], "queries": {"click": {"state": {"target": ["32"], "time": [4251]}, "edge": {"target": [], "time": []}}, "mouseover": {"state": {"target": ["32"], "time": [3251]}, "edge": {"target": [], "time": []}}, "mouseout": {"state": {"target": ["32", "0"], "time": [820, 2916]}, "edge": {"target": [], "time": []}}}, "displayed_time": "16.27", "trialTime": 21707, "trial_type": "mouselab-mdp", "trial_index": 13, "time_elapsed": 551862, "internal_node_id": "0.0-6.0-1.0-4.0"}}, {"uniqueid": "w74769093:a54106959", "current_trial": 14, "dateTime": 1693835428256, "trialdata": {"revealed_states": [], "clicked_states": ["5"], "num_clicks_accrued": [0, 0, 0, 0, 0, 0, 0, 0, 0, 0, 0, 0, 0], "stateRewards": ["", 2, 3, 3, 10, 19, -21, 6, 9, 54, 68, 16, 2, 2, -6, -8, 40, -2, -75, -2, -42, 55, 59, -1, 2, 4, -14, 11, -34, -30, -6, 61, -53, 13], "withholdReward": false, "trial_id": "mdp_trial_6", "block": "test", "trialIndex": 7, "score": 34.85, "costs": -2.15, "simulationMode": [null, null, null, null, null], "rewards": [2, 3, 3, 10, 19], "path": ["0", "0", "1", "2", "3", "4", "5"], "rt": [7085, 20, 87, 563, 118], "actions": ["up", "up", "up", "right", "up"], "actionTimes": [9260, 9819, 10426, 11489, 12111], "queries": {"click": {"state": {"target": ["5"], "time": [4746]}, "edge": {"target": [], "time": []}}, "mouseover": {"state": {"target": ["7", "4", "5"], "time": [3655, 3788, 4071]}, "edge": {"target": [], "time": []}}, "mouseout": {"state": {"target": ["32", "0", "7", "4"], "time": [822, 3572, 3723, 3972]}, "edge": {"target": [], "time": []}}}, "displayed_time": "16.19", "trialTime": 20661, "trial_type": "mouselab-mdp", "trial_index": 14, "time_elapsed": 573587, "internal_node_id": "0.0-6.0-1.0-5.0"}}, {"uniqueid": "w74769093:a54106959", "current_trial": 15, "dateTime": 1693835449246, "trialdata": {"revealed_states": [], "clicked_states": ["6"], "num_clicks_accrued": [0, 0, 0, 0, 0, 0, 0, 0, 0, 0, 0, 0, 0], "stateRewards": ["", 2, -1, 1, 10, -52, 86, -22, -2, -14, -63, 38, 1, 3, 7, -8, 11, -32, -27, 9, -71, 40, -87, -2, -1, 5, -7, 12, 31, -57, 13, 86, -58, 29], "withholdReward": false, "trial_id": "mdp_trial_7", "block": "test", "trialIndex": 8, "score": 95.85, "costs": -2.15, "simulationMode": [null, null, null, null, null], "rewards": [2, -1, 1, 10, 86], "path": ["0", "0", "1", "2", "3", "4", "6"], "rt": [7242, 17, 165, 885, 267], "actions": ["up", "up", "up", "right", "right"], "actionTimes": [9630, 10145, 10832, 12260, 13065], "queries": {"click": {"state": {"target": ["6"], "time": [4211]}, "edge": {"target": [], "time": []}}, "mouseover": {"state": {"target": ["0", "1", "7", "6"], "time": [2674, 3106, 3157, 3691]}, "edge": {"target": [], "time": []}}, "mouseout": {"state": {"target": ["5", "4", "0", "0", "0", "1", "7"], "time": [915, 939, 1089, 1323, 3056, 3124, 3208]}, "edge": {"target": [], "time": []}}}, "displayed_time": "16.39", "trialTime": 19803, "trial_type": "mouselab-mdp", "trial_index": 15, "time_elapsed": 594577, "internal_node_id": "0.0-6.0-1.0-6.0"}}, {"uniqueid": "w74769093:a54106959", "current_trial": 16, "dateTime": 1693835475837, "trialdata": {"revealed_states": [], "clicked_states": ["32", "29", "20"], "num_clicks_accrued": [0, 0, 0, 0, 0, 0, 0, 0, 0, 0, 0, 0, 0], "stateRewards": ["", -2, 2, 3, -7, -31, -33, 29, -8, -57, 50, -83, -1, -1, 5, 13, -23, -62, 25, 5, -66, -85, 14, 1, -2, -1, 16, 71, 33, -19, -14, 5, -43, 79], "withholdReward": false, "trial_id": "mdp_trial_8", "block": "test", "trialIndex": 9, "score": -65.45, "costs": -6.449999999999999, "simulationMode": [null, null, null, null, null], "rewards": [1, -2, -1, -14, -43], "path": ["0", "0", "23", "24", "25", "30", "32"], "rt": [15781, 262, 49, 1188, 518], "actions": ["left", "left", "left", "down", "down"], "actionTimes": [18273, 19060, 19614, 21356, 22380], "queries": {"click": {"state": {"target": ["32", "29", "20"], "time": [3922, 8087, 12808]}, "edge": {"target": [], "time": []}}, "mouseover": {"state": {"target": ["0", "31", "30", "32", "30", "29", "26", "23", "20"], "time": [2962, 3027, 3160, 3491, 7430, 7609, 11615, 11664, 12375]}, "edge": {"target": [], "time": []}}, "mouseout": {"state": {"target": ["6", "0", "31", "30", "32", "30", "29", "26", "23"], "time": [751, 2978, 3076, 3242, 7398, 7445, 11610, 11629, 11693]}, "edge": {"target": [], "time": []}}}, "displayed_time": "22.88", "trialTime": 25554, "trial_type": "mouselab-mdp", "trial_index": 16, "time_elapsed": 621168, "internal_node_id": "0.0-6.0-1.0-7.0"}}, {"uniqueid": "w74769093:a54106959", "current_trial": 17, "dateTime": 1693835495736, "trialdata": {"revealed_states": [], "clicked_states": ["9"], "num_clicks_accrued": [0, 0, 0, 0, 0, 0, 0, 0, 0, 0, 0, 0, 0], "stateRewards": ["", 1, -2, 7, -14, 88, -56, -44, -14, 64, -51, -57, -2, 3, -4, -9, -11, 19, -77, -1, 68, 75, -67, -1, 1, -2, 5, -37, 70, -34, -10, -72, 63, -41], "withholdReward": false, "trial_id": "mdp_trial_9", "block": "test", "trialIndex": 10, "score": 53.85, "costs": -2.15, "simulationMode": [null, null, null, null, null], "rewards": [1, -2, 7, -14, 64], "path": ["0", "0", "1", "2", "3", "8", "9"], "rt": [6371, 10, 2, 182, 59], "actions": ["up", "up", "up", "left", "up"], "actionTimes": [9741, 10245, 10789, 11516, 12093], "queries": {"click": {"state": {"target": ["9"], "time": [5497]}, "edge": {"target": [], "time": []}}, "mouseover": {"state": {"target": ["1", "2", "3", "9", "8", "10"], "time": [4163, 4363, 4668, 4997, 7734, 7799]}, "edge": {"target": [], "time": []}}, "mouseout": {"state": {"target": ["20", "19", "22", "0", "1", "2", "3", "9", "8", "10"], "time": [1378, 1411, 1478, 4130, 4296, 4483, 4848, 5721, 7756, 7998]}, "edge": {"target": [], "time": []}}}, "displayed_time": "17.38", "trialTime": 19006, "trial_type": "mouselab-mdp", "trial_index": 17, "time_elapsed": 641066, "internal_node_id": "0.0-6.0-1.0-8.0"}}, {"uniqueid": "w74769093:a54106959", "current_trial": 18, "dateTime": 1693835515152, "trialdata": {"revealed_states": [], "clicked_states": ["32"], "num_clicks_accrued": [0, 0, 0, 0, 0, 0, 0, 0, 0, 0, 0, 0, 0], "stateRewards": ["", 1, 1, -5, 10, -31, 73, 14, -8, -23, 63, -70, -1, 2, 8, 7, 25, -59, 27, -10, -40, -71, -15, -2, 3, -8, -5, -19, 77, -34, 7, 67, 63, 19], "withholdReward": false, "trial_id": "mdp_trial_10", "block": "test", "trialIndex": 11, "score": 60.85, "costs": -2.15, "simulationMode": [null, null, null, null, null], "rewards": [-2, 3, -8, 7, 63], "path": ["0", "0", "23", "24", "25", "30", "32"], "rt": [6160, 417, 182, 1013, 478], "actions": ["left", "left", "left", "down", "down"], "actionTimes": [8493, 9431, 10131, 11682, 12660], "queries": {"click": {"state": {"target": ["32"], "time": [3686]}, "edge": {"target": [], "time": []}}, "mouseover": {"state": {"target": ["0", "31", "32"], "time": [2795, 2910, 3131]}, "edge": {"target": [], "time": []}}, "mouseout": {"state": {"target": ["12", "0", "31"], "time": [1277, 2828, 2978]}, "edge": {"target": [], "time": []}}}, "displayed_time": "16.34", "trialTime": 18353, "trial_type": "mouselab-mdp", "trial_index": 18, "time_elapsed": 660482, "internal_node_id": "0.0-6.0-1.0-9.0"}}, {"uniqueid": "w74769093:a54106959", "current_trial": 19, "dateTime": 1693835536516, "trialdata": {"revealed_states": [], "clicked_states": ["6"], "num_clicks_accrued": [0, 0, 0, 0, 0, 0, 0, 0, 0, 0, 0, 0, 0], "stateRewards": ["", -1, 4, 3, 12, -27, 34, -33, 3, -63, 1, 6, 2, 2, -6, -11, -77, -85, 68, -6, 51, 81, -60, -2, -2, 1, 15, 20, 15, 68, -10, -14, 6, -4], "withholdReward": false, "trial_id": "mdp_trial_11", "block": "test", "trialIndex": 12, "score": 49.85, "costs": -2.15, "simulationMode": [null, null, null, null, null], "rewards": [-1, 4, 3, 12, 34], "path": ["0", "0", "1", "2", "3", "4", "6"], "rt": [7249, 95, 75, 1158, 355], "actions": ["up", "up", "up", "right", "right"], "actionTimes": [11117, 11714, 12293, 13995, 14857], "queries": {"click": {"state": {"target": ["6"], "time": [6641]}, "edge": {"target": [], "time": []}}, "mouseover": {"state": {"target": ["31", "28", "7", "4", "6"], "time": [4653, 5134, 5465, 5930, 6048]}, "edge": {"target": [], "time": []}}, "mouseout": {"state": {"target": ["32", "31", "0", "31", "28", "7", "4", "6"], "time": [1197, 1248, 4635, 4747, 5164, 5497, 5964, 9906]}, "edge": {"target": [], "time": []}}}, "displayed_time": "17.88", "trialTime": 20420, "trial_type": "mouselab-mdp", "trial_index": 19, "time_elapsed": 681847, "internal_node_id": "0.0-6.0-1.0-10.0"}}, {"uniqueid": "w74769093:a54106959", "current_trial": 20, "dateTime": 1693835556119, "trialdata": {"revealed_states": [], "clicked_states": ["21"], "num_clicks_accrued": [0, 0, 0, 0, 0, 0, 0, 0, 0, 0, 0, 0, 0], "stateRewards": ["", -1, 4, -5, 9, 29, -75, -42, -16, 24, -28, -41, 2, -3, 1, 10, 60, 47, 55, -1, -53, 22, -40, 2, -3, -6, 4, -26, 44, 54, 15, -76, 42, 14], "withholdReward": false, "trial_id": "mdp_trial_12", "block": "test", "trialIndex": 13, "score": 18.85, "costs": -2.15, "simulationMode": [null, null, null, null, null], "rewards": [2, -3, 1, -1, 22], "path": ["0", "0", "12", "13", "14", "19", "21"], "rt": [5928, 420, 125, 394, 242], "actions": ["right", "right", "right", "down", "down"], "actionTimes": [7804, 8722, 9343, 10245, 10993], "queries": {"click": {"state": {"target": ["21"], "time": [3338]}, "edge": {"target": [], "time": []}}, "mouseover": {"state": {"target": ["12", "19", "21"], "time": [2402, 2448, 2883]}, "edge": {"target": [], "time": []}}, "mouseout": {"state": {"target": ["0", "12", "19"], "time": [2398, 2416, 2480]}, "edge": {"target": [], "time": []}}}, "displayed_time": "15.88", "trialTime": 18604, "trial_type": "mouselab-mdp", "trial_index": 20, "time_elapsed": 701449, "internal_node_id": "0.0-6.0-1.0-11.0"}}, {"uniqueid": "w74769093:a54106959", "current_trial": 21, "dateTime": 1693835577299, "trialdata": {"revealed_states": [], "clicked_states": ["11", "16"], "num_clicks_accrued": [0, 0, 0, 0, 0, 0, 0, 0, 0, 0, 0, 0, 0], "stateRewards": ["", -2, -4, -6, 12, -58, -70, -80, 2, 16, -88, -62, 1, 2, -5, 11, 77, -35, -44, -5, 18, -83, 87, 1, -3, -5, 13, -44, -21, -86, 10, -52, 8, 29], "withholdReward": false, "trial_id": "mdp_trial_13", "block": "test", "trialIndex": 14, "score": 81.7, "costs": -4.3, "simulationMode": [null, null, null, null, null], "rewards": [1, 2, -5, 11, 77], "path": ["0", "0", "12", "13", "14", "15", "16"], "rt": [10910, 234, 310, 935, 94], "actions": ["right", "right", "right", "up", "up"], "actionTimes": [13148, 13887, 14695, 16152, 16745], "queries": {"click": {"state": {"target": ["11", "16"], "time": [4400, 8871]}, "edge": {"target": [], "time": []}}, "mouseover": {"state": {"target": ["1", "3", "8", "11", "8", "3", "4", "16"], "time": [3184, 3529, 3596, 3814, 7901, 7926, 7952, 8234]}, "edge": {"target": [], "time": []}}, "mouseout": {"state": {"target": ["21", "0", "1", "3", "8", "11", "8", "3", "4"], "time": [613, 1065, 3199, 3555, 3713, 7884, 7921, 7947, 7968]}, "edge": {"target": [], "time": []}}}, "displayed_time": "17.27", "trialTime": 20233, "trial_type": "mouselab-mdp", "trial_index": 21, "time_elapsed": 722629, "internal_node_id": "0.0-6.0-1.0-12.0"}}, {"uniqueid": "w74769093:a54106959", "current_trial": 22, "dateTime": 1693835597104, "trialdata": {"revealed_states": [], "clicked_states": [], "num_clicks_accrued": [0, 0, 0, 0, 0, 0, 0, 0, 0, 0, 0, 0, 0], "stateRewards": ["", 2, -4, 4, 9, 69, 9, -75, 12, -86, 66, 25, -1, 3, 2, -13, -88, -3, 1, 4, -69, 49, -84, 2, -1, 4, 2, -18, -81, -52, -15, -69, -54, 25], "withholdReward": false, "trial_id": "mdp_trial_14", "block": "test", "trialIndex": 15, "score": -74, "costs": 0, "simulationMode": [null, null, null, null, null], "rewards": [2, -1, 4, 2, -81], "path": ["0", "0", "23", "24", "25", "26", "28"], "rt": [8062, 627, 188, 549, 72], "actions": ["left", "left", "left", "up", "right"], "actionTimes": [10441, 11575, 12294, 13375, 13995], "queries": {"click": {"state": {"target": [], "time": []}, "edge": {"target": [], "time": []}}, "mouseover": {"state": {"target": ["10", "3", "3", "8", "9", "8", "25", "33", "29", "25"], "time": [3621, 3696, 3975, 4175, 4409, 4647, 4952, 5242, 5724, 9160]}, "edge": {"target": [], "time": []}}, "mouseout": {"state": {"target": ["16", "0", "10", "3", "3", "8", "9", "8", "25", "33", "29", "25"], "time": [622, 3543, 3677, 3825, 4124, 4224, 4642, 4675, 5046, 5394, 9043, 9243]}, "edge": {"target": [], "time": []}}}, "displayed_time": "16.38", "trialTime": 18399, "trial_type": "mouselab-mdp", "trial_index": 22, "time_elapsed": 742434, "internal_node_id": "0.0-6.0-1.0-13.0"}}, {"uniqueid": "w74769093:a54106959", "current_trial": 23, "dateTime": 1693835616085, "trialdata": {"revealed_states": [], "clicked_states": ["17"], "num_clicks_accrued": [0, 0, 0, 0, 0, 0, 0, 0, 0, 0, 0, 0, 0], "stateRewards": ["", -1, 4, -8, 12, 14, 69, -8, 5, -72, -14, 56, -1, -1, -1, 9, 67, 19, 11, -9, -88, -58, 3, 2, -4, -8, 4, 62, 77, -74, 5, -31, 65, 88], "withholdReward": false, "trial_id": "mdp_trial_15", "block": "test", "trialIndex": 16, "score": 22.85, "costs": -2.15, "simulationMode": [null, null, null, null, null], "rewards": [-1, -1, -1, 9, 19], "path": ["0", "0", "12", "13", "14", "15", "17"], "rt": [5966, 144, 202, 497, 133], "actions": ["right", "right", "right", "up", "right"], "actionTimes": [7836, 8491, 9205, 10221, 10874], "queries": {"click": {"state": {"target": ["17"], "time": [3225]}, "edge": {"target": [], "time": []}}, "mouseover": {"state": {"target": ["18", "15", "17"], "time": [2427, 2482, 2513]}, "edge": {"target": [], "time": []}}, "mouseout": {"state": {"target": ["12", "0", "18", "15"], "time": [628, 2375, 2445, 2509]}, "edge": {"target": [], "time": []}}}, "displayed_time": "15.89", "trialTime": 17865, "trial_type": "mouselab-mdp", "trial_index": 23, "time_elapsed": 761415, "internal_node_id": "0.0-6.0-1.0-14.0"}}, {"uniqueid": "w74769093:a54106959", "current_trial": 24, "dateTime": 1693835634530, "trialdata": {"revealed_states": [], "clicked_states": ["9"], "num_clicks_accrued": [0, 0, 0, 0, 0, 0, 0, 0, 0, 0, 0, 0, 0], "stateRewards": ["", 1, 1, -3, 2, 22, -25, -11, -5, 50, 49, 3, 1, -1, 8, 14, -85, -30, 57, -6, -39, -16, 59, -2, -1, 5, 5, 59, -16, 8, 4, 67, 56, -9], "withholdReward": false, "trial_id": "mdp_trial_16", "block": "test", "trialIndex": 17, "score": 41.85, "costs": -2.15, "simulationMode": [null, null, null, null, null], "rewards": [1, 1, -3, -5, 50], "path": ["0", "0", "1", "2", "3", "8", "9"], "rt": [5994, 392, 138, 951, 412], "actions": ["up", "up", "up", "left", "up"], "actionTimes": [8071, 8995, 9626, 11074, 11983], "queries": {"click": {"state": {"target": ["9"], "time": [3622]}, "edge": {"target": [], "time": []}}, "mouseover": {"state": {"target": ["1", "3", "9", "2", "1", "12", "22"], "time": [2617, 2866, 3135, 6967, 7003, 7036, 7067]}, "edge": {"target": [], "time": []}}, "mouseout": {"state": {"target": ["17", "13", "12", "0", "1", "3", "9", "2", "1", "12", "22"], "time": [718, 765, 783, 1165, 2635, 2916, 6950, 7000, 7032, 7051, 7084]}, "edge": {"target": [], "time": []}}}, "displayed_time": "16.08", "trialTime": 17367, "trial_type": "mouselab-mdp", "trial_index": 24, "time_elapsed": 779861, "internal_node_id": "0.0-6.0-1.0-15.0"}}, {"uniqueid": "w74769093:a54106959", "current_trial": 25, "dateTime": 1693835657905, "trialdata": {"revealed_states": [], "clicked_states": ["29", "5", "16"], "num_clicks_accrued": [0, 0, 0, 0, 0, 0, 0, 0, 0, 0, 0, 0, 0], "stateRewards": ["", -1, -3, 4, -10, -5, 79, -87, -2, 53, 29, -20, -2, -1, -5, 10, 27, 86, 46, -16, -29, 40, 3, 2, 4, -1, -6, 37, 79, -29, 7, 86, -62, 29], "withholdReward": false, "trial_id": "mdp_trial_17", "block": "test", "trialIndex": 18, "score": 22.55, "costs": -6.449999999999999, "simulationMode": [null, null, null, null, null], "rewards": [-2, -1, -5, 10, 27], "path": ["0", "0", "12", "13", "14", "15", "16"], "rt": [15275, 120, 94, 93, 39], "actions": ["right", "right", "right", "up", "up"], "actionTimes": [17541, 18156, 18763, 19363, 19925], "queries": {"click": {"state": {"target": ["29", "5", "16"], "time": [3632, 8159, 13025]}, "edge": {"target": [], "time": []}}, "mouseover": {"state": {"target": ["31", "30", "29", "8", "5", "5", "6", "16", "17", "17", "16", "18"], "time": [2914, 2948, 3147, 7199, 7299, 7696, 11498, 11550, 11632, 12402, 12518, 16198]}, "edge": {"target": [], "time": []}}, "mouseout": {"state": {"target": ["21", "12", "0", "0", "31", "30", "29", "8", "5", "5", "6", "16", "17", "17", "16", "16", "18"], "time": [914, 1023, 1079, 2881, 2931, 2965, 7117, 7232, 7332, 11481, 11532, 11582, 12016, 12482, 13243, 16015, 16248]}, "edge": {"target": [], "time": []}}}, "displayed_time": "20.42", "trialTime": 22438, "trial_type": "mouselab-mdp", "trial_index": 25, "time_elapsed": 803235, "internal_node_id": "0.0-6.0-1.0-16.0"}}, {"uniqueid": "w74769093:a54106959", "current_trial": 26, "dateTime": 1693835675871, "trialdata": {"revealed_states": [], "clicked_states": ["32"], "num_clicks_accrued": [0, 0, 0, 0, 0, 0, 0, 0, 0, 0, 0, 0, 0], "stateRewards": ["", -2, -1, -2, -15, 87, 57, 29, -10, 77, -80, -7, 1, -3, 6, 14, -11, 87, -59, 4, -71, 16, -11, 2, 2, -7, 2, -47, 61, 50, 14, -20, 17, 81], "withholdReward": false, "trial_id": "mdp_trial_18", "block": "test", "trialIndex": 19, "score": 25.85, "costs": -2.15, "simulationMode": [null, null, null, null, null], "rewards": [2, 2, -7, 14, 17], "path": ["0", "0", "23", "24", "25", "30", "32"], "rt": [5510, 159, 554, 798, 4], "actions": ["left", "left", "left", "down", "down"], "actionTimes": [7233, 7900, 8966, 10278, 10798], "queries": {"click": {"state": {"target": ["32"], "time": [3077]}, "edge": {"target": [], "time": []}}, "mouseover": {"state": {"target": ["31", "32"], "time": [2371, 2636]}, "edge": {"target": [], "time": []}}, "mouseout": {"state": {"target": ["12", "0", "31"], "time": [669, 2286, 2452]}, "edge": {"target": [], "time": []}}}, "displayed_time": "15.73", "trialTime": 16893, "trial_type": "mouselab-mdp", "trial_index": 26, "time_elapsed": 821201, "internal_node_id": "0.0-6.0-1.0-17.0"}}, {"uniqueid": "w74769093:a54106959", "current_trial": 27, "dateTime": 1693835698019, "trialdata": {"revealed_states": [], "clicked_states": ["6", "7"], "num_clicks_accrued": [0, 0, 0, 0, 0, 0, 0, 0, 0, 0, 0, 0, 0], "stateRewards": ["", -2, 1, -8, 12, -65, -79, 16, 7, -80, -17, -45, -2, 2, -5, -2, -85, 23, -4, -7, 48, 27, -76, 2, 3, 5, 2, 43, 71, -13, 7, -49, 59, -31], "withholdReward": false, "trial_id": "mdp_trial_19", "block": "test", "trialIndex": 20, "score": 14.7, "costs": -4.3, "simulationMode": [null, null, null, null, null], "rewards": [-2, 1, -8, 12, 16], "path": ["0", "0", "1", "2", "3", "4", "7"], "rt": [11251, 499, 398, 490, 88], "actions": ["up", "up", "up", "right", "down"], "actionTimes": [13281, 14275, 15189, 16213, 16803], "queries": {"click": {"state": {"target": ["6", "7"], "time": [3724, 8954]}, "edge": {"target": [], "time": []}}, "mouseover": {"state": {"target": ["6", "2", "11", "11", "7", "7"], "time": [3138, 7387, 7438, 7921, 8155, 8509]}, "edge": {"target": [], "time": []}}, "mouseout": {"state": {"target": ["32", "0", "6", "2", "11", "11", "7"], "time": [754, 2904, 7355, 7404, 7456, 8056, 8438]}, "edge": {"target": [], "time": []}}}, "displayed_time": "17.31", "trialTime": 21208, "trial_type": "mouselab-mdp", "trial_index": 27, "time_elapsed": 843350, "internal_node_id": "0.0-6.0-1.0-18.0"}}, {"uniqueid": "w74769093:a54106959", "current_trial": 28, "dateTime": 1693835717211, "trialdata": {"revealed_states": [], "clicked_states": [], "num_clicks_accrued": [0, 0, 0, 0, 0, 0, 0, 0, 0, 0, 0, 0, 0], "stateRewards": ["", 2, -3, 5, -14, -63, -9, -24, -11, -54, -43, 68, 2, -2, -4, 7, -64, 30, 47, 12, -74, 11, 86, 1, -3, 3, 10, -71, -42, -52, -1, -29, -16, 69], "withholdReward": false, "trial_id": "mdp_trial_20", "block": "test", "trialIndex": 21, "score": -73, "costs": 0, "simulationMode": [null, null, null, null, null], "rewards": [2, -3, 5, -14, -63], "path": ["0", "0", "1", "2", "3", "4", "5"], "rt": [7030, 357, 301, 859, 11], "actions": ["up", "up", "up", "right", "up"], "actionTimes": [8894, 9760, 10602, 11961, 12479], "queries": {"click": {"state": {"target": [], "time": []}, "edge": {"target": [], "time": []}}, "mouseover": {"state": {"target": ["31", "30", "32", "30", "24", "7", "6", "5"], "time": [2760, 2976, 3047, 3581, 3652, 4281, 4519, 5247]}, "edge": {"target": [], "time": []}}, "mouseout": {"state": {"target": ["7", "0", "31", "30", "32", "30", "24", "7", "6", "5"], "time": [563, 2660, 2786, 3014, 3565, 3632, 3675, 4430, 4681, 6439]}, "edge": {"target": [], "time": []}}}, "displayed_time": "15.86", "trialTime": 18026, "trial_type": "mouselab-mdp", "trial_index": 28, "time_elapsed": 862541, "internal_node_id": "0.0-6.0-1.0-19.0"}}, {"uniqueid": "w74769093:a54106959", "current_trial": 29, "dateTime": 1693835737289, "trialdata": {"revealed_states": [], "clicked_states": ["5"], "num_clicks_accrued": [0, 0, 0, 0, 0, 0, 0, 0, 0, 0, 0, 0, 0], "stateRewards": ["", -2, 3, 8, -9, 59, 41, -50, -1, 82, 66, 33, 2, -2, 7, 8, 1, -38, 12, -16, 24, -37, 67, 1, 4, -2, 5, 35, -83, 28, 8, -27, 69, -64], "withholdReward": false, "trial_id": "mdp_trial_21", "block": "test", "trialIndex": 22, "score": 56.85, "costs": -2.15, "simulationMode": [null, null, null, null, null], "rewards": [-2, 3, 8, -9, 59], "path": ["0", "0", "1", "2", "3", "4", "5"], "rt": [5477, 49, 80, 760, 129], "actions": ["up", "up", "up", "right", "up"], "actionTimes": [9269, 9829, 10434, 11704, 12334], "queries": {"click": {"state": {"target": ["5"], "time": [4968]}, "edge": {"target": [], "time": []}}, "mouseover": {"state": {"target": ["7", "4", "5", "6", "16", "15", "17"], "time": [4318, 4357, 4421, 6569, 6753, 7303, 7903]}, "edge": {"target": [], "time": []}}, "mouseout": {"state": {"target": ["4", "8", "11", "28", "0", "7", "4", "5", "6", "16", "15", "17"], "time": [2234, 2284, 2318, 2435, 4261, 4337, 4386, 6478, 6656, 6773, 7339, 8369]}, "edge": {"target": [], "time": []}}}, "displayed_time": "17.85", "trialTime": 19091, "trial_type": "mouselab-mdp", "trial_index": 29, "time_elapsed": 882619, "internal_node_id": "0.0-6.0-1.0-20.0"}}, {"uniqueid": "w74769093:a54106959", "current_trial": 30, "dateTime": 1693835758598, "trialdata": {"revealed_states": [], "clicked_states": ["7", "9"], "num_clicks_accrued": [0, 0, 0, 0, 0, 0, 0, 0, 0, 0, 0, 0, 0], "stateRewards": ["", -1, -4, -6, -15, 21, -67, -63, 9, 51, 69, -14, -1, 3, 8, -8, 39, 72, 63, 15, 19, 47, 15, 1, 4, 5, 16, -18, 34, 35, -14, -80, 40, 1], "withholdReward": false, "trial_id": "mdp_trial_22", "block": "test", "trialIndex": 23, "score": 44.7, "costs": -4.3, "simulationMode": [null, null, null, null, null], "rewards": [-1, -4, -6, 9, 51], "path": ["0", "0", "1", "2", "3", "8", "9"], "rt": [10081, 144, 150, 889, 367], "actions": ["up", "up", "up", "left", "up"], "actionTimes": [12599, 13249, 13900, 15289, 16149], "queries": {"click": {"state": {"target": ["7", "9"], "time": [3776, 7688]}, "edge": {"target": [], "time": []}}, "mouseover": {"state": {"target": ["1", "7", "2", "3", "9", "8", "29"], "time": [3067, 3166, 7000, 7035, 7182, 9632, 11066]}, "edge": {"target": [], "time": []}}, "mouseout": {"state": {"target": ["16", "0", "1", "7", "2", "3", "9", "8", "29"], "time": [1299, 3037, 3116, 6966, 7017, 7051, 9591, 9870, 11084]}, "edge": {"target": [], "time": []}}}, "displayed_time": "16.65", "trialTime": 19898, "trial_type": "mouselab-mdp", "trial_index": 30, "time_elapsed": 903929, "internal_node_id": "0.0-6.0-1.0-21.0"}}, {"uniqueid": "w74769093:a54106959", "current_trial": 31, "dateTime": 1693835788387, "trialdata": {"revealed_states": [], "clicked_states": ["22", "16", "11", "6"], "num_clicks_accrued": [0, 0, 0, 0, 0, 0, 0, 0, 0, 0, 0, 0, 0], "stateRewards": ["", 2, -1, -4, -13, 74, 77, 3, 2, -43, -2, -11, 2, 3, 7, 11, -26, -29, -33, -3, -3, -13, -3, 1, 3, -7, 14, -59, 33, 9, -5, 34, 79, 68], "withholdReward": false, "trial_id": "mdp_trial_23", "block": "test", "trialIndex": 24, "score": 52.4, "costs": -8.6, "simulationMode": [null, null, null, null, null], "rewards": [2, -1, -4, -13, 77], "path": ["0", "0", "1", "2", "3", "4", "6"], "rt": [20341, 250, 220, 665, 92], "actions": ["up", "up", "up", "right", "right"], "actionTimes": [22926, 23681, 24401, 25579, 26190], "queries": {"click": {"state": {"target": ["22", "16", "11", "6"], "time": [5031, 9471, 14307, 18614]}, "edge": {"target": [], "time": []}}, "mouseover": {"state": {"target": ["30", "32", "12", "13", "19", "22", "13", "15", "16", "7", "2", "10", "1", "10", "8", "11", "8", "5", "6", "12"], "time": [3277, 3610, 3778, 3831, 4025, 4276, 8593, 8759, 8877, 12876, 12927, 13091, 13409, 13609, 13709, 13896, 17746, 17793, 18242, 21943]}, "edge": {"target": [], "time": []}}, "mouseout": {"state": {"target": ["24", "23", "30", "32", "12", "13", "19", "22", "13", "15", "16", "16", "7", "2", "10", "1", "10", "8", "11", "8", "5", "6", "12"], "time": [1175, 1208, 3410, 3696, 3800, 3860, 4162, 8559, 8649, 8811, 9694, 12792, 12909, 12976, 13326, 13559, 13643, 13743, 17743, 17761, 17826, 21860, 21993]}, "edge": {"target": [], "time": []}}}, "displayed_time": "26.70", "trialTime": 28583, "trial_type": "mouselab-mdp", "trial_index": 31, "time_elapsed": 933717, "internal_node_id": "0.0-6.0-1.0-22.0"}}, {"uniqueid": "w74769093:a54106959", "current_trial": 32, "dateTime": 1693835807626, "trialdata": {"revealed_states": [], "clicked_states": ["17"], "num_clicks_accrued": [0, 0, 0, 0, 0, 0, 0, 0, 0, 0, 0, 0, 0], "stateRewards": ["", 2, 3, 6, -12, -29, 12, 87, 4, 35, -30, 67, 2, 3, -5, -9, 44, 69, -8, 1, 45, -8, 28, -2, -1, -8, 11, -12, -5, 81, 9, 87, 82, 88], "withholdReward": false, "trial_id": "mdp_trial_24", "block": "test", "trialIndex": 25, "score": 57.85, "costs": -2.15, "simulationMode": [null, null, null, null, null], "rewards": [2, 3, -5, -9, 69], "path": ["0", "0", "12", "13", "14", "15", "17"], "rt": [5944, 109, 83, 247, 79], "actions": ["right", "right", "right", "up", "right"], "actionTimes": [7897, 8511, 9119, 9871, 10448], "queries": {"click": {"state": {"target": ["17"], "time": [3733]}, "edge": {"target": [], "time": []}}, "mouseover": {"state": {"target": ["18", "17"], "time": [2514, 3282]}, "edge": {"target": [], "time": []}}, "mouseout": {"state": {"target": ["0", "18", "17", "17", "14", "31"], "time": [2466, 2614, 3940, 4758, 16599, 16749]}, "edge": {"target": [], "time": []}}}, "displayed_time": "15.96", "trialTime": 17877, "trial_type": "mouselab-mdp", "trial_index": 32, "time_elapsed": 952957, "internal_node_id": "0.0-6.0-1.0-23.0"}}, {"uniqueid": "w74769093:a54106959", "current_trial": 33, "dateTime": 1693835825980, "trialdata": {"revealed_states": [], "clicked_states": ["33"], "num_clicks_accrued": [0, 0, 0, 0, 0, 0, 0, 0, 0, 0, 0, 0, 0], "stateRewards": ["", 1, 2, 3, 16, 63, -25, 16, -4, -14, 82, -66, -1, -3, -3, -11, -14, 19, 46, 3, -34, -82, 66, -2, -3, 4, -5, -63, 77, -37, -1, -45, -41, 84], "withholdReward": false, "trial_id": "mdp_trial_25", "block": "test", "trialIndex": 26, "score": 79.85, "costs": -2.15, "simulationMode": [null, null, null, null, null], "rewards": [-2, -3, 4, -1, 84], "path": ["0", "0", "23", "24", "25", "30", "33"], "rt": [5583, 114, 156, 650, 122], "actions": ["left", "left", "left", "down", "left"], "actionTimes": [7459, 8070, 8731, 9890, 10529], "queries": {"click": {"state": {"target": ["33"], "time": [3167]}, "edge": {"target": [], "time": []}}, "mouseover": {"state": {"target": ["30", "33"], "time": [2519, 2706]}, "edge": {"target": [], "time": []}}, "mouseout": {"state": {"target": ["31", "0", "30", "33"], "time": [511, 2413, 2636, 16485]}, "edge": {"target": [], "time": []}}}, "displayed_time": "15.88", "trialTime": 17351, "trial_type": "mouselab-mdp", "trial_index": 33, "time_elapsed": 971310, "internal_node_id": "0.0-6.0-1.0-24.0"}}, {"uniqueid": "w74769093:a54106959", "current_trial": 34, "dateTime": 1693835844351, "trialdata": {"revealed_states": [], "clicked_states": ["29", "9"], "num_clicks_accrued": [0, 0, 0, 0, 0, 0, 0, 0, 0, 0, 0, 0, 0], "stateRewards": ["", 1, -3, -1, 9, -34, -40, 22, -7, 45, 53, -11, 2, 4, 5, 15, 21, 37, -49, -3, 80, -28, -34, 1, -3, 1, 1, -40, -6, -5, -16, -85, -86, 59], "withholdReward": false, "trial_id": "mdp_trial_26", "block": "test", "trialIndex": 27, "score": 30.7, "costs": -4.3, "simulationMode": [null, null, null, null, null], "rewards": [1, -3, -1, -7, 45], "path": ["0", "0", "1", "2", "3", "8", "9"], "rt": [9207, 5, 77, 297, 337], "actions": ["up", "up", "up", "left", "up"], "actionTimes": [10905, 11422, 12029, 12835, 13673], "queries": {"click": {"state": {"target": ["29", "9"], "time": [2943, 6466]}, "edge": {"target": [], "time": []}}, "mouseover": {"state": {"target": ["23", "29", "26", "8", "3", "9", "6", "16", "16", "6", "5"], "time": [2228, 2329, 4559, 4680, 4708, 5264, 7244, 7285, 7743, 7843, 8382]}, "edge": {"target": [], "time": []}}, "mouseout": {"state": {"target": ["0", "0", "23", "29", "26", "8", "3", "9", "6", "16", "16", "6", "5", "4"], "time": [730, 2197, 2301, 4468, 4613, 4702, 4726, 7177, 7267, 7304, 7782, 8150, 16581, 16631]}, "edge": {"target": [], "time": []}}}, "displayed_time": "15.72", "trialTime": 17198, "trial_type": "mouselab-mdp", "trial_index": 34, "time_elapsed": 989681, "internal_node_id": "0.0-6.0-1.0-25.0"}}, {"uniqueid": "w74769093:a54106959", "current_trial": 35, "dateTime": 1693835866070, "trialdata": {"revealed_states": [], "clicked_states": ["20", "33"], "num_clicks_accrued": [0, 0, 0, 0, 0, 0, 0, 0, 0, 0, 0, 0, 0], "stateRewards": ["", -2, 4, 3, 5, -61, 4, 30, 1, -47, 83, 10, 1, 4, 7, -14, 19, -74, -83, 6, -2, -2, -65, -1, -2, 4, -11, 12, -1, -68, 11, -38, -28, 66], "withholdReward": false, "trial_id": "mdp_trial_27", "block": "test", "trialIndex": 28, "score": 73.7, "costs": -4.3, "simulationMode": [null, null, null, null, null], "rewards": [-1, -2, 4, 11, 66], "path": ["0", "0", "23", "24", "25", "30", "33"], "rt": [10117, 51, 88, 122, 304], "actions": ["left", "left", "left", "down", "left"], "actionTimes": [15285, 15844, 16499, 17163, 18058], "queries": {"click": {"state": {"target": ["20", "33"], "time": [6832, 11195]}, "edge": {"target": [], "time": []}}, "mouseover": {"state": {"target": ["12", "14", "20", "31", "30", "33", "27", "11", "9"], "time": [5950, 5987, 6299, 10321, 10426, 10604, 12354, 12409, 12684]}, "edge": {"target": [], "time": []}}, "mouseout": {"state": {"target": ["0", "12", "14", "20", "31", "30", "33", "27", "11"], "time": [4299, 5983, 6003, 7934, 10371, 10571, 11406, 12375, 12430]}, "edge": {"target": [], "time": []}}}, "displayed_time": "19.19", "trialTime": 20653, "trial_type": "mouselab-mdp", "trial_index": 35, "time_elapsed": 1011400, "internal_node_id": "0.0-6.0-1.0-26.0"}}, {"uniqueid": "w74769093:a54106959", "current_trial": 36, "dateTime": 1693835886257, "trialdata": {"revealed_states": [], "clicked_states": ["11"], "num_clicks_accrued": [0, 0, 0, 0, 0, 0, 0, 0, 0, 0, 0, 0, 0], "stateRewards": ["", -1, -3, -5, -14, -13, -47, 79, 8, -60, -64, 41, -1, 2, 3, 13, -46, 61, -79, -11, -64, -65, 23, 1, -2, 6, -14, 46, 32, 21, 7, 75, -66, 15], "withholdReward": false, "trial_id": "mdp_trial_28", "block": "test", "trialIndex": 29, "score": 37.85, "costs": -2.15, "simulationMode": [null, null, null, null, null], "rewards": [-1, -3, -5, 8, 41], "path": ["0", "0", "1", "2", "3", "8", "11"], "rt": [6675, 374, 145, 509, 61], "actions": ["up", "up", "up", "left", "left"], "actionTimes": [10190, 11096, 11749, 12763, 13391], "queries": {"click": {"state": {"target": ["11"], "time": [5457]}, "edge": {"target": [], "time": []}}, "mouseover": {"state": {"target": ["1", "2", "11", "23", "0", "6"], "time": [4441, 4640, 4905, 6518, 7543, 7671]}, "edge": {"target": [], "time": []}}, "mouseout": {"state": {"target": ["9", "3", "1", "2", "11", "23", "0"], "time": [1985, 2003, 4526, 4740, 6371, 6545, 7560]}, "edge": {"target": [], "time": []}}}, "displayed_time": "17.53", "trialTime": 18942, "trial_type": "mouselab-mdp", "trial_index": 36, "time_elapsed": 1031588, "internal_node_id": "0.0-6.0-1.0-27.0"}}, {"uniqueid": "w74769093:a54106959", "current_trial": 37, "dateTime": 1693835905237, "trialdata": {"revealed_states": [], "clicked_states": ["16"], "num_clicks_accrued": [0, 0, 0, 0, 0, 0, 0, 0, 0, 0, 0, 0, 0], "stateRewards": ["", 1, -4, -4, 8, 1, -79, 68, -10, -79, 8, -74, -1, -3, -6, 14, 43, 23, 9, 5, -51, 63, 61, -2, 4, 6, -10, 69, -32, 57, 15, -80, -80, -77], "withholdReward": false, "trial_id": "mdp_trial_29", "block": "test", "trialIndex": 30, "score": 44.85, "costs": -2.15, "simulationMode": [null, null, null, null, null], "rewards": [-1, -3, -6, 14, 43], "path": ["0", "0", "12", "13", "14", "15", "16"], "rt": [5906, 78, 82, 51, 522], "actions": ["right", "right", "right", "up", "up"], "actionTimes": [8293, 8895, 9483, 10050, 11089], "queries": {"click": {"state": {"target": ["16"], "time": [3973]}, "edge": {"target": [], "time": []}}, "mouseover": {"state": {"target": ["18", "15", "17", "16", "31"], "time": [3076, 3116, 3158, 3524, 7225]}, "edge": {"target": [], "time": []}}, "mouseout": {"state": {"target": ["6", "7", "18", "15", "17", "16", "31"], "time": [738, 967, 3105, 3150, 3253, 7180, 7274]}, "edge": {"target": [], "time": []}}}, "displayed_time": "16.39", "trialTime": 17965, "trial_type": "mouselab-mdp", "trial_index": 37, "time_elapsed": 1050567, "internal_node_id": "0.0-6.0-1.0-28.0"}}, {"uniqueid": "w74769093:a54106959", "current_trial": 38, "dateTime": 1693835935789, "trialdata": {"revealed_states": [], "clicked_states": ["33", "10", "28", "7", "20"], "num_clicks_accrued": [0, 0, 0, 0, 0, 0, 0, 0, 0, 0, 0, 0, 0], "stateRewards": ["", 2, -3, -5, 5, 11, -9, -33, 6, 67, 6, -30, -1, -2, -6, 13, 55, 13, 72, -14, 75, 21, -66, -2, -4, 6, 15, -1, -35, 60, 2, 51, -73, 12], "withholdReward": false, "trial_id": "mdp_trial_30", "block": "test", "trialIndex": 31, "score": 41.25, "costs": -10.75, "simulationMode": [null, null, null, null, null], "rewards": [-1, -2, -6, -14, 75], "path": ["0", "0", "12", "13", "14", "19", "20"], "rt": [22036, 13, 72, 225, 181], "actions": ["right", "right", "right", "down", "right"], "actionTimes": [24258, 24822, 25414, 26178, 26854], "queries": {"click": {"state": {"target": ["33", "10", "28", "7", "20"], "time": [3363, 7568, 12039, 16103, 19623]}, "edge": {"target": [], "time": []}}, "mouseover": {"state": {"target": ["24", "33", "28", "10", "23", "24", "28", "1", "7", "7", "18", "15", "20"], "time": [2672, 2787, 6888, 7161, 10926, 11273, 11674, 15350, 15457, 15706, 17435, 17539, 18183]}, "edge": {"target": [], "time": []}}, "mouseout": {"state": {"target": ["32", "30", "31", "0", "24", "33", "28", "10", "10", "23", "24", "28", "1", "7", "7", "18", "15", "20"], "time": [469, 854, 1052, 2628, 2716, 6824, 6933, 7795, 10893, 10958, 11328, 15311, 15401, 15541, 17369, 17474, 17672, 22673]}, "edge": {"target": [], "time": []}}}, "displayed_time": "27.36", "trialTime": 29498, "trial_type": "mouselab-mdp", "trial_index": 38, "time_elapsed": 1081118, "internal_node_id": "0.0-6.0-1.0-29.0"}}, {"uniqueid": "w74769093:a54106959", "current_trial": 39, "dateTime": 1693835954444, "trialdata": {"revealed_states": [], "clicked_states": ["5"], "num_clicks_accrued": [0, 0, 0, 0, 0, 0, 0, 0, 0, 0, 0, 0, 0], "stateRewards": ["", 1, 1, 4, 11, 83, -66, 18, -16, -23, 5, 25, 1, -3, 1, -12, 18, 24, -86, -11, -64, 36, 40, 2, 1, -6, 13, 55, 29, 72, -2, 81, -72, -41], "withholdReward": false, "trial_id": "mdp_trial_31", "block": "test", "trialIndex": 32, "score": 97.85, "costs": -2.15, "simulationMode": [null, null, null, null, null], "rewards": [1, 1, 4, 11, 83], "path": ["0", "0", "1", "2", "3", "4", "5"], "rt": [5828, 37, 68, 480, 7], "actions": ["up", "up", "up", "right", "up"], "actionTimes": [7879, 8454, 9048, 10063, 10587], "queries": {"click": {"state": {"target": ["5"], "time": [3406]}, "edge": {"target": [], "time": []}}, "mouseover": {"state": {"target": ["1", "2", "5", "4", "2", "23", "31", "32", "28", "10", "28"], "time": [2707, 2777, 2902, 4162, 4282, 4711, 4776, 4935, 5813, 5957, 6742]}, "edge": {"target": [], "time": []}}, "mouseout": {"state": {"target": ["0", "1", "2", "5", "4", "2", "23", "31", "32", "28", "10", "28"], "time": [1151, 2753, 2806, 4133, 4213, 4373, 4744, 4821, 5150, 5833, 6709, 6772]}, "edge": {"target": [], "time": []}}}, "displayed_time": "16.06", "trialTime": 17467, "trial_type": "mouselab-mdp", "trial_index": 39, "time_elapsed": 1099773, "internal_node_id": "0.0-6.0-1.0-30.0"}}, {"uniqueid": "w74769093:a54106959", "current_trial": 40, "dateTime": 1693835977534, "trialdata": {"revealed_states": [], "clicked_states": ["10", "7", "28"], "num_clicks_accrued": [0, 0, 0, 0, 0, 0, 0, 0, 0, 0, 0, 0, 0], "stateRewards": ["", -2, 1, -7, -8, -37, -76, -87, 11, 30, -63, 80, -1, 4, 2, -1, 42, 17, 52, -3, -75, -80, -68, 2, -3, -5, -15, -48, 82, 24, -7, 5, -22, -71], "withholdReward": false, "trial_id": "mdp_trial_32", "block": "test", "trialIndex": 33, "score": 54.55, "costs": -6.449999999999999, "simulationMode": [null, null, null, null, null], "rewards": [2, -3, -5, -15, 82], "path": ["0", "0", "23", "24", "25", "26", "28"], "rt": [13603, 504, 219, 673, 398], "actions": ["left", "left", "left", "up", "right"], "actionTimes": [15924, 16962, 17684, 18870, 19764], "queries": {"click": {"state": {"target": ["10", "7", "28"], "time": [3827, 8038, 11598]}, "edge": {"target": [], "time": []}}, "mouseover": {"state": {"target": ["1", "1", "10", "7", "1", "28", "1", "18", "15", "18"], "time": [2884, 3065, 3301, 7605, 8967, 9284, 12766, 12934, 13121, 13353]}, "edge": {"target": [], "time": []}}, "mouseout": {"state": {"target": ["24", "23", "1", "1", "10", "7", "1", "28", "1", "18", "15"], "time": [1098, 1124, 2915, 3238, 7201, 8961, 9027, 11797, 12816, 13003, 13179]}, "edge": {"target": [], "time": []}}}, "displayed_time": "20.29", "trialTime": 22005, "trial_type": "mouselab-mdp", "trial_index": 40, "time_elapsed": 1122864, "internal_node_id": "0.0-6.0-1.0-31.0"}}, {"uniqueid": "w74769093:a54106959", "current_trial": 41, "dateTime": 1693836002262, "trialdata": {"revealed_states": [], "clicked_states": ["10", "18", "22"], "num_clicks_accrued": [0, 0, 0, 0, 0, 0, 0, 0, 0, 0, 0, 0, 0], "stateRewards": ["", -2, -4, -2, -13, -15, 87, -19, -6, -80, 30, 12, 1, 1, -8, 2, 55, 56, 15, 11, -68, -7, 55, -2, 3, -3, -3, 48, 62, 4, 1, -3, 69, -33], "withholdReward": false, "trial_id": "mdp_trial_33", "block": "test", "trialIndex": 34, "score": 53.55, "costs": -6.449999999999999, "simulationMode": [null, null, null, null, null], "rewards": [1, 1, -8, 11, 55], "path": ["0", "0", "12", "13", "14", "19", "22"], "rt": [16495, 114, 108, 770, 24], "actions": ["right", "right", "right", "down", "left"], "actionTimes": [18540, 19174, 19802, 21075, 21614], "queries": {"click": {"state": {"target": ["10", "18", "22"], "time": [3924, 7848, 12105]}, "edge": {"target": [], "time": []}}, "mouseover": {"state": {"target": ["1", "10", "18", "13", "22"], "time": [3054, 3453, 5205, 11341, 11471]}, "edge": {"target": [], "time": []}}, "mouseout": {"state": {"target": ["18", "12", "1", "10", "10", "18", "13"], "time": [648, 748, 3123, 4145, 4706, 11314, 11388]}, "edge": {"target": [], "time": []}}}, "displayed_time": "22.14", "trialTime": 23551, "trial_type": "mouselab-mdp", "trial_index": 41, "time_elapsed": 1147592, "internal_node_id": "0.0-6.0-1.0-32.0"}}, {"uniqueid": "w74769093:a54106959", "current_trial": 42, "dateTime": 1693836025805, "trialdata": {"revealed_states": [], "clicked_states": ["11", "29", "17"], "num_clicks_accrued": [0, 0, 0, 0, 0, 0, 0, 0, 0, 0, 0, 0, 0], "stateRewards": ["", 2, -3, 5, 11, -79, 54, 11, -9, -78, 33, 22, -2, -1, 2, 14, 43, 34, 1, 10, 49, -65, 39, -1, 1, -1, 3, -16, -2, 11, 2, 12, 48, -65], "withholdReward": false, "trial_id": "mdp_trial_34", "block": "test", "trialIndex": 35, "score": 40.55, "costs": -6.449999999999999, "simulationMode": [null, null, null, null, null], "rewards": [-2, -1, 2, 14, 34], "path": ["0", "0", "12", "13", "14", "15", "17"], "rt": [15247, 9, 113, 343, 19], "actions": ["right", "right", "right", "up", "right"], "actionTimes": [17717, 18273, 18908, 19748, 20285], "queries": {"click": {"state": {"target": ["11", "29", "17"], "time": [3887, 8807, 13393]}, "edge": {"target": [], "time": []}}, "mouseover": {"state": {"target": ["10", "11", "28", "26", "29", "29", "26", "17", "17"], "time": [3187, 3270, 5102, 6838, 6988, 8470, 12398, 12489, 13005]}, "edge": {"target": [], "time": []}}, "mouseout": {"state": {"target": ["22", "0", "10", "11", "11", "28", "26", "29", "29", "26", "17", "17"], "time": [984, 1102, 3220, 4107, 4933, 6788, 6922, 7873, 12387, 12436, 12524, 16873]}, "edge": {"target": [], "time": []}}}, "displayed_time": "20.81", "trialTime": 22043, "trial_type": "mouselab-mdp", "trial_index": 42, "time_elapsed": 1171135, "internal_node_id": "0.0-6.0-1.0-33.0"}}, {"uniqueid": "w74769093:a54106959", "current_trial": 43, "dateTime": 1693836044575, "trialdata": {"revealed_states": [], "clicked_states": ["32"], "num_clicks_accrued": [0, 0, 0, 0, 0, 0, 0, 0, 0, 0, 0, 0, 0], "stateRewards": ["", 2, 3, -2, -8, -8, -41, 74, 15, -23, -80, 1, 1, 3, 3, -15, -63, -78, 67, 13, 75, -41, 86, 2, -2, 6, -3, -8, -49, 50, -6, 83, 74, 80], "withholdReward": false, "trial_id": "mdp_trial_35", "block": "test", "trialIndex": 36, "score": 71.85, "costs": -2.15, "simulationMode": [null, null, null, null, null], "rewards": [2, -2, 6, -6, 74], "path": ["0", "0", "23", "24", "25", "30", "32"], "rt": [5574, 369, 127, 289, 118], "actions": ["left", "left", "left", "down", "down"], "actionTimes": [8147, 9088, 9721, 10511, 11156], "queries": {"click": {"state": {"target": ["32"], "time": [3725]}, "edge": {"target": [], "time": []}}, "mouseover": {"state": {"target": ["0", "31", "32"], "time": [2872, 2988, 3287]}, "edge": {"target": [], "time": []}}, "mouseout": {"state": {"target": ["0", "31", "32"], "time": [2904, 3024, 7055]}, "edge": {"target": [], "time": []}}}, "displayed_time": "16.59", "trialTime": 17629, "trial_type": "mouselab-mdp", "trial_index": 43, "time_elapsed": 1189905, "internal_node_id": "0.0-6.0-1.0-34.0"}}, {"uniqueid": "w74769093:a54106959", "current_trial": 44, "dateTime": 1693836070767, "trialdata": {"revealed_states": [], "clicked_states": ["5", "7", "22", "28"], "num_clicks_accrued": [0, 0, 0, 0, 0, 0, 0, 0, 0, 0, 0, 0, 0], "stateRewards": ["", -1, 1, 3, -8, -23, -15, -14, -11, -23, 58, 68, 1, 3, 5, 12, -17, -41, -7, -10, -4, 82, 10, 1, 4, -4, 11, 73, 55, -55, -1, -86, -86, 54], "withholdReward": false, "trial_id": "mdp_trial_36", "block": "test", "trialIndex": 37, "score": 58.4, "costs": -8.6, "simulationMode": [null, null, null, null, null], "rewards": [1, 4, -4, 11, 55], "path": ["0", "0", "23", "24", "25", "26", "28"], "rt": [17435, 47, 24, 646, 161], "actions": ["left", "left", "left", "up", "right"], "actionTimes": [20015, 20559, 21103, 22276, 22938], "queries": {"click": {"state": {"target": ["5", "7", "22", "28"], "time": [3701, 7331, 11516, 15367]}, "edge": {"target": [], "time": []}}, "mouseover": {"state": {"target": ["1", "7", "4", "5", "2", "28", "26", "29", "26", "28", "2", "7", "22", "24", "28", "24"], "time": [3029, 3067, 3097, 3396, 4865, 5028, 5145, 5395, 5600, 5875, 6174, 6311, 11079, 12780, 12924, 18901]}, "edge": {"target": [], "time": []}}, "mouseout": {"state": {"target": ["0", "1", "7", "4", "5", "2", "28", "26", "29", "26", "28", "2", "7", "22", "24", "28", "24"], "time": [1461, 3052, 3092, 3161, 4743, 4914, 5095, 5296, 5561, 5623, 6052, 6249, 10767, 12430, 12866, 18887, 18923]}, "edge": {"target": [], "time": []}}}, "displayed_time": "23.45", "trialTime": 25129, "trial_type": "mouselab-mdp", "trial_index": 44, "time_elapsed": 1216097, "internal_node_id": "0.0-6.0-1.0-35.0"}}, {"uniqueid": "w74769093:a54106959", "current_trial": 45, "dateTime": 1693836094695, "trialdata": {"revealed_states": [], "clicked_states": ["32", "9", "17"], "num_clicks_accrued": [0, 0, 0, 0, 0, 0, 0, 0, 0, 0, 0, 0, 0], "stateRewards": ["", 2, 4, -6, -13, -75, -81, 30, 7, 5, 59, -65, -1, -1, 7, 14, -38, 36, -41, 1, -54, -5, 64, 2, -1, 5, 6, -19, 79, 11, 16, -33, -50, 58], "withholdReward": false, "trial_id": "mdp_trial_37", "block": "test", "trialIndex": 38, "score": 48.55, "costs": -6.449999999999999, "simulationMode": [null, null, null, null, null], "rewards": [-1, -1, 7, 14, 36], "path": ["0", "0", "12", "13", "14", "15", "17"], "rt": [13000, 37, 47, 195, 12], "actions": ["right", "right", "right", "up", "right"], "actionTimes": [18013, 18545, 19140, 19872, 20397], "queries": {"click": {"state": {"target": ["32", "9", "17"], "time": [6289, 10187, 13752]}, "edge": {"target": [], "time": []}}, "mouseover": {"state": {"target": ["31", "32", "31", "24", "28", "8", "9", "4", "16", "17", "20"], "time": [5591, 5901, 7981, 8196, 8814, 9090, 9775, 11086, 11208, 11641, 17145]}, "edge": {"target": [], "time": []}}, "mouseout": {"state": {"target": ["30", "28", "1", "31", "32", "31", "24", "28", "8", "9", "4", "16", "17", "20"], "time": [3590, 3670, 3941, 5626, 6501, 8032, 8809, 8836, 9628, 11031, 11105, 11276, 17111, 17179]}, "edge": {"target": [], "time": []}}}, "displayed_time": "20.93", "trialTime": 22886, "trial_type": "mouselab-mdp", "trial_index": 45, "time_elapsed": 1240024, "internal_node_id": "0.0-6.0-1.0-36.0"}}, {"uniqueid": "w74769093:a54106959", "current_trial": 46, "dateTime": 1693836113093, "trialdata": {"revealed_states": [], "clicked_states": ["29"], "num_clicks_accrued": [0, 0, 0, 0, 0, 0, 0, 0, 0, 0, 0, 0, 0], "stateRewards": ["", 1, -1, -7, -7, -22, 15, -13, 13, 26, -32, 38, -1, 1, -7, -4, 16, -62, 86, 12, -54, 56, 64, -2, -1, 6, 14, -57, 37, 62, -6, -25, 50, -70], "withholdReward": false, "trial_id": "mdp_trial_38", "block": "test", "trialIndex": 39, "score": 76.85, "costs": -2.15, "simulationMode": [null, null, null, null, null], "rewards": [-2, -1, 6, 14, 62], "path": ["0", "0", "23", "24", "25", "26", "29"], "rt": [5832, 504, 124, 379, 72], "actions": ["left", "left", "left", "up", "left"], "actionTimes": [7974, 8991, 9641, 10519, 11109], "queries": {"click": {"state": {"target": ["29"], "time": [3931]}, "edge": {"target": [], "time": []}}, "mouseover": {"state": {"target": ["0", "23", "26", "29", "33"], "time": [2986, 3029, 3156, 3522, 7208]}, "edge": {"target": [], "time": []}}, "mouseout": {"state": {"target": ["12", "0", "23", "26", "29", "29", "33"], "time": [870, 3022, 3059, 3190, 4156, 6769, 7238]}, "edge": {"target": [], "time": []}}}, "displayed_time": "16.15", "trialTime": 17382, "trial_type": "mouselab-mdp", "trial_index": 46, "time_elapsed": 1258423, "internal_node_id": "0.0-6.0-1.0-37.0"}}, {"uniqueid": "w74769093:a54106959", "current_trial": 47, "dateTime": 1693836152599, "trialdata": {"revealed_states": [], "clicked_states": ["5", "21", "32", "28", "33", "17", "11"], "num_clicks_accrued": [0, 0, 0, 0, 0, 0, 0, 0, 0, 0, 0, 0, 0], "stateRewards": ["", -2, -2, -3, -6, -15, -11, 41, -12, -63, -76, 2, -2, -3, 8, 9, -36, -2, -18, -16, -32, -85, -17, -2, 1, 5, -16, 82, 35, -88, -1, 80, -82, -20], "withholdReward": false, "trial_id": "mdp_trial_39", "block": "test", "trialIndex": 40, "score": 7.949999999999999, "costs": -15.05, "simulationMode": [null, null, null, null, null], "rewards": [-2, 1, 5, -16, 35], "path": ["0", "0", "23", "24", "25", "26", "28"], "rt": [30950, 438, 77, 410, 102], "actions": ["left", "left", "left", "up", "right"], "actionTimes": [33015, 33981, 34621, 35541, 36161], "queries": {"click": {"state": {"target": ["5", "21", "32", "28", "33", "17", "11"], "time": [3262, 7382, 10925, 15169, 19721, 24305, 28835]}, "edge": {"target": [], "time": []}}, "mouseover": {"state": {"target": ["4", "5", "7", "13", "19", "21", "32", "28", "28", "25", "30", "33", "30", "12", "15", "17", "14", "12", "11"], "time": [2516, 2863, 6096, 6460, 6571, 6697, 9465, 14396, 14732, 18683, 18902, 19036, 23327, 23458, 23485, 23847, 27807, 27857, 28382]}, "edge": {"target": [], "time": []}}, "mouseout": {"state": {"target": ["33", "30", "31", "23", "0", "4", "5", "5", "7", "13", "19", "21", "32", "28", "28", "25", "30", "33", "30", "12", "15", "17", "14", "12", "11"], "time": [797, 821, 857, 960, 2476, 2552, 3481, 6076, 6141, 6514, 6619, 8861, 14265, 14496, 18616, 18747, 18944, 23316, 23368, 23480, 23618, 27768, 27846, 27897, 32097]}, "edge": {"target": [], "time": []}}}, "displayed_time": "36.67", "trialTime": 38409, "trial_type": "mouselab-mdp", "trial_index": 47, "time_elapsed": 1297928, "internal_node_id": "0.0-6.0-1.0-38.0"}}, {"uniqueid": "w74769093:a54106959", "current_trial": 48, "dateTime": 1693836173322, "trialdata": {"revealed_states": [], "clicked_states": ["9"], "num_clicks_accrued": [0, 0, 0, 0, 0, 0, 0, 0, 0, 0, 0, 0, 0], "stateRewards": ["", 2, -3, -8, 14, -7, -51, 73, 2, 36, 36, -43, -1, 3, -4, 1, 6, 87, -65, 15, 61, -42, -83, -1, 3, -2, -7, 30, -48, 35, 13, 26, 60, 78], "withholdReward": false, "trial_id": "mdp_trial_40", "block": "test", "trialIndex": 41, "score": 26.85, "costs": -2.15, "simulationMode": [null, null, null, null, null], "rewards": [2, -3, -8, 2, 36], "path": ["0", "0", "1", "2", "3", "8", "9"], "rt": [5336, 54, 38, 589, 67], "actions": ["up", "up", "up", "left", "up"], "actionTimes": [8304, 8900, 9445, 10546, 11115], "queries": {"click": {"state": {"target": ["9"], "time": [4300]}, "edge": {"target": [], "time": []}}, "mouseover": {"state": {"target": ["10", "8", "9", "1"], "time": [3372, 3413, 3540, 5357]}, "edge": {"target": [], "time": []}}, "mouseout": {"state": {"target": ["15", "16", "18", "0", "0", "10", "8", "9", "1"], "time": [1238, 1289, 1440, 1521, 3290, 3405, 3489, 5321, 5391]}, "edge": {"target": [], "time": []}}}, "displayed_time": "16.98", "trialTime": 19540, "trial_type": "mouselab-mdp", "trial_index": 48, "time_elapsed": 1318651, "internal_node_id": "0.0-6.0-1.0-39.0"}}, {"uniqueid": "w74769093:a54106959", "current_trial": 49, "dateTime": 1693836312697, "trialdata": {"rt": 139308, "response": {"Q0": "$-2 to $2", "Q1": "$-16 to $16", "Q2": "$-88 to $88", "Q3": "The cost for clicking on nodes varied between nodes.", "Q4": "Neither motivated nor unmotivated"}, "question_order": [0, 1, 2, 3, 4], "trial_id": "final_quiz_control", "trial_type": "survey-multi-choice", "trial_index": 49, "time_elapsed": 1458026, "internal_node_id": "0.0-6.0-2.0"}}, {"uniqueid": "w74769093:a54106959", "current_trial": 50, "dateTime": 1693836495671, "trialdata": {"rt": 182834, "response": {"Q0": "I just clicked on nodes and tried to memorize the values. Whichever node I think had quite a high value, I would choose.", "Q1": "Yes, I started not just choosing a positive value but aiming for higher positive values by trying to memorize the node values.", "Q2": "It was not that difficult as I had to only memorize the positive bode values and choose the highest I could remember."}, "trial_id": "self_report_control", "trial_type": "survey-text", "trial_index": 50, "time_elapsed": 1641002, "internal_node_id": "0.0-6.0-3.0"}}, {"uniqueid": "w74769093:a54106959", "current_trial": 51, "dateTime": 1693836567827, "trialdata": {"rt": 72133, "response": {"Q0": "Agree", "Q1": "Disagree", "Q2": "Agree", "Q3": "Strongly agree", "Q4": "Strongly disagree", "Q5": "Strongly agree", "Q6": "Strongly disagree"}, "question_order": [0, 1, 2, 3, 4, 5, 6], "trial_id": "self_report_2", "trial_type": "survey-multi-choice", "trial_index": 51, "time_elapsed": 1713158, "internal_node_id": "0.0-6.0-4.0"}}, {"uniqueid": "w74769093:a54106959", "current_trial": 52, "dateTime": 1693836609226, "trialdata": {"rt": 41363, "response": {"gender": "female", "age": "21", "colorblind": "0", "effort": "0"}, "trial_type": "survey-html-form", "trial_index": 52, "time_elapsed": 1754556, "internal_node_id": "0.0-6.0-5.0"}}, {"uniqueid": "w74769093:a54106959", "current_trial": 53, "dateTime": 1693836658742, "trialdata": {"rt": 49479, "response": {"Q0": "No, I fully understood the rules and everything", "Q1": "No, I have not participated in this before", "Q2": ""}, "trial_type": "survey-text", "trial_index": 53, "time_elapsed": 1804073, "internal_node_id": "0.0-6.0-6.0"}}, {"uniqueid": "w74769093:a54106959", "current_trial": 54, "dateTime": 1693836694248, "trialdata": {"rt": 35478, "stimulus": "<h1>Completion Code Instructions (1/2)</h1>\n<br><br><br><br>\nYou have reached the end of the experiment! The completion code consists of two parts: (1) a code with 2 characters (2) a code with 6 characters. On this page, you will receive the second part of the code. The first part of the completion code will be on the next page.\n<br><br>\nThe second part of your completion code is: <b>EWEK22</b>\n<br><br>\nPlease note this down. Then, press 'Next' in order to find the first part of your completion code. Once the data has been saved, you will receive this code either in this window or in the original browser window where you started the experiment.\n <br><br>\n<h2 style='color: red;'>Note: this is <strong>NOT</strong> the full completion code. Copy this down and click 'Next' to get the full completion code on the next page.</h2>", "response": 0, "trial_type": "html-button-response", "trial_index": 54, "time_elapsed": 1839578, "internal_node_id": "0.0-6.0-7.0"}}], "questiondata": {"params": {"CODE": "C6DMOQA6", "MIN_TIME": 14, "inspectCost": 1, "startTime": "Mon Sep 04 2023 15:40:52 GMT+0200 (South Africa Standard Time)", "bonusRate": 0.002, "variance": "1_2_4_8_44", "branching": "31123"}}, "eventdata": [{"eventtype": "initialized", "value": null, "timestamp": 1693834850999, "interval": 0}, {"eventtype": "window_resize", "value": [1024, 654], "timestamp": 1693834851000, "interval": 1}, {"eventtype": "window_resize", "value": [1024, 654], "timestamp": 1693834851793, "interval": 793}, {"eventtype": "window_resize", "value": [1366, 670], "timestamp": 1693834854757, "interval": 2964}, {"eventtype": "window_resize", "value": [1366, 768], "timestamp": 1693834859759, "interval": 5002}], "useragent": "Mozilla/5.0 (Windows NT 10.0; Win64; x64) AppleWebKit/537.36 (KHTML, like Gecko) Chrome/116.0.0.0 Safari/537.36", "mode": "live", "id": "w74769093:a54106959", "status": "user data saved", "Beginhit": "2023-09-04 13:40:44.451924", "Beginexp": "2023-09-04 13:40:59.340059", "Endhit": "2023-09-04 14:11:35.716303", "psiturkStatus": 3, "browser": "<redacted>", "platform": "windows", "language": "en-US"}