{"condition": 0, "counterbalance": 0, "assignmentId": "a31773596", "workerId": "w94352509", "hitId": "h56535802", "currenttrial": 55, "bonus": 0, "data": [{"uniqueid": "w94352509:a31773596", "current_trial": 0, "dateTime": 1693660351043, "trialdata": {"success": true, "trial_type": "fullscreen", "trial_index": 0, "time_elapsed": 5968, "internal_node_id": "0.0-0.0"}}, {"uniqueid": "w94352509:a31773596", "current_trial": 1, "dateTime": 1693660477784, "trialdata": {"view_history": [{"page_index": 0, "viewing_time": 126729}], "rt": 126733, "trial_id": "exp_instructions_control", "trial_type": "instructions", "trial_index": 1, "time_elapsed": 132708, "internal_node_id": "0.0-1.0"}}, {"uniqueid": "w94352509:a31773596", "current_trial": 2, "dateTime": 1693661010774, "trialdata": {"view_history": [{"page_index": 0, "viewing_time": 297333}, {"page_index": 1, "viewing_time": 117475}, {"page_index": 2, "viewing_time": 33507}, {"page_index": 3, "viewing_time": 84661}], "rt": 532977, "trial_id": "mouselab_instructions_1_control", "trial_type": "instructions", "trial_index": 2, "time_elapsed": 665699, "internal_node_id": "0.0-2.0-1.0"}}, {"uniqueid": "w94352509:a31773596", "current_trial": 3, "dateTime": 1693661039628, "trialdata": {"revealed_states": [], "clicked_states": ["12", "16"], "num_clicks_accrued": [0, 0, 0, 0, 0, 0, 0, 0, 0, 0, 0, 0, 0], "stateRewards": ["", -10, 10, -10, -10, -10, 10, -10, 10, 10, -10, -10, -10, 10, 10, -10, -10, 10, 10, -10, 10, -10, 10, 10, 10, -10, -10, -10, 10, 10, 10, -10, 10, 10], "withholdReward": false, "trial_id": "practice_1", "block": "test", "trialIndex": 0, "score": 12.5, "costs": -1, "simulationMode": [null, null, null, null, null], "rewards": [-10, 10, 10, -10, 10], "path": ["0", "0", "12", "13", "14", "15", "17"], "rt": [13875, 1486, 761, 706, 95], "actions": ["right", "right", "right", "up", "right"], "actionTimes": [17939, 19948, 21221, 22453, 23077], "queries": {"click": {"state": {"target": ["12", "16"], "time": [7117, 11215]}, "edge": {"target": [], "time": []}}, "mouseover": {"state": {"target": ["12", "18", "16", "18", "15", "13", "13"], "time": [6581, 10376, 10753, 14204, 14508, 15236, 16671]}, "edge": {"target": [], "time": []}}, "mouseout": {"state": {"target": ["0", "12", "18", "16", "18", "15", "13"], "time": [2834, 7808, 10474, 11946, 14340, 14786, 15837]}, "edge": {"target": [], "time": []}}}, "displayed_time": "23.62", "trialTime": 27460, "trial_type": "mouselab-mdp", "trial_index": 3, "time_elapsed": 694551, "internal_node_id": "0.0-2.0-2.0-0.0"}}, {"uniqueid": "w94352509:a31773596", "current_trial": 4, "dateTime": 1693661056608, "trialdata": {"revealed_states": [], "clicked_states": [], "num_clicks_accrued": [0, 0, 0, 0, 0, 0, 0, 0, 0, 0, 0, 0, 0], "stateRewards": ["", 10, 10, -10, -10, -10, -10, 10, -10, 10, 10, 10, -10, 10, -10, -10, -10, -10, -10, -10, 10, -10, -10, -10, 10, -10, -10, -10, 10, -10, 10, 10, 10, 10], "withholdReward": false, "trial_id": "practice_2", "block": "test", "trialIndex": 1, "score": 13.5, "costs": 0, "simulationMode": [null, null, null, null, null], "rewards": [-10, 10, -10, 10, 10], "path": ["0", "0", "23", "24", "25", "30", "33"], "rt": [5882, 191, 212, 3, 204], "actions": ["left", "left", "left", "down", "left"], "actionTimes": [9554, 10267, 11028, 11570, 12354], "queries": {"click": {"state": {"target": [], "time": []}, "edge": {"target": [], "time": []}}, "mouseover": {"state": {"target": [], "time": []}, "edge": {"target": [], "time": []}}, "mouseout": {"state": {"target": ["13", "12"], "time": [1545, 1829]}, "edge": {"target": [], "time": []}}}, "displayed_time": "12.88", "trialTime": 16371, "trial_type": "mouselab-mdp", "trial_index": 4, "time_elapsed": 711531, "internal_node_id": "0.0-2.0-2.0-1.0"}}, {"uniqueid": "w94352509:a31773596", "current_trial": 5, "dateTime": 1693661111236, "trialdata": {"view_history": [{"page_index": 0, "viewing_time": 41831}, {"page_index": 1, "viewing_time": 12775}], "rt": 54609, "trial_id": "mouselab_instructions_2_control", "trial_type": "instructions", "trial_index": 5, "time_elapsed": 766161, "internal_node_id": "0.0-2.0-3.0"}}, {"uniqueid": "w94352509:a31773596", "current_trial": 6, "dateTime": 1693661188937, "trialdata": {"rt": 77681, "response": {"Q0": "The cost for clicking on nodes may vary between nodes.", "Q1": "The better I perform the higher my bonus will be.", "Q2": "No, the amount of cash at each node of the web may be different each time.", "Q3": "To get the highest total score.", "Q4": "Only before moving the spider.", "Q5": "3 seconds"}, "question_order": [0, 1, 2, 3, 4, 5], "correct": {"Q0": "The cost for clicking on nodes may vary between nodes.", "Q1": "The better I perform the higher my bonus will be.", "Q2": "No, the amount of cash at each node of the web may be different each time.", "Q3": "To get the highest total score.", "Q4": "Only before moving the spider.", "Q5": "3 seconds"}, "trial_id": "mouselab_quiz_control", "trial_type": "survey-multi-choice", "trial_index": 6, "time_elapsed": 843862, "internal_node_id": "0.0-2.0-4.0"}}, {"uniqueid": "w94352509:a31773596", "current_trial": 7, "dateTime": 1693661198558, "trialdata": {"rt": 9590, "response": {"Q0": "No"}, "question_order": [0], "trial_id": "repeat_check", "trial_type": "survey-multi-choice", "trial_index": 7, "time_elapsed": 853482, "internal_node_id": "0.0-4.0-0.0"}}, {"uniqueid": "w94352509:a31773596", "current_trial": 8, "dateTime": 1693661219806, "trialdata": {"rt": 21221, "stimulus": "\n<h1> Get ready to start the game! </h1>\n\nThank you for reading the instructions. Get ready start with the 40 rounds of this game.\n<br><br>\nIf you need to take a break, feel free to take one after the end of a round, before continuing to the next one.\n<br><br>\nRemember, the more money the spider gets, the bigger your bonus will be!\n<br><br>\n<div style='text-align: center;'>Press <code>space</code> to begin.</div>\n\n<br><br>\n(If, at any point, the <code>space</code> key does not take you to the next page, click once on the text and try again.)", "response": " ", "trial_id": "mdp_ready", "trial_type": "html-keyboard-response", "trial_index": 8, "time_elapsed": 874730, "internal_node_id": "0.0-6.0-0.0"}}, {"uniqueid": "w94352509:a31773596", "current_trial": 9, "dateTime": 1693661241730, "trialdata": {"revealed_states": [], "clicked_states": [], "num_clicks_accrued": [0, 0, 0, 0, 0, 0, 0, 0, 0, 0, 0, 0, 0], "stateRewards": ["", 2, -3, 5, 11, -79, 54, 11, -9, -78, 33, 22, -2, -1, 2, 14, 43, 34, 1, 10, 49, -65, 39, -1, 1, -1, 3, -16, -2, 11, 2, 12, 48, -65], "withholdReward": false, "trial_id": "mdp_trial_1", "block": "test", "trialIndex": 2, "score": 58, "costs": 0, "simulationMode": [null, null, null, null, null], "rewards": [-2, -1, 2, 10, 49], "path": ["0", "0", "12", "13", "14", "19", "20"], "rt": [5232, 6, 3, 324, 204], "actions": ["right", "right", "right", "down", "right"], "actionTimes": [9789, 10312, 10880, 11748, 12468], "queries": {"click": {"state": {"target": [], "time": []}, "edge": {"target": [], "time": []}}, "mouseover": {"state": {"target": ["0"], "time": [5256]}, "edge": {"target": [], "time": []}}, "mouseout": {"state": {"target": ["8", "1", "0"], "time": [3212, 3646, 5299]}, "edge": {"target": [], "time": []}}}, "displayed_time": "18.57", "trialTime": 21368, "trial_type": "mouselab-mdp", "trial_index": 9, "time_elapsed": 896653, "internal_node_id": "0.0-6.0-1.0-0.0"}}, {"uniqueid": "w94352509:a31773596", "current_trial": 10, "dateTime": 1693661264238, "trialdata": {"revealed_states": [], "clicked_states": [], "num_clicks_accrued": [0, 0, 0, 0, 0, 0, 0, 0, 0, 0, 0, 0, 0], "stateRewards": ["", -1, 1, -5, -6, -78, 47, -13, 12, 48, -88, 20, 2, -3, -2, 13, -20, 37, -57, 14, -38, 30, 31, -2, -2, 8, 2, -23, 78, 28, 12, -74, -88, 8], "withholdReward": false, "trial_id": "mdp_trial_2", "block": "test", "trialIndex": 3, "score": 42, "costs": 0, "simulationMode": [null, null, null, null, null], "rewards": [2, -3, -2, 14, 31], "path": ["0", "0", "12", "13", "14", "19", "22"], "rt": [1739, 252, 240, 114, 529], "actions": ["right", "right", "right", "down", "left"], "actionTimes": [4454, 5214, 5954, 6576, 7636], "queries": {"click": {"state": {"target": [], "time": []}, "edge": {"target": [], "time": []}}, "mouseover": {"state": {"target": [], "time": []}, "edge": {"target": [], "time": []}}, "mouseout": {"state": {"target": ["0"], "time": [1997]}, "edge": {"target": [], "time": []}}}, "displayed_time": "16.72", "trialTime": 21858, "trial_type": "mouselab-mdp", "trial_index": 10, "time_elapsed": 919161, "internal_node_id": "0.0-6.0-1.0-1.0"}}, {"uniqueid": "w94352509:a31773596", "current_trial": 11, "dateTime": 1693661283702, "trialdata": {"revealed_states": [], "clicked_states": [], "num_clicks_accrued": [0, 0, 0, 0, 0, 0, 0, 0, 0, 0, 0, 0, 0], "stateRewards": ["", 1, 4, -8, -5, -15, -7, 21, 13, -30, 40, -65, 1, 1, 5, -14, 35, 27, -38, -11, 36, -58, -47, -2, 4, -3, 13, -16, -49, 22, 15, -56, -44, -10], "withholdReward": false, "trial_id": "mdp_trial_3", "block": "test", "trialIndex": 4, "score": 32, "costs": 0, "simulationMode": [null, null, null, null, null], "rewards": [1, 1, 5, -11, 36], "path": ["0", "0", "12", "13", "14", "19", "20"], "rt": [1732, 87, 433, 854, 143], "actions": ["right", "right", "right", "down", "right"], "actionTimes": [3413, 4005, 4959, 6452, 7100], "queries": {"click": {"state": {"target": [], "time": []}, "edge": {"target": [], "time": []}}, "mouseover": {"state": {"target": [], "time": []}, "edge": {"target": [], "time": []}}, "mouseout": {"state": {"target": ["0"], "time": [1223]}, "edge": {"target": [], "time": []}}}, "displayed_time": "15.69", "trialTime": 18884, "trial_type": "mouselab-mdp", "trial_index": 11, "time_elapsed": 938625, "internal_node_id": "0.0-6.0-1.0-2.0"}}, {"uniqueid": "w94352509:a31773596", "current_trial": 12, "dateTime": 1693661303788, "trialdata": {"revealed_states": [], "clicked_states": [], "num_clicks_accrued": [0, 0, 0, 0, 0, 0, 0, 0, 0, 0, 0, 0, 0], "stateRewards": ["", -2, 3, -1, 2, -72, 63, 20, -1, 62, -66, 39, -2, 3, -6, 14, 22, 47, 1, 8, -49, -1, -41, 2, 2, -6, -16, -64, -60, -34, 16, 54, 22, -7], "withholdReward": false, "trial_id": "mdp_trial_4", "block": "test", "trialIndex": 5, "score": 61, "costs": 0, "simulationMode": [null, null, null, null, null], "rewards": [-2, 3, -1, -1, 62], "path": ["0", "0", "1", "2", "3", "8", "9"], "rt": [924, 209, 949, 225, 1135], "actions": ["up", "up", "up", "left", "up"], "actionTimes": [3973, 4693, 6153, 6878, 8558], "queries": {"click": {"state": {"target": [], "time": []}, "edge": {"target": [], "time": []}}, "mouseover": {"state": {"target": [], "time": []}, "edge": {"target": [], "time": []}}, "mouseout": {"state": {"target": ["0"], "time": [2600]}, "edge": {"target": [], "time": []}}}, "displayed_time": "17.06", "trialTime": 19302, "trial_type": "mouselab-mdp", "trial_index": 12, "time_elapsed": 958711, "internal_node_id": "0.0-6.0-1.0-3.0"}}, {"uniqueid": "w94352509:a31773596", "current_trial": 13, "dateTime": 1693661322271, "trialdata": {"revealed_states": [], "clicked_states": [], "num_clicks_accrued": [0, 0, 0, 0, 0, 0, 0, 0, 0, 0, 0, 0, 0], "stateRewards": ["", -1, 3, -5, -2, -13, -9, -34, -7, -81, 32, 35, -2, -2, 1, -14, -32, 81, 7, 4, 82, 56, -8, -1, 3, -8, 6, -24, -24, -53, 2, 38, 61, 54], "withholdReward": false, "trial_id": "mdp_trial_5", "block": "test", "trialIndex": 6, "score": -39, "costs": 0, "simulationMode": [null, null, null, null, null], "rewards": [-1, 3, -5, -2, -34], "path": ["0", "0", "1", "2", "3", "4", "7"], "rt": [880, 129, 525, 131, 2320], "actions": ["up", "up", "up", "right", "down"], "actionTimes": [2963, 3607, 4668, 5304, 8144], "queries": {"click": {"state": {"target": [], "time": []}, "edge": {"target": [], "time": []}}, "mouseover": {"state": {"target": [], "time": []}, "edge": {"target": [], "time": []}}, "mouseout": {"state": {"target": ["0"], "time": [1606]}, "edge": {"target": [], "time": []}}}, "displayed_time": "16.10", "trialTime": 17766, "trial_type": "mouselab-mdp", "trial_index": 13, "time_elapsed": 977194, "internal_node_id": "0.0-6.0-1.0-4.0"}}, {"uniqueid": "w94352509:a31773596", "current_trial": 14, "dateTime": 1693661339950, "trialdata": {"revealed_states": [], "clicked_states": [], "num_clicks_accrued": [0, 0, 0, 0, 0, 0, 0, 0, 0, 0, 0, 0, 0], "stateRewards": ["", -1, 4, -8, 12, 14, 69, -8, 5, -72, -14, 56, -1, -1, -1, 9, 67, 19, 11, -9, -88, -58, 3, 2, -4, -8, 4, 62, 77, -74, 5, -31, 65, 88], "withholdReward": false, "trial_id": "mdp_trial_6", "block": "test", "trialIndex": 7, "score": -72, "costs": 0, "simulationMode": [null, null, null, null, null], "rewards": [-1, 4, -8, 5, -72], "path": ["0", "0", "1", "2", "3", "8", "9"], "rt": [564, 376, 2192, 2613, 750], "actions": ["up", "up", "up", "left", "up"], "actionTimes": [2039, 2923, 5642, 8759, 10013], "queries": {"click": {"state": {"target": [], "time": []}, "edge": {"target": [], "time": []}}, "mouseover": {"state": {"target": [], "time": []}, "edge": {"target": [], "time": []}}, "mouseout": {"state": {"target": ["0"], "time": [999]}, "edge": {"target": [], "time": []}}}, "displayed_time": "15.49", "trialTime": 16888, "trial_type": "mouselab-mdp", "trial_index": 14, "time_elapsed": 994873, "internal_node_id": "0.0-6.0-1.0-5.0"}}, {"uniqueid": "w94352509:a31773596", "current_trial": 15, "dateTime": 1693661359732, "trialdata": {"revealed_states": [], "clicked_states": [], "num_clicks_accrued": [0, 0, 0, 0, 0, 0, 0, 0, 0, 0, 0, 0, 0], "stateRewards": ["", 1, -4, -4, 8, 1, -79, 68, -10, -79, 8, -74, -1, -3, -6, 14, 43, 23, 9, 5, -51, 63, 61, -2, 4, 6, -10, 69, -32, 57, 15, -80, -80, -77], "withholdReward": false, "trial_id": "mdp_trial_7", "block": "test", "trialIndex": 8, "score": -54, "costs": 0, "simulationMode": [null, null, null, null, null], "rewards": [-2, 4, 6, 15, -77], "path": ["0", "0", "23", "24", "25", "30", "33"], "rt": [1185, 211, 811, 224, 301], "actions": ["left", "left", "left", "down", "left"], "actionTimes": [2743, 3460, 4771, 5502, 6330], "queries": {"click": {"state": {"target": [], "time": []}, "edge": {"target": [], "time": []}}, "mouseover": {"state": {"target": [], "time": []}, "edge": {"target": [], "time": []}}, "mouseout": {"state": {"target": ["0"], "time": [1007]}, "edge": {"target": [], "time": []}}}, "displayed_time": "15.56", "trialTime": 18946, "trial_type": "mouselab-mdp", "trial_index": 15, "time_elapsed": 1014655, "internal_node_id": "0.0-6.0-1.0-6.0"}}, {"uniqueid": "w94352509:a31773596", "current_trial": 16, "dateTime": 1693661377595, "trialdata": {"revealed_states": [], "clicked_states": ["29", "33"], "num_clicks_accrued": [0, 0, 0, 0, 0, 0, 0, 0, 0, 0, 0, 0, 0], "stateRewards": ["", 1, -3, 4, 13, -72, 52, 5, 5, -58, 5, 14, 2, 1, 3, -14, -86, -4, 73, 6, -58, -50, 49, 2, -3, -4, 2, 33, -41, 42, -11, 81, 45, 53], "withholdReward": false, "trial_id": "mdp_trial_8", "block": "test", "trialIndex": 9, "score": 34.2, "costs": -2.8, "simulationMode": [null, null, null, null, null], "rewards": [2, -3, -4, -11, 53], "path": ["0", "0", "23", "24", "25", "30", "33"], "rt": [9249, 30, 94, 264, 151], "actions": ["left", "left", "left", "down", "left"], "actionTimes": [10628, 11162, 11784, 12553, 13224], "queries": {"click": {"state": {"target": ["29", "33"], "time": [2859, 6424]}, "edge": {"target": [], "time": []}}, "mouseover": {"state": {"target": ["23", "26", "29", "3", "4", "7", "23", "24", "30", "33", "30", "31"], "time": [2056, 2254, 2526, 3818, 4354, 4511, 5104, 5610, 5674, 5792, 7219, 7276]}, "edge": {"target": [], "time": []}}, "mouseout": {"state": {"target": ["0", "23", "26", "29", "3", "4", "7", "23", "24", "30", "33", "30", "31"], "time": [798, 2095, 2406, 3683, 3848, 4448, 4638, 5210, 5646, 5708, 7190, 7246, 7327]}, "edge": {"target": [], "time": []}}}, "displayed_time": "15.38", "trialTime": 16765, "trial_type": "mouselab-mdp", "trial_index": 16, "time_elapsed": 1032518, "internal_node_id": "0.0-6.0-1.0-7.0"}}, {"uniqueid": "w94352509:a31773596", "current_trial": 17, "dateTime": 1693661405605, "trialdata": {"revealed_states": [], "clicked_states": ["17", "27", "32"], "num_clicks_accrued": [0, 0, 0, 0, 0, 0, 0, 0, 0, 0, 0, 0, 0], "stateRewards": ["", 1, 4, -8, -13, -13, -87, -77, -10, -44, 54, 42, 2, -3, -4, 12, -9, -80, 52, 9, 84, -2, -65, 1, -4, -5, -6, 8, 80, 32, 13, -59, -5, -13], "withholdReward": false, "trial_id": "mdp_trial_9", "block": "test", "trialIndex": 10, "score": -58.2, "costs": -4.199999999999999, "simulationMode": [null, null, null, null, null], "rewards": [1, -4, -5, 13, -59], "path": ["0", "0", "23", "24", "25", "30", "31"], "rt": [17183, 529, 417, 196, 147], "actions": ["left", "left", "left", "down", "right"], "actionTimes": [20713, 21748, 22675, 23385, 24036], "queries": {"click": {"state": {"target": ["17", "27", "32"], "time": [5872, 10134, 13819]}, "edge": {"target": [], "time": []}}, "mouseover": {"state": {"target": ["24", "13", "17", "13", "28", "27", "29", "33", "32", "33", "30", "31"], "time": [4646, 4821, 5521, 8672, 8863, 9541, 12628, 12863, 13447, 16661, 17995, 18324]}, "edge": {"target": [], "time": []}}, "mouseout": {"state": {"target": ["0", "24", "13", "17", "13", "28", "27", "29", "33", "32", "33", "30"], "time": [4596, 4681, 4855, 8378, 8706, 9277, 12478, 12661, 13280, 16266, 17896, 18125]}, "edge": {"target": [], "time": []}}}, "displayed_time": "24.54", "trialTime": 27243, "trial_type": "mouselab-mdp", "trial_index": 17, "time_elapsed": 1060528, "internal_node_id": "0.0-6.0-1.0-8.0"}}, {"uniqueid": "w94352509:a31773596", "current_trial": 18, "dateTime": 1693661424428, "trialdata": {"revealed_states": [], "clicked_states": [], "num_clicks_accrued": [0, 0, 0, 0, 0, 0, 0, 0, 0, 0, 0, 0, 0], "stateRewards": ["", 1, -2, 7, -14, 88, -56, -44, -14, 64, -51, -57, -2, 3, -4, -9, -11, 19, -77, -1, 68, 75, -67, -1, 1, -2, 5, -37, 70, -34, -10, -72, 63, -41], "withholdReward": false, "trial_id": "mdp_trial_10", "block": "test", "trialIndex": 11, "score": 7, "costs": 0, "simulationMode": [null, null, null, null, null], "rewards": [-2, 3, -4, -9, 19], "path": ["0", "0", "12", "13", "14", "15", "17"], "rt": [834, 976, 314, 50, 112], "actions": ["right", "right", "right", "up", "right"], "actionTimes": [3512, 4999, 5820, 6376, 7023], "queries": {"click": {"state": {"target": [], "time": []}, "edge": {"target": [], "time": []}}, "mouseover": {"state": {"target": [], "time": []}, "edge": {"target": [], "time": []}}, "mouseout": {"state": {"target": ["31", "23", "1"], "time": [1341, 1426, 1659]}, "edge": {"target": [], "time": []}}}, "displayed_time": "16.69", "trialTime": 17818, "trial_type": "mouselab-mdp", "trial_index": 18, "time_elapsed": 1079351, "internal_node_id": "0.0-6.0-1.0-9.0"}}, {"uniqueid": "w94352509:a31773596", "current_trial": 19, "dateTime": 1693661442626, "trialdata": {"revealed_states": [], "clicked_states": [], "num_clicks_accrued": [0, 0, 0, 0, 0, 0, 0, 0, 0, 0, 0, 0, 0], "stateRewards": ["", 2, 4, 4, 9, -88, -10, 44, 16, -54, 64, 78, 1, 2, 5, 16, 80, 36, 7, -4, 9, -47, -70, -1, -3, 6, -16, 11, 80, 28, 8, -1, 34, -17], "withholdReward": false, "trial_id": "mdp_trial_11", "block": "test", "trialIndex": 12, "score": 9, "costs": 0, "simulationMode": [null, null, null, null, null], "rewards": [2, 4, 4, 9, -10], "path": ["0", "0", "1", "2", "3", "4", "6"], "rt": [426, 50, 289, 221, 482], "actions": ["up", "up", "up", "right", "right"], "actionTimes": [2248, 2812, 3660, 4399, 5392], "queries": {"click": {"state": {"target": [], "time": []}, "edge": {"target": [], "time": []}}, "mouseover": {"state": {"target": [], "time": []}, "edge": {"target": [], "time": []}}, "mouseout": {"state": {"target": [], "time": []}, "edge": {"target": [], "time": []}}}, "displayed_time": "15.82", "trialTime": 17163, "trial_type": "mouselab-mdp", "trial_index": 19, "time_elapsed": 1097549, "internal_node_id": "0.0-6.0-1.0-10.0"}}, {"uniqueid": "w94352509:a31773596", "current_trial": 20, "dateTime": 1693661460452, "trialdata": {"revealed_states": [], "clicked_states": [], "num_clicks_accrued": [0, 0, 0, 0, 0, 0, 0, 0, 0, 0, 0, 0, 0], "stateRewards": ["", 2, -3, -4, -1, 25, -16, 16, 10, -71, -20, -55, 1, 3, -4, -9, 1, 32, 11, -6, 32, -50, -41, -1, 4, 4, -8, 7, -81, 70, 2, -52, 45, -10], "withholdReward": false, "trial_id": "mdp_trial_12", "block": "test", "trialIndex": 13, "score": -82, "costs": 0, "simulationMode": [null, null, null, null, null], "rewards": [-1, 4, 4, -8, -81], "path": ["0", "0", "23", "24", "25", "26", "28"], "rt": [2173, 167, 66, 37, 719], "actions": ["left", "left", "left", "up", "right"], "actionTimes": [3893, 4573, 5143, 5719, 6979], "queries": {"click": {"state": {"target": [], "time": []}, "edge": {"target": [], "time": []}}, "mouseover": {"state": {"target": [], "time": []}, "edge": {"target": [], "time": []}}, "mouseout": {"state": {"target": [], "time": []}, "edge": {"target": [], "time": []}}}, "displayed_time": "15.72", "trialTime": 16940, "trial_type": "mouselab-mdp", "trial_index": 20, "time_elapsed": 1115376, "internal_node_id": "0.0-6.0-1.0-11.0"}}, {"uniqueid": "w94352509:a31773596", "current_trial": 21, "dateTime": 1693661478184, "trialdata": {"revealed_states": [], "clicked_states": [], "num_clicks_accrued": [0, 0, 0, 0, 0, 0, 0, 0, 0, 0, 0, 0, 0], "stateRewards": ["", -2, -1, 3, -3, 71, -58, -21, 7, -10, -75, -37, 2, 4, -1, -12, -79, -29, -48, 3, -41, -10, -30, -1, -2, 1, -15, 13, 66, 22, -1, -42, -86, -55], "withholdReward": false, "trial_id": "mdp_trial_13", "block": "test", "trialIndex": 14, "score": 5, "costs": 0, "simulationMode": [null, null, null, null, null], "rewards": [-1, -2, 1, -15, 22], "path": ["0", "0", "23", "24", "25", "26", "29"], "rt": [1610, 44, 175, 109, 575], "actions": ["left", "left", "left", "up", "left"], "actionTimes": [2805, 3363, 4066, 4686, 5781], "queries": {"click": {"state": {"target": [], "time": []}, "edge": {"target": [], "time": []}}, "mouseover": {"state": {"target": [], "time": []}, "edge": {"target": [], "time": []}}, "mouseout": {"state": {"target": [], "time": []}, "edge": {"target": [], "time": []}}}, "displayed_time": "15.20", "trialTime": 16784, "trial_type": "mouselab-mdp", "trial_index": 21, "time_elapsed": 1133107, "internal_node_id": "0.0-6.0-1.0-12.0"}}, {"uniqueid": "w94352509:a31773596", "current_trial": 22, "dateTime": 1693661498725, "trialdata": {"revealed_states": [], "clicked_states": [], "num_clicks_accrued": [0, 0, 0, 0, 0, 0, 0, 0, 0, 0, 0, 0, 0], "stateRewards": ["", 1, 2, -3, -6, 50, -7, 7, -7, -80, 21, -1, 2, 2, 4, -1, 33, 84, 1, 14, -53, 81, 6, -2, -2, -3, -9, -87, -38, -59, -5, -74, -3, -71], "withholdReward": false, "trial_id": "mdp_trial_14", "block": "test", "trialIndex": 15, "score": 103, "costs": 0, "simulationMode": [null, null, null, null, null], "rewards": [2, 2, 4, 14, 81], "path": ["0", "0", "12", "13", "14", "19", "21"], "rt": [4693, 701, 349, 588, 331], "actions": ["right", "right", "right", "down", "down"], "actionTimes": [7517, 8718, 9559, 10656, 11532], "queries": {"click": {"state": {"target": [], "time": []}, "edge": {"target": [], "time": []}}, "mouseover": {"state": {"target": [], "time": []}, "edge": {"target": [], "time": []}}, "mouseout": {"state": {"target": [], "time": []}, "edge": {"target": [], "time": []}}}, "displayed_time": "16.82", "trialTime": 19539, "trial_type": "mouselab-mdp", "trial_index": 22, "time_elapsed": 1153649, "internal_node_id": "0.0-6.0-1.0-13.0"}}, {"uniqueid": "w94352509:a31773596", "current_trial": 23, "dateTime": 1693661519265, "trialdata": {"revealed_states": [], "clicked_states": [], "num_clicks_accrued": [0, 0, 0, 0, 0, 0, 0, 0, 0, 0, 0, 0, 0], "stateRewards": ["", -1, 4, -5, 9, 29, -75, -42, -16, 24, -28, -41, 2, -3, 1, 10, 60, 47, 55, -1, -53, 22, -40, 2, -3, -6, 4, -26, 44, 54, 15, -76, 42, 14], "withholdReward": false, "trial_id": "mdp_trial_15", "block": "test", "trialIndex": 16, "score": -68, "costs": 0, "simulationMode": [null, null, null, null, null], "rewards": [2, -3, -6, 15, -76], "path": ["0", "0", "23", "24", "25", "30", "31"], "rt": [1976, 132, 64, 182, 326], "actions": ["left", "left", "left", "down", "right"], "actionTimes": [5853, 6489, 7058, 7780, 8621], "queries": {"click": {"state": {"target": [], "time": []}, "edge": {"target": [], "time": []}}, "mouseover": {"state": {"target": [], "time": []}, "edge": {"target": [], "time": []}}, "mouseout": {"state": {"target": [], "time": []}, "edge": {"target": [], "time": []}}}, "displayed_time": "17.89", "trialTime": 19556, "trial_type": "mouselab-mdp", "trial_index": 23, "time_elapsed": 1174188, "internal_node_id": "0.0-6.0-1.0-14.0"}}, {"uniqueid": "w94352509:a31773596", "current_trial": 24, "dateTime": 1693661540529, "trialdata": {"revealed_states": [], "clicked_states": [], "num_clicks_accrued": [0, 0, 0, 0, 0, 0, 0, 0, 0, 0, 0, 0, 0], "stateRewards": ["", -2, 2, -5, 1, 42, -63, -58, -6, 2, 16, 81, -2, 4, 7, -10, 33, 3, -33, -2, -52, -84, -27, 2, -3, -3, 15, -74, -14, -5, -5, -84, 79, -31], "withholdReward": false, "trial_id": "mdp_trial_16", "block": "test", "trialIndex": 17, "score": -67, "costs": 0, "simulationMode": [null, null, null, null, null], "rewards": [-2, 2, -5, 1, -63], "path": ["0", "0", "1", "2", "3", "4", "6"], "rt": [2473, 398, 281, 236, 896], "actions": ["up", "up", "up", "right", "right"], "actionTimes": [4855, 5757, 6538, 7284, 8724], "queries": {"click": {"state": {"target": [], "time": []}, "edge": {"target": [], "time": []}}, "mouseover": {"state": {"target": [], "time": []}, "edge": {"target": [], "time": []}}, "mouseout": {"state": {"target": [], "time": []}, "edge": {"target": [], "time": []}}}, "displayed_time": "16.39", "trialTime": 20186, "trial_type": "mouselab-mdp", "trial_index": 24, "time_elapsed": 1195452, "internal_node_id": "0.0-6.0-1.0-15.0"}}, {"uniqueid": "w94352509:a31773596", "current_trial": 25, "dateTime": 1693661560978, "trialdata": {"revealed_states": [], "clicked_states": [], "num_clicks_accrued": [0, 0, 0, 0, 0, 0, 0, 0, 0, 0, 0, 0, 0], "stateRewards": ["", -1, -3, -7, -7, -76, 30, -49, 11, -70, 56, 2, 1, 4, -3, -14, -59, -83, -25, -9, -21, -67, -73, -2, 4, 4, -9, -11, -32, 60, 9, -87, 22, -64], "withholdReward": false, "trial_id": "mdp_trial_17", "block": "test", "trialIndex": 18, "score": 57, "costs": 0, "simulationMode": [null, null, null, null, null], "rewards": [-2, 4, 4, -9, 60], "path": ["0", "0", "23", "24", "25", "26", "29"], "rt": [2463, 740, 279, 665, 1817], "actions": ["left", "left", "left", "up", "left"], "actionTimes": [4233, 5477, 6270, 7440, 9770], "queries": {"click": {"state": {"target": [], "time": []}, "edge": {"target": [], "time": []}}, "mouseover": {"state": {"target": [], "time": []}, "edge": {"target": [], "time": []}}, "mouseout": {"state": {"target": [], "time": []}, "edge": {"target": [], "time": []}}}, "displayed_time": "15.78", "trialTime": 19397, "trial_type": "mouselab-mdp", "trial_index": 25, "time_elapsed": 1215901, "internal_node_id": "0.0-6.0-1.0-16.0"}}, {"uniqueid": "w94352509:a31773596", "current_trial": 26, "dateTime": 1693661592316, "trialdata": {"revealed_states": [], "clicked_states": [], "num_clicks_accrued": [0, 0, 0, 0, 0, 0, 0, 0, 0, 0, 0, 0, 0], "stateRewards": ["", 2, -2, -3, 10, -4, -1, -11, -8, -9, -36, -78, 2, 1, 7, -7, 44, -1, -31, -1, 26, 47, 83, 2, -4, -4, -6, -52, -76, -81, -1, -59, 45, 67], "withholdReward": false, "trial_id": "mdp_trial_18", "block": "test", "trialIndex": 19, "score": -47, "costs": 0, "simulationMode": [null, null, null, null, null], "rewards": [2, -2, -3, -8, -36], "path": ["0", "0", "1", "2", "3", "8", "10"], "rt": [2662, 39, 807, 579, 287], "actions": ["up", "up", "up", "left", "down"], "actionTimes": [5329, 5887, 7239, 8380, 9185], "queries": {"click": {"state": {"target": [], "time": []}, "edge": {"target": [], "time": []}}, "mouseover": {"state": {"target": [], "time": []}, "edge": {"target": [], "time": []}}, "mouseout": {"state": {"target": [], "time": []}, "edge": {"target": [], "time": []}}}, "displayed_time": "16.67", "trialTime": 30088, "trial_type": "mouselab-mdp", "trial_index": 26, "time_elapsed": 1247239, "internal_node_id": "0.0-6.0-1.0-17.0"}}, {"uniqueid": "w94352509:a31773596", "current_trial": 27, "dateTime": 1693661610881, "trialdata": {"revealed_states": [], "clicked_states": [], "num_clicks_accrued": [0, 0, 0, 0, 0, 0, 0, 0, 0, 0, 0, 0, 0], "stateRewards": ["", 1, -1, 8, -3, 38, 85, -20, -4, 8, 23, 73, 2, -4, 6, -13, 44, 7, -28, -11, -77, 45, -69, 1, -1, -7, -11, 75, -51, -87, 7, 36, -53, -26], "withholdReward": false, "trial_id": "mdp_trial_19", "block": "test", "trialIndex": 20, "score": -76, "costs": 0, "simulationMode": [null, null, null, null, null], "rewards": [2, -4, 6, -11, -69], "path": ["0", "0", "12", "13", "14", "19", "22"], "rt": [4099, 720, 246, 490, 788], "actions": ["right", "right", "right", "down", "left"], "actionTimes": [6159, 7377, 8142, 9154, 10464], "queries": {"click": {"state": {"target": [], "time": []}, "edge": {"target": [], "time": []}}, "mouseover": {"state": {"target": [], "time": []}, "edge": {"target": [], "time": []}}, "mouseout": {"state": {"target": [], "time": []}, "edge": {"target": [], "time": []}}}, "displayed_time": "16.07", "trialTime": 17499, "trial_type": "mouselab-mdp", "trial_index": 27, "time_elapsed": 1265804, "internal_node_id": "0.0-6.0-1.0-18.0"}}, {"uniqueid": "w94352509:a31773596", "current_trial": 28, "dateTime": 1693661629602, "trialdata": {"revealed_states": [], "clicked_states": [], "num_clicks_accrued": [0, 0, 0, 0, 0, 0, 0, 0, 0, 0, 0, 0, 0], "stateRewards": ["", 1, -3, -6, -5, 47, 80, -29, 11, -71, 10, -29, -2, 3, -6, 12, 2, -78, -6, 8, 34, -16, -5, -1, 3, 3, -13, 84, -36, -62, -3, -27, 66, 15], "withholdReward": false, "trial_id": "mdp_trial_20", "block": "test", "trialIndex": 21, "score": -26, "costs": 0, "simulationMode": [null, null, null, null, null], "rewards": [1, -3, -6, 11, -29], "path": ["0", "0", "1", "2", "3", "8", "11"], "rt": [3556, 37, 560, 42, 651], "actions": ["up", "up", "up", "left", "left"], "actionTimes": [5193, 5728, 6830, 7391, 8568], "queries": {"click": {"state": {"target": [], "time": []}, "edge": {"target": [], "time": []}}, "mouseover": {"state": {"target": [], "time": []}, "edge": {"target": [], "time": []}}, "mouseout": {"state": {"target": [], "time": []}, "edge": {"target": [], "time": []}}}, "displayed_time": "15.64", "trialTime": 17670, "trial_type": "mouselab-mdp", "trial_index": 28, "time_elapsed": 1284525, "internal_node_id": "0.0-6.0-1.0-19.0"}}, {"uniqueid": "w94352509:a31773596", "current_trial": 29, "dateTime": 1693661649374, "trialdata": {"revealed_states": [], "clicked_states": [], "num_clicks_accrued": [0, 0, 0, 0, 0, 0, 0, 0, 0, 0, 0, 0, 0], "stateRewards": ["", 1, 1, 7, -11, 80, -20, -53, -14, 3, 31, 27, 2, -1, -8, -10, 33, 41, 86, 9, 78, -37, -13, -1, -2, -6, -8, -80, 75, 4, -16, -49, -74, 24], "withholdReward": false, "trial_id": "mdp_trial_21", "block": "test", "trialIndex": 22, "score": 58, "costs": 0, "simulationMode": [null, null, null, null, null], "rewards": [-1, -2, -6, -8, 75], "path": ["0", "0", "23", "24", "25", "26", "28"], "rt": [1308, 117, 11, 1617, 589], "actions": ["left", "left", "left", "up", "right"], "actionTimes": [3142, 3817, 4357, 6550, 7645], "queries": {"click": {"state": {"target": [], "time": []}, "edge": {"target": [], "time": []}}, "mouseover": {"state": {"target": [], "time": []}, "edge": {"target": [], "time": []}}, "mouseout": {"state": {"target": [], "time": []}, "edge": {"target": [], "time": []}}}, "displayed_time": "15.84", "trialTime": 18372, "trial_type": "mouselab-mdp", "trial_index": 29, "time_elapsed": 1304297, "internal_node_id": "0.0-6.0-1.0-20.0"}}, {"uniqueid": "w94352509:a31773596", "current_trial": 30, "dateTime": 1693661669922, "trialdata": {"revealed_states": [], "clicked_states": [], "num_clicks_accrued": [0, 0, 0, 0, 0, 0, 0, 0, 0, 0, 0, 0, 0], "stateRewards": ["", 1, 3, -2, 15, 51, 15, -19, 11, 67, -45, -73, 2, 4, -2, -13, 36, 9, -28, 10, -30, 31, 16, 1, 2, -1, -16, 14, -22, 36, -1, 88, -5, 45], "withholdReward": false, "trial_id": "mdp_trial_22", "block": "test", "trialIndex": 23, "score": 45, "costs": 0, "simulationMode": [null, null, null, null, null], "rewards": [2, 4, -2, 10, 31], "path": ["0", "0", "12", "13", "14", "19", "21"], "rt": [1221, 103, 114, 527, 148], "actions": ["right", "right", "right", "down", "down"], "actionTimes": [3113, 3724, 4354, 5400, 6093], "queries": {"click": {"state": {"target": [], "time": []}, "edge": {"target": [], "time": []}}, "mouseover": {"state": {"target": [], "time": []}, "edge": {"target": [], "time": []}}, "mouseout": {"state": {"target": [], "time": []}, "edge": {"target": [], "time": []}}}, "displayed_time": "15.90", "trialTime": 19229, "trial_type": "mouselab-mdp", "trial_index": 30, "time_elapsed": 1324845, "internal_node_id": "0.0-6.0-1.0-21.0"}}, {"uniqueid": "w94352509:a31773596", "current_trial": 31, "dateTime": 1693661690332, "trialdata": {"revealed_states": [], "clicked_states": [], "num_clicks_accrued": [0, 0, 0, 0, 0, 0, 0, 0, 0, 0, 0, 0, 0], "stateRewards": ["", 1, -1, -7, -7, -22, 15, -13, 13, 26, -32, 38, -1, 1, -7, -4, 16, -62, 86, 12, -54, 56, 64, -2, -1, 6, 14, -57, 37, 62, -6, -25, 50, -70], "withholdReward": false, "trial_id": "mdp_trial_23", "block": "test", "trialIndex": 24, "score": 75, "costs": 0, "simulationMode": [null, null, null, null, null], "rewards": [-1, 1, -7, -4, 86], "path": ["0", "0", "12", "13", "14", "15", "18"], "rt": [2529, 190, 363, 274, 246], "actions": ["right", "right", "right", "up", "left"], "actionTimes": [5972, 6672, 7589, 8389, 9144], "queries": {"click": {"state": {"target": [], "time": []}, "edge": {"target": [], "time": []}}, "mouseover": {"state": {"target": [], "time": []}, "edge": {"target": [], "time": []}}, "mouseout": {"state": {"target": [], "time": []}, "edge": {"target": [], "time": []}}}, "displayed_time": "17.46", "trialTime": 19159, "trial_type": "mouselab-mdp", "trial_index": 31, "time_elapsed": 1345255, "internal_node_id": "0.0-6.0-1.0-22.0"}}, {"uniqueid": "w94352509:a31773596", "current_trial": 32, "dateTime": 1693661709218, "trialdata": {"revealed_states": [], "clicked_states": [], "num_clicks_accrued": [0, 0, 0, 0, 0, 0, 0, 0, 0, 0, 0, 0, 0], "stateRewards": ["", -2, -3, 1, -14, 48, -49, 67, -1, -35, -48, 3, -2, 1, -4, -5, 86, -84, 39, 1, 48, 41, -42, -1, -4, 2, -7, 18, -86, 17, 7, -9, 57, -69], "withholdReward": false, "trial_id": "mdp_trial_24", "block": "test", "trialIndex": 25, "score": -96, "costs": 0, "simulationMode": [null, null, null, null, null], "rewards": [-1, -4, 2, -7, -86], "path": ["0", "0", "23", "24", "25", "26", "28"], "rt": [1475, 219, 154, 161, 6], "actions": ["left", "left", "left", "up", "right"], "actionTimes": [3198, 3923, 4588, 5274, 5783], "queries": {"click": {"state": {"target": [], "time": []}, "edge": {"target": [], "time": []}}, "mouseover": {"state": {"target": [], "time": []}, "edge": {"target": [], "time": []}}, "mouseout": {"state": {"target": [], "time": []}, "edge": {"target": [], "time": []}}}, "displayed_time": "15.74", "trialTime": 17171, "trial_type": "mouselab-mdp", "trial_index": 32, "time_elapsed": 1364141, "internal_node_id": "0.0-6.0-1.0-23.0"}}, {"uniqueid": "w94352509:a31773596", "current_trial": 33, "dateTime": 1693661728290, "trialdata": {"revealed_states": [], "clicked_states": ["28"], "num_clicks_accrued": [0, 0, 0, 0, 0, 0, 0, 0, 0, 0, 0, 0, 0], "stateRewards": ["", -2, -4, 2, 10, -17, 18, 73, 11, -32, 23, -13, -2, -4, 7, 12, -25, 66, -23, 15, 40, -76, -9, 1, 2, -7, -5, -20, 24, 3, -5, 16, -73, 70], "withholdReward": false, "trial_id": "mdp_trial_25", "block": "test", "trialIndex": 26, "score": -7.4, "costs": -1.4, "simulationMode": [null, null, null, null, null], "rewards": [1, 2, -7, -5, 3], "path": ["0", "0", "23", "24", "25", "26", "29"], "rt": [7974, 128, 156, 161, 624], "actions": ["left", "left", "left", "up", "left"], "actionTimes": [9940, 10581, 11246, 11917, 13063], "queries": {"click": {"state": {"target": ["28"], "time": [4567]}, "edge": {"target": [], "time": []}}, "mouseover": {"state": {"target": ["12", "15", "15", "1", "28", "26", "29"], "time": [3099, 3378, 3645, 3735, 4129, 7496, 7743]}, "edge": {"target": [], "time": []}}, "mouseout": {"state": {"target": ["0", "12", "15", "15", "1", "28", "26", "29"], "time": [2977, 3194, 3434, 3690, 3763, 7429, 7598, 9094]}, "edge": {"target": [], "time": []}}}, "displayed_time": "15.97", "trialTime": 17808, "trial_type": "mouselab-mdp", "trial_index": 33, "time_elapsed": 1383213, "internal_node_id": "0.0-6.0-1.0-24.0"}}, {"uniqueid": "w94352509:a31773596", "current_trial": 34, "dateTime": 1693661747778, "trialdata": {"revealed_states": [], "clicked_states": ["28"], "num_clicks_accrued": [0, 0, 0, 0, 0, 0, 0, 0, 0, 0, 0, 0, 0], "stateRewards": ["", -1, 4, 3, 12, -27, 34, -33, 3, -63, 1, 6, 2, 2, -6, -11, -77, -85, 68, -6, 51, 81, -60, -2, -2, 1, 15, 20, 15, 68, -10, -14, 6, -4], "withholdReward": false, "trial_id": "mdp_trial_26", "block": "test", "trialIndex": 27, "score": 25.6, "costs": -1.4, "simulationMode": [null, null, null, null, null], "rewards": [-2, -2, 1, 15, 15], "path": ["0", "0", "23", "24", "25", "26", "28"], "rt": [9844, 34, 37, 98, 530], "actions": ["left", "left", "left", "up", "right"], "actionTimes": [12568, 13101, 13662, 14334, 15383], "queries": {"click": {"state": {"target": ["28"], "time": [4360]}, "edge": {"target": [], "time": []}}, "mouseover": {"state": {"target": ["23", "24", "28", "29", "1", "27"], "time": [3528, 3626, 3860, 8692, 10527, 11201]}, "edge": {"target": [], "time": []}}, "mouseout": {"state": {"target": ["25", "24", "23", "0", "23", "24", "28", "29", "1", "27"], "time": [1121, 1175, 1334, 3498, 3575, 3710, 6727, 10444, 10966, 11788]}, "edge": {"target": [], "time": []}}}, "displayed_time": "16.73", "trialTime": 18233, "trial_type": "mouselab-mdp", "trial_index": 34, "time_elapsed": 1402701, "internal_node_id": "0.0-6.0-1.0-25.0"}}, {"uniqueid": "w94352509:a31773596", "current_trial": 35, "dateTime": 1693661772919, "trialdata": {"revealed_states": [], "clicked_states": ["32"], "num_clicks_accrued": [0, 0, 0, 0, 0, 0, 0, 0, 0, 0, 0, 0, 0], "stateRewards": ["", 1, -3, -4, -11, -56, 61, -47, -16, -28, -9, 69, -2, -3, -4, -8, 40, -86, 59, -4, 80, 27, 54, -1, 3, -1, 8, 67, 23, 50, 6, 83, -43, -29], "withholdReward": false, "trial_id": "mdp_trial_27", "block": "test", "trialIndex": 28, "score": 57.6, "costs": -1.4, "simulationMode": [null, null, null, null, null], "rewards": [-1, 3, -1, 8, 50], "path": ["0", "0", "23", "24", "25", "26", "29"], "rt": [12308, 377, 77, 859, 152], "actions": ["left", "left", "left", "up", "left"], "actionTimes": [17226, 18108, 18717, 20080, 20735], "queries": {"click": {"state": {"target": ["32"], "time": [7325]}, "edge": {"target": [], "time": []}}, "mouseover": {"state": {"target": ["23", "31", "32", "29", "29"], "time": [6269, 6341, 6823, 11403, 11753]}, "edge": {"target": [], "time": []}}, "mouseout": {"state": {"target": ["28", "0", "23", "31", "32", "29"], "time": [3117, 6223, 6291, 6408, 7522, 11459]}, "edge": {"target": [], "time": []}}}, "displayed_time": "21.24", "trialTime": 24154, "trial_type": "mouselab-mdp", "trial_index": 35, "time_elapsed": 1427842, "internal_node_id": "0.0-6.0-1.0-26.0"}}, {"uniqueid": "w94352509:a31773596", "current_trial": 36, "dateTime": 1693661793694, "trialdata": {"revealed_states": [], "clicked_states": ["17", "16"], "num_clicks_accrued": [0, 0, 0, 0, 0, 0, 0, 0, 0, 0, 0, 0, 0], "stateRewards": ["", -2, -1, -2, -15, 87, 57, 29, -10, 77, -80, -7, 1, -3, 6, 14, -11, 87, -59, 4, -71, 16, -11, 2, 2, -7, 2, -47, 61, 50, 14, -20, 17, 81], "withholdReward": false, "trial_id": "mdp_trial_28", "block": "test", "trialIndex": 29, "score": 102.2, "costs": -2.8, "simulationMode": [null, null, null, null, null], "rewards": [1, -3, 6, 14, 87], "path": ["0", "0", "12", "13", "14", "15", "17"], "rt": [6989, 478, 383, 258, 185], "actions": ["right", "right", "right", "up", "right"], "actionTimes": [9596, 10574, 11469, 12243, 12989], "queries": {"click": {"state": {"target": ["17", "16"], "time": [4201, 6545]}, "edge": {"target": [], "time": []}}, "mouseover": {"state": {"target": ["12", "13", "17", "15", "16"], "time": [2839, 2908, 3730, 5049, 5274]}, "edge": {"target": [], "time": []}}, "mouseout": {"state": {"target": ["29", "28", "23", "12", "13", "17", "15"], "time": [1000, 1066, 1199, 2889, 2926, 4916, 5133]}, "edge": {"target": [], "time": []}}}, "displayed_time": "16.62", "trialTime": 19344, "trial_type": "mouselab-mdp", "trial_index": 36, "time_elapsed": 1448617, "internal_node_id": "0.0-6.0-1.0-27.0"}}, {"uniqueid": "w94352509:a31773596", "current_trial": 37, "dateTime": 1693661813621, "trialdata": {"revealed_states": [], "clicked_states": ["6"], "num_clicks_accrued": [0, 0, 0, 0, 0, 0, 0, 0, 0, 0, 0, 0, 0], "stateRewards": ["", 2, 1, -3, 7, 46, 11, -36, 16, 71, 5, 1, 2, -2, -8, -3, -4, 6, 55, 7, 68, -54, 2, 1, 1, 6, -6, 42, -4, -84, -11, -65, 63, 25], "withholdReward": false, "trial_id": "mdp_trial_29", "block": "test", "trialIndex": 30, "score": 16.6, "costs": -1.4, "simulationMode": [null, null, null, null, null], "rewards": [2, 1, -3, 7, 11], "path": ["0", "0", "1", "2", "3", "4", "6"], "rt": [6279, 331, 124, 517, 103], "actions": ["up", "up", "up", "right", "right"], "actionTimes": [8762, 9605, 10255, 11280, 11919], "queries": {"click": {"state": {"target": ["6"], "time": [4405]}, "edge": {"target": [], "time": []}}, "mouseover": {"state": {"target": ["7", "4", "6", "4", "3"], "time": [3032, 3915, 4067, 5247, 6568]}, "edge": {"target": [], "time": []}}, "mouseout": {"state": {"target": ["16", "18", "12", "7", "4", "6", "4", "3"], "time": [772, 805, 952, 3248, 4016, 5191, 5376, 6952]}, "edge": {"target": [], "time": []}}}, "displayed_time": "16.49", "trialTime": 18606, "trial_type": "mouselab-mdp", "trial_index": 37, "time_elapsed": 1468544, "internal_node_id": "0.0-6.0-1.0-28.0"}}, {"uniqueid": "w94352509:a31773596", "current_trial": 38, "dateTime": 1693661838567, "trialdata": {"revealed_states": [], "clicked_states": ["21", "22", "20", "17"], "num_clicks_accrued": [0, 0, 0, 0, 0, 0, 0, 0, 0, 0, 0, 0, 0], "stateRewards": ["", -2, 1, -7, -8, -37, -76, -87, 11, 30, -63, 80, -1, 4, 2, -1, 42, 17, 52, -3, -75, -80, -68, 2, -3, -5, -15, -48, 82, 24, -7, 5, -22, -71], "withholdReward": false, "trial_id": "mdp_trial_30", "block": "test", "trialIndex": 31, "score": 15.4, "costs": -5.6, "simulationMode": [null, null, null, null, null], "rewards": [-1, 4, 2, -1, 17], "path": ["0", "0", "12", "13", "14", "15", "17"], "rt": [13628, 48, 201, 15, 157], "actions": ["right", "right", "right", "up", "right"], "actionTimes": [17279, 17835, 18580, 19104, 19782], "queries": {"click": {"state": {"target": ["21", "22", "20", "17"], "time": [4773, 6970, 9400, 13037]}, "edge": {"target": [], "time": []}}, "mouseover": {"state": {"target": ["21", "22", "20", "14", "17", "16"], "time": [4343, 5698, 8964, 11866, 12688, 15379]}, "edge": {"target": [], "time": []}}, "mouseout": {"state": {"target": ["7", "12", "0", "21", "22", "20", "14", "17"], "time": [1725, 2280, 2593, 5515, 8880, 11650, 12382, 15200]}, "edge": {"target": [], "time": []}}}, "displayed_time": "20.29", "trialTime": 23634, "trial_type": "mouselab-mdp", "trial_index": 38, "time_elapsed": 1493491, "internal_node_id": "0.0-6.0-1.0-29.0"}}, {"uniqueid": "w94352509:a31773596", "current_trial": 39, "dateTime": 1693661858691, "trialdata": {"revealed_states": [], "clicked_states": ["29", "27", "33"], "num_clicks_accrued": [0, 0, 0, 0, 0, 0, 0, 0, 0, 0, 0, 0, 0], "stateRewards": ["", 2, -4, -4, 13, -80, 62, 13, -11, 57, -13, -44, 1, 4, 3, -4, -29, -88, 15, 16, -58, 68, -45, -1, -3, -1, -9, -44, -86, -19, -7, -36, 59, 66], "withholdReward": false, "trial_id": "mdp_trial_31", "block": "test", "trialIndex": 32, "score": 49.8, "costs": -4.199999999999999, "simulationMode": [null, null, null, null, null], "rewards": [-1, -3, -1, -7, 66], "path": ["0", "0", "23", "24", "25", "30", "33"], "rt": [10968, 30, 112, 28, 123], "actions": ["left", "left", "left", "down", "left"], "actionTimes": [13909, 14435, 15078, 15637, 16284], "queries": {"click": {"state": {"target": ["29", "27", "33"], "time": [4708, 7065, 10675]}, "edge": {"target": [], "time": []}}, "mouseover": {"state": {"target": ["23", "26", "29", "27", "26", "25", "33", "33"], "time": [3572, 3936, 4159, 6095, 9003, 9221, 9707, 10185]}, "edge": {"target": [], "time": []}}, "mouseout": {"state": {"target": ["16", "18", "0", "23", "0", "23", "26", "29", "27", "26", "25", "33", "33", "33"], "time": [948, 1023, 1170, 1550, 3518, 3652, 4077, 5711, 8720, 9171, 9653, 9755, 10872, 12934]}, "edge": {"target": [], "time": []}}}, "displayed_time": "16.95", "trialTime": 18996, "trial_type": "mouselab-mdp", "trial_index": 39, "time_elapsed": 1513614, "internal_node_id": "0.0-6.0-1.0-30.0"}}, {"uniqueid": "w94352509:a31773596", "current_trial": 40, "dateTime": 1693661879402, "trialdata": {"revealed_states": [], "clicked_states": ["21", "22"], "num_clicks_accrued": [0, 0, 0, 0, 0, 0, 0, 0, 0, 0, 0, 0, 0], "stateRewards": ["", -1, 3, 8, 10, -86, 61, -36, 10, 17, -60, 24, -1, -3, 3, 11, 50, 60, 33, -3, -20, 58, -6, 1, -4, -4, 13, -70, -71, 43, 14, 52, 82, -11], "withholdReward": false, "trial_id": "mdp_trial_32", "block": "test", "trialIndex": 33, "score": 51.2, "costs": -2.8, "simulationMode": [null, null, null, null, null, null], "rewards": [-1, -3, 3, -3, 58], "path": ["0", "0", "12", "13", "14", "19", "21"], "rt": [5959, 772, 695, 162, 179, 192], "actions": ["right", "right", "right", "right", "down", "down"], "actionTimes": [9886, 10667, 11878, 12543, 13227, 13940], "queries": {"click": {"state": {"target": ["21", "22"], "time": [6486, 8779]}, "edge": {"target": [], "time": []}}, "mouseover": {"state": {"target": ["0", "22", "19", "21", "22"], "time": [4819, 5507, 5719, 6102, 7645]}, "edge": {"target": [], "time": []}}, "mouseout": {"state": {"target": ["0", "0", "22", "19", "21"], "time": [2860, 4889, 5557, 5834, 6673]}, "edge": {"target": [], "time": []}}}, "displayed_time": "17.93", "trialTime": 19558, "trial_type": "mouselab-mdp", "trial_index": 40, "time_elapsed": 1534325, "internal_node_id": "0.0-6.0-1.0-31.0"}}, {"uniqueid": "w94352509:a31773596", "current_trial": 41, "dateTime": 1693661898957, "trialdata": {"revealed_states": [], "clicked_states": ["32"], "num_clicks_accrued": [0, 0, 0, 0, 0, 0, 0, 0, 0, 0, 0, 0, 0], "stateRewards": ["", 2, 3, -2, -8, -8, -41, 74, 15, -23, -80, 1, 1, 3, 3, -15, -63, -78, 67, 13, 75, -41, 86, 2, -2, 6, -3, -8, -49, 50, -6, 83, 74, 80], "withholdReward": false, "trial_id": "mdp_trial_33", "block": "test", "trialIndex": 34, "score": 72.6, "costs": -1.4, "simulationMode": [null, null, null, null, null], "rewards": [2, -2, 6, -6, 74], "path": ["0", "0", "23", "24", "25", "30", "32"], "rt": [4356, 24, 59, 874, 173], "actions": ["left", "left", "left", "down", "down"], "actionTimes": [7113, 7646, 8256, 9818, 10498], "queries": {"click": {"state": {"target": ["32"], "time": [4232]}, "edge": {"target": [], "time": []}}, "mouseover": {"state": {"target": ["23", "31", "32", "33"], "time": [3349, 3483, 3784, 5524]}, "edge": {"target": [], "time": []}}, "mouseout": {"state": {"target": ["22", "12", "0", "23", "31", "32"], "time": [1516, 1690, 3332, 3405, 3516, 5180]}, "edge": {"target": [], "time": []}}}, "displayed_time": "16.77", "trialTime": 18207, "trial_type": "mouselab-mdp", "trial_index": 41, "time_elapsed": 1553880, "internal_node_id": "0.0-6.0-1.0-32.0"}}, {"uniqueid": "w94352509:a31773596", "current_trial": 42, "dateTime": 1693661922602, "trialdata": {"revealed_states": [], "clicked_states": ["16", "29", "28", "33"], "num_clicks_accrued": [0, 0, 0, 0, 0, 0, 0, 0, 0, 0, 0, 0, 0], "stateRewards": ["", -2, 2, -1, -6, 22, 6, 6, -5, 70, -42, 65, 1, 3, 5, -6, -67, -9, 3, 14, 7, -62, -13, -2, 4, 1, 16, 42, -21, -52, -8, 32, 53, 81], "withholdReward": false, "trial_id": "mdp_trial_34", "block": "test", "trialIndex": 35, "score": 70.4, "costs": -5.6, "simulationMode": [null, null, null, null, null], "rewards": [-2, 4, 1, -8, 81], "path": ["0", "0", "23", "24", "25", "30", "33"], "rt": [13733, 55, 113, 39, 103], "actions": ["left", "left", "left", "down", "left"], "actionTimes": [15978, 16565, 17210, 17754, 18417], "queries": {"click": {"state": {"target": ["16", "29", "28", "33"], "time": [3842, 7491, 10101, 13198]}, "edge": {"target": [], "time": []}}, "mouseover": {"state": {"target": ["16", "7", "1", "28", "26", "29", "26", "28", "27", "26", "33"], "time": [3397, 6231, 6464, 6642, 6902, 7031, 9465, 9755, 12318, 12554, 12686]}, "edge": {"target": [], "time": []}}, "mouseout": {"state": {"target": ["33", "23", "16", "7", "1", "28", "26", "29", "26", "28", "27", "26", "33"], "time": [689, 923, 6051, 6342, 6515, 6684, 6930, 9412, 9558, 10298, 12537, 12586, 15335]}, "edge": {"target": [], "time": []}}}, "displayed_time": "18.96", "trialTime": 22450, "trial_type": "mouselab-mdp", "trial_index": 42, "time_elapsed": 1577525, "internal_node_id": "0.0-6.0-1.0-33.0"}}, {"uniqueid": "w94352509:a31773596", "current_trial": 43, "dateTime": 1693661943442, "trialdata": {"revealed_states": [], "clicked_states": ["31", "32"], "num_clicks_accrued": [0, 0, 0, 0, 0, 0, 0, 0, 0, 0, 0, 0, 0], "stateRewards": ["", -1, 3, 2, 9, 41, 4, -46, -12, -54, -87, -25, 2, 3, -1, 11, -77, 12, -33, -9, -32, 35, 72, 1, 3, -7, 4, 37, 65, -73, 6, 77, -43, 8], "withholdReward": false, "trial_id": "mdp_trial_35", "block": "test", "trialIndex": 36, "score": 77.2, "costs": -2.8, "simulationMode": [null, null, null, null, null, null], "rewards": [1, 3, -7, 6, 77], "path": ["0", "0", "23", "24", "25", "30", "31"], "rt": [5316, 781, 625, 201, 166, 382], "actions": ["left", "left", "left", "left", "down", "right"], "actionTimes": [8870, 9661, 10822, 11530, 12210, 13110], "queries": {"click": {"state": {"target": ["31", "32"], "time": [5606, 7723]}, "edge": {"target": [], "time": []}}, "mouseover": {"state": {"target": ["31", "32"], "time": [5210, 6940]}, "edge": {"target": [], "time": []}}, "mouseout": {"state": {"target": ["30", "23", "0", "31", "31"], "time": [1676, 2104, 5050, 6397, 6813]}, "edge": {"target": [], "time": []}}}, "displayed_time": "17.56", "trialTime": 19186, "trial_type": "mouselab-mdp", "trial_index": 43, "time_elapsed": 1598365, "internal_node_id": "0.0-6.0-1.0-34.0"}}, {"uniqueid": "w94352509:a31773596", "current_trial": 44, "dateTime": 1693661963397, "trialdata": {"revealed_states": [], "clicked_states": ["16", "18", "22"], "num_clicks_accrued": [0, 0, 0, 0, 0, 0, 0, 0, 0, 0, 0, 0, 0], "stateRewards": ["", -2, 4, -3, -13, 63, -36, 62, 11, 78, 34, -51, 2, -2, 8, -6, -40, -18, 31, 9, 64, 39, 79, 1, 4, -4, 15, -12, 76, 73, -10, -77, 86, -4], "withholdReward": false, "trial_id": "mdp_trial_36", "block": "test", "trialIndex": 37, "score": 91.8, "costs": -4.199999999999999, "simulationMode": [null, null, null, null, null], "rewards": [2, -2, 8, 9, 79], "path": ["0", "0", "12", "13", "14", "19", "22"], "rt": [8534, 121, 171, 135, 364], "actions": ["right", "right", "right", "down", "left"], "actionTimes": [11035, 11684, 12385, 13029, 13925], "queries": {"click": {"state": {"target": ["16", "18", "22"], "time": [4014, 6259, 8487]}, "edge": {"target": [], "time": []}}, "mouseover": {"state": {"target": ["12", "18", "15", "16", "15", "18", "13", "22"], "time": [2835, 3175, 3435, 3501, 4803, 4967, 7260, 7714]}, "edge": {"target": [], "time": []}}, "mouseout": {"state": {"target": ["32", "0", "12", "18", "15", "16", "16", "15", "18", "13", "22"], "time": [846, 2785, 2986, 3284, 3454, 4121, 4697, 4908, 7191, 7364, 8684]}, "edge": {"target": [], "time": []}}}, "displayed_time": "16.51", "trialTime": 18640, "trial_type": "mouselab-mdp", "trial_index": 44, "time_elapsed": 1618319, "internal_node_id": "0.0-6.0-1.0-35.0"}}, {"uniqueid": "w94352509:a31773596", "current_trial": 45, "dateTime": 1693661984094, "trialdata": {"revealed_states": [], "clicked_states": ["21", "22"], "num_clicks_accrued": [0, 0, 0, 0, 0, 0, 0, 0, 0, 0, 0, 0, 0], "stateRewards": ["", 1, 2, -6, -13, -51, 22, -4, -12, -44, -12, 6, -2, -2, -2, -14, -46, -4, -77, -2, 36, -79, 41, 2, -4, 2, -6, -55, 59, 70, -5, 39, -19, 24], "withholdReward": false, "trial_id": "mdp_trial_37", "block": "test", "trialIndex": 38, "score": 30.2, "costs": -2.8, "simulationMode": [null, null, null, null, null], "rewards": [-2, -2, -2, -2, 41], "path": ["0", "0", "12", "13", "14", "19", "22"], "rt": [6601, 159, 94, 167, 175], "actions": ["right", "right", "right", "down", "left"], "actionTimes": [10204, 10877, 11481, 12166, 12841], "queries": {"click": {"state": {"target": ["21", "22"], "time": [4902, 7120]}, "edge": {"target": [], "time": []}}, "mouseover": {"state": {"target": ["12", "22", "21", "22", "12"], "time": [4118, 4274, 4664, 5846, 9483]}, "edge": {"target": [], "time": []}}, "mouseout": {"state": {"target": ["12", "0", "12", "22", "21", "22", "12"], "time": [2257, 4063, 4147, 4418, 5124, 8582, 9541]}, "edge": {"target": [], "time": []}}}, "displayed_time": "17.61", "trialTime": 19365, "trial_type": "mouselab-mdp", "trial_index": 45, "time_elapsed": 1639017, "internal_node_id": "0.0-6.0-1.0-36.0"}}, {"uniqueid": "w94352509:a31773596", "current_trial": 46, "dateTime": 1693662004210, "trialdata": {"revealed_states": [], "clicked_states": [], "num_clicks_accrued": [0, 0, 0, 0, 0, 0, 0, 0, 0, 0, 0, 0, 0], "stateRewards": ["", 1, 1, 6, -14, -40, 37, 16, -13, 33, -68, 49, 2, 4, 3, 6, 55, 27, 32, 10, -65, 20, -87, 2, 1, -6, -5, -42, 12, 29, -8, 16, 76, -33], "withholdReward": false, "trial_id": "mdp_trial_38", "block": "test", "trialIndex": 39, "score": 5, "costs": 0, "simulationMode": [null, null, null, null, null], "rewards": [2, 1, -6, -8, 16], "path": ["0", "0", "23", "24", "25", "30", "31"], "rt": [530, 1003, 220, 199, 1796], "actions": ["left", "left", "left", "down", "right"], "actionTimes": [3306, 4811, 5536, 6262, 8577], "queries": {"click": {"state": {"target": [], "time": []}, "edge": {"target": [], "time": []}}, "mouseover": {"state": {"target": [], "time": []}, "edge": {"target": [], "time": []}}, "mouseout": {"state": {"target": ["0"], "time": [1705]}, "edge": {"target": [], "time": []}}}, "displayed_time": "16.78", "trialTime": 18597, "trial_type": "mouselab-mdp", "trial_index": 46, "time_elapsed": 1659135, "internal_node_id": "0.0-6.0-1.0-37.0"}}, {"uniqueid": "w94352509:a31773596", "current_trial": 47, "dateTime": 1693662027384, "trialdata": {"revealed_states": [], "clicked_states": ["16", "18", "31", "32"], "num_clicks_accrued": [0, 0, 0, 0, 0, 0, 0, 0, 0, 0, 0, 0, 0], "stateRewards": ["", 1, -2, -8, -13, 4, 34, -84, -4, -49, 88, -70, -1, 3, -4, 10, -77, 13, -34, 15, -21, -16, 27, 1, -2, 8, -8, -6, 38, -26, 6, -15, 66, -3], "withholdReward": false, "trial_id": "mdp_trial_39", "block": "test", "trialIndex": 40, "score": 73.4, "costs": -5.6, "simulationMode": [null, null, null, null, null], "rewards": [1, -2, 8, 6, 66], "path": ["0", "0", "23", "24", "25", "30", "32"], "rt": [10922, 84, 119, 728, 253], "actions": ["left", "left", "left", "down", "down"], "actionTimes": [12905, 13500, 14135, 15397, 16171], "queries": {"click": {"state": {"target": ["16", "18", "31", "32"], "time": [3515, 5717, 7899, 10081]}, "edge": {"target": [], "time": []}}, "mouseover": {"state": {"target": ["18", "15", "16", "18", "12", "31", "31", "32"], "time": [2718, 2934, 3252, 4675, 6636, 6776, 7109, 9222]}, "edge": {"target": [], "time": []}}, "mouseout": {"state": {"target": ["0", "18", "15", "16", "18", "12", "31", "31", "32"], "time": [2642, 2785, 3040, 4434, 6627, 6671, 6842, 9023, 11935]}, "edge": {"target": [], "time": []}}}, "displayed_time": "16.70", "trialTime": 21399, "trial_type": "mouselab-mdp", "trial_index": 47, "time_elapsed": 1682307, "internal_node_id": "0.0-6.0-1.0-38.0"}}, {"uniqueid": "w94352509:a31773596", "current_trial": 48, "dateTime": 1693662053451, "trialdata": {"revealed_states": [], "clicked_states": ["32", "33", "29", "27"], "num_clicks_accrued": [0, 0, 0, 0, 0, 0, 0, 0, 0, 0, 0, 0, 0], "stateRewards": ["", -2, -3, -7, 7, -54, -69, -4, -14, -77, 22, 40, -2, -1, 5, 6, -35, 50, -60, 10, -28, 75, 57, 1, -4, -2, 2, 68, 34, -18, 12, 3, -21, -43], "withholdReward": false, "trial_id": "mdp_trial_40", "block": "test", "trialIndex": 41, "score": 59.4, "costs": -5.6, "simulationMode": [null, null, null, null, null], "rewards": [1, -4, -2, 2, 68], "path": ["0", "0", "23", "24", "25", "26", "27"], "rt": [11268, 185, 163, 201, 201], "actions": ["left", "left", "left", "up", "up"], "actionTimes": [13817, 14517, 15190, 15914, 16659], "queries": {"click": {"state": {"target": ["32", "33", "29", "27"], "time": [3436, 5681, 8230, 10871]}, "edge": {"target": [], "time": []}}, "mouseover": {"state": {"target": ["31", "32", "33", "29", "27", "28"], "time": [2599, 2987, 4448, 7670, 10327, 11789]}, "edge": {"target": [], "time": []}}, "mouseout": {"state": {"target": ["30", "0", "31", "32", "33", "29", "27"], "time": [600, 2579, 2945, 4304, 5887, 9963, 11707]}, "edge": {"target": [], "time": []}}}, "displayed_time": "17.16", "trialTime": 24521, "trial_type": "mouselab-mdp", "trial_index": 48, "time_elapsed": 1708374, "internal_node_id": "0.0-6.0-1.0-39.0"}}, {"uniqueid": "w94352509:a31773596", "current_trial": 49, "dateTime": 1693662138176, "trialdata": {"rt": 83028, "response": {"Q0": "$-88 to $88", "Q1": "$-32 to $32", "Q2": "$-16 to $16", "Q3": "The cost was always $1.4.", "Q4": "Very motivated"}, "question_order": [0, 1, 2, 3, 4], "trial_id": "final_quiz_control", "trial_type": "survey-multi-choice", "trial_index": 49, "time_elapsed": 1793099, "internal_node_id": "0.0-6.0-2.0"}}, {"uniqueid": "w94352509:a31773596", "current_trial": 50, "dateTime": 1693662271390, "trialdata": {"rt": 131642, "response": {"Q0": "After a while, I started looking for nodes with a higher number than the amount used on the inspector so that I am guaranteed a win", "Q1": "Yes, I did. I started using the inspector more", "Q2": "It wasnt at all, but you make the realization very late"}, "trial_id": "self_report_control", "trial_type": "survey-text", "trial_index": 50, "time_elapsed": 1926315, "internal_node_id": "0.0-6.0-3.0"}}, {"uniqueid": "w94352509:a31773596", "current_trial": 51, "dateTime": 1693662304741, "trialdata": {"rt": 33227, "response": {"gender": "male", "age": "22", "colorblind": "0", "effort": "0"}, "trial_type": "survey-html-form", "trial_index": 51, "time_elapsed": 1959666, "internal_node_id": "0.0-6.0-4.0"}}, {"uniqueid": "w94352509:a31773596", "current_trial": 52, "dateTime": 1693662372431, "trialdata": {"rt": 67645, "response": {"Q0": "No", "Q1": "No", "Q2": ""}, "trial_type": "survey-text", "trial_index": 52, "time_elapsed": 2027355, "internal_node_id": "0.0-6.0-5.0"}}, {"uniqueid": "w94352509:a31773596", "current_trial": 53, "dateTime": 1693662456938, "trialdata": {"rt": 84300, "stimulus": "<h1>Completion Code Instructions (1/2)</h1>\n<br><br><br><br>\nYou have reached the end of the experiment! The completion code consists of two parts: (1) a code with 2 characters (2) a code with 6 characters. On this page, you will receive the second part of the code. The first part of the completion code will be on the next page.\n<br><br>\nThe second part of your completion code is: <b>EWEK22</b>\n<br><br>\nPlease note this down. Then, press 'Next' in order to find the first part of your completion code. Once the data has been saved, you will receive this code either in this window or in the original browser window where you started the experiment.\n <br><br>\n<h2 style='color: red;'>Note: this is <strong>NOT</strong> the full completion code. Copy this down and click 'Next' to get the full completion code on the next page.</h2>", "response": 0, "trial_type": "html-button-response", "trial_index": 53, "time_elapsed": 2111862, "internal_node_id": "0.0-6.0-6.0"}}, {"uniqueid": "w94352509:a31773596", "current_trial": 54, "dateTime": 1693662457984, "trialdata": {"success": true, "trial_type": "fullscreen", "trial_index": 54, "time_elapsed": 2112909, "internal_node_id": "0.0-7.0"}}], "questiondata": {"params": {"CODE": "C6DMOQA6", "MIN_TIME": 14, "inspectCost": 1, "startTime": "Sat Sep 02 2023 15:12:20 GMT+0200 (South Africa Standard Time)", "bonusRate": 0.002, "variance": "1_2_4_8_44", "branching": "31123"}, "final_score": 692}, "eventdata": [{"eventtype": "initialized", "value": null, "timestamp": 1693660339313, "interval": 0}, {"eventtype": "window_resize", "value": [1028, 744], "timestamp": 1693660339313, "interval": 0}, {"eventtype": "window_resize", "value": [1028, 744], "timestamp": 1693660340420, "interval": 1107}, {"eventtype": "window_resize", "value": [1536, 758], "timestamp": 1693660345954, "interval": 5534}, {"eventtype": "window_resize", "value": [1536, 864], "timestamp": 1693660350994, "interval": 5040}], "useragent": "Mozilla/5.0 (Windows NT 10.0; Win64; x64) AppleWebKit/537.36 (KHTML, like Gecko) Chrome/116.0.0.0 Safari/537.36", "mode": "live", "id": "w94352509:a31773596", "status": "user data saved", "Beginhit": "2023-09-02 13:12:14.38066", "Beginexp": "2023-09-02 13:12:31.257479", "Endhit": "2023-09-02 13:47:42.531085", "psiturkStatus": 3, "browser": "<redacted>", "platform": "windows", "language": "en-ZA"}