{"condition": 1, "counterbalance": 0, "assignmentId": "a11768470", "workerId": "w27801039", "hitId": "h83328266", "currenttrial": 28, "bonus": 0, "data": [{"uniqueid": "w27801039:a11768470", "current_trial": 0, "dateTime": 1693580380098, "trialdata": {"success": true, "trial_type": "fullscreen", "trial_index": 0, "time_elapsed": 6814, "internal_node_id": "0.0-0.0"}}, {"uniqueid": "w27801039:a11768470", "current_trial": 1, "dateTime": 1693580408151, "trialdata": {"view_history": [{"page_index": 0, "viewing_time": 28041}], "rt": 28042, "trial_id": "exp_instructions_misaligned", "trial_type": "instructions", "trial_index": 1, "time_elapsed": 34869, "internal_node_id": "0.0-1.0"}}, {"uniqueid": "w27801039:a11768470", "current_trial": 2, "dateTime": 1693580795828, "trialdata": {"view_history": [{"page_index": 0, "viewing_time": 155659}, {"page_index": 1, "viewing_time": 154550}, {"page_index": 2, "viewing_time": 35737}, {"page_index": 3, "viewing_time": 41728}], "rt": 387674, "trial_id": "mouselab_instructions_1_misaligned", "trial_type": "instructions", "trial_index": 2, "time_elapsed": 422546, "internal_node_id": "0.0-2.0-1.0"}}, {"uniqueid": "w27801039:a11768470", "current_trial": 3, "dateTime": 1693580886353, "trialdata": {"revealed_states": [], "clicked_states": ["24", "25", "30", "31", "28", "26", "12", "13", "14", "19", "21", "15", "7", "10", "27", "3", "4", "23", "33", "9", "5", "17", "20", "32"], "num_clicks_accrued": [0, 0, 0, 0, 0, 0, 0, 0, 0, 0, 0, 0, 0], "stateRewards": ["", -10, 10, -10, -10, -10, 10, -10, 10, -10, -10, -10, -10, 10, 10, -10, 10, 10, 10, 10, -10, 10, 10, -10, -10, -10, -10, -10, -10, -10, -10, 10, -10, -10], "withholdReward": false, "trial_id": "practice_1", "block": "test", "trialIndex": 0, "score": -38.5, "costs": -12, "simulationMode": [null, null, null, null, null], "rewards": [-10, -10, -10, -10, 10], "path": ["0", "0", "23", "24", "25", "30", "31"], "rt": [72522, 1090, 443, 302, 309], "actions": ["left", "left", "left", "down", "right"], "actionTimes": [81428, 83037, 83973, 84765, 85589], "queries": {"click": {"state": {"target": ["24", "25", "30", "31", "28", "26", "12", "13", "14", "19", "21", "15", "7", "10", "27", "3", "4", "23", "33", "9", "5", "17", "20", "32"], "time": [10386, 11574, 12928, 14095, 15728, 17232, 18680, 29512, 30832, 32168, 33703, 34778, 36032, 37407, 38663, 40209, 41351, 43495, 44651, 52191, 53792, 54959, 56027, 61351]}, "edge": {"target": [], "time": []}}, "mouseover": {"state": {"target": ["23", "24", "25", "30", "30", "31", "23", "28", "26", "12", "13", "22", "0", "12", "13", "13", "13", "14", "19", "21", "15", "7", "2", "10", "27", "8", "4", "3", "4", "6", "0", "0", "23", "30", "33", "32", "14", "18", "12", "0", "1", "2", "3", "9", "5", "5", "4", "16", "17", "17", "20", "20", "31", "31", "32", "33", "25", "26", "26", "23", "0", "0", "0", "13", "12", "0", "7", "7", "18", "12", "0", "0", "12", "12", "0", "0", "0"], "time": [9763, 10163, 10841, 12058, 12625, 13776, 14625, 15463, 16996, 18397, 19025, 19796, 23163, 28547, 28780, 28947, 29213, 29893, 31293, 32676, 34493, 35794, 36526, 37212, 37944, 39711, 39794, 39914, 40693, 41761, 42409, 42830, 43197, 44210, 44460, 45043, 45862, 46297, 47080, 50564, 51547, 51571, 51614, 51947, 53347, 53581, 54161, 54260, 54544, 54743, 55577, 55843, 60497, 60765, 61114, 61861, 62793, 62965, 63748, 64631, 64681, 65064, 66068, 68898, 69171, 69864, 70731, 71247, 71365, 71549, 72048, 72565, 76398, 76765, 77215, 77795, 78565]}, "edge": {"target": [], "time": []}}, "mouseout": {"state": {"target": ["12", "19", "20", "19", "13", "12", "0", "0", "23", "24", "25", "30", "30", "31", "23", "28", "28", "26", "28", "12", "13", "22", "0", "12", "13", "13", "13", "14", "19", "21", "19", "14", "15", "7", "2", "10", "27", "8", "4", "3", "4", "6", "4", "0", "0", "23", "30", "33", "32", "14", "18", "12", "0", "1", "2", "3", "9", "5", "5", "4", "16", "17", "17", "20", "20", "20", "31", "31", "32", "33", "25", "26", "26", "23", "0", "0", "0", "13", "12", "0", "7", "7", "18", "12", "0", "0", "12", "12", "0", "0", "0"], "time": [328, 678, 1028, 1111, 1595, 1895, 3629, 9730, 10043, 10826, 12008, 12092, 13293, 14475, 15161, 16209, 16659, 17759, 17893, 18992, 19659, 19846, 28513, 28764, 28794, 29080, 29859, 31243, 32593, 34043, 34144, 34242, 35243, 36426, 37196, 37792, 39009, 39758, 39837, 40626, 41710, 42110, 42261, 42426, 43180, 43860, 44393, 44976, 45577, 45880, 46314, 48190, 51480, 51564, 51597, 51797, 52553, 53365, 54131, 54178, 54393, 54610, 55227, 55677, 56159, 56477, 60531, 60964, 61794, 62728, 62831, 63064, 63847, 64664, 64731, 65094, 67621, 69165, 69781, 70448, 70764, 71278, 71532, 71563, 72165, 74682, 76415, 77099, 77231, 78134, 78757]}, "edge": {"target": [], "time": []}}}, "displayed_time": "86.08", "trialTime": 89989, "trial_type": "mouselab-mdp", "trial_index": 3, "time_elapsed": 513069, "internal_node_id": "0.0-2.0-2.0-0.0"}}, {"uniqueid": "w27801039:a11768470", "current_trial": 4, "dateTime": 1693580949427, "trialdata": {"revealed_states": [], "clicked_states": ["13", "14", "19", "21", "30", "32", "2", "7", "10", "15", "22", "11", "6", "28", "31"], "num_clicks_accrued": [0, 0, 0, 0, 0, 0, 0, 0, 0, 0, 0, 0, 0], "stateRewards": ["", -10, 10, -10, -10, 10, 10, 10, 10, -10, 10, 10, -10, -10, -10, 10, 10, -10, -10, 10, -10, 10, -10, 10, 10, 10, 10, -10, 10, 10, -10, 10, 10, -10], "withholdReward": false, "trial_id": "practice_2", "block": "test", "trialIndex": 1, "score": -14, "costs": -7.5, "simulationMode": [null, null, null, null, null], "rewards": [-10, -10, -10, 10, 10], "path": ["0", "0", "12", "13", "14", "19", "21"], "rt": [51493, 182, 123, 722, 65], "actions": ["right", "right", "right", "down", "down"], "actionTimes": [55558, 56258, 56898, 58114, 58674], "queries": {"click": {"state": {"target": ["13", "14", "19", "21", "30", "32", "2", "7", "10", "15", "22", "11", "6", "28", "31"], "time": [7655, 10012, 11041, 12629, 14350, 15442, 16931, 18669, 23485, 24710, 30277, 34260, 38055, 41035, 44916]}, "edge": {"target": [], "time": []}}, "mouseover": {"state": {"target": ["12", "13", "14", "13", "14", "19", "21", "30", "32", "24", "10", "2", "10", "7", "10", "1", "18", "15", "13", "22", "14", "14", "19", "22", "11", "8", "11", "8", "6", "14", "14", "28", "23", "31", "31", "23", "0", "12", "33", "12", "12", "0"], "time": [5842, 5909, 5955, 7122, 9458, 10622, 11588, 13762, 14805, 15755, 15872, 16139, 17622, 18388, 23159, 24055, 24288, 24506, 26076, 27859, 28709, 29129, 29259, 30093, 33460, 33540, 34009, 34722, 35006, 39843, 40176, 40726, 43546, 43676, 44690, 48277, 48300, 48360, 49560, 50243, 50593, 50660]}, "edge": {"target": [], "time": []}}, "mouseout": {"state": {"target": ["22", "13", "12", "0", "12", "13", "14", "13", "14", "19", "21", "30", "30", "32", "30", "24", "10", "2", "10", "2", "7", "10", "1", "18", "15", "13", "22", "14", "14", "19", "22", "11", "8", "11", "8", "6", "14", "14", "28", "28", "23", "31", "31", "31", "23", "0", "12", "33", "12", "12", "0", "0"], "time": [1357, 1540, 1624, 5792, 5892, 5926, 5988, 9359, 10589, 11538, 13138, 14493, 14755, 15522, 15722, 15789, 15888, 17339, 18226, 18342, 19055, 23889, 24122, 24442, 24989, 26092, 28542, 28772, 29210, 30042, 32610, 33510, 33557, 34689, 34739, 38606, 39859, 40193, 41090, 41476, 43643, 43710, 48027, 48144, 48294, 48327, 48443, 49577, 50260, 50643, 51777, 61510]}, "edge": {"target": [], "time": []}}}, "displayed_time": "59.17", "trialTime": 62773, "trial_type": "mouselab-mdp", "trial_index": 4, "time_elapsed": 576143, "internal_node_id": "0.0-2.0-2.0-1.0"}}, {"uniqueid": "w27801039:a11768470", "current_trial": 5, "dateTime": 1693580986315, "trialdata": {"view_history": [{"page_index": 0, "viewing_time": 25416}, {"page_index": 1, "viewing_time": 11464}], "rt": 36880, "trial_id": "mouselab_instructions_2_misaligned", "trial_type": "instructions", "trial_index": 5, "time_elapsed": 613033, "internal_node_id": "0.0-2.0-3.0"}}, {"uniqueid": "w27801039:a11768470", "current_trial": 6, "dateTime": 1693581036748, "trialdata": {"rt": 50429, "response": {"Q0": "There is no cost for clicking on nodes.", "Q1": "The better I perform the higher my bonus will be.", "Q2": "No, the amount of cash at each node of the web may be different each time.", "Q3": "To get the highest total score.", "Q4": "Only before moving the spider.", "Q5": "10 seconds"}, "question_order": [0, 1, 2, 3, 4, 5], "correct": {"Q0": "The cost for clicking on nodes may vary between nodes.", "Q1": "The better I perform the higher my bonus will be.", "Q2": "No, the amount of cash at each node of the web may be different each time.", "Q3": "To get the highest total score.", "Q4": "Only before moving the spider.", "Q5": "3 seconds"}, "trial_id": "mouselab_quiz_misaligned", "trial_type": "survey-multi-choice", "trial_index": 6, "time_elapsed": 663466, "internal_node_id": "0.0-2.0-4.0"}}, {"uniqueid": "w27801039:a11768470", "current_trial": 7, "dateTime": 1693581055980, "trialdata": {"success": true, "trial_type": "fullscreen", "trial_index": 7, "time_elapsed": 682698, "internal_node_id": "0.0-2.1-0.1-0.1"}}, {"uniqueid": "w27801039:a11768470", "current_trial": 8, "dateTime": 1693581231810, "trialdata": {"view_history": [{"page_index": 0, "viewing_time": 33353}, {"page_index": 1, "viewing_time": 50720}, {"page_index": 2, "viewing_time": 22456}, {"page_index": 3, "viewing_time": 69296}], "rt": 175824, "trial_id": "mouselab_instructions_1_misaligned", "trial_type": "instructions", "trial_index": 8, "time_elapsed": 858528, "internal_node_id": "0.0-2.1-1.1"}}, {"uniqueid": "w27801039:a11768470", "current_trial": 9, "dateTime": 1693581273422, "trialdata": {"revealed_states": [], "clicked_states": ["14", "19", "21", "20", "22", "13", "16", "30"], "num_clicks_accrued": [0, 0, 0, 0, 0, 0, 0, 0, 0, 0, 0, 0, 0], "stateRewards": ["", -10, 10, -10, -10, -10, 10, -10, 10, -10, -10, -10, -10, 10, 10, -10, 10, 10, 10, 10, -10, 10, 10, -10, -10, -10, -10, -10, -10, -10, -10, 10, -10, -10], "withholdReward": false, "trial_id": "practice_1", "block": "test", "trialIndex": 2, "score": 29.5, "costs": -4, "simulationMode": [null, null, null, null, null], "rewards": [-10, 10, 10, 10, 10], "path": ["0", "0", "12", "13", "14", "19", "21"], "rt": [31515, 1054, 529, 215, 290], "actions": ["right", "right", "right", "down", "down"], "actionTimes": [33370, 34939, 35964, 36699, 37491], "queries": {"click": {"state": {"target": ["14", "19", "21", "20", "22", "13", "16", "30"], "time": [3269, 4541, 5693, 6847, 8415, 12422, 15285, 18390]}, "edge": {"target": [], "time": []}}, "mouseover": {"state": {"target": ["12", "13", "14", "19", "19", "21", "21", "20", "22", "22", "13", "13", "13", "12", "18", "15", "17", "16", "18", "25", "30", "30", "21", "20", "22"], "time": [2453, 2500, 3031, 3569, 4016, 4982, 5350, 6116, 7299, 7632, 11237, 11787, 12236, 13383, 14183, 14619, 14659, 15103, 16603, 16870, 17320, 18124, 21103, 23603, 26965]}, "edge": {"target": [], "time": []}}, "mouseout": {"state": {"target": ["0", "12", "13", "14", "19", "19", "21", "21", "20", "19", "22", "22", "13", "13", "13", "12", "18", "15", "17", "16", "18", "25", "30", "30", "21", "20", "22"], "time": [2436, 2470, 2736, 3499, 3682, 4916, 5149, 6032, 7199, 7266, 7399, 8587, 11387, 12036, 13233, 14136, 14337, 14653, 14753, 15968, 16703, 16903, 17770, 18883, 23486, 26404, 26982]}, "edge": {"target": [], "time": []}}}, "displayed_time": "37.98", "trialTime": 41315, "trial_type": "mouselab-mdp", "trial_index": 9, "time_elapsed": 900138, "internal_node_id": "0.0-2.1-2.1-0.1"}}, {"uniqueid": "w27801039:a11768470", "current_trial": 10, "dateTime": 1693581285910, "trialdata": {"revealed_states": [], "clicked_states": [], "num_clicks_accrued": [0, 0, 0, 0, 0, 0, 0, 0, 0, 0, 0, 0, 0], "stateRewards": ["", -10, 10, -10, -10, 10, 10, 10, 10, -10, 10, 10, -10, -10, -10, 10, 10, -10, -10, 10, -10, 10, -10, 10, 10, 10, 10, -10, 10, 10, -10, 10, 10, -10], "withholdReward": false, "trial_id": "practice_2", "block": "test", "trialIndex": 3, "score": 13.5, "costs": 0, "simulationMode": [null, null, null, null, null], "rewards": [-10, 10, -10, 10, 10], "path": ["0", "0", "1", "2", "3", "8", "11"], "rt": [2207, 397, 483, 637, 237], "actions": ["up", "up", "up", "left", "left"], "actionTimes": [4684, 5602, 6586, 7722, 8458], "queries": {"click": {"state": {"target": [], "time": []}, "edge": {"target": [], "time": []}}, "mouseover": {"state": {"target": [], "time": []}, "edge": {"target": [], "time": []}}, "mouseout": {"state": {"target": ["0"], "time": [9938]}, "edge": {"target": [], "time": []}}}, "displayed_time": "8.96", "trialTime": 12186, "trial_type": "mouselab-mdp", "trial_index": 10, "time_elapsed": 912626, "internal_node_id": "0.0-2.1-2.1-1.1"}}, {"uniqueid": "w27801039:a11768470", "current_trial": 11, "dateTime": 1693581337937, "trialdata": {"view_history": [{"page_index": 0, "viewing_time": 48763}, {"page_index": 1, "viewing_time": 3256}], "rt": 52019, "trial_id": "mouselab_instructions_2_misaligned", "trial_type": "instructions", "trial_index": 11, "time_elapsed": 964655, "internal_node_id": "0.0-2.1-3.1"}}, {"uniqueid": "w27801039:a11768470", "current_trial": 12, "dateTime": 1693581392186, "trialdata": {"rt": 54246, "response": {"Q0": "There is no cost for clicking on nodes.", "Q1": "The better I perform the higher my bonus will be.", "Q2": "No, the amount of cash at each node of the web may be different each time.", "Q3": "To get the highest total score.", "Q4": "Only before moving the spider.", "Q5": "3 seconds"}, "question_order": [0, 1, 2, 3, 4, 5], "correct": {"Q0": "The cost for clicking on nodes may vary between nodes.", "Q1": "The better I perform the higher my bonus will be.", "Q2": "No, the amount of cash at each node of the web may be different each time.", "Q3": "To get the highest total score.", "Q4": "Only before moving the spider.", "Q5": "3 seconds"}, "trial_id": "mouselab_quiz_misaligned", "trial_type": "survey-multi-choice", "trial_index": 12, "time_elapsed": 1018904, "internal_node_id": "0.0-2.1-4.1"}}, {"uniqueid": "w27801039:a11768470", "current_trial": 13, "dateTime": 1693581447944, "trialdata": {"success": true, "trial_type": "fullscreen", "trial_index": 13, "time_elapsed": 1074662, "internal_node_id": "0.0-2.2-0.2-0.2"}}, {"uniqueid": "w27801039:a11768470", "current_trial": 14, "dateTime": 1693581600392, "trialdata": {"view_history": [{"page_index": 0, "viewing_time": 7571}, {"page_index": 1, "viewing_time": 36536}, {"page_index": 2, "viewing_time": 21288}, {"page_index": 1, "viewing_time": 4576}, {"page_index": 0, "viewing_time": 16480}, {"page_index": 1, "viewing_time": 7320}, {"page_index": 2, "viewing_time": 8272}, {"page_index": 3, "viewing_time": 50400}], "rt": 152443, "trial_id": "mouselab_instructions_1_misaligned", "trial_type": "instructions", "trial_index": 14, "time_elapsed": 1227110, "internal_node_id": "0.0-2.2-1.2"}}, {"uniqueid": "w27801039:a11768470", "current_trial": 15, "dateTime": 1693581685100, "trialdata": {"revealed_states": [], "clicked_states": ["13", "14", "19", "21", "30", "32", "15", "27", "22", "2", "16", "10"], "num_clicks_accrued": [0, 0, 0, 0, 0, 0, 0, 0, 0, 0, 0, 0, 0], "stateRewards": ["", -10, 10, -10, -10, -10, 10, -10, 10, -10, -10, -10, -10, 10, 10, -10, 10, 10, 10, 10, -10, 10, 10, -10, -10, -10, -10, -10, -10, -10, -10, 10, -10, -10], "withholdReward": false, "trial_id": "practice_1", "block": "test", "trialIndex": 4, "score": -52.5, "costs": -6, "simulationMode": [null, null, null, null, null], "rewards": [-10, -10, -10, -10, -10], "path": ["0", "0", "23", "24", "25", "30", "32"], "rt": [68480, 309, 53, 844, 331], "actions": ["left", "left", "left", "down", "down"], "actionTimes": [77013, 77858, 78414, 79770, 80610], "queries": {"click": {"state": {"target": ["13", "14", "19", "21", "30", "32", "15", "27", "22", "2", "16", "10"], "time": [10784, 20918, 24660, 30012, 38577, 41741, 45373, 47141, 54335, 58180, 62907, 67975]}, "edge": {"target": [], "time": []}}, "mouseover": {"state": {"target": ["22", "22", "13", "22", "13", "14", "14", "19", "21", "21", "19", "22", "21", "19", "15", "16", "15", "22", "22", "15", "14", "31", "30", "32", "32", "31", "24", "28", "10", "10", "2", "7", "7", "18", "15", "1", "27", "24", "32", "32", "24", "22", "0", "7", "2", "28", "28", "1", "18", "15", "16", "18", "14", "20", "20", "22", "32", "19", "14", "10", "1"], "time": [9360, 9826, 10459, 15843, 16026, 16327, 16626, 22277, 22360, 22910, 23177, 27178, 28894, 31040, 31090, 31344, 32330, 35361, 35610, 36194, 37677, 38161, 38461, 40395, 41411, 43077, 43191, 43225, 43326, 43544, 43677, 43944, 44361, 44594, 44927, 46391, 46845, 47658, 52012, 52346, 53078, 53806, 55875, 56759, 57045, 61595, 62178, 62241, 62312, 62363, 62712, 63674, 64212, 64259, 65578, 65601, 65695, 66312, 66562, 67695, 70146]}, "edge": {"target": [], "time": []}}, "mouseout": {"state": {"target": ["0", "22", "22", "13", "22", "13", "14", "14", "19", "21", "21", "19", "22", "21", "19", "15", "16", "15", "22", "22", "15", "14", "31", "30", "32", "32", "31", "24", "28", "10", "10", "2", "7", "7", "18", "15", "1", "27", "24", "32", "32", "24", "22", "0", "7", "2", "28", "28", "1", "18", "15", "16", "18", "14", "20", "20", "22", "32", "19", "14", "10", "1"], "time": [9177, 9393, 10293, 11423, 15960, 16293, 16359, 22160, 22323, 22377, 23094, 26344, 28478, 31012, 31069, 31107, 31378, 34978, 35427, 36061, 36278, 37778, 38194, 38941, 41178, 42291, 43175, 43208, 43256, 43343, 43607, 43861, 43960, 44578, 44624, 46291, 46407, 47607, 47674, 52031, 52938, 53594, 55275, 55925, 56845, 61177, 61778, 62201, 62258, 62347, 62396, 63391, 63941, 64228, 64276, 65595, 65617, 65978, 66411, 66723, 70112, 70163]}, "edge": {"target": [], "time": []}}}, "displayed_time": "81.13", "trialTime": 84403, "trial_type": "mouselab-mdp", "trial_index": 15, "time_elapsed": 1311816, "internal_node_id": "0.0-2.2-2.2-0.2"}}, {"uniqueid": "w27801039:a11768470", "current_trial": 16, "dateTime": 1693581745374, "trialdata": {"revealed_states": [], "clicked_states": ["12", "13", "14", "22", "19", "20", "21", "4", "8", "32"], "num_clicks_accrued": [0, 0, 0, 0, 0, 0, 0, 0, 0, 0, 0, 0, 0], "stateRewards": ["", -10, 10, -10, -10, 10, 10, 10, 10, -10, 10, 10, -10, -10, -10, 10, 10, -10, -10, 10, -10, 10, -10, 10, 10, 10, 10, -10, 10, 10, -10, 10, 10, -10], "withholdReward": false, "trial_id": "practice_2", "block": "test", "trialIndex": 5, "score": -11.5, "costs": -5, "simulationMode": [null, null, null, null, null], "rewards": [-10, -10, -10, 10, 10], "path": ["0", "0", "12", "13", "14", "15", "16"], "rt": [50338, 2, 120, 704, 496], "actions": ["right", "right", "right", "up", "up"], "actionTimes": [52984, 53488, 54124, 55340, 56332], "queries": {"click": {"state": {"target": ["12", "13", "14", "22", "19", "20", "21", "4", "8", "32"], "time": [7154, 9974, 12951, 15270, 17282, 20006, 22286, 24253, 25800, 31602]}, "edge": {"target": [], "time": []}}, "mouseover": {"state": {"target": ["0", "12", "13", "22", "14", "22", "19", "21", "20", "21", "19", "18", "4", "5", "4", "4", "3", "8", "10", "1", "25", "25", "30", "32", "32", "21", "22", "12", "0", "0", "12"], "time": [3104, 5817, 7649, 10666, 11570, 14180, 16166, 18000, 18333, 20900, 23016, 23116, 23150, 23582, 23704, 23953, 24917, 25183, 26300, 26333, 28920, 29470, 30871, 30967, 31287, 44921, 45055, 45355, 45822, 46087, 47400]}, "edge": {"target": [], "time": []}}, "mouseout": {"state": {"target": ["12", "0", "12", "13", "22", "14", "22", "19", "21", "20", "21", "19", "18", "4", "5", "4", "4", "3", "8", "8", "10", "1", "25", "25", "30", "32", "32", "21", "22", "12", "0", "0", "12"], "time": [1884, 5588, 7533, 10566, 11519, 13785, 16117, 17933, 18200, 20466, 22950, 23033, 23133, 23167, 23600, 23720, 24833, 25117, 25822, 26266, 26317, 26350, 29137, 29487, 30901, 31105, 32217, 45004, 45254, 45384, 45854, 46268, 48885]}, "edge": {"target": [], "time": []}}}, "displayed_time": "56.84", "trialTime": 59967, "trial_type": "mouselab-mdp", "trial_index": 16, "time_elapsed": 1372090, "internal_node_id": "0.0-2.2-2.2-1.2"}}, {"uniqueid": "w27801039:a11768470", "current_trial": 17, "dateTime": 1693581791366, "trialdata": {"view_history": [{"page_index": 0, "viewing_time": 41928}, {"page_index": 1, "viewing_time": 4056}], "rt": 45984, "trial_id": "mouselab_instructions_2_misaligned", "trial_type": "instructions", "trial_index": 17, "time_elapsed": 1418084, "internal_node_id": "0.0-2.2-3.2"}}, {"uniqueid": "w27801039:a11768470", "current_trial": 18, "dateTime": 1693581832200, "trialdata": {"rt": 40829, "response": {"Q0": "The cost for clicking on nodes may vary between nodes.", "Q1": "The better I perform the higher my bonus will be.", "Q2": "No, the amount of cash at each node of the web may be different each time.", "Q3": "To get the highest total score.", "Q4": "Only after moving the spider.", "Q5": "3 seconds"}, "question_order": [0, 1, 2, 3, 4, 5], "correct": {"Q0": "The cost for clicking on nodes may vary between nodes.", "Q1": "The better I perform the higher my bonus will be.", "Q2": "No, the amount of cash at each node of the web may be different each time.", "Q3": "To get the highest total score.", "Q4": "Only before moving the spider.", "Q5": "3 seconds"}, "trial_id": "mouselab_quiz_misaligned", "trial_type": "survey-multi-choice", "trial_index": 18, "time_elapsed": 1458918, "internal_node_id": "0.0-2.2-4.2"}}, {"uniqueid": "w27801039:a11768470", "current_trial": 19, "dateTime": 1693581840600, "trialdata": {"success": true, "trial_type": "fullscreen", "trial_index": 19, "time_elapsed": 1467318, "internal_node_id": "0.0-2.3-0.3-0.3"}}, {"uniqueid": "w27801039:a11768470", "current_trial": 20, "dateTime": 1693581963414, "trialdata": {"view_history": [{"page_index": 0, "viewing_time": 34121}, {"page_index": 1, "viewing_time": 7240}, {"page_index": 2, "viewing_time": 36592}, {"page_index": 3, "viewing_time": 44856}], "rt": 122810, "trial_id": "mouselab_instructions_1_misaligned", "trial_type": "instructions", "trial_index": 20, "time_elapsed": 1590132, "internal_node_id": "0.0-2.3-1.3"}}, {"uniqueid": "w27801039:a11768470", "current_trial": 21, "dateTime": 1693582008626, "trialdata": {"revealed_states": [], "clicked_states": ["22", "19", "20", "21", "15", "1", "25", "32", "8"], "num_clicks_accrued": [0, 0, 0, 0, 0, 0, 0, 0, 0, 0, 0, 0, 0], "stateRewards": ["", -10, 10, -10, -10, -10, 10, -10, 10, -10, -10, -10, -10, 10, 10, -10, 10, 10, 10, 10, -10, 10, 10, -10, -10, -10, -10, -10, -10, -10, -10, 10, -10, -10], "withholdReward": false, "trial_id": "practice_1", "block": "test", "trialIndex": 6, "score": -51, "costs": -4.5, "simulationMode": [null, null, null, null, null], "rewards": [-10, -10, -10, -10, -10], "path": ["0", "0", "23", "24", "25", "30", "32"], "rt": [33125, 1171, 96, 257, 690], "actions": ["left", "left", "left", "down", "down"], "actionTimes": [35622, 37312, 37904, 38664, 39848], "queries": {"click": {"state": {"target": ["22", "19", "20", "21", "15", "1", "25", "32", "8"], "time": [3491, 8138, 11316, 14794, 17835, 20691, 23933, 26572, 30065]}, "edge": {"target": [], "time": []}}, "mouseover": {"state": {"target": ["0", "22", "19", "20", "21", "21", "22", "13", "18", "15", "18", "1", "24", "25", "25", "30", "32", "32", "30", "25", "26", "27", "10", "2", "3", "8", "8", "10", "0", "12", "0", "0"], "time": [2841, 3258, 4172, 10441, 12072, 12454, 15505, 15555, 15622, 15904, 18489, 18756, 23292, 23356, 23609, 25659, 25710, 26025, 28056, 28093, 28124, 28145, 29109, 29155, 29260, 29660, 29859, 30638, 32026, 33044, 33540, 34376]}, "edge": {"target": [], "time": []}}, "mouseout": {"state": {"target": ["0", "0", "22", "19", "20", "21", "21", "22", "13", "18", "15", "18", "1", "24", "25", "25", "30", "32", "32", "30", "25", "26", "27", "10", "2", "3", "8", "8", "10", "0", "12", "0", "0", "12", "13"], "time": [1790, 2992, 3623, 10275, 11972, 12156, 15425, 15539, 15589, 15639, 18440, 18539, 23226, 23323, 23389, 25626, 25693, 25739, 28006, 28089, 28106, 28140, 28776, 29128, 29172, 29426, 29792, 30572, 30656, 32979, 33493, 33626, 42193, 42243, 42323]}, "edge": {"target": [], "time": []}}}, "displayed_time": "40.34", "trialTime": 44897, "trial_type": "mouselab-mdp", "trial_index": 21, "time_elapsed": 1635343, "internal_node_id": "0.0-2.3-2.3-0.3"}}, {"uniqueid": "w27801039:a11768470", "current_trial": 22, "dateTime": 1693582051154, "trialdata": {"revealed_states": [], "clicked_states": ["12", "7", "30", "20", "21", "16"], "num_clicks_accrued": [0, 0, 0, 0, 0, 0, 0, 0, 0, 0, 0, 0, 0], "stateRewards": ["", -10, 10, -10, -10, 10, 10, 10, 10, -10, 10, 10, -10, -10, -10, 10, 10, -10, -10, 10, -10, 10, -10, 10, 10, 10, 10, -10, 10, 10, -10, 10, 10, -10], "withholdReward": false, "trial_id": "practice_2", "block": "test", "trialIndex": 7, "score": 30.5, "costs": -3, "simulationMode": [null, null, null, null, null], "rewards": [10, 10, 10, 10, -10], "path": ["0", "0", "23", "24", "25", "26", "27"], "rt": [25816, 345, 2423, 642, 148], "actions": ["left", "left", "left", "up", "up"], "actionTimes": [30433, 31295, 34222, 35358, 35998], "queries": {"click": {"state": {"target": ["12", "7", "30", "20", "21", "16"], "time": [8496, 12112, 15066, 17809, 20776, 23752]}, "edge": {"target": [], "time": []}}, "mouseover": {"state": {"target": ["0", "12", "7", "2", "10", "28", "33", "30", "31", "30", "32", "21", "20", "21", "21", "21", "22", "14", "15", "16", "18", "22", "0"], "time": [5039, 7383, 11145, 12880, 12916, 13684, 13783, 14062, 14229, 14533, 15847, 17101, 17401, 19195, 20016, 20234, 22667, 22731, 22781, 23034, 25468, 26910, 27777]}, "edge": {"target": [], "time": []}}, "mouseout": {"state": {"target": ["12", "1", "0", "12", "7", "2", "10", "28", "33", "30", "31", "30", "32", "21", "20", "21", "21", "21", "22", "14", "15", "16", "18", "22", "0", "0"], "time": [3798, 3848, 5950, 10400, 12830, 12914, 12932, 13698, 13917, 14095, 14262, 15730, 15882, 17118, 18422, 19501, 20081, 22518, 22699, 22748, 22967, 24414, 25501, 27517, 27979, 37685]}, "edge": {"target": [], "time": []}}}, "displayed_time": "36.50", "trialTime": 42215, "trial_type": "mouselab-mdp", "trial_index": 22, "time_elapsed": 1677871, "internal_node_id": "0.0-2.3-2.3-1.3"}}, {"uniqueid": "w27801039:a11768470", "current_trial": 23, "dateTime": 1693582081184, "trialdata": {"view_history": [{"page_index": 0, "viewing_time": 26690}, {"page_index": 1, "viewing_time": 3331}], "rt": 30021, "trial_id": "mouselab_instructions_2_misaligned", "trial_type": "instructions", "trial_index": 23, "time_elapsed": 1707902, "internal_node_id": "0.0-2.3-3.3"}}, {"uniqueid": "w27801039:a11768470", "current_trial": 24, "dateTime": 1693582123217, "trialdata": {"rt": 42029, "response": {"Q0": "The cost for clicking on nodes may vary between nodes.", "Q1": "The better I perform the higher my bonus will be.", "Q2": "No, the amount of cash at each node of the web may be different each time.", "Q3": "To get the highest total score.", "Q4": "Only after moving the spider.", "Q5": "3 seconds"}, "question_order": [0, 1, 2, 3, 4, 5], "correct": {"Q0": "The cost for clicking on nodes may vary between nodes.", "Q1": "The better I perform the higher my bonus will be.", "Q2": "No, the amount of cash at each node of the web may be different each time.", "Q3": "To get the highest total score.", "Q4": "Only before moving the spider.", "Q5": "3 seconds"}, "trial_id": "mouselab_quiz_misaligned", "trial_type": "survey-multi-choice", "trial_index": 24, "time_elapsed": 1749935, "internal_node_id": "0.0-2.3-4.3"}}, {"uniqueid": "w27801039:a11768470", "current_trial": 25, "dateTime": 1693582147885, "trialdata": {"rt": 24658, "response": {"Q0": "", "Q1": "76", "Q2": "male", "Q3": "no", "Q4": ""}, "trial_id": "finish_fail", "trial_type": "survey-text", "trial_index": 25, "time_elapsed": 1774603, "internal_node_id": "0.0-3.0-0.0"}}, {"uniqueid": "w27801039:a11768470", "current_trial": 26, "dateTime": 1693582187181, "trialdata": {"rt": 39292, "stimulus": "<h1>Completion Code Instructions (1/2)</h1>\n<br><br><br><br>\nYou have reached the end of the experiment! The completion code consists of two parts: (1) a code with 2 characters (2) a code with 6 characters. On this page, you will receive the second part of the code. The first part of the completion code will be on the next page.\n<br><br>\nThe second part of your completion code is: <b>AYIWIP</b>\n<br><br>\nPlease note this down. Then, press 'Next' in order to find the first part of your completion code. Once the data has been saved, you will receive this code either in this window or in the original browser window where you started the experiment.\n <br><br>\n<h2 style='color: red;'>Note: this is <strong>NOT</strong> the full completion code. Copy this down and click 'Next' to get the full completion code on the next page.</h2>", "response": 0, "trial_type": "html-button-response", "trial_index": 26, "time_elapsed": 1813899, "internal_node_id": "0.0-3.0-1.0"}}, {"uniqueid": "w27801039:a11768470", "current_trial": 27, "dateTime": 1693582188191, "trialdata": {"success": true, "trial_type": "fullscreen", "trial_index": 27, "time_elapsed": 1814909, "internal_node_id": "0.0-7.0"}}], "questiondata": {"params": {"CODE": "C6DMOQA6", "MIN_TIME": 14, "inspectCost": 1, "startTime": "Fri Sep 01 2023 15:59:31 GMT+0100 (British Summer Time)", "bonusRate": 0.002, "variance": "1_2_4_8_44", "branching": "31123"}, "final_score": 0}, "eventdata": [{"eventtype": "initialized", "value": null, "timestamp": 1693580370941, "interval": 0}, {"eventtype": "window_resize", "value": [1024, 768], "timestamp": 1693580370941, "interval": 0}, {"eventtype": "window_resize", "value": [1024, 768], "timestamp": 1693580371280, "interval": 339}, {"eventtype": "window_resize", "value": [1920, 986], "timestamp": 1693580373401, "interval": 2121}, {"eventtype": "window_resize", "value": [1920, 1080], "timestamp": 1693580379336, "interval": 5935}, {"eventtype": "focus", "value": "off", "timestamp": 1693581050526, "interval": 671190}, {"eventtype": "focus", "value": "on", "timestamp": 1693581050526, "interval": 0}, {"eventtype": "window_resize", "value": [1920, 986], "timestamp": 1693581050734, "interval": 208}, {"eventtype": "window_resize", "value": [1920, 1080], "timestamp": 1693581055199, "interval": 4465}, {"eventtype": "focus", "value": "off", "timestamp": 1693581444892, "interval": 389693}, {"eventtype": "focus", "value": "on", "timestamp": 1693581444892, "interval": 0}, {"eventtype": "window_resize", "value": [1920, 986], "timestamp": 1693581445101, "interval": 209}, {"eventtype": "window_resize", "value": [1920, 1080], "timestamp": 1693581447150, "interval": 2049}, {"eventtype": "focus", "value": "off", "timestamp": 1693581836145, "interval": 388995}, {"eventtype": "focus", "value": "on", "timestamp": 1693581836145, "interval": 0}, {"eventtype": "window_resize", "value": [1920, 986], "timestamp": 1693581836359, "interval": 214}, {"eventtype": "window_resize", "value": [1920, 1080], "timestamp": 1693581839818, "interval": 3459}, {"eventtype": "window_resize", "value": [1920, 986], "timestamp": 1693582187414, "interval": 347596}], "useragent": "Mozilla/5.0 (Windows NT 10.0; Win64; x64) AppleWebKit/537.36 (KHTML, like Gecko) Chrome/116.0.0.0 Safari/537.36 Edg/116.0.1938.62", "mode": "live", "id": "w27801039:a11768470", "status": "user data saved", "Beginhit": "2023-09-01 14:59:28.260647", "Beginexp": "2023-09-01 14:59:39.208601", "Endhit": "2023-09-01 15:29:48.016793", "psiturkStatus": 3, "browser": "<redacted>", "platform": "windows", "language": "en-GB", "excludeReason": "quizfail"}