{"condition": 1, "counterbalance": 0, "assignmentId": "a89385557", "workerId": "w33234998", "hitId": "h24518699", "currenttrial": 56, "bonus": 0, "data": [{"uniqueid": "w33234998:a89385557", "current_trial": 0, "dateTime": 1693566857535, "trialdata": {"success": true, "trial_type": "fullscreen", "trial_index": 0, "time_elapsed": 3038, "internal_node_id": "0.0-0.0"}}, {"uniqueid": "w33234998:a89385557", "current_trial": 1, "dateTime": 1693566868506, "trialdata": {"view_history": [{"page_index": 0, "viewing_time": 10970}], "rt": 10970, "trial_id": "exp_instructions_misaligned", "trial_type": "instructions", "trial_index": 1, "time_elapsed": 14009, "internal_node_id": "0.0-1.0"}}, {"uniqueid": "w33234998:a89385557", "current_trial": 2, "dateTime": 1693567210587, "trialdata": {"view_history": [{"page_index": 0, "viewing_time": 120032}, {"page_index": 1, "viewing_time": 131614}, {"page_index": 2, "viewing_time": 49173}, {"page_index": 3, "viewing_time": 41260}], "rt": 342079, "trial_id": "mouselab_instructions_1_misaligned", "trial_type": "instructions", "trial_index": 2, "time_elapsed": 356090, "internal_node_id": "0.0-2.0-1.0"}}, {"uniqueid": "w33234998:a89385557", "current_trial": 3, "dateTime": 1693567234566, "trialdata": {"revealed_states": [], "clicked_states": ["14", "30", "26"], "num_clicks_accrued": [0, 0, 0, 0, 0, 0, 0, 0, 0, 0, 0, 0, 0], "stateRewards": ["", -10, 10, 10, 10, 10, -10, 10, -10, -10, 10, -10, 10, 10, -10, -10, -10, -10, 10, -10, 10, 10, 10, 10, -10, 10, -10, 10, 10, 10, 10, -10, -10, -10], "withholdReward": false, "trial_id": "practice_1", "block": "test", "trialIndex": 0, "score": 12, "costs": -1.5, "simulationMode": [null, null, null, null, null], "rewards": [10, -10, 10, 10, -10], "path": ["0", "0", "23", "24", "25", "30", "31"], "rt": [9446, 222, 276, 235, 691], "actions": ["left", "left", "left", "down", "right"], "actionTimes": [15019, 15749, 16533, 17277, 18476], "queries": {"click": {"state": {"target": ["14", "30", "26"], "time": [6764, 8317, 9549]}, "edge": {"target": [], "time": []}}, "mouseover": {"state": {"target": ["22", "14", "31", "30", "30", "30", "25", "26", "26", "10", "8", "10", "1", "0"], "time": [6154, 6341, 7411, 7737, 7904, 8161, 8627, 8891, 9349, 10107, 10371, 10954, 11135, 11434]}, "edge": {"target": [], "time": []}}, "mouseout": {"state": {"target": ["31", "30", "25", "24", "23", "0", "22", "14", "31", "30", "30", "30", "25", "26", "26", "10", "8", "10", "1", "0"], "time": [1804, 1894, 2033, 3110, 3520, 5869, 6230, 6938, 7723, 7772, 8064, 8571, 8682, 9245, 9822, 10190, 10892, 11010, 11198, 12907]}, "edge": {"target": [], "time": []}}}, "displayed_time": "18.98", "trialTime": 23518, "trial_type": "mouselab-mdp", "trial_index": 3, "time_elapsed": 380068, "internal_node_id": "0.0-2.0-2.0-0.0"}}, {"uniqueid": "w33234998:a89385557", "current_trial": 4, "dateTime": 1693567254456, "trialdata": {"revealed_states": [], "clicked_states": ["4", "8", "25", "22", "15"], "num_clicks_accrued": [0, 0, 0, 0, 0, 0, 0, 0, 0, 0, 0, 0, 0], "stateRewards": ["", 10, -10, 10, -10, 10, 10, -10, -10, 10, -10, -10, 10, -10, 10, -10, 10, -10, 10, 10, 10, 10, 10, -10, -10, -10, -10, 10, -10, 10, -10, -10, 10, 10], "withholdReward": false, "trial_id": "practice_2", "block": "test", "trialIndex": 1, "score": 31, "costs": -2.5, "simulationMode": [null, null, null, null, null], "rewards": [10, -10, 10, 10, 10], "path": ["0", "0", "12", "13", "14", "19", "22"], "rt": [12357, 0, 85, 50, 245], "actions": ["right", "right", "right", "down", "left"], "actionTimes": [14468, 14972, 15563, 16119, 16870], "queries": {"click": {"state": {"target": ["4", "8", "25", "22", "15"], "time": [5104, 6590, 8698, 9708, 11476]}, "edge": {"target": [], "time": []}}, "mouseover": {"state": {"target": ["0", "1", "2", "4", "3", "8", "8", "28", "24", "25", "30", "32", "25", "30", "22", "22", "19", "14", "15", "14"], "time": [4013, 4096, 4200, 4506, 5256, 5451, 6424, 6896, 6973, 7105, 8022, 8175, 8557, 8946, 9224, 9503, 11058, 11142, 11315, 11711]}, "edge": {"target": [], "time": []}}, "mouseout": {"state": {"target": ["0", "0", "1", "2", "4", "3", "8", "8", "28", "24", "25", "30", "32", "25", "30", "22", "22", "19", "14", "15", "15", "14"], "time": [2276, 4034, 4166, 4228, 5229, 5313, 6236, 6785, 6931, 7056, 7959, 8098, 8244, 8904, 8988, 9377, 9941, 11107, 11204, 11496, 11684, 11746]}, "edge": {"target": [], "time": []}}}, "displayed_time": "17.38", "trialTime": 19784, "trial_type": "mouselab-mdp", "trial_index": 4, "time_elapsed": 399958, "internal_node_id": "0.0-2.0-2.0-1.0"}}, {"uniqueid": "w33234998:a89385557", "current_trial": 5, "dateTime": 1693567289804, "trialdata": {"view_history": [{"page_index": 0, "viewing_time": 27991}, {"page_index": 1, "viewing_time": 7356}], "rt": 35347, "trial_id": "mouselab_instructions_2_misaligned", "trial_type": "instructions", "trial_index": 5, "time_elapsed": 435307, "internal_node_id": "0.0-2.0-3.0"}}, {"uniqueid": "w33234998:a89385557", "current_trial": 6, "dateTime": 1693567352758, "trialdata": {"rt": 62953, "response": {"Q0": "The cost for clicking on nodes may vary between nodes.", "Q1": "The better I perform the higher my bonus will be.", "Q2": "No, the amount of cash at each node of the web may be different each time.", "Q3": "To get the highest total score.", "Q4": "Only before moving the spider.", "Q5": "3 seconds"}, "question_order": [0, 1, 2, 3, 4, 5], "correct": {"Q0": "The cost for clicking on nodes may vary between nodes.", "Q1": "The better I perform the higher my bonus will be.", "Q2": "No, the amount of cash at each node of the web may be different each time.", "Q3": "To get the highest total score.", "Q4": "Only before moving the spider.", "Q5": "3 seconds"}, "trial_id": "mouselab_quiz_misaligned", "trial_type": "survey-multi-choice", "trial_index": 6, "time_elapsed": 498261, "internal_node_id": "0.0-2.0-4.0"}}, {"uniqueid": "w33234998:a89385557", "current_trial": 7, "dateTime": 1693567358785, "trialdata": {"rt": 6024, "response": {"Q0": "No"}, "question_order": [0], "trial_id": "repeat_check", "trial_type": "survey-multi-choice", "trial_index": 7, "time_elapsed": 504288, "internal_node_id": "0.0-4.0-0.0"}}, {"uniqueid": "w33234998:a89385557", "current_trial": 8, "dateTime": 1693567363185, "trialdata": {"rt": 4398, "stimulus": "\n<h1> Get ready to start the game! </h1>\n\nThank you for reading the instructions. Get ready start with the 40 rounds of this game.\n<br><br>\nIf you need to take a break, feel free to take one after the end of a round, before continuing to the next one.\n<br><br>\nRemember, the more money the spider gets, the bigger your bonus will be!\n<br><br>\n<div style='text-align: center;'>Press <code>space</code> to begin.</div>\n\n<br><br>\n(If, at any point, the <code>space</code> key does not take you to the next page, click once on the text and try again.)", "response": " ", "trial_id": "mdp_ready", "trial_type": "html-keyboard-response", "trial_index": 8, "time_elapsed": 508688, "internal_node_id": "0.0-6.0-0.0"}}, {"uniqueid": "w33234998:a89385557", "current_trial": 9, "dateTime": 1693567383946, "trialdata": {"revealed_states": [], "clicked_states": ["16", "26", "3"], "num_clicks_accrued": [0, 0, 0, 0, 0, 0, 0, 0, 0, 0, 0, 0, 0], "stateRewards": ["", -2, -4, -2, -13, -15, 87, -19, -6, -80, 30, 12, 1, 1, -8, 2, 55, 56, 15, 11, -68, -7, 55, -2, 3, -3, -3, 48, 62, 4, 1, -3, 69, -33], "withholdReward": false, "trial_id": "mdp_trial_1", "block": "test", "trialIndex": 2, "score": 46.35, "costs": -4.65, "simulationMode": [null, null, null, null, null], "rewards": [1, 1, -8, 2, 55], "path": ["0", "0", "12", "13", "14", "15", "16"], "rt": [7116, 46, 130, 194, 50], "actions": ["right", "right", "right", "up", "up"], "actionTimes": [10691, 11246, 11879, 12576, 13133], "queries": {"click": {"state": {"target": ["16", "26", "3"], "time": [4628, 7412, 8274]}, "edge": {"target": [], "time": []}}, "mouseover": {"state": {"target": ["18", "16", "7", "3", "10", "26", "10", "3", "2", "1", "12", "0", "23"], "time": [3994, 4147, 4848, 5092, 5460, 5738, 7822, 7962, 8656, 8725, 8886, 9274, 9448]}, "edge": {"target": [], "time": []}}, "mouseout": {"state": {"target": ["23", "1", "0", "18", "16", "7", "3", "10", "26", "10", "3", "2", "1", "12", "0", "23"], "time": [1701, 1965, 3863, 4008, 4751, 4855, 5404, 5467, 7732, 7864, 8614, 8697, 8774, 9198, 9379, 13874]}, "edge": {"target": [], "time": []}}}, "displayed_time": "17.58", "trialTime": 20646, "trial_type": "mouselab-mdp", "trial_index": 9, "time_elapsed": 529449, "internal_node_id": "0.0-6.0-1.0-0.0"}}, {"uniqueid": "w33234998:a89385557", "current_trial": 10, "dateTime": 1693567401778, "trialdata": {"revealed_states": [], "clicked_states": ["30"], "num_clicks_accrued": [0, 0, 0, 0, 0, 0, 0, 0, 0, 0, 0, 0, 0], "stateRewards": ["", -1, 2, -6, 6, -82, -19, -39, -16, -83, 11, -33, -2, -2, 4, -6, -82, -1, -19, -6, -10, -67, -41, -2, 1, -7, 16, -23, -78, -52, 14, 31, -71, 74], "withholdReward": false, "trial_id": "mdp_trial_2", "block": "test", "trialIndex": 3, "score": -66.55, "costs": -1.55, "simulationMode": [null, null, null, null, null], "rewards": [-2, 1, -7, 14, -71], "path": ["0", "0", "23", "24", "25", "30", "32"], "rt": [3991, 86, 47, 213, 456], "actions": ["left", "left", "left", "down", "down"], "actionTimes": [5217, 5807, 6358, 7080, 8038], "queries": {"click": {"state": {"target": ["30"], "time": [2930]}, "edge": {"target": [], "time": []}}, "mouseover": {"state": {"target": ["0", "31", "30", "25", "30", "30", "23", "1", "2", "3", "10", "24"], "time": [1280, 1884, 2023, 2238, 2578, 2731, 3266, 3336, 3426, 3663, 4177, 4267]}, "edge": {"target": [], "time": []}}, "mouseout": {"state": {"target": ["0", "0", "31", "30", "25", "30", "30", "23", "1", "2", "3", "10", "24"], "time": [994, 1335, 1925, 2050, 2530, 2662, 2995, 3301, 3384, 3509, 4135, 4204, 4309]}, "edge": {"target": [], "time": []}}}, "displayed_time": "15.23", "trialTime": 17733, "trial_type": "mouselab-mdp", "trial_index": 10, "time_elapsed": 547281, "internal_node_id": "0.0-6.0-1.0-1.0"}}, {"uniqueid": "w33234998:a89385557", "current_trial": 11, "dateTime": 1693567422584, "trialdata": {"revealed_states": [], "clicked_states": ["27", "16", "3"], "num_clicks_accrued": [0, 0, 0, 0, 0, 0, 0, 0, 0, 0, 0, 0, 0], "stateRewards": ["", 1, -1, 8, 4, 76, -33, -17, -3, -1, -54, -74, -2, 2, -5, 13, -51, 63, 83, 1, 84, 29, -36, 2, -1, 7, -12, -10, -44, -43, -14, 8, -69, 19], "withholdReward": false, "trial_id": "mdp_trial_3", "block": "test", "trialIndex": 4, "score": -1.25, "costs": -5.25, "simulationMode": [null, null, null, null, null], "rewards": [1, -1, 8, -3, -1], "path": ["0", "0", "1", "2", "3", "8", "9"], "rt": [11438, 55, 163, 67, 587], "actions": ["up", "up", "up", "left", "up"], "actionTimes": [13655, 14220, 14890, 15461, 16551], "queries": {"click": {"state": {"target": ["27", "16", "3"], "time": [5167, 8044, 11292]}, "edge": {"target": [], "time": []}}, "mouseover": {"state": {"target": ["0", "32", "32", "30", "25", "26", "26", "27", "27", "26", "28", "1", "16", "18", "16", "18", "3", "10", "28", "24"], "time": [2296, 3192, 3400, 4248, 4324, 4387, 4575, 4727, 4992, 5478, 5526, 5707, 6478, 7222, 7840, 8382, 8938, 11669, 11808, 12329]}, "edge": {"target": [], "time": []}}, "mouseout": {"state": {"target": ["0", "0", "32", "32", "30", "25", "26", "26", "27", "27", "26", "28", "1", "16", "18", "16", "18", "3", "10", "28", "24", "31"], "time": [2115, 2337, 3227, 4026, 4297, 4352, 4423, 4665, 4797, 5422, 5499, 5568, 5783, 7138, 7388, 8313, 8410, 11586, 11704, 11912, 17221, 17290]}, "edge": {"target": [], "time": []}}}, "displayed_time": "17.05", "trialTime": 20704, "trial_type": "mouselab-mdp", "trial_index": 11, "time_elapsed": 568087, "internal_node_id": "0.0-6.0-1.0-2.0"}}, {"uniqueid": "w33234998:a89385557", "current_trial": 12, "dateTime": 1693567439555, "trialdata": {"revealed_states": [], "clicked_states": [], "num_clicks_accrued": [0, 0, 0, 0, 0, 0, 0, 0, 0, 0, 0, 0, 0], "stateRewards": ["", 1, 1, -3, 7, 49, 78, 26, -5, 26, 48, -43, -1, -3, 2, -5, 4, -1, -60, 10, -35, 51, 81, -2, 1, -7, -5, -39, -86, -54, 4, -3, 74, 77], "withholdReward": false, "trial_id": "mdp_trial_4", "block": "test", "trialIndex": 5, "score": -27, "costs": 0, "simulationMode": [null, null, null, null, null], "rewards": [-1, -3, 2, 10, -35], "path": ["0", "0", "12", "13", "14", "19", "20"], "rt": [6695, 40, 37, 208, 98], "actions": ["right", "right", "right", "down", "right"], "actionTimes": [8268, 8812, 9358, 10071, 10676], "queries": {"click": {"state": {"target": [], "time": []}, "edge": {"target": [], "time": []}}, "mouseover": {"state": {"target": ["0", "19", "19", "22"], "time": [1649, 2998, 3498, 6562]}, "edge": {"target": [], "time": []}}, "mouseout": {"state": {"target": ["0", "19", "19", "22"], "time": [1720, 3206, 6492, 6597]}, "edge": {"target": [], "time": []}}}, "displayed_time": "15.57", "trialTime": 16872, "trial_type": "mouselab-mdp", "trial_index": 12, "time_elapsed": 585057, "internal_node_id": "0.0-6.0-1.0-3.0"}}, {"uniqueid": "w33234998:a89385557", "current_trial": 13, "dateTime": 1693567456359, "trialdata": {"revealed_states": [], "clicked_states": ["3", "14", "30"], "num_clicks_accrued": [0, 0, 0, 0, 0, 0, 0, 0, 0, 0, 0, 0, 0], "stateRewards": ["", 1, -4, -4, 8, 1, -79, 68, -10, -79, 8, -74, -1, -3, -6, 14, 43, 23, 9, 5, -51, 63, 61, -2, 4, 6, -10, 69, -32, 57, 15, -80, -80, -77], "withholdReward": false, "trial_id": "mdp_trial_5", "block": "test", "trialIndex": 6, "score": -60.45, "costs": -3.45, "simulationMode": [null, null, null, null, null], "rewards": [-2, 4, 6, 15, -80], "path": ["0", "0", "23", "24", "25", "30", "31"], "rt": [4519, 397, 40, 84, 250], "actions": ["left", "left", "left", "down", "right"], "actionTimes": [5758, 6662, 7209, 7801, 8558], "queries": {"click": {"state": {"target": ["3", "14", "30"], "time": [2098, 3035, 4101]}, "edge": {"target": [], "time": []}}, "mouseover": {"state": {"target": ["1", "2", "3", "2", "13", "14", "30"], "time": [1644, 1727, 1874, 2387, 2672, 2776, 3958]}, "edge": {"target": [], "time": []}}, "mouseout": {"state": {"target": ["0", "1", "2", "3", "2", "13", "14", "30", "30"], "time": [1567, 1700, 1811, 2345, 2415, 2714, 3290, 4347, 5361]}, "edge": {"target": [], "time": []}}}, "displayed_time": "15.24", "trialTime": 16703, "trial_type": "mouselab-mdp", "trial_index": 13, "time_elapsed": 601862, "internal_node_id": "0.0-6.0-1.0-4.0"}}, {"uniqueid": "w33234998:a89385557", "current_trial": 14, "dateTime": 1693567473808, "trialdata": {"revealed_states": [], "clicked_states": ["26", "8", "15", "19", "30", "31"], "num_clicks_accrued": [0, 0, 0, 0, 0, 0, 0, 0, 0, 0, 0, 0, 0], "stateRewards": ["", -1, -4, 8, 8, -68, 47, 24, -7, -61, 49, -69, -1, -1, 8, -7, 42, 1, -45, -11, 10, -63, -6, 1, 4, 6, -16, 79, -37, -58, -12, 81, 18, -53], "withholdReward": false, "trial_id": "mdp_trial_6", "block": "test", "trialIndex": 7, "score": 31.1, "costs": -9.9, "simulationMode": [null, null, null, null, null], "rewards": [-1, -1, 8, -7, 42], "path": ["0", "0", "12", "13", "14", "15", "16"], "rt": [9308, 120, 90, 94, 185], "actions": ["right", "right", "right", "up", "up"], "actionTimes": [10481, 11107, 11702, 12303, 12992], "queries": {"click": {"state": {"target": ["26", "8", "15", "19", "30", "31"], "time": [2279, 2829, 3928, 4547, 5556, 6044]}, "edge": {"target": [], "time": []}}, "mouseover": {"state": {"target": ["23", "24", "26", "26", "8", "2", "7", "7", "18", "15", "14", "19", "22", "31", "30", "31", "24", "32"], "time": [1856, 1891, 1967, 2147, 2655, 3134, 3370, 3488, 3606, 3801, 4148, 4420, 4753, 5053, 5462, 5914, 6448, 8505]}, "edge": {"target": [], "time": []}}, "mouseout": {"state": {"target": ["0", "23", "24", "26", "26", "8", "2", "7", "7", "18", "15", "14", "19", "22", "31", "30", "31", "24", "30", "32", "32"], "time": [1453, 1863, 1925, 1995, 2355, 3051, 3197, 3377, 3558, 3634, 4121, 4169, 4732, 4788, 5128, 5886, 6142, 6949, 7136, 8790, 16071]}, "edge": {"target": [], "time": []}}}, "displayed_time": "15.17", "trialTime": 17342, "trial_type": "mouselab-mdp", "trial_index": 14, "time_elapsed": 619311, "internal_node_id": "0.0-6.0-1.0-5.0"}}, {"uniqueid": "w33234998:a89385557", "current_trial": 15, "dateTime": 1693567490450, "trialdata": {"revealed_states": [], "clicked_states": ["2", "15", "25", "33"], "num_clicks_accrued": [0, 0, 0, 0, 0, 0, 0, 0, 0, 0, 0, 0, 0], "stateRewards": ["", -2, -1, -3, -1, -78, -6, 2, -1, 22, -88, 32, 2, 2, -7, -8, -51, -17, 54, 2, -44, 54, 75, 2, -2, -8, -15, -29, 12, -67, 15, -1, -47, -47], "withholdReward": false, "trial_id": "mdp_trial_7", "block": "test", "trialIndex": 8, "score": 69, "costs": -5, "simulationMode": [null, null, null, null, null], "rewards": [2, 2, -7, 2, 75], "path": ["0", "0", "12", "13", "14", "19", "22"], "rt": [6426, 588, 159, 9, 94], "actions": ["right", "right", "right", "down", "left"], "actionTimes": [7617, 8712, 9373, 9890, 10490], "queries": {"click": {"state": {"target": ["2", "15", "25", "33"], "time": [1923, 2563, 3317, 3980]}, "edge": {"target": [], "time": []}}, "mouseover": {"state": {"target": ["1", "2", "15", "13", "33", "30", "25", "30", "33", "22", "19", "20", "20"], "time": [1529, 1633, 2425, 2793, 3008, 3133, 3203, 3578, 3912, 4683, 4850, 5009, 5489]}, "edge": {"target": [], "time": []}}, "mouseout": {"state": {"target": ["0", "1", "2", "15", "13", "33", "30", "25", "25", "30", "33", "22", "19", "20", "20"], "time": [1431, 1591, 2133, 2723, 2807, 3057, 3147, 3395, 3543, 3606, 4183, 4711, 4968, 5350, 5829]}, "edge": {"target": [], "time": []}}}, "displayed_time": "15.19", "trialTime": 16536, "trial_type": "mouselab-mdp", "trial_index": 15, "time_elapsed": 635953, "internal_node_id": "0.0-6.0-1.0-6.0"}}, {"uniqueid": "w33234998:a89385557", "current_trial": 16, "dateTime": 1693567509370, "trialdata": {"revealed_states": [], "clicked_states": ["22", "3", "29"], "num_clicks_accrued": [0, 0, 0, 0, 0, 0, 0, 0, 0, 0, 0, 0, 0], "stateRewards": ["", -1, 4, 3, 12, -27, 34, -33, 3, -63, 1, 6, 2, 2, -6, -11, -77, -85, 68, -6, 51, 81, -60, -2, -2, 1, 15, 20, 15, 68, -10, -14, 6, -4], "withholdReward": false, "trial_id": "mdp_trial_8", "block": "test", "trialIndex": 9, "score": 4.75, "costs": -5.25, "simulationMode": [null, null, null, null, null], "rewards": [-1, 4, 3, 3, 1], "path": ["0", "0", "1", "2", "3", "8", "10"], "rt": [8465, 582, 144, 81, 549], "actions": ["up", "up", "up", "left", "down"], "actionTimes": [9823, 10912, 11558, 12148, 13200], "queries": {"click": {"state": {"target": ["22", "3", "29"], "time": [2187, 5643, 6983]}, "edge": {"target": [], "time": []}}, "mouseover": {"state": {"target": ["12", "13", "19", "22", "13", "18", "7", "4", "3", "8", "8", "3", "4", "3", "8", "3", "3", "8", "27", "29", "29", "10", "8", "9", "8", "28"], "time": [1526, 1617, 1818, 2013, 2603, 2680, 2818, 3145, 3583, 3654, 3819, 3884, 4083, 5077, 5375, 5417, 5487, 5910, 6160, 6462, 6890, 7397, 7460, 7828, 8512, 8981]}, "edge": {"target": [], "time": []}}, "mouseout": {"state": {"target": ["0", "12", "13", "19", "22", "13", "18", "7", "4", "3", "8", "8", "3", "4", "3", "8", "3", "3", "8", "27", "29", "29", "10", "8", "9", "8", "28", "24", "31"], "time": [1047, 1540, 1679, 1964, 2520, 2638, 2693, 2958, 3507, 3631, 3680, 3861, 3923, 5049, 5125, 5389, 5452, 5876, 5961, 6404, 6744, 7083, 7404, 7606, 8467, 8544, 13901, 14457, 14554]}, "edge": {"target": [], "time": []}}}, "displayed_time": "15.36", "trialTime": 18807, "trial_type": "mouselab-mdp", "trial_index": 16, "time_elapsed": 654873, "internal_node_id": "0.0-6.0-1.0-7.0"}}, {"uniqueid": "w33234998:a89385557", "current_trial": 17, "dateTime": 1693567527108, "trialdata": {"revealed_states": [], "clicked_states": ["8", "4", "14", "19", "15"], "num_clicks_accrued": [0, 0, 0, 0, 0, 0, 0, 0, 0, 0, 0, 0, 0], "stateRewards": ["", -2, 2, 2, -6, 9, 37, 50, -13, -7, -18, -75, -2, -4, 4, 7, 23, -57, -66, -7, -81, -48, -76, 1, 1, -8, 1, 51, -2, 70, 14, 59, 71, -37], "withholdReward": false, "trial_id": "mdp_trial_9", "block": "test", "trialIndex": 10, "score": -68.15, "costs": -7.1499999999999995, "simulationMode": [null, null, null, null, null], "rewards": [-2, -4, 4, 7, -66], "path": ["0", "0", "12", "13", "14", "15", "18"], "rt": [6543, 338, 135, 159, 153], "actions": ["right", "right", "right", "up", "left"], "actionTimes": [8044, 8884, 9523, 10185, 10847], "queries": {"click": {"state": {"target": ["8", "4", "14", "19", "15"], "time": [2366, 3418, 4215, 5436, 6548]}, "edge": {"target": [], "time": []}}, "mouseover": {"state": {"target": ["8", "8", "10", "2", "4", "4", "7", "13", "14", "13", "22", "22", "19", "22", "13", "15", "13"], "time": [2007, 2195, 2792, 2945, 3119, 3272, 3710, 3842, 4078, 4467, 4988, 5141, 5308, 5836, 6204, 6413, 6954]}, "edge": {"target": [], "time": []}}, "mouseout": {"state": {"target": ["0", "0", "8", "8", "10", "2", "4", "4", "7", "13", "14", "13", "22", "22", "19", "22", "13", "15", "15", "13"], "time": [479, 1660, 2084, 2737, 2855, 3008, 3168, 3675, 3751, 3897, 4446, 4488, 5044, 5224, 5711, 6162, 6294, 6628, 6878, 6989]}, "edge": {"target": [], "time": []}}}, "displayed_time": "15.50", "trialTime": 17620, "trial_type": "mouselab-mdp", "trial_index": 17, "time_elapsed": 672611, "internal_node_id": "0.0-6.0-1.0-8.0"}}, {"uniqueid": "w33234998:a89385557", "current_trial": 18, "dateTime": 1693567543782, "trialdata": {"revealed_states": [], "clicked_states": ["25", "15", "18"], "num_clicks_accrued": [0, 0, 0, 0, 0, 0, 0, 0, 0, 0, 0, 0, 0], "stateRewards": ["", -1, 3, 8, 9, -53, 20, -84, 2, -28, -62, -31, -1, -2, -7, 2, 51, 58, 45, -4, -17, -41, 36, 2, -2, -7, -15, 29, -54, -37, -16, -43, 65, -17], "withholdReward": false, "trial_id": "mdp_trial_10", "block": "test", "trialIndex": 11, "score": 32.35, "costs": -4.65, "simulationMode": [null, null, null, null, null], "rewards": [-1, -2, -7, 2, 45], "path": ["0", "0", "12", "13", "14", "15", "18"], "rt": [7491, 25, 154, 91, 17], "actions": ["right", "right", "right", "up", "left"], "actionTimes": [8861, 9395, 10052, 10649, 11172], "queries": {"click": {"state": {"target": ["25", "15", "18"], "time": [2041, 2933, 4404]}, "edge": {"target": [], "time": []}}, "mouseover": {"state": {"target": ["25", "22", "14", "15", "13", "12", "23", "0", "12", "13", "18", "13", "14", "17", "14", "13"], "time": [1857, 2531, 2656, 2753, 3156, 3184, 3810, 3928, 3997, 4053, 4220, 4671, 4831, 5450, 7381, 7437]}, "edge": {"target": [], "time": []}}, "mouseout": {"state": {"target": ["0", "25", "22", "14", "15", "15", "13", "12", "23", "0", "12", "13", "18", "13", "14", "17", "14", "13"], "time": [1531, 2336, 2538, 2698, 2988, 3122, 3170, 3198, 3866, 3977, 4032, 4095, 4602, 4783, 5234, 7291, 7388, 7799]}, "edge": {"target": [], "time": []}}}, "displayed_time": "15.37", "trialTime": 16564, "trial_type": "mouselab-mdp", "trial_index": 18, "time_elapsed": 689284, "internal_node_id": "0.0-6.0-1.0-9.0"}}, {"uniqueid": "w33234998:a89385557", "current_trial": 19, "dateTime": 1693567560462, "trialdata": {"revealed_states": [], "clicked_states": ["3", "8", "4", "2", "25", "10"], "num_clicks_accrued": [0, 0, 0, 0, 0, 0, 0, 0, 0, 0, 0, 0, 0], "stateRewards": ["", 2, 2, 3, -15, 23, -14, 73, -7, -32, -20, -6, 1, 1, -5, -12, 73, 6, -84, 11, -81, -57, 13, -2, -1, -4, -8, -52, -58, 49, 13, 5, -41, -41], "withholdReward": false, "trial_id": "mdp_trial_11", "block": "test", "trialIndex": 12, "score": 7.5, "costs": -7.5, "simulationMode": [null, null, null, null, null], "rewards": [2, 2, 3, -15, 23], "path": ["0", "0", "1", "2", "3", "4", "5"], "rt": [10403, 85, 123, 55, 525], "actions": ["up", "up", "up", "right", "up"], "actionTimes": [11414, 12005, 12634, 13198, 14231], "queries": {"click": {"state": {"target": ["3", "8", "4", "2", "25", "10"], "time": [1904, 2711, 3529, 4526, 5819, 8466]}, "edge": {"target": [], "time": []}}, "mouseover": {"state": {"target": ["2", "3", "8", "8", "4", "4", "2", "28", "25", "24", "23", "1", "1", "8", "10", "10"], "time": [1566, 1733, 2199, 2331, 3206, 3373, 4380, 5374, 5700, 6166, 6214, 6500, 6979, 7792, 7924, 8306]}, "edge": {"target": [], "time": []}}, "mouseout": {"state": {"target": ["0", "2", "3", "8", "8", "3", "4", "4", "3", "2", "28", "25", "25", "24", "23", "1", "2", "1", "2", "8", "10", "10", "10"], "time": [1233, 1587, 2136, 2212, 2956, 3178, 3310, 3811, 4081, 4721, 5547, 5920, 6124, 6194, 6249, 6513, 6680, 7292, 7459, 7827, 8070, 8548, 8723]}, "edge": {"target": [], "time": []}}}, "displayed_time": "15.01", "trialTime": 16562, "trial_type": "mouselab-mdp", "trial_index": 19, "time_elapsed": 705964, "internal_node_id": "0.0-6.0-1.0-10.0"}}, {"uniqueid": "w33234998:a89385557", "current_trial": 20, "dateTime": 1693567577196, "trialdata": {"revealed_states": [], "clicked_states": ["8", "4", "15", "19", "22"], "num_clicks_accrued": [0, 0, 0, 0, 0, 0, 0, 0, 0, 0, 0, 0, 0], "stateRewards": ["", 1, 1, 7, -11, 80, -20, -53, -14, 3, 31, 27, 2, -1, -8, -10, 33, 41, 86, 9, 78, -37, -13, -1, -2, -6, -8, -80, 75, 4, -16, -49, -74, 24], "withholdReward": false, "trial_id": "mdp_trial_12", "block": "test", "trialIndex": 13, "score": 71.65, "costs": -8.35, "simulationMode": [null, null, null, null, null], "rewards": [2, -1, -8, 9, 78], "path": ["0", "0", "12", "13", "14", "19", "20"], "rt": [9492, 646, 145, 173, 360], "actions": ["right", "right", "right", "down", "right"], "actionTimes": [10702, 11856, 12508, 13182, 14050], "queries": {"click": {"state": {"target": ["8", "4", "15", "19", "22"], "time": [2592, 3444, 4621, 5316, 6599]}, "edge": {"target": [], "time": []}}, "mouseover": {"state": {"target": ["0", "1", "10", "8", "10", "2", "4", "1", "12", "13", "15", "19", "22", "22"], "time": [1759, 1863, 2016, 2329, 2871, 3052, 3260, 3899, 4087, 4233, 4483, 5025, 5727, 6484]}, "edge": {"target": [], "time": []}}, "mouseout": {"state": {"target": ["23", "0", "0", "1", "10", "8", "10", "2", "4", "1", "12", "13", "15", "19", "22", "22"], "time": [369, 1461, 1794, 1926, 2072, 2822, 2961, 3114, 3719, 3997, 4177, 4323, 4844, 5692, 5747, 6859]}, "edge": {"target": [], "time": []}}}, "displayed_time": "15.21", "trialTime": 16619, "trial_type": "mouselab-mdp", "trial_index": 20, "time_elapsed": 722698, "internal_node_id": "0.0-6.0-1.0-11.0"}}, {"uniqueid": "w33234998:a89385557", "current_trial": 21, "dateTime": 1693567593422, "trialdata": {"revealed_states": [], "clicked_states": ["25", "30", "31"], "num_clicks_accrued": [0, 0, 0, 0, 0, 0, 0, 0, 0, 0, 0, 0, 0], "stateRewards": ["", -2, 2, -2, -7, -50, -62, -45, 7, 36, -24, -72, -1, -1, 8, -1, -67, 20, -52, 2, 35, -50, 80, -1, 1, 6, -6, -70, 6, 88, 8, -47, 74, -19], "withholdReward": false, "trial_id": "mdp_trial_13", "block": "test", "trialIndex": 14, "score": -9.65, "costs": -4.65, "simulationMode": [null, null, null, null, null], "rewards": [-1, 1, 6, 8, -19], "path": ["0", "0", "23", "24", "25", "30", "33"], "rt": [6347, 73, 105, 94, 1626], "actions": ["left", "left", "left", "down", "left"], "actionTimes": [7434, 8012, 8621, 9222, 11351], "queries": {"click": {"state": {"target": ["25", "30", "31"], "time": [1840, 2660, 3217]}, "edge": {"target": [], "time": []}}, "mouseover": {"state": {"target": ["25", "30", "31"], "time": [1657, 2338, 2977]}, "edge": {"target": [], "time": []}}, "mouseout": {"state": {"target": ["0", "25", "30", "31", "30"], "time": [1331, 2255, 2915, 3505, 3603]}, "edge": {"target": [], "time": []}}}, "displayed_time": "15.09", "trialTime": 16123, "trial_type": "mouselab-mdp", "trial_index": 21, "time_elapsed": 738924, "internal_node_id": "0.0-6.0-1.0-12.0"}}, {"uniqueid": "w33234998:a89385557", "current_trial": 22, "dateTime": 1693567609512, "trialdata": {"revealed_states": [], "clicked_states": ["30", "19", "14", "22"], "num_clicks_accrued": [0, 0, 0, 0, 0, 0, 0, 0, 0, 0, 0, 0, 0], "stateRewards": ["", -1, 4, -6, -5, -22, -38, -38, -2, -56, 88, 14, -1, -1, -7, -6, 61, -60, 21, 11, 57, 31, -30, -2, -2, 6, -9, -44, -70, -44, -15, 34, 16, -78], "withholdReward": false, "trial_id": "mdp_trial_14", "block": "test", "trialIndex": 15, "score": 52.8, "costs": -6.199999999999999, "simulationMode": [null, null, null, null, null], "rewards": [-1, -1, -7, 11, 57], "path": ["0", "0", "12", "13", "14", "19", "20"], "rt": [8340, 486, 198, 276, 1194], "actions": ["right", "right", "right", "down", "right"], "actionTimes": [9317, 10306, 11011, 11791, 13487], "queries": {"click": {"state": {"target": ["30", "19", "14", "22"], "time": [2007, 3157, 4267, 5392]}, "edge": {"target": [], "time": []}}, "mouseover": {"state": {"target": ["0", "31", "30", "30", "31", "22", "19", "14", "22"], "time": [1057, 1397, 1425, 1738, 2613, 2794, 3030, 4100, 5288]}, "edge": {"target": [], "time": []}}, "mouseout": {"state": {"target": ["30", "31", "0", "0", "31", "30", "30", "30", "30", "31", "22", "19", "14", "22"], "time": [480, 549, 799, 1105, 1404, 1474, 2071, 2259, 2599, 2634, 2960, 3398, 4427, 5615]}, "edge": {"target": [], "time": []}}}, "displayed_time": "14.98", "trialTime": 15986, "trial_type": "mouselab-mdp", "trial_index": 22, "time_elapsed": 755015, "internal_node_id": "0.0-6.0-1.0-13.0"}}, {"uniqueid": "w33234998:a89385557", "current_trial": 23, "dateTime": 1693567626156, "trialdata": {"revealed_states": [], "clicked_states": ["26", "28"], "num_clicks_accrued": [0, 0, 0, 0, 0, 0, 0, 0, 0, 0, 0, 0, 0], "stateRewards": ["", -1, 4, -8, 12, 14, 69, -8, 5, -72, -14, 56, -1, -1, -1, 9, 67, 19, 11, -9, -88, -58, 3, 2, -4, -8, 4, 62, 77, -74, 5, -31, 65, 88], "withholdReward": false, "trial_id": "mdp_trial_15", "block": "test", "trialIndex": 16, "score": 67.3, "costs": -3.7, "simulationMode": [null, null, null, null, null], "rewards": [2, -4, -8, 4, 77], "path": ["0", "0", "23", "24", "25", "26", "28"], "rt": [6189, 112, 75, 78, 16], "actions": ["left", "left", "left", "up", "right"], "actionTimes": [7212, 7832, 8413, 8993, 9515], "queries": {"click": {"state": {"target": ["26", "28"], "time": [2138, 2994]}, "edge": {"target": [], "time": []}}, "mouseover": {"state": {"target": ["24", "25", "30", "25", "26", "25", "28", "25", "25", "27", "25"], "time": [1382, 1465, 1660, 1820, 1952, 2542, 2848, 3237, 4259, 4530, 5197]}, "edge": {"target": [], "time": []}}, "mouseout": {"state": {"target": ["0", "24", "25", "30", "25", "26", "25", "28", "25", "25", "27", "26", "25"], "time": [1271, 1424, 1584, 1730, 1882, 2487, 2744, 3189, 3335, 4321, 4988, 5106, 6482]}, "edge": {"target": [], "time": []}}}, "displayed_time": "15.03", "trialTime": 16530, "trial_type": "mouselab-mdp", "trial_index": 23, "time_elapsed": 771659, "internal_node_id": "0.0-6.0-1.0-14.0"}}, {"uniqueid": "w33234998:a89385557", "current_trial": 24, "dateTime": 1693567642340, "trialdata": {"revealed_states": [], "clicked_states": ["15", "3", "26", "30", "19", "13", "24", "25", "4"], "num_clicks_accrued": [0, 0, 0, 0, 0, 0, 0, 0, 0, 0, 0, 0, 0], "stateRewards": ["", 2, -2, -3, 10, -4, -1, -11, -8, -9, -36, -78, 2, 1, 7, -7, 44, -1, -31, -1, 26, 47, 83, 2, -4, -4, -6, -52, -76, -81, -1, -59, 45, 67], "withholdReward": false, "trial_id": "mdp_trial_16", "block": "test", "trialIndex": 17, "score": -4.35, "costs": -10.35, "simulationMode": [null, null, null, null, null], "rewards": [2, -2, -3, 10, -1], "path": ["0", "0", "1", "2", "3", "4", "6"], "rt": [8715, 105, 143, 84, 326], "actions": ["up", "up", "up", "right", "right"], "actionTimes": [9882, 10495, 11143, 11730, 12567], "queries": {"click": {"state": {"target": ["15", "3", "26", "30", "19", "13", "24", "25", "4"], "time": [1866, 2637, 3405, 4190, 4889, 5493, 6327, 6905, 7424]}, "edge": {"target": [], "time": []}}, "mouseover": {"state": {"target": ["13", "14", "15", "18", "7", "2", "3", "8", "27", "26", "25", "30", "31", "22", "19", "13", "12", "0", "23", "24", "25", "25", "28", "2", "4", "3", "10", "2", "3", "2"], "time": [1466, 1619, 1737, 2092, 2251, 2342, 2453, 2849, 3113, 3280, 3697, 4072, 4489, 4635, 4857, 5337, 5726, 5795, 5906, 5997, 6532, 6761, 7094, 7171, 7303, 7726, 8102, 8429, 8735, 9089]}, "edge": {"target": [], "time": []}}, "mouseout": {"state": {"target": ["0", "13", "14", "15", "18", "7", "2", "3", "8", "27", "26", "25", "30", "31", "22", "19", "13", "12", "0", "23", "24", "25", "25", "28", "2", "4", "3", "10", "2", "3", "2", "1", "0"], "time": [1293, 1529, 1654, 2064, 2140, 2258, 2356, 2807, 2884, 3203, 3655, 3773, 4475, 4510, 4746, 5163, 5663, 5760, 5878, 5962, 6504, 6608, 6997, 7101, 7219, 7674, 7789, 8220, 8526, 9012, 9201, 10298, 10478]}, "edge": {"target": [], "time": []}}}, "displayed_time": "15.17", "trialTime": 16081, "trial_type": "mouselab-mdp", "trial_index": 24, "time_elapsed": 787843, "internal_node_id": "0.0-6.0-1.0-15.0"}}, {"uniqueid": "w33234998:a89385557", "current_trial": 25, "dateTime": 1693567658103, "trialdata": {"revealed_states": [], "clicked_states": ["4", "7"], "num_clicks_accrued": [0, 0, 0, 0, 0, 0, 0, 0, 0, 0, 0, 0, 0], "stateRewards": ["", 1, 1, 4, 11, 83, -66, 18, -16, -23, 5, 25, 1, -3, 1, -12, 18, 24, -86, -11, -64, 36, 40, 2, 1, -6, 13, 55, 29, 72, -2, 81, -72, -41], "withholdReward": false, "trial_id": "mdp_trial_17", "block": "test", "trialIndex": 18, "score": 31.3, "costs": -3.7, "simulationMode": [null, null, null, null, null], "rewards": [1, 1, 4, 11, 18], "path": ["0", "0", "1", "2", "3", "4", "7"], "rt": [5756, 356, 110, 54, 529], "actions": ["up", "up", "up", "right", "down"], "actionTimes": [6601, 7459, 8074, 8637, 9674], "queries": {"click": {"state": {"target": ["4", "7"], "time": [1699, 2564]}, "edge": {"target": [], "time": []}}, "mouseover": {"state": {"target": ["1", "7", "4", "3", "7", "6"], "time": [1223, 1300, 1536, 2022, 2411, 3357]}, "edge": {"target": [], "time": []}}, "mouseout": {"state": {"target": ["0", "1", "7", "4", "3", "4", "7", "7", "6"], "time": [1147, 1230, 1342, 1988, 2078, 2335, 2863, 3134, 5893]}, "edge": {"target": [], "time": []}}}, "displayed_time": "14.85", "trialTime": 15656, "trial_type": "mouselab-mdp", "trial_index": 25, "time_elapsed": 803606, "internal_node_id": "0.0-6.0-1.0-16.0"}}, {"uniqueid": "w33234998:a89385557", "current_trial": 26, "dateTime": 1693567674122, "trialdata": {"revealed_states": [], "clicked_states": ["4", "8", "25", "14", "19", "15", "18"], "num_clicks_accrued": [0, 0, 0, 0, 0, 0, 0, 0, 0, 0, 0, 0, 0], "stateRewards": ["", -2, 3, 8, -9, 59, 41, -50, -1, 82, 66, 33, 2, -2, 7, 8, 1, -38, 12, -16, 24, -37, 67, 1, 4, -2, 5, 35, -83, 28, 8, -27, 69, -64], "withholdReward": false, "trial_id": "mdp_trial_18", "block": "test", "trialIndex": 19, "score": 16.75, "costs": -10.25, "simulationMode": [null, null, null, null, null], "rewards": [2, -2, 7, 8, 12], "path": ["0", "0", "12", "13", "14", "15", "18"], "rt": [8482, 69, 189, 135, 514], "actions": ["right", "right", "right", "up", "left"], "actionTimes": [9439, 10017, 10713, 11354, 12373], "queries": {"click": {"state": {"target": ["4", "8", "25", "14", "19", "15", "18"], "time": [1936, 2635, 3383, 4136, 4705, 5824, 6305]}, "edge": {"target": [], "time": []}}, "mouseover": {"state": {"target": ["7", "4", "3", "8", "11", "8", "25", "24", "23", "0", "12", "13", "14", "19", "22", "15", "15", "18", "17"], "time": [1539, 1810, 2199, 2262, 2317, 2470, 3193, 3679, 3728, 3763, 3804, 3853, 3992, 4499, 5069, 5374, 5652, 6146, 6737]}, "edge": {"target": [], "time": []}}, "mouseout": {"state": {"target": ["0", "7", "4", "3", "8", "11", "8", "25", "24", "23", "0", "12", "13", "14", "19", "22", "15", "15", "18", "15", "17"], "time": [1324, 1637, 2171, 2242, 2296, 2408, 2832, 3645, 3714, 3749, 3783, 3832, 3923, 4457, 4992, 5263, 5458, 6097, 6639, 6702, 6827]}, "edge": {"target": [], "time": []}}}, "displayed_time": "14.96", "trialTime": 15905, "trial_type": "mouselab-mdp", "trial_index": 26, "time_elapsed": 819624, "internal_node_id": "0.0-6.0-1.0-17.0"}}, {"uniqueid": "w33234998:a89385557", "current_trial": 27, "dateTime": 1693567690358, "trialdata": {"revealed_states": [], "clicked_states": ["19", "15", "8", "10"], "num_clicks_accrued": [0, 0, 0, 0, 0, 0, 0, 0, 0, 0, 0, 0, 0], "stateRewards": ["", -2, 4, -7, -3, -76, 39, -28, 10, 14, 12, 60, 2, -3, 6, -10, 88, -34, -41, -3, 72, -13, -56, 1, 3, 2, 8, -51, 23, -57, 1, 14, -46, -16], "withholdReward": false, "trial_id": "mdp_trial_19", "block": "test", "trialIndex": 20, "score": 10.2, "costs": -6.800000000000001, "simulationMode": [null, null, null, null, null], "rewards": [-2, 4, -7, 10, 12], "path": ["0", "0", "1", "2", "3", "8", "10"], "rt": [7160, 81, 54, 31, 434], "actions": ["up", "up", "up", "left", "down"], "actionTimes": [8404, 8992, 9548, 10088, 11026], "queries": {"click": {"state": {"target": ["19", "15", "8", "10"], "time": [2050, 2828, 3970, 4947]}, "edge": {"target": [], "time": []}}, "mouseover": {"state": {"target": ["22", "19", "14", "15", "12", "23", "2", "10", "8", "10", "28", "10"], "time": [1614, 1843, 2517, 2615, 3184, 3261, 3525, 3608, 3838, 4213, 4331, 4803]}, "edge": {"target": [], "time": []}}, "mouseout": {"state": {"target": ["20", "19", "22", "12", "0", "22", "19", "14", "15", "12", "23", "2", "10", "8", "10", "28", "10"], "time": [530, 565, 606, 787, 1448, 1628, 2476, 2566, 3087, 3198, 3337, 3574, 3678, 4157, 4227, 4512, 5137]}, "edge": {"target": [], "time": []}}}, "displayed_time": "15.25", "trialTime": 16124, "trial_type": "mouselab-mdp", "trial_index": 27, "time_elapsed": 835860, "internal_node_id": "0.0-6.0-1.0-18.0"}}, {"uniqueid": "w33234998:a89385557", "current_trial": 28, "dateTime": 1693567706515, "trialdata": {"revealed_states": [], "clicked_states": ["30", "33"], "num_clicks_accrued": [0, 0, 0, 0, 0, 0, 0, 0, 0, 0, 0, 0, 0], "stateRewards": ["", -1, -3, 1, 13, -64, -29, 12, -4, -33, 50, 56, 2, -3, 4, 11, -64, -58, -55, 12, 47, 38, -25, -2, 2, 5, -15, 85, 7, 84, 10, 8, 57, 26], "withholdReward": false, "trial_id": "mdp_trial_20", "block": "test", "trialIndex": 21, "score": 37.3, "costs": -3.7, "simulationMode": [null, null, null, null, null], "rewards": [-2, 2, 5, 10, 26], "path": ["0", "0", "23", "24", "25", "30", "33"], "rt": [5836, 46, 91, 104, 124], "actions": ["left", "left", "left", "down", "left"], "actionTimes": [6858, 7408, 8001, 8612, 9243], "queries": {"click": {"state": {"target": ["30", "33"], "time": [1837, 2787]}, "edge": {"target": [], "time": []}}, "mouseover": {"state": {"target": ["0", "23", "30", "32", "33", "32"], "time": [1121, 1183, 1288, 2517, 2691, 5317]}, "edge": {"target": [], "time": []}}, "mouseout": {"state": {"target": ["23", "0", "23", "30", "32", "33", "32"], "time": [655, 1148, 1190, 2385, 2566, 3018, 6068]}, "edge": {"target": [], "time": []}}}, "displayed_time": "15.02", "trialTime": 16043, "trial_type": "mouselab-mdp", "trial_index": 28, "time_elapsed": 852017, "internal_node_id": "0.0-6.0-1.0-19.0"}}, {"uniqueid": "w33234998:a89385557", "current_trial": 29, "dateTime": 1693567723816, "trialdata": {"revealed_states": [], "clicked_states": ["19", "22", "20"], "num_clicks_accrued": [0, 0, 0, 0, 0, 0, 0, 0, 0, 0, 0, 0, 0], "stateRewards": ["", 2, -4, 4, 9, 69, 9, -75, 12, -86, 66, 25, -1, 3, 2, -13, -88, -3, 1, 4, -69, 49, -84, 2, -1, 4, 2, -18, -81, -52, -15, -69, -54, 25], "withholdReward": false, "trial_id": "mdp_trial_21", "block": "test", "trialIndex": 22, "score": 51.15, "costs": -5.85, "simulationMode": [null, null, null, null, null], "rewards": [-1, 3, 2, 4, 49], "path": ["0", "0", "12", "13", "14", "19", "21"], "rt": [8628, 64, 210, 56, 55], "actions": ["right", "right", "right", "down", "down"], "actionTimes": [10235, 10805, 11521, 12083, 12645], "queries": {"click": {"state": {"target": ["19", "22", "20"], "time": [2103, 3157, 6349]}, "edge": {"target": [], "time": []}}, "mouseover": {"state": {"target": ["22", "19", "14", "15", "22", "20", "20", "21"], "time": [1819, 1867, 2409, 2507, 3014, 3660, 4466, 6759]}, "edge": {"target": [], "time": []}}, "mouseout": {"state": {"target": ["0", "22", "19", "14", "15", "22", "19", "20", "20", "21"], "time": [1735, 1846, 2354, 2458, 2743, 3340, 3486, 4132, 6592, 12331]}, "edge": {"target": [], "time": []}}}, "displayed_time": "15.61", "trialTime": 17172, "trial_type": "mouselab-mdp", "trial_index": 29, "time_elapsed": 869318, "internal_node_id": "0.0-6.0-1.0-20.0"}}, {"uniqueid": "w33234998:a89385557", "current_trial": 30, "dateTime": 1693567739487, "trialdata": {"revealed_states": [], "clicked_states": ["15", "16", "17"], "num_clicks_accrued": [0, 0, 0, 0, 0, 0, 0, 0, 0, 0, 0, 0, 0], "stateRewards": ["", -1, -4, -1, -11, 43, 69, 39, 4, 17, -20, -82, -2, -1, 4, 8, -79, 24, -79, 11, 36, 64, 41, 2, 4, -1, 11, -79, -47, 75, -3, 63, -36, -19], "withholdReward": false, "trial_id": "mdp_trial_22", "block": "test", "trialIndex": 23, "score": 27.15, "costs": -5.85, "simulationMode": [null, null, null, null, null], "rewards": [-2, -1, 4, 8, 24], "path": ["0", "0", "12", "13", "14", "15", "17"], "rt": [8710, 48, 131, 168, 507], "actions": ["right", "right", "right", "up", "right"], "actionTimes": [9499, 10050, 10688, 11365, 12378], "queries": {"click": {"state": {"target": ["15", "16", "17"], "time": [1599, 2616, 5744]}, "edge": {"target": [], "time": []}}, "mouseover": {"state": {"target": ["12", "13", "15", "13", "18", "16", "17", "14"], "time": [1086, 1149, 1434, 1976, 2198, 2525, 3143, 8910]}, "edge": {"target": [], "time": []}}, "mouseout": {"state": {"target": ["0", "12", "13", "15", "13", "18", "16", "17", "14"], "time": [1045, 1121, 1156, 1851, 2121, 2386, 2816, 5950, 8945]}, "edge": {"target": [], "time": []}}}, "displayed_time": "14.79", "trialTime": 15567, "trial_type": "mouselab-mdp", "trial_index": 30, "time_elapsed": 884989, "internal_node_id": "0.0-6.0-1.0-21.0"}}, {"uniqueid": "w33234998:a89385557", "current_trial": 31, "dateTime": 1693567755361, "trialdata": {"revealed_states": [], "clicked_states": ["26", "4", "8", "15", "19", "22"], "num_clicks_accrued": [0, 0, 0, 0, 0, 0, 0, 0, 0, 0, 0, 0, 0], "stateRewards": ["", 2, 3, 6, -5, -74, -53, 17, -12, 46, 44, 18, -2, 4, 1, -8, 22, -23, -49, 9, -45, 55, 81, 1, -1, -7, -16, -83, -71, -45, 2, 51, 82, 61], "withholdReward": false, "trial_id": "mdp_trial_23", "block": "test", "trialIndex": 24, "score": 83.1, "costs": -9.9, "simulationMode": [null, null, null, null, null], "rewards": [-2, 4, 1, 9, 81], "path": ["0", "0", "12", "13", "14", "19", "22"], "rt": [7667, 126, 162, 74, 38], "actions": ["right", "right", "right", "down", "left"], "actionTimes": [8789, 9423, 10091, 10670, 11211], "queries": {"click": {"state": {"target": ["26", "4", "8", "15", "19", "22"], "time": [1808, 2826, 3407, 4151, 4771, 5509]}, "edge": {"target": [], "time": []}}, "mouseover": {"state": {"target": ["23", "24", "26", "28", "10", "3", "4", "3", "8", "2", "7", "18", "15", "14", "19", "22"], "time": [1361, 1415, 1639, 2285, 2355, 2563, 2646, 3119, 3181, 3772, 3814, 3876, 4015, 4460, 4571, 5162]}, "edge": {"target": [], "time": []}}, "mouseout": {"state": {"target": ["12", "0", "23", "24", "26", "28", "10", "3", "4", "3", "8", "2", "7", "18", "15", "14", "19", "22"], "time": [631, 1335, 1389, 1445, 2243, 2306, 2396, 2605, 3105, 3147, 3717, 3793, 3835, 3904, 4418, 4522, 5030, 8782]}, "edge": {"target": [], "time": []}}}, "displayed_time": "15.12", "trialTime": 15749, "trial_type": "mouselab-mdp", "trial_index": 31, "time_elapsed": 900863, "internal_node_id": "0.0-6.0-1.0-22.0"}}, {"uniqueid": "w33234998:a89385557", "current_trial": 32, "dateTime": 1693567771567, "trialdata": {"revealed_states": [], "clicked_states": ["25", "31"], "num_clicks_accrued": [0, 0, 0, 0, 0, 0, 0, 0, 0, 0, 0, 0, 0], "stateRewards": ["", 1, 2, -8, 9, 18, -83, -11, 6, -64, -48, 17, -2, -2, -5, -3, -24, -3, -86, -2, 48, -41, -22, -2, 4, 7, 8, 81, 13, -48, 10, 61, 19, 57], "withholdReward": false, "trial_id": "mdp_trial_24", "block": "test", "trialIndex": 25, "score": 76.9, "costs": -3.0999999999999996, "simulationMode": [null, null, null, null, null], "rewards": [-2, 4, 7, 10, 61], "path": ["0", "0", "23", "24", "25", "30", "31"], "rt": [5638, 47, 77, 112, 108], "actions": ["left", "left", "left", "down", "right"], "actionTimes": [6842, 7396, 7982, 8601, 9215], "queries": {"click": {"state": {"target": ["25", "31"], "time": [2006, 2992]}, "edge": {"target": [], "time": []}}, "mouseover": {"state": {"target": ["31", "25", "30", "31", "32"], "time": [1616, 1866, 2324, 2846, 3332]}, "edge": {"target": [], "time": []}}, "mouseout": {"state": {"target": ["0", "31", "25", "30", "31", "32"], "time": [1414, 1748, 2255, 2415, 3221, 6264]}, "edge": {"target": [], "time": []}}}, "displayed_time": "15.21", "trialTime": 16097, "trial_type": "mouselab-mdp", "trial_index": 32, "time_elapsed": 917069, "internal_node_id": "0.0-6.0-1.0-23.0"}}, {"uniqueid": "w33234998:a89385557", "current_trial": 33, "dateTime": 1693567788129, "trialdata": {"revealed_states": [], "clicked_states": ["19", "20"], "num_clicks_accrued": [0, 0, 0, 0, 0, 0, 0, 0, 0, 0, 0, 0, 0], "stateRewards": ["", 1, 1, 1, 15, -76, 52, -32, 14, -57, 37, 49, 1, -4, -3, 6, 83, -76, 25, 9, 36, -1, -17, -1, 4, 4, -2, -22, -21, 58, -15, -57, 49, -24], "withholdReward": false, "trial_id": "mdp_trial_25", "block": "test", "trialIndex": 26, "score": 35.3, "costs": -3.7, "simulationMode": [null, null, null, null, null], "rewards": [1, -4, -3, 9, 36], "path": ["0", "0", "12", "13", "14", "19", "20"], "rt": [5912, 55, 96, 62, 85], "actions": ["right", "right", "right", "down", "right"], "actionTimes": [7166, 7730, 8334, 8904, 9497], "queries": {"click": {"state": {"target": ["19", "20"], "time": [2102, 3537]}, "edge": {"target": [], "time": []}}, "mouseover": {"state": {"target": ["12", "19", "22", "20", "20"], "time": [1580, 1740, 2643, 3025, 3250]}, "edge": {"target": [], "time": []}}, "mouseout": {"state": {"target": ["0", "12", "19", "22", "19", "20", "20"], "time": [1531, 1601, 2483, 2900, 2990, 3185, 3831]}, "edge": {"target": [], "time": []}}}, "displayed_time": "15.26", "trialTime": 16434, "trial_type": "mouselab-mdp", "trial_index": 33, "time_elapsed": 933632, "internal_node_id": "0.0-6.0-1.0-24.0"}}, {"uniqueid": "w33234998:a89385557", "current_trial": 34, "dateTime": 1693567805098, "trialdata": {"revealed_states": [], "clicked_states": ["30", "31"], "num_clicks_accrued": [0, 0, 0, 0, 0, 0, 0, 0, 0, 0, 0, 0, 0], "stateRewards": ["", 2, -1, 3, -12, -83, 6, -33, 9, 28, 24, -50, -2, -1, -2, -5, -87, 37, 82, 12, 80, -5, 10, -2, -3, -6, 9, 22, -1, 16, 9, 77, -62, 58], "withholdReward": false, "trial_id": "mdp_trial_26", "block": "test", "trialIndex": 27, "score": 71.3, "costs": -3.7, "simulationMode": [null, null, null, null, null], "rewards": [-2, -3, -6, 9, 77], "path": ["0", "0", "23", "24", "25", "30", "31"], "rt": [5167, 381, 85, 122, 142], "actions": ["left", "left", "left", "down", "right"], "actionTimes": [6875, 7764, 8351, 8978, 9623], "queries": {"click": {"state": {"target": ["30", "31"], "time": [2400, 3559]}, "edge": {"target": [], "time": []}}, "mouseover": {"state": {"target": ["24", "30", "31", "31", "32"], "time": [1990, 2192, 2914, 3436, 6111]}, "edge": {"target": [], "time": []}}, "mouseout": {"state": {"target": ["0", "24", "30", "31", "31", "32"], "time": [1775, 1997, 2706, 2928, 3741, 10328]}, "edge": {"target": [], "time": []}}}, "displayed_time": "15.71", "trialTime": 16832, "trial_type": "mouselab-mdp", "trial_index": 34, "time_elapsed": 950600, "internal_node_id": "0.0-6.0-1.0-25.0"}}, {"uniqueid": "w33234998:a89385557", "current_trial": 35, "dateTime": 1693567821421, "trialdata": {"revealed_states": [], "clicked_states": ["15", "8", "10", "11"], "num_clicks_accrued": [0, 0, 0, 0, 0, 0, 0, 0, 0, 0, 0, 0, 0], "stateRewards": ["", -1, 2, -2, 13, -56, -28, 10, 14, 53, -80, -29, 1, -3, -3, -14, 14, 9, -40, -9, 18, 18, 48, 1, 1, 1, -9, 64, -39, -9, 7, -52, -78, 7], "withholdReward": false, "trial_id": "mdp_trial_27", "block": "test", "trialIndex": 28, "score": 58.6, "costs": -7.4, "simulationMode": [null, null, null, null, null], "rewards": [-1, 2, -2, 14, 53], "path": ["0", "0", "1", "2", "3", "8", "9"], "rt": [10103, 89, 89, 74, 53], "actions": ["up", "up", "up", "left", "up"], "actionTimes": [11156, 11748, 12345, 12928, 13483], "queries": {"click": {"state": {"target": ["15", "8", "10", "11"], "time": [1806, 3352, 4254, 7968]}, "edge": {"target": [], "time": []}}, "mouseover": {"state": {"target": ["12", "13", "15", "18", "1", "2", "8", "8", "10", "28", "8", "11"], "time": [1292, 1388, 1611, 2167, 2347, 2465, 2785, 3174, 4057, 4633, 7621, 7815]}, "edge": {"target": [], "time": []}}, "mouseout": {"state": {"target": ["0", "12", "13", "15", "18", "1", "2", "8", "8", "8", "10", "28", "8", "11", "28"], "time": [1249, 1346, 1409, 2125, 2215, 2396, 2625, 3125, 3660, 3959, 4536, 7503, 7725, 8281, 14180]}, "edge": {"target": [], "time": []}}}, "displayed_time": "15.05", "trialTime": 16190, "trial_type": "mouselab-mdp", "trial_index": 35, "time_elapsed": 966923, "internal_node_id": "0.0-6.0-1.0-26.0"}}, {"uniqueid": "w33234998:a89385557", "current_trial": 36, "dateTime": 1693567839385, "trialdata": {"revealed_states": [], "clicked_states": ["15", "19", "30", "26", "8", "4", "7", "6"], "num_clicks_accrued": [0, 0, 0, 0, 0, 0, 0, 0, 0, 0, 0, 0, 0], "stateRewards": ["", 2, -1, -3, 16, -3, -16, -62, -1, 13, -26, 43, -1, 4, 3, -9, -54, -37, -3, -12, -71, -68, -57, 1, -3, 2, -9, 2, -2, -9, -11, 84, -52, 55], "withholdReward": false, "trial_id": "mdp_trial_28", "block": "test", "trialIndex": 29, "score": -2.6000000000000014, "costs": -13.600000000000001, "simulationMode": [null, null, null, null, null], "rewards": [2, -1, -3, 16, -3], "path": ["0", "0", "1", "2", "3", "4", "5"], "rt": [12479, 56, 43, 80, 145], "actions": ["up", "up", "up", "right", "up"], "actionTimes": [13389, 13949, 14499, 15084, 15734], "queries": {"click": {"state": {"target": ["15", "19", "30", "26", "8", "4", "7", "6"], "time": [1767, 3026, 3801, 4418, 5106, 5623, 6454, 10134]}, "edge": {"target": [], "time": []}}, "mouseover": {"state": {"target": ["0", "13", "15", "13", "13", "12", "22", "19", "22", "31", "30", "25", "26", "8", "3", "4", "7", "7", "7", "6"], "time": [1017, 1399, 1608, 2039, 2500, 2706, 2817, 2900, 3247, 3539, 3671, 4123, 4248, 4957, 5394, 5471, 5950, 6138, 6347, 10036]}, "edge": {"target": [], "time": []}}, "mouseout": {"state": {"target": ["0", "0", "13", "15", "13", "13", "12", "22", "19", "22", "31", "30", "25", "26", "8", "3", "4", "7", "7", "7", "7", "6", "7", "12"], "time": [739, 1094, 1517, 1969, 2066, 2567, 2740, 2845, 3220, 3268, 3602, 4040, 4192, 4494, 5367, 5450, 5902, 5992, 6193, 6708, 6784, 10307, 10571, 16227]}, "edge": {"target": [], "time": []}}}, "displayed_time": "16.24", "trialTime": 17837, "trial_type": "mouselab-mdp", "trial_index": 36, "time_elapsed": 984887, "internal_node_id": "0.0-6.0-1.0-27.0"}}, {"uniqueid": "w33234998:a89385557", "current_trial": 37, "dateTime": 1693567857604, "trialdata": {"revealed_states": [], "clicked_states": ["30", "26", "28", "27", "29"], "num_clicks_accrued": [0, 0, 0, 0, 0, 0, 0, 0, 0, 0, 0, 0, 0], "stateRewards": ["", 1, -4, 6, -3, 40, 76, -51, 5, -24, -63, 44, -2, -2, 8, 1, 76, -85, -58, 10, 59, 20, 11, -2, 3, -3, 3, -82, -10, 54, -7, -57, -6, -32], "withholdReward": false, "trial_id": "mdp_trial_29", "block": "test", "trialIndex": 30, "score": 45.45, "costs": -9.55, "simulationMode": [null, null, null, null, null], "rewards": [-2, 3, -3, 3, 54], "path": ["0", "0", "23", "24", "25", "26", "29"], "rt": [12334, 67, 155, 107, 340], "actions": ["left", "left", "left", "up", "left"], "actionTimes": [13302, 13877, 14534, 15147, 15991], "queries": {"click": {"state": {"target": ["30", "26", "28", "27", "29"], "time": [2077, 2671, 3401, 6989, 10231]}, "edge": {"target": [], "time": []}}, "mouseover": {"state": {"target": ["30", "25", "26", "28", "23", "24", "28", "26", "27", "27", "29"], "time": [1880, 2397, 2483, 2949, 3046, 3185, 3255, 6472, 6610, 6875, 10175]}, "edge": {"target": [], "time": []}}, "mouseout": {"state": {"target": ["0", "30", "25", "26", "28", "23", "24", "28", "26", "27", "27", "29", "29", "30"], "time": [1080, 2351, 2442, 2928, 2970, 3101, 3199, 3616, 6499, 6638, 7258, 10236, 10738, 16518]}, "edge": {"target": [], "time": []}}}, "displayed_time": "16.50", "trialTime": 18095, "trial_type": "mouselab-mdp", "trial_index": 37, "time_elapsed": 1003106, "internal_node_id": "0.0-6.0-1.0-28.0"}}, {"uniqueid": "w33234998:a89385557", "current_trial": 38, "dateTime": 1693567873867, "trialdata": {"revealed_states": [], "clicked_states": ["19", "20", "21"], "num_clicks_accrued": [0, 0, 0, 0, 0, 0, 0, 0, 0, 0, 0, 0, 0], "stateRewards": ["", -2, -2, -7, -13, -10, 49, -68, -1, 84, 70, 88, 1, 4, 4, 12, -57, 25, 30, 8, -1, -77, 57, 2, 3, 2, 3, -18, -80, 23, -15, -41, 70, 11], "withholdReward": false, "trial_id": "mdp_trial_30", "block": "test", "trialIndex": 31, "score": 68.15, "costs": -5.85, "simulationMode": [null, null, null, null, null], "rewards": [1, 4, 4, 8, 57], "path": ["0", "0", "12", "13", "14", "19", "22"], "rt": [8940, 161, 80, 175, 432], "actions": ["right", "right", "right", "down", "left"], "actionTimes": [9863, 10532, 11118, 11796, 12734], "queries": {"click": {"state": {"target": ["19", "20", "21"], "time": [1719, 2832, 6120]}, "edge": {"target": [], "time": []}}, "mouseover": {"state": {"target": ["22", "19", "22", "20", "21", "19"], "time": [1240, 1573, 2289, 2608, 3088, 9821]}, "edge": {"target": [], "time": []}}, "mouseout": {"state": {"target": ["0", "22", "19", "22", "19", "20", "21", "19"], "time": [1094, 1317, 2233, 2435, 2574, 3046, 6423, 9849]}, "edge": {"target": [], "time": []}}}, "displayed_time": "14.92", "trialTime": 16140, "trial_type": "mouselab-mdp", "trial_index": 38, "time_elapsed": 1019370, "internal_node_id": "0.0-6.0-1.0-29.0"}}, {"uniqueid": "w33234998:a89385557", "current_trial": 39, "dateTime": 1693567889519, "trialdata": {"revealed_states": [], "clicked_states": ["19", "15", "30", "26", "28"], "num_clicks_accrued": [0, 0, 0, 0, 0, 0, 0, 0, 0, 0, 0, 0, 0], "stateRewards": ["", 2, -1, -1, 7, 11, -40, -22, -2, 69, 37, 8, -2, 4, -8, -12, -2, -72, -3, -12, 17, 63, 12, 1, 3, -7, 6, 25, 61, 61, -9, 28, -17, 27], "withholdReward": false, "trial_id": "mdp_trial_31", "block": "test", "trialIndex": 32, "score": 55.65, "costs": -8.35, "simulationMode": [null, null, null, null, null], "rewards": [1, 3, -7, 6, 61], "path": ["0", "0", "23", "24", "25", "26", "28"], "rt": [7256, 517, 160, 143, 2], "actions": ["left", "left", "left", "up", "right"], "actionTimes": [8168, 9191, 9856, 10506, 11011], "queries": {"click": {"state": {"target": ["19", "15", "30", "26", "28"], "time": [1740, 2378, 3137, 3724, 4519]}, "edge": {"target": [], "time": []}}, "mouseover": {"state": {"target": ["0", "22", "19", "14", "15", "18", "23", "24", "30", "25", "26", "28", "24"], "time": [1031, 1267, 1434, 2115, 2240, 2629, 2774, 2858, 2990, 3469, 3587, 4380, 4789]}, "edge": {"target": [], "time": []}}, "mouseout": {"state": {"target": ["21", "22", "0", "0", "22", "19", "14", "15", "18", "23", "24", "30", "25", "26", "28", "24", "31"], "time": [336, 419, 746, 1100, 1357, 2045, 2177, 2580, 2657, 2795, 2928, 3421, 3532, 4241, 4741, 4963, 11599]}, "edge": {"target": [], "time": []}}}, "displayed_time": "14.91", "trialTime": 15512, "trial_type": "mouselab-mdp", "trial_index": 39, "time_elapsed": 1035022, "internal_node_id": "0.0-6.0-1.0-30.0"}}, {"uniqueid": "w33234998:a89385557", "current_trial": 40, "dateTime": 1693567905694, "trialdata": {"revealed_states": [], "clicked_states": ["4", "8", "11", "9"], "num_clicks_accrued": [0, 0, 0, 0, 0, 0, 0, 0, 0, 0, 0, 0, 0], "stateRewards": ["", 2, 4, -6, -13, -75, -81, 30, 7, 5, 59, -65, -1, -1, 7, 14, -38, 36, -41, 1, -54, -5, 64, 2, -1, 5, 6, -19, 79, 11, 16, -33, -50, 58], "withholdReward": false, "trial_id": "mdp_trial_32", "block": "test", "trialIndex": 33, "score": 58.6, "costs": -7.4, "simulationMode": [null, null, null, null, null], "rewards": [2, 4, -6, 7, 59], "path": ["0", "0", "1", "2", "3", "8", "10"], "rt": [9570, 41, 63, 76, 272], "actions": ["up", "up", "up", "left", "down"], "actionTimes": [10671, 11215, 11793, 12376, 13155], "queries": {"click": {"state": {"target": ["4", "8", "11", "9"], "time": [2283, 3015, 3944, 7583]}, "edge": {"target": [], "time": []}}, "mouseover": {"state": {"target": ["12", "18", "7", "2", "4", "3", "8", "11", "8", "11", "9"], "time": [1383, 1515, 1710, 1849, 2141, 2543, 2592, 2662, 2877, 3836, 7470]}, "edge": {"target": [], "time": []}}, "mouseout": {"state": {"target": ["0", "12", "18", "7", "2", "4", "3", "8", "11", "8", "11", "11", "9", "11", "28", "30"], "time": [1335, 1411, 1620, 1786, 1856, 2502, 2578, 2627, 2773, 3252, 4093, 7254, 7762, 7908, 13709, 13987]}, "edge": {"target": [], "time": []}}}, "displayed_time": "15.10", "trialTime": 16024, "trial_type": "mouselab-mdp", "trial_index": 40, "time_elapsed": 1051196, "internal_node_id": "0.0-6.0-1.0-31.0"}}, {"uniqueid": "w33234998:a89385557", "current_trial": 41, "dateTime": 1693567922697, "trialdata": {"revealed_states": [], "clicked_states": ["15", "26", "30", "19", "4", "6", "7"], "num_clicks_accrued": [0, 0, 0, 0, 0, 0, 0, 0, 0, 0, 0, 0, 0], "stateRewards": ["", 2, 3, 3, 10, 19, -21, 6, 9, 54, 68, 16, 2, 2, -6, -8, 40, -2, -75, -2, -42, 55, 59, -1, 2, 4, -14, 11, -34, -30, -6, 61, -53, 13], "withholdReward": false, "trial_id": "mdp_trial_33", "block": "test", "trialIndex": 34, "score": 24.95, "costs": -12.05, "simulationMode": [null, null, null, null, null], "rewards": [2, 3, 3, 10, 19], "path": ["0", "0", "1", "2", "3", "4", "5"], "rt": [11822, 26, 91, 64, 86], "actions": ["up", "up", "up", "right", "up"], "actionTimes": [12737, 13267, 13867, 14437, 15029], "queries": {"click": {"state": {"target": ["15", "26", "30", "19", "4", "6", "7"], "time": [1751, 2670, 3220, 3996, 4711, 5687, 9453]}, "edge": {"target": [], "time": []}}, "mouseover": {"state": {"target": ["22", "14", "15", "13", "23", "28", "26", "25", "30", "32", "22", "19", "22", "12", "7", "4", "3", "8", "3", "3", "6", "7", "1", "1", "7", "7", "0"], "time": [1373, 1539, 1616, 1963, 2186, 2262, 2415, 2936, 3040, 3499, 3777, 3909, 4221, 4336, 4451, 4569, 4895, 5097, 5201, 5340, 5521, 5896, 5958, 8925, 9009, 9342, 9794]}, "edge": {"target": [], "time": []}}, "mouseout": {"state": {"target": ["32", "0", "22", "14", "15", "13", "23", "28", "26", "26", "25", "30", "32", "22", "19", "22", "12", "7", "4", "3", "8", "3", "3", "4", "6", "7", "1", "1", "7", "7", "7"], "time": [324, 1040, 1456, 1553, 1922, 2012, 2213, 2311, 2740, 2901, 2964, 3450, 3506, 3811, 4180, 4270, 4361, 4506, 4868, 4951, 5139, 5291, 5382, 5486, 5847, 5917, 5972, 8968, 9099, 9548, 9662]}, "edge": {"target": [], "time": []}}}, "displayed_time": "15.53", "trialTime": 16876, "trial_type": "mouselab-mdp", "trial_index": 41, "time_elapsed": 1068199, "internal_node_id": "0.0-6.0-1.0-32.0"}}, {"uniqueid": "w33234998:a89385557", "current_trial": 42, "dateTime": 1693567938332, "trialdata": {"revealed_states": [], "clicked_states": ["26", "28"], "num_clicks_accrued": [0, 0, 0, 0, 0, 0, 0, 0, 0, 0, 0, 0, 0], "stateRewards": ["", 1, -1, -7, -7, -22, 15, -13, 13, 26, -32, 38, -1, 1, -7, -4, 16, -62, 86, 12, -54, 56, 64, -2, -1, 6, 14, -57, 37, 62, -6, -25, 50, -70], "withholdReward": false, "trial_id": "mdp_trial_34", "block": "test", "trialIndex": 35, "score": 50.3, "costs": -3.7, "simulationMode": [null, null, null, null, null], "rewards": [-2, -1, 6, 14, 37], "path": ["0", "0", "23", "24", "25", "26", "28"], "rt": [5995, 540, 159, 119, 39], "actions": ["left", "left", "left", "up", "right"], "actionTimes": [6991, 8038, 8699, 9326, 9872], "queries": {"click": {"state": {"target": ["26", "28"], "time": [1807, 3272]}, "edge": {"target": [], "time": []}}, "mouseover": {"state": {"target": ["23", "24", "25", "26", "25", "25", "28", "28", "25"], "time": [1355, 1431, 1522, 1662, 2050, 2412, 2856, 3183, 3606]}, "edge": {"target": [], "time": []}}, "mouseout": {"state": {"target": ["0", "23", "24", "25", "26", "25", "25", "28", "26", "28", "25", "33", "32"], "time": [1320, 1410, 1466, 1558, 2015, 2126, 2474, 2863, 2925, 3447, 3738, 12229, 12710]}, "edge": {"target": [], "time": []}}}, "displayed_time": "15.00", "trialTime": 15512, "trial_type": "mouselab-mdp", "trial_index": 42, "time_elapsed": 1083835, "internal_node_id": "0.0-6.0-1.0-33.0"}}, {"uniqueid": "w33234998:a89385557", "current_trial": 43, "dateTime": 1693567954229, "trialdata": {"revealed_states": [], "clicked_states": ["15", "18", "17"], "num_clicks_accrued": [0, 0, 0, 0, 0, 0, 0, 0, 0, 0, 0, 0, 0], "stateRewards": ["", 1, -2, 4, 7, -43, -83, -60, -5, -86, -80, 83, -1, -2, 6, 11, -15, 21, 13, 9, 29, -49, 11, -1, 4, -6, -11, 87, 40, 63, -8, -39, -11, 62], "withholdReward": false, "trial_id": "mdp_trial_35", "block": "test", "trialIndex": 36, "score": 29.15, "costs": -5.85, "simulationMode": [null, null, null, null, null], "rewards": [-1, -2, 6, 11, 21], "path": ["0", "0", "12", "13", "14", "15", "17"], "rt": [9585, 405, 163, 144, 9], "actions": ["right", "right", "right", "up", "right"], "actionTimes": [10540, 11449, 12117, 12765, 13276], "queries": {"click": {"state": {"target": ["15", "18", "17"], "time": [2096, 3072, 6769]}, "edge": {"target": [], "time": []}}, "mouseover": {"state": {"target": ["22", "14", "15", "22", "22", "13", "18", "22", "14", "17", "14", "22"], "time": [1441, 1795, 1948, 2420, 2719, 2809, 2972, 5714, 6228, 6652, 7055, 7215]}, "edge": {"target": [], "time": []}}, "mouseout": {"state": {"target": ["0", "22", "14", "15", "22", "22", "13", "18", "22", "14", "17", "14", "22"], "time": [1086, 1559, 1830, 2281, 2518, 2775, 2886, 3226, 6139, 6284, 7013, 7096, 13481]}, "edge": {"target": [], "time": []}}}, "displayed_time": "14.96", "trialTime": 15757, "trial_type": "mouselab-mdp", "trial_index": 43, "time_elapsed": 1099731, "internal_node_id": "0.0-6.0-1.0-34.0"}}, {"uniqueid": "w33234998:a89385557", "current_trial": 44, "dateTime": 1693567972683, "trialdata": {"revealed_states": [], "clicked_states": ["15", "18", "16", "17"], "num_clicks_accrued": [0, 0, 0, 0, 0, 0, 0, 0, 0, 0, 0, 0, 0], "stateRewards": ["", -2, 3, -1, -9, 44, 48, -37, -3, 71, -39, 87, -1, 3, -4, 4, -21, 59, -15, -8, -1, 28, -38, 2, 4, 4, 8, -85, -72, -63, 14, 58, 63, -46], "withholdReward": false, "trial_id": "mdp_trial_36", "block": "test", "trialIndex": 37, "score": 53, "costs": -8, "simulationMode": [null, null, null, null, null], "rewards": [-1, 3, -4, 4, 59], "path": ["0", "0", "12", "13", "14", "15", "17"], "rt": [11819, 613, 135, 142, 516], "actions": ["right", "right", "right", "up", "right"], "actionTimes": [12881, 13998, 14639, 15285, 16306], "queries": {"click": {"state": {"target": ["15", "18", "16", "17"], "time": [1911, 2973, 6229, 9764]}, "edge": {"target": [], "time": []}}, "mouseover": {"state": {"target": ["22", "13", "15", "18", "13", "22", "13", "15", "16", "15", "15", "17", "14", "19", "20"], "time": [1510, 1607, 1795, 2524, 3239, 3434, 5324, 5574, 5998, 6477, 9437, 9555, 10014, 10188, 10264]}, "edge": {"target": [], "time": []}}, "mouseout": {"state": {"target": ["0", "22", "13", "15", "18", "13", "22", "13", "15", "16", "15", "15", "17", "14", "19", "20"], "time": [1191, 1516, 1628, 2149, 3191, 3344, 5248, 5387, 5643, 6394, 6561, 9451, 9951, 10111, 10202, 10333]}, "edge": {"target": [], "time": []}}}, "displayed_time": "16.81", "trialTime": 18334, "trial_type": "mouselab-mdp", "trial_index": 44, "time_elapsed": 1118186, "internal_node_id": "0.0-6.0-1.0-35.0"}}, {"uniqueid": "w33234998:a89385557", "current_trial": 45, "dateTime": 1693567988776, "trialdata": {"revealed_states": [], "clicked_states": ["19", "30", "26", "8", "11"], "num_clicks_accrued": [0, 0, 0, 0, 0, 0, 0, 0, 0, 0, 0, 0, 0], "stateRewards": ["", -2, 1, -7, -8, -37, -76, -87, 11, 30, -63, 80, -1, 4, 2, -1, 42, 17, 52, -3, -75, -80, -68, 2, -3, -5, -15, -48, 82, 24, -7, 5, -22, -71], "withholdReward": false, "trial_id": "mdp_trial_37", "block": "test", "trialIndex": 38, "score": 74.65, "costs": -8.35, "simulationMode": [null, null, null, null, null], "rewards": [-2, 1, -7, 11, 80], "path": ["0", "0", "1", "2", "3", "8", "11"], "rt": [8306, 367, 129, 67, 140], "actions": ["up", "up", "up", "left", "left"], "actionTimes": [9872, 10744, 11375, 11945, 12588], "queries": {"click": {"state": {"target": ["19", "30", "26", "8", "11"], "time": [2482, 3328, 4006, 4836, 5895]}, "edge": {"target": [], "time": []}}, "mouseover": {"state": {"target": ["22", "19", "22", "30", "25", "26", "10", "8", "11", "11", "28"], "time": [2095, 2310, 2845, 3109, 3686, 3838, 4478, 4700, 5742, 5813, 9126]}, "edge": {"target": [], "time": []}}, "mouseout": {"state": {"target": ["20", "19", "22", "0", "22", "19", "22", "30", "25", "26", "10", "8", "8", "11", "11", "28", "24"], "time": [448, 510, 593, 1775, 2185, 2803, 2880, 3637, 3755, 4290, 4484, 5214, 5478, 5784, 6103, 13378, 13427]}, "edge": {"target": [], "time": []}}}, "displayed_time": "15.57", "trialTime": 15967, "trial_type": "mouselab-mdp", "trial_index": 45, "time_elapsed": 1134279, "internal_node_id": "0.0-6.0-1.0-36.0"}}, {"uniqueid": "w33234998:a89385557", "current_trial": 46, "dateTime": 1693568004124, "trialdata": {"revealed_states": [], "clicked_states": ["4", "15", "19", "30", "26", "28"], "num_clicks_accrued": [0, 0, 0, 0, 0, 0, 0, 0, 0, 0, 0, 0, 0], "stateRewards": ["", 1, -1, 1, -14, -10, 67, -28, -11, 72, 40, -65, -1, 1, 1, -2, 8, -55, 34, -10, 61, 33, -15, 2, -4, 7, 4, -75, 63, -21, -16, 61, 19, 21], "withholdReward": false, "trial_id": "mdp_trial_38", "block": "test", "trialIndex": 39, "score": 62.1, "costs": -9.9, "simulationMode": [null, null, null, null, null], "rewards": [2, -4, 7, 4, 63], "path": ["0", "0", "23", "24", "25", "26", "28"], "rt": [8589, 55, 110, 88, 62], "actions": ["left", "left", "left", "up", "right"], "actionTimes": [9446, 10006, 10624, 11221, 11785], "queries": {"click": {"state": {"target": ["4", "15", "19", "30", "26", "28"], "time": [1742, 2611, 3211, 3974, 4604, 5755]}, "edge": {"target": [], "time": []}}, "mouseover": {"state": {"target": ["7", "4", "7", "18", "15", "19", "22", "31", "30", "25", "26", "28", "24"], "time": [1307, 1557, 2099, 2224, 2481, 2967, 3474, 3600, 3836, 4301, 4440, 5649, 6115]}, "edge": {"target": [], "time": []}}, "mouseout": {"state": {"target": ["0", "7", "4", "7", "18", "15", "19", "22", "31", "30", "25", "26", "26", "28", "24"], "time": [1098, 1446, 2042, 2141, 2356, 2828, 3433, 3502, 3655, 4239, 4371, 4684, 5608, 6004, 12674]}, "edge": {"target": [], "time": []}}}, "displayed_time": "14.86", "trialTime": 15186, "trial_type": "mouselab-mdp", "trial_index": 46, "time_elapsed": 1149626, "internal_node_id": "0.0-6.0-1.0-37.0"}}, {"uniqueid": "w33234998:a89385557", "current_trial": 47, "dateTime": 1693568019851, "trialdata": {"revealed_states": [], "clicked_states": ["26", "29"], "num_clicks_accrued": [0, 0, 0, 0, 0, 0, 0, 0, 0, 0, 0, 0, 0], "stateRewards": ["", 2, 3, 6, -12, -29, 12, 87, 4, 35, -30, 67, 2, 3, -5, -9, 44, 69, -8, 1, 45, -8, 28, -2, -1, -8, 11, -12, -5, 81, 9, 87, 82, 88], "withholdReward": false, "trial_id": "mdp_trial_39", "block": "test", "trialIndex": 40, "score": 77.3, "costs": -3.7, "simulationMode": [null, null, null, null, null], "rewards": [-2, -1, -8, 11, 81], "path": ["0", "0", "23", "24", "25", "26", "29"], "rt": [5444, 19, 113, 26, 539], "actions": ["left", "left", "left", "up", "left"], "actionTimes": [6386, 6909, 7525, 8056, 9104], "queries": {"click": {"state": {"target": ["26", "29"], "time": [1696, 2797]}, "edge": {"target": [], "time": []}}, "mouseover": {"state": {"target": ["23", "28", "26", "26", "25", "25", "28", "29"], "time": [1164, 1255, 1317, 1561, 1977, 2186, 2367, 2596]}, "edge": {"target": [], "time": []}}, "mouseout": {"state": {"target": ["31", "0", "23", "28", "26", "26", "25", "25", "28", "26", "29"], "time": [476, 1130, 1199, 1269, 1380, 1915, 2089, 2248, 2373, 2526, 2985]}, "edge": {"target": [], "time": []}}}, "displayed_time": "14.94", "trialTime": 15582, "trial_type": "mouselab-mdp", "trial_index": 47, "time_elapsed": 1165353, "internal_node_id": "0.0-6.0-1.0-38.0"}}, {"uniqueid": "w33234998:a89385557", "current_trial": 48, "dateTime": 1693568035775, "trialdata": {"revealed_states": [], "clicked_states": ["26", "28", "27"], "num_clicks_accrued": [0, 0, 0, 0, 0, 0, 0, 0, 0, 0, 0, 0, 0], "stateRewards": ["", 2, -1, 4, -9, -43, 7, 54, -13, 38, -40, -83, -1, 2, -8, -10, 34, -33, 11, -14, -79, 65, 26, 1, 2, 4, 10, 21, 1, 86, 4, -53, 28, -29], "withholdReward": false, "trial_id": "mdp_trial_40", "block": "test", "trialIndex": 41, "score": 32.15, "costs": -5.85, "simulationMode": [null, null, null, null, null], "rewards": [1, 2, 4, 10, 21], "path": ["0", "0", "23", "24", "25", "26", "27"], "rt": [9151, 486, 48, 97, 87], "actions": ["left", "left", "left", "up", "up"], "actionTimes": [10147, 11137, 11693, 12297, 12892], "queries": {"click": {"state": {"target": ["26", "28", "27"], "time": [1662, 2671, 6144]}, "edge": {"target": [], "time": []}}, "mouseover": {"state": {"target": ["23", "24", "26", "25", "28", "25", "26", "27", "29"], "time": [1166, 1242, 1465, 2084, 2465, 2938, 5835, 6078, 6454]}, "edge": {"target": [], "time": []}}, "mouseout": {"state": {"target": ["24", "23", "0", "23", "24", "26", "25", "28", "25", "26", "27", "29", "30"], "time": [519, 575, 1117, 1214, 1284, 2034, 2319, 2854, 5814, 5856, 6335, 9372, 13721]}, "edge": {"target": [], "time": []}}}, "displayed_time": "15.00", "trialTime": 15777, "trial_type": "mouselab-mdp", "trial_index": 48, "time_elapsed": 1181277, "internal_node_id": "0.0-6.0-1.0-39.0"}}, {"uniqueid": "w33234998:a89385557", "current_trial": 49, "dateTime": 1693568091494, "trialdata": {"rt": 55718, "response": {"Q0": "$-88 to $88", "Q1": "$-32 to $32", "Q2": "$-16 to $16", "Q3": "The cost for clicking on nodes varied between nodes.", "Q4": "Very motivated"}, "question_order": [0, 1, 2, 3, 4], "trial_id": "final_quiz_control", "trial_type": "survey-multi-choice", "trial_index": 49, "time_elapsed": 1236997, "internal_node_id": "0.0-6.0-2.0"}}, {"uniqueid": "w33234998:a89385557", "current_trial": 50, "dateTime": 1693568165520, "trialdata": {"rt": 74022, "response": {"Q0": "Use the inspector to find a positive node and go there.", "Q1": "Sure, just getting used to the game and learning the pattern.", "Q2": "It was not difficult. It was a really good game."}, "trial_id": "self_report_control", "trial_type": "survey-text", "trial_index": 50, "time_elapsed": 1311023, "internal_node_id": "0.0-6.0-3.0"}}, {"uniqueid": "w33234998:a89385557", "current_trial": 51, "dateTime": 1693568228503, "trialdata": {"rt": 62980, "response": {"Q0": "Disagree", "Q1": "Disagree", "Q2": "Agree", "Q3": "Neither disagree nor agree", "Q4": "Agree", "Q5": "Strongly agree", "Q6": "Strongly disagree"}, "question_order": [0, 1, 2, 3, 4, 5, 6], "trial_id": "self_report_2", "trial_type": "survey-multi-choice", "trial_index": 51, "time_elapsed": 1374006, "internal_node_id": "0.0-6.0-4.0"}}, {"uniqueid": "w33234998:a89385557", "current_trial": 52, "dateTime": 1693568248145, "trialdata": {"rt": 19640, "response": {"gender": "male", "age": "33", "colorblind": "0", "effort": "0"}, "trial_type": "survey-html-form", "trial_index": 52, "time_elapsed": 1393648, "internal_node_id": "0.0-6.0-5.0"}}, {"uniqueid": "w33234998:a89385557", "current_trial": 53, "dateTime": 1693568307823, "trialdata": {"rt": 59675, "response": {"Q0": "No, it was really clear and good fun.", "Q1": "No, I have never participated in a Web of Cash HIT before.", "Q2": "Good game, cheers."}, "trial_type": "survey-text", "trial_index": 53, "time_elapsed": 1453326, "internal_node_id": "0.0-6.0-6.0"}}, {"uniqueid": "w33234998:a89385557", "current_trial": 54, "dateTime": 1693568363457, "trialdata": {"rt": 55632, "stimulus": "<h1>Completion Code Instructions (1/2)</h1>\n<br><br><br><br>\nYou have reached the end of the experiment! The completion code consists of two parts: (1) a code with 2 characters (2) a code with 6 characters. On this page, you will receive the second part of the code. The first part of the completion code will be on the next page.\n<br><br>\nThe second part of your completion code is: <b>EWEK22</b>\n<br><br>\nPlease note this down. Then, press 'Finish HIT' in order to find the first part of your completion code. Once the data has been saved, you will receive this code either in this window or in the original browser window where you started the experiment.\n", "response": 0, "trial_type": "html-button-response", "trial_index": 54, "time_elapsed": 1508960, "internal_node_id": "0.0-6.0-7.0"}}, {"uniqueid": "w33234998:a89385557", "current_trial": 55, "dateTime": 1693568364460, "trialdata": {"success": true, "trial_type": "fullscreen", "trial_index": 55, "time_elapsed": 1509963, "internal_node_id": "0.0-7.0"}}], "questiondata": {"params": {"CODE": "C6DMOQA6", "MIN_TIME": 14, "inspectCost": 1, "startTime": "Fri Sep 01 2023 12:14:13 GMT+0100 (British Summer Time)", "bonusRate": 0.002, "variance": "1_2_4_8_44", "branching": "31123"}, "final_score": 1273.3}, "eventdata": [{"eventtype": "initialized", "value": null, "timestamp": 1693566853364, "interval": 0}, {"eventtype": "window_resize", "value": [1024, 767], "timestamp": 1693566853364, "interval": 0}, {"eventtype": "window_resize", "value": [1024, 767], "timestamp": 1693566853684, "interval": 320}, {"eventtype": "window_resize", "value": [3440, 1440], "timestamp": 1693566856756, "interval": 3072}, {"eventtype": "window_resize", "value": [1024, 767], "timestamp": 1693568363678, "interval": 1506922}], "useragent": "Mozilla/5.0 (Windows NT 10.0; Win64; x64) AppleWebKit/537.36 (KHTML, like Gecko) Chrome/116.0.0.0 Safari/537.36", "mode": "live", "id": "w33234998:a89385557", "status": "user data saved", "Beginhit": "2023-09-01 11:14:10.282571", "Beginexp": "2023-09-01 11:14:15.610941", "Endhit": "2023-09-01 11:39:22.939029", "psiturkStatus": 3, "browser": "<redacted>", "platform": "windows", "language": "en-GB"}