{"condition": 0, "counterbalance": 0, "assignmentId": "a25364920", "workerId": "w90278855", "hitId": "h11451358", "currenttrial": 61, "bonus": 0, "data": [{"uniqueid": "w90278855:a25364920", "current_trial": 0, "dateTime": 1693480982991, "trialdata": {"success": true, "trial_type": "fullscreen", "trial_index": 0, "time_elapsed": 13593, "internal_node_id": "0.0-0.0"}}, {"uniqueid": "w90278855:a25364920", "current_trial": 1, "dateTime": 1693481024330, "trialdata": {"view_history": [{"page_index": 0, "viewing_time": 41332}], "rt": 41333, "trial_id": "exp_instructions_control", "trial_type": "instructions", "trial_index": 1, "time_elapsed": 54932, "internal_node_id": "0.0-1.0"}}, {"uniqueid": "w90278855:a25364920", "current_trial": 2, "dateTime": 1693481309294, "trialdata": {"view_history": [{"page_index": 0, "viewing_time": 120354}, {"page_index": 1, "viewing_time": 113867}, {"page_index": 2, "viewing_time": 25833}, {"page_index": 3, "viewing_time": 24915}], "rt": 284968, "trial_id": "mouselab_instructions_1_control", "trial_type": "instructions", "trial_index": 2, "time_elapsed": 339896, "internal_node_id": "0.0-2.0-1.0"}}, {"uniqueid": "w90278855:a25364920", "current_trial": 3, "dateTime": 1693481330998, "trialdata": {"revealed_states": [], "clicked_states": [], "num_clicks_accrued": [0, 0, 0, 0, 0, 0, 0, 0, 0, 0, 0, 0, 0], "stateRewards": ["", -10, 10, -10, 10, -10, -10, 10, 10, -10, 10, 10, -10, -10, 10, 10, -10, -10, -10, -10, -10, 10, -10, 10, -10, 10, 10, 10, 10, -10, 10, -10, -10, 10], "withholdReward": false, "trial_id": "practice_1", "block": "test", "trialIndex": 0, "score": -6.5, "costs": 0, "simulationMode": [null, null, null, null, null], "rewards": [-10, 10, -10, 10, -10], "path": ["0", "0", "1", "2", "3", "8", "9"], "rt": [3110, 650, 1099, 233, 351], "actions": ["up", "up", "up", "left", "up"], "actionTimes": [9892, 11106, 12770, 13562, 14474], "queries": {"click": {"state": {"target": [], "time": []}, "edge": {"target": [], "time": []}}, "mouseover": {"state": {"target": [], "time": []}, "edge": {"target": [], "time": []}}, "mouseout": {"state": {"target": ["0", "0", "12", "13", "12", "0"], "time": [1481, 5322, 5388, 5574, 5885, 6841]}, "edge": {"target": [], "time": []}}}, "displayed_time": "15.03", "trialTime": 20739, "trial_type": "mouselab-mdp", "trial_index": 3, "time_elapsed": 361599, "internal_node_id": "0.0-2.0-2.0-0.0"}}, {"uniqueid": "w90278855:a25364920", "current_trial": 4, "dateTime": 1693481357567, "trialdata": {"revealed_states": [], "clicked_states": ["14"], "num_clicks_accrued": [0, 0, 0, 0, 0, 0, 0, 0, 0, 0, 0, 0, 0], "stateRewards": ["", -10, -10, -10, 10, -10, 10, -10, 10, -10, 10, -10, 10, 10, -10, 10, 10, -10, 10, 10, -10, -10, -10, -10, 10, -10, 10, -10, 10, -10, 10, 10, 10, 10], "withholdReward": false, "trial_id": "practice_2", "block": "test", "trialIndex": 1, "score": 13, "costs": -0.5, "simulationMode": [null, null, null, null, null], "rewards": [-10, 10, -10, 10, 10], "path": ["0", "0", "23", "24", "25", "30", "32"], "rt": [5591, 280, 1571, 1127, 684], "actions": ["left", "left", "left", "down", "down"], "actionTimes": [8936, 9823, 11951, 13615, 14823], "queries": {"click": {"state": {"target": ["14"], "time": [5383]}, "edge": {"target": [], "time": []}}, "mouseover": {"state": {"target": ["12", "13", "13", "13", "14", "22"], "time": [4064, 4161, 4345, 4532, 4845, 7034]}, "edge": {"target": [], "time": []}}, "mouseout": {"state": {"target": ["23", "12", "13", "13", "13", "14"], "time": [2436, 4127, 4196, 4409, 4657, 5638]}, "edge": {"target": [], "time": []}}}, "displayed_time": "15.38", "trialTime": 25984, "trial_type": "mouselab-mdp", "trial_index": 4, "time_elapsed": 388169, "internal_node_id": "0.0-2.0-2.0-1.0"}}, {"uniqueid": "w90278855:a25364920", "current_trial": 5, "dateTime": 1693481411209, "trialdata": {"view_history": [{"page_index": 0, "viewing_time": 36373}, {"page_index": 1, "viewing_time": 17266}], "rt": 53639, "trial_id": "mouselab_instructions_2_control", "trial_type": "instructions", "trial_index": 5, "time_elapsed": 441811, "internal_node_id": "0.0-2.0-3.0"}}, {"uniqueid": "w90278855:a25364920", "current_trial": 6, "dateTime": 1693481459660, "trialdata": {"rt": 48444, "response": {"Q0": "The cost for clicking on nodes may vary between nodes.", "Q1": "The better I perform the higher my bonus will be.", "Q2": "No, the amount of cash at each node of the web may be different each time.", "Q3": "To get the highest total score.", "Q4": "Only after moving the spider.", "Q5": "3 seconds"}, "question_order": [0, 1, 2, 3, 4, 5], "correct": {"Q0": "The cost for clicking on nodes may vary between nodes.", "Q1": "The better I perform the higher my bonus will be.", "Q2": "No, the amount of cash at each node of the web may be different each time.", "Q3": "To get the highest total score.", "Q4": "Only before moving the spider.", "Q5": "3 seconds"}, "trial_id": "mouselab_quiz_control", "trial_type": "survey-multi-choice", "trial_index": 6, "time_elapsed": 490261, "internal_node_id": "0.0-2.0-4.0"}}, {"uniqueid": "w90278855:a25364920", "current_trial": 7, "dateTime": 1693481476596, "trialdata": {"success": true, "trial_type": "fullscreen", "trial_index": 7, "time_elapsed": 507198, "internal_node_id": "0.0-2.1-0.1-0.1"}}, {"uniqueid": "w90278855:a25364920", "current_trial": 8, "dateTime": 1693481508723, "trialdata": {"view_history": [{"page_index": 0, "viewing_time": 10715}, {"page_index": 1, "viewing_time": 3152}, {"page_index": 2, "viewing_time": 15616}, {"page_index": 3, "viewing_time": 2640}], "rt": 32124, "trial_id": "mouselab_instructions_1_control", "trial_type": "instructions", "trial_index": 8, "time_elapsed": 539325, "internal_node_id": "0.0-2.1-1.1"}}, {"uniqueid": "w90278855:a25364920", "current_trial": 9, "dateTime": 1693481521075, "trialdata": {"revealed_states": [], "clicked_states": ["1"], "num_clicks_accrued": [0, 0, 0, 0, 0, 0, 0, 0, 0, 0, 0, 0, 0], "stateRewards": ["", -10, 10, -10, 10, -10, -10, 10, 10, -10, 10, 10, -10, -10, 10, 10, -10, -10, -10, -10, -10, 10, -10, 10, -10, 10, 10, 10, 10, -10, 10, -10, -10, 10], "withholdReward": false, "trial_id": "practice_1", "block": "test", "trialIndex": 2, "score": -7, "costs": -0.5, "simulationMode": [null, null, null, null, null], "rewards": [-10, 10, -10, 10, -10], "path": ["0", "0", "1", "2", "3", "4", "5"], "rt": [4375, 37, 187, 499, 26], "actions": ["up", "up", "up", "right", "up"], "actionTimes": [6510, 7087, 7837, 8909, 9471], "queries": {"click": {"state": {"target": ["1"], "time": [3833]}, "edge": {"target": [], "time": []}}, "mouseover": {"state": {"target": ["1", "1", "2"], "time": [2195, 3436, 4222]}, "edge": {"target": [], "time": []}}, "mouseout": {"state": {"target": ["0", "1", "1", "2", "1"], "time": [2185, 2968, 3981, 4528, 4682]}, "edge": {"target": [], "time": []}}}, "displayed_time": "10.01", "trialTime": 11741, "trial_type": "mouselab-mdp", "trial_index": 9, "time_elapsed": 551676, "internal_node_id": "0.0-2.1-2.1-0.1"}}, {"uniqueid": "w90278855:a25364920", "current_trial": 10, "dateTime": 1693481532107, "trialdata": {"revealed_states": [], "clicked_states": [], "num_clicks_accrued": [0, 0, 0, 0, 0, 0, 0, 0, 0, 0, 0, 0, 0], "stateRewards": ["", -10, -10, -10, 10, -10, 10, -10, 10, -10, 10, -10, 10, 10, -10, 10, 10, -10, 10, 10, -10, -10, -10, -10, 10, -10, 10, -10, 10, -10, 10, 10, 10, 10], "withholdReward": false, "trial_id": "practice_2", "block": "test", "trialIndex": 3, "score": 13.5, "costs": 0, "simulationMode": [null, null, null, null, null], "rewards": [10, 10, -10, 10, -10], "path": ["0", "0", "12", "13", "14", "19", "20"], "rt": [1323, 206, 239, 163, 130], "actions": ["right", "right", "right", "down", "right"], "actionTimes": [5023, 5760, 6536, 7248, 7944], "queries": {"click": {"state": {"target": [], "time": []}, "edge": {"target": [], "time": []}}, "mouseover": {"state": {"target": [], "time": []}, "edge": {"target": [], "time": []}}, "mouseout": {"state": {"target": ["12", "0"], "time": [2906, 9689]}, "edge": {"target": [], "time": []}}}, "displayed_time": "8.51", "trialTime": 10464, "trial_type": "mouselab-mdp", "trial_index": 10, "time_elapsed": 562708, "internal_node_id": "0.0-2.1-2.1-1.1"}}, {"uniqueid": "w90278855:a25364920", "current_trial": 11, "dateTime": 1693481560981, "trialdata": {"view_history": [{"page_index": 0, "viewing_time": 26390}, {"page_index": 1, "viewing_time": 2481}], "rt": 28871, "trial_id": "mouselab_instructions_2_control", "trial_type": "instructions", "trial_index": 11, "time_elapsed": 591583, "internal_node_id": "0.0-2.1-3.1"}}, {"uniqueid": "w90278855:a25364920", "current_trial": 12, "dateTime": 1693481604336, "trialdata": {"rt": 43351, "response": {"Q0": "The cost for clicking on nodes may vary between nodes.", "Q1": "The better I perform the higher my bonus will be.", "Q2": "No, the amount of cash at each node of the web may be different each time.", "Q3": "To get the highest total score.", "Q4": "Only before moving the spider.", "Q5": "3 seconds"}, "question_order": [0, 1, 2, 3, 4, 5], "correct": {"Q0": "The cost for clicking on nodes may vary between nodes.", "Q1": "The better I perform the higher my bonus will be.", "Q2": "No, the amount of cash at each node of the web may be different each time.", "Q3": "To get the highest total score.", "Q4": "Only before moving the spider.", "Q5": "3 seconds"}, "trial_id": "mouselab_quiz_control", "trial_type": "survey-multi-choice", "trial_index": 12, "time_elapsed": 634938, "internal_node_id": "0.0-2.1-4.1"}}, {"uniqueid": "w90278855:a25364920", "current_trial": 13, "dateTime": 1693481617151, "trialdata": {"rt": 12806, "response": {"Q0": "No"}, "question_order": [0], "trial_id": "repeat_check", "trial_type": "survey-multi-choice", "trial_index": 13, "time_elapsed": 647753, "internal_node_id": "0.0-4.0-0.0"}}, {"uniqueid": "w90278855:a25364920", "current_trial": 14, "dateTime": 1693481674856, "trialdata": {"rt": 57697, "stimulus": "\n<h1> Get ready to start the game! </h1>\n\nThank you for reading the instructions. Get ready start with the 40 rounds of this game.\n<br><br>\nIf you need to take a break, feel free to take one after the end of a round, before continuing to the next one.\n<br><br>\nRemember, the more money the spider gets, the bigger your bonus will be!\n<br><br>\n<div style='text-align: center;'>Press <code>space</code> to begin.</div>\n\n<br><br>\n(If, at any point, the <code>space</code> key does not take you to the next page, click once on the text and try again.)", "response": " ", "trial_id": "mdp_ready", "trial_type": "html-keyboard-response", "trial_index": 14, "time_elapsed": 705458, "internal_node_id": "0.0-6.0-0.0"}}, {"uniqueid": "w90278855:a25364920", "current_trial": 15, "dateTime": 1693481696874, "trialdata": {"revealed_states": [], "clicked_states": ["1"], "num_clicks_accrued": [0, 0, 0, 0, 0, 0, 0, 0, 0, 0, 0, 0, 0], "stateRewards": ["", -2, 3, 8, -9, 59, 41, -50, -1, 82, 66, 33, 2, -2, 7, 8, 1, -38, 12, -16, 24, -37, 67, 1, 4, -2, 5, 35, -83, 28, 8, -27, 69, -64], "withholdReward": false, "trial_id": "mdp_trial_1", "block": "test", "trialIndex": 4, "score": 88.6, "costs": -1.4, "simulationMode": [null, null, null, null, null], "rewards": [-2, 3, 8, -1, 82], "path": ["0", "0", "1", "2", "3", "8", "9"], "rt": [3948, 145, 289, 1106, 684], "actions": ["up", "up", "up", "left", "up"], "actionTimes": [7754, 8465, 9289, 10953, 12201], "queries": {"click": {"state": {"target": ["1"], "time": [5133]}, "edge": {"target": [], "time": []}}, "mouseover": {"state": {"target": ["1", "1", "18", "7"], "time": [4542, 4794, 6058, 6153]}, "edge": {"target": [], "time": []}}, "mouseout": {"state": {"target": ["10", "2", "1", "0", "1", "1", "1", "18"], "time": [37, 2601, 2696, 4478, 4730, 5463, 5877, 6108]}, "edge": {"target": [], "time": []}}}, "displayed_time": "17.81", "trialTime": 21395, "trial_type": "mouselab-mdp", "trial_index": 15, "time_elapsed": 727475, "internal_node_id": "0.0-6.0-1.0-0.0"}}, {"uniqueid": "w90278855:a25364920", "current_trial": 16, "dateTime": 1693481806190, "trialdata": {"revealed_states": [], "clicked_states": [], "num_clicks_accrued": [0, 0, 0, 0, 0, 0, 0, 0, 0, 0, 0, 0, 0], "stateRewards": ["", 1, 1, 7, -11, 80, -20, -53, -14, 3, 31, 27, 2, -1, -8, -10, 33, 41, 86, 9, 78, -37, -13, -1, -2, -6, -8, -80, 75, 4, -16, -49, -74, 24], "withholdReward": false, "trial_id": "mdp_trial_2", "block": "test", "trialIndex": 5, "score": 80, "costs": 0, "simulationMode": [null, null, null, null, null], "rewards": [2, -1, -8, 9, 78], "path": ["0", "0", "12", "13", "14", "19", "20"], "rt": [1890, 62, 131, 148, 481], "actions": ["right", "right", "right", "down", "right"], "actionTimes": [10041, 10663, 11409, 12103, 13152], "queries": {"click": {"state": {"target": [], "time": []}, "edge": {"target": [], "time": []}}, "mouseover": {"state": {"target": ["12", "13", "14"], "time": [8466, 8554, 8627]}, "edge": {"target": [], "time": []}}, "mouseout": {"state": {"target": ["7", "16", "13", "0", "12", "13", "14"], "time": [2418, 2455, 6169, 8422, 8516, 8591, 8663]}, "edge": {"target": [], "time": []}}}, "displayed_time": "22.15", "trialTime": 108715, "trial_type": "mouselab-mdp", "trial_index": 16, "time_elapsed": 836791, "internal_node_id": "0.0-6.0-1.0-1.0"}}, {"uniqueid": "w90278855:a25364920", "current_trial": 17, "dateTime": 1693481879592, "trialdata": {"revealed_states": [], "clicked_states": ["1"], "num_clicks_accrued": [0, 0, 0, 0, 0, 0, 0, 0, 0, 0, 0, 0, 0], "stateRewards": ["", 1, -4, 6, -3, 40, 76, -51, 5, -24, -63, 44, -2, -2, 8, 1, 76, -85, -58, 10, 59, 20, 11, -2, 3, -3, 3, -82, -10, 54, -7, -57, -6, -32], "withholdReward": false, "trial_id": "mdp_trial_3", "block": "test", "trialIndex": 6, "score": 53.6, "costs": -1.4, "simulationMode": [null, null, null, null, null], "rewards": [-2, 3, -3, 3, 54], "path": ["0", "0", "23", "24", "25", "26", "29"], "rt": [4243, 185, 1963, 134, 855], "actions": ["left", "left", "left", "up", "left"], "actionTimes": [6229, 6965, 9453, 10133, 11573], "queries": {"click": {"state": {"target": ["1"], "time": [3120]}, "edge": {"target": [], "time": []}}, "mouseover": {"state": {"target": ["1", "2", "23", "23"], "time": [2642, 3416, 4504, 4765]}, "edge": {"target": [], "time": []}}, "mouseout": {"state": {"target": ["17", "13", "12", "0", "1", "2", "1", "23", "23"], "time": [795, 888, 1074, 2608, 3263, 3920, 3999, 4627, 4827]}, "edge": {"target": [], "time": []}}}, "displayed_time": "15.99", "trialTime": 72743, "trial_type": "mouselab-mdp", "trial_index": 17, "time_elapsed": 910193, "internal_node_id": "0.0-6.0-1.0-2.0"}}, {"uniqueid": "w90278855:a25364920", "current_trial": 18, "dateTime": 1693481899512, "trialdata": {"revealed_states": [], "clicked_states": [], "num_clicks_accrued": [0, 0, 0, 0, 0, 0, 0, 0, 0, 0, 0, 0, 0], "stateRewards": ["", 2, 4, 7, -6, -76, -81, 2, 5, -66, -3, 36, -2, -4, 6, -2, -69, 4, -49, -6, 67, 38, -67, 2, 1, 1, 6, -68, -21, 52, -16, -16, 6, -70], "withholdReward": false, "trial_id": "mdp_trial_4", "block": "test", "trialIndex": 7, "score": -69, "costs": 0, "simulationMode": [null, null, null, null, null], "rewards": [2, 4, 7, -6, -76], "path": ["0", "0", "1", "2", "3", "4", "5"], "rt": [1092, 57, 561, 772, 109], "actions": ["up", "up", "up", "right", "up"], "actionTimes": [3810, 4418, 5538, 6850, 7522], "queries": {"click": {"state": {"target": [], "time": []}, "edge": {"target": [], "time": []}}, "mouseover": {"state": {"target": [], "time": []}, "edge": {"target": [], "time": []}}, "mouseout": {"state": {"target": ["5", "12"], "time": [1717, 1937]}, "edge": {"target": [], "time": []}}}, "displayed_time": "16.72", "trialTime": 19275, "trial_type": "mouselab-mdp", "trial_index": 18, "time_elapsed": 930113, "internal_node_id": "0.0-6.0-1.0-3.0"}}, {"uniqueid": "w90278855:a25364920", "current_trial": 19, "dateTime": 1693481918848, "trialdata": {"revealed_states": [], "clicked_states": [], "num_clicks_accrued": [0, 0, 0, 0, 0, 0, 0, 0, 0, 0, 0, 0, 0], "stateRewards": ["", 1, -1, 1, -14, -10, 67, -28, -11, 72, 40, -65, -1, 1, 1, -2, 8, -55, 34, -10, 61, 33, -15, 2, -4, 7, 4, -75, 63, -21, -16, 61, 19, 21], "withholdReward": false, "trial_id": "mdp_trial_5", "block": "test", "trialIndex": 8, "score": 50, "costs": 0, "simulationMode": [null, null, null, null, null], "rewards": [2, -4, 7, -16, 61], "path": ["0", "0", "23", "24", "25", "30", "31"], "rt": [740, 212, 250, 2583, 143], "actions": ["left", "left", "left", "down", "right"], "actionTimes": [4125, 4901, 5717, 8869, 9565], "queries": {"click": {"state": {"target": [], "time": []}, "edge": {"target": [], "time": []}}, "mouseover": {"state": {"target": ["0"], "time": [3605]}, "edge": {"target": [], "time": []}}, "mouseout": {"state": {"target": ["1", "12", "0", "0", "23"], "time": [2246, 2465, 3499, 7258, 15742]}, "edge": {"target": [], "time": []}}}, "displayed_time": "17.39", "trialTime": 18733, "trial_type": "mouselab-mdp", "trial_index": 19, "time_elapsed": 949450, "internal_node_id": "0.0-6.0-1.0-4.0"}}, {"uniqueid": "w90278855:a25364920", "current_trial": 20, "dateTime": 1693482154448, "trialdata": {"revealed_states": [], "clicked_states": [], "num_clicks_accrued": [0, 0, 0, 0, 0, 0, 0, 0, 0, 0, 0, 0, 0], "stateRewards": ["", -1, -3, -3, 1, -38, 2, -53, -2, -1, -81, 70, -1, 1, -5, -9, 46, 15, 35, -1, -22, 38, 59, -2, 4, -8, 13, 1, -83, -43, 4, 76, 13, 48], "withholdReward": false, "trial_id": "mdp_trial_6", "block": "test", "trialIndex": 9, "score": 1, "costs": 0, "simulationMode": [null, null, null, null, null], "rewards": [-1, 1, -5, -9, 15], "path": ["0", "0", "12", "13", "14", "15", "17"], "rt": [1140, 199, 315, 789, 213], "actions": ["right", "right", "right", "up", "right"], "actionTimes": [3809, 4528, 5384, 6728, 7488], "queries": {"click": {"state": {"target": [], "time": []}, "edge": {"target": [], "time": []}}, "mouseover": {"state": {"target": [], "time": []}, "edge": {"target": [], "time": []}}, "mouseout": {"state": {"target": ["0", "12", "32", "32"], "time": [1100, 1136, 1474, 1662]}, "edge": {"target": [], "time": []}}}, "displayed_time": "16.67", "trialTime": 234998, "trial_type": "mouselab-mdp", "trial_index": 20, "time_elapsed": 1185050, "internal_node_id": "0.0-6.0-1.0-5.0"}}, {"uniqueid": "w90278855:a25364920", "current_trial": 21, "dateTime": 1693482172895, "trialdata": {"revealed_states": [], "clicked_states": ["1"], "num_clicks_accrued": [0, 0, 0, 0, 0, 0, 0, 0, 0, 0, 0, 0, 0], "stateRewards": ["", 1, 2, 8, -2, 23, -69, -18, -16, 54, -21, 71, -1, -4, 7, 11, 43, -6, 88, 6, -55, 72, 43, 1, -3, -2, -1, 68, -31, -54, 4, -8, 25, -2], "withholdReward": false, "trial_id": "mdp_trial_7", "block": "test", "trialIndex": 10, "score": 47.6, "costs": -1.4, "simulationMode": [null, null, null, null, null, null], "rewards": [1, 2, 8, -16, 54], "path": ["0", "0", "1", "2", "3", "8", "9"], "rt": [2529, 488, 142, 126, 83, 718], "actions": ["up", "up", "up", "up", "left", "up"], "actionTimes": [5806, 6302, 7006, 7695, 8326, 9638], "queries": {"click": {"state": {"target": ["1"], "time": [4337]}, "edge": {"target": [], "time": []}}, "mouseover": {"state": {"target": ["1"], "time": [3953]}, "edge": {"target": [], "time": []}}, "mouseout": {"state": {"target": ["0", "15", "12", "0", "1"], "time": [1671, 2079, 2388, 3333, 4757]}, "edge": {"target": [], "time": []}}}, "displayed_time": "17.29", "trialTime": 17830, "trial_type": "mouselab-mdp", "trial_index": 21, "time_elapsed": 1203497, "internal_node_id": "0.0-6.0-1.0-6.0"}}, {"uniqueid": "w90278855:a25364920", "current_trial": 22, "dateTime": 1693482191128, "trialdata": {"revealed_states": [], "clicked_states": ["12"], "num_clicks_accrued": [0, 0, 0, 0, 0, 0, 0, 0, 0, 0, 0, 0, 0], "stateRewards": ["", -1, 4, -5, 9, 29, -75, -42, -16, 24, -28, -41, 2, -3, 1, 10, 60, 47, 55, -1, -53, 22, -40, 2, -3, -6, 4, -26, 44, 54, 15, -76, 42, 14], "withholdReward": false, "trial_id": "mdp_trial_8", "block": "test", "trialIndex": 11, "score": -55.4, "costs": -1.4, "simulationMode": [null, null, null, null, null, null], "rewards": [2, -3, 1, -1, -53], "path": ["0", "0", "12", "13", "14", "19", "20"], "rt": [2544, 814, 100, 75, 301, 162], "actions": ["right", "right", "right", "right", "down", "right"], "actionTimes": [4261, 5082, 5714, 6371, 7210, 7914], "queries": {"click": {"state": {"target": ["12"], "time": [2807]}, "edge": {"target": [], "time": []}}, "mouseover": {"state": {"target": ["12", "13", "14"], "time": [2422, 3213, 3310]}, "edge": {"target": [], "time": []}}, "mouseout": {"state": {"target": ["1", "0", "12", "13", "14"], "time": [668, 2358, 3169, 3302, 3621]}, "edge": {"target": [], "time": []}}}, "displayed_time": "15.72", "trialTime": 17563, "trial_type": "mouselab-mdp", "trial_index": 22, "time_elapsed": 1221729, "internal_node_id": "0.0-6.0-1.0-7.0"}}, {"uniqueid": "w90278855:a25364920", "current_trial": 23, "dateTime": 1693482210313, "trialdata": {"revealed_states": [], "clicked_states": [], "num_clicks_accrued": [0, 0, 0, 0, 0, 0, 0, 0, 0, 0, 0, 0, 0], "stateRewards": ["", 1, 2, 3, 16, 63, -25, 16, -4, -14, 82, -66, -1, -3, -3, -11, -14, 19, 46, 3, -34, -82, 66, -2, -3, 4, -5, -63, 77, -37, -1, -45, -41, 84], "withholdReward": false, "trial_id": "mdp_trial_9", "block": "test", "trialIndex": 12, "score": 85, "costs": 0, "simulationMode": [null, null, null, null, null], "rewards": [1, 2, 3, 16, 63], "path": ["0", "0", "1", "2", "3", "4", "5"], "rt": [1118, 28, 730, 49, 62], "actions": ["up", "up", "up", "right", "up"], "actionTimes": [4203, 4748, 6043, 6627, 7227], "queries": {"click": {"state": {"target": [], "time": []}, "edge": {"target": [], "time": []}}, "mouseover": {"state": {"target": [], "time": []}, "edge": {"target": [], "time": []}}, "mouseout": {"state": {"target": ["13"], "time": [2211]}, "edge": {"target": [], "time": []}}}, "displayed_time": "17.10", "trialTime": 18540, "trial_type": "mouselab-mdp", "trial_index": 23, "time_elapsed": 1240914, "internal_node_id": "0.0-6.0-1.0-8.0"}}, {"uniqueid": "w90278855:a25364920", "current_trial": 24, "dateTime": 1693482240059, "trialdata": {"revealed_states": [], "clicked_states": [], "num_clicks_accrued": [0, 0, 0, 0, 0, 0, 0, 0, 0, 0, 0, 0, 0], "stateRewards": ["", 2, 3, 8, 14, 69, -27, 17, 2, -71, -65, -10, 2, -3, 7, 8, 65, -10, 65, -12, 73, -12, 13, -2, -2, 6, 10, -79, -69, -18, 10, -85, 67, 74], "withholdReward": false, "trial_id": "mdp_trial_10", "block": "test", "trialIndex": 13, "score": 79, "costs": 0, "simulationMode": [null, null, null, null, null], "rewards": [2, -3, 7, 8, 65], "path": ["0", "0", "12", "13", "14", "15", "18"], "rt": [2337, 749, 210, 697, 32], "actions": ["right", "right", "right", "up", "left"], "actionTimes": [4064, 5367, 6135, 7375, 7943], "queries": {"click": {"state": {"target": [], "time": []}, "edge": {"target": [], "time": []}}, "mouseover": {"state": {"target": [], "time": []}, "edge": {"target": [], "time": []}}, "mouseout": {"state": {"target": ["0", "25", "24", "23"], "time": [490, 739, 926, 962]}, "edge": {"target": [], "time": []}}}, "displayed_time": "15.73", "trialTime": 29096, "trial_type": "mouselab-mdp", "trial_index": 24, "time_elapsed": 1270660, "internal_node_id": "0.0-6.0-1.0-9.0"}}, {"uniqueid": "w90278855:a25364920", "current_trial": 25, "dateTime": 1693482257723, "trialdata": {"revealed_states": [], "clicked_states": [], "num_clicks_accrued": [0, 0, 0, 0, 0, 0, 0, 0, 0, 0, 0, 0, 0], "stateRewards": ["", 1, 1, -5, 10, -31, 73, 14, -8, -23, 63, -70, -1, 2, 8, 7, 25, -59, 27, -10, -40, -71, -15, -2, 3, -8, -5, -19, 77, -34, 7, 67, 63, 19], "withholdReward": false, "trial_id": "mdp_trial_11", "block": "test", "trialIndex": 14, "score": -24, "costs": 0, "simulationMode": [null, null, null, null, null], "rewards": [1, 1, -5, 10, -31], "path": ["0", "0", "1", "2", "3", "4", "5"], "rt": [2184, 292, 27, 1040, 152], "actions": ["up", "up", "up", "right", "up"], "actionTimes": [3813, 4670, 5231, 6820, 7500], "queries": {"click": {"state": {"target": [], "time": []}, "edge": {"target": [], "time": []}}, "mouseover": {"state": {"target": [], "time": []}, "edge": {"target": [], "time": []}}, "mouseout": {"state": {"target": ["0", "1"], "time": [548, 772]}, "edge": {"target": [], "time": []}}}, "displayed_time": "15.63", "trialTime": 17013, "trial_type": "mouselab-mdp", "trial_index": 25, "time_elapsed": 1288324, "internal_node_id": "0.0-6.0-1.0-10.0"}}, {"uniqueid": "w90278855:a25364920", "current_trial": 26, "dateTime": 1693482276736, "trialdata": {"revealed_states": [], "clicked_states": [], "num_clicks_accrued": [0, 0, 0, 0, 0, 0, 0, 0, 0, 0, 0, 0, 0], "stateRewards": ["", 1, -1, 1, 13, 31, -56, 72, 2, 41, 5, 63, -2, -3, -2, 3, -71, -26, 52, 13, -31, 24, -67, 2, -2, 5, 4, 66, 43, 72, 9, 86, -26, 44], "withholdReward": false, "trial_id": "mdp_trial_12", "block": "test", "trialIndex": 15, "score": 86, "costs": 0, "simulationMode": [null, null, null, null, null], "rewards": [1, -1, 1, 13, 72], "path": ["0", "0", "1", "2", "3", "4", "7"], "rt": [1091, 48, 80, 1303, 111], "actions": ["up", "up", "up", "right", "down"], "actionTimes": [3702, 4302, 4961, 6854, 7518], "queries": {"click": {"state": {"target": [], "time": []}, "edge": {"target": [], "time": []}}, "mouseover": {"state": {"target": ["0"], "time": [2677]}, "edge": {"target": [], "time": []}}, "mouseout": {"state": {"target": ["0", "2", "1", "0", "27", "26"], "time": [1588, 1776, 1900, 17243, 17491, 17528]}, "edge": {"target": [], "time": []}}}, "displayed_time": "16.62", "trialTime": 18403, "trial_type": "mouselab-mdp", "trial_index": 26, "time_elapsed": 1307338, "internal_node_id": "0.0-6.0-1.0-11.0"}}, {"uniqueid": "w90278855:a25364920", "current_trial": 27, "dateTime": 1693482300442, "trialdata": {"revealed_states": [], "clicked_states": [], "num_clicks_accrued": [0, 0, 0, 0, 0, 0, 0, 0, 0, 0, 0, 0, 0], "stateRewards": ["", 1, 3, 1, -13, 52, -28, 67, -14, 3, 63, -70, -1, -4, 7, -11, -10, 47, -18, 6, 69, -9, -61, 2, 3, -6, 10, 63, -34, 40, -6, -79, -35, -32], "withholdReward": false, "trial_id": "mdp_trial_13", "block": "test", "trialIndex": 16, "score": 54, "costs": 0, "simulationMode": [null, null, null, null, null], "rewards": [1, 3, 1, -14, 63], "path": ["0", "0", "1", "2", "3", "8", "10"], "rt": [210, 27, 28, 200, 201], "actions": ["up", "up", "up", "left", "down"], "actionTimes": [1911, 2506, 3095, 3862, 4599], "queries": {"click": {"state": {"target": [], "time": []}, "edge": {"target": [], "time": []}}, "mouseover": {"state": {"target": [], "time": []}, "edge": {"target": [], "time": []}}, "mouseout": {"state": {"target": ["0", "0", "1"], "time": [1067, 22284, 22503]}, "edge": {"target": [], "time": []}}}, "displayed_time": "15.70", "trialTime": 23088, "trial_type": "mouselab-mdp", "trial_index": 27, "time_elapsed": 1331043, "internal_node_id": "0.0-6.0-1.0-12.0"}}, {"uniqueid": "w90278855:a25364920", "current_trial": 28, "dateTime": 1693482319313, "trialdata": {"revealed_states": [], "clicked_states": [], "num_clicks_accrued": [0, 0, 0, 0, 0, 0, 0, 0, 0, 0, 0, 0, 0], "stateRewards": ["", 2, 4, -5, 7, 81, 35, 6, 11, 14, -72, 42, -1, 2, 3, -7, -77, -44, -40, -15, -85, 51, -32, -2, -1, -5, 7, -74, 47, 52, 16, -49, 48, -46], "withholdReward": false, "trial_id": "mdp_trial_14", "block": "test", "trialIndex": 17, "score": 14, "costs": 0, "simulationMode": [null, null, null, null, null], "rewards": [2, 4, -5, 7, 6], "path": ["0", "0", "1", "2", "3", "4", "7"], "rt": [540, 116, 98, 35, 47], "actions": ["up", "up", "up", "right", "down"], "actionTimes": [2885, 3548, 4220, 4828, 5431], "queries": {"click": {"state": {"target": [], "time": []}, "edge": {"target": [], "time": []}}, "mouseover": {"state": {"target": [], "time": []}, "edge": {"target": [], "time": []}}, "mouseout": {"state": {"target": ["0", "23", "23"], "time": [14895, 16134, 16956]}, "edge": {"target": [], "time": []}}}, "displayed_time": "16.36", "trialTime": 18100, "trial_type": "mouselab-mdp", "trial_index": 28, "time_elapsed": 1349914, "internal_node_id": "0.0-6.0-1.0-13.0"}}, {"uniqueid": "w90278855:a25364920", "current_trial": 29, "dateTime": 1693482338817, "trialdata": {"revealed_states": [], "clicked_states": ["21"], "num_clicks_accrued": [0, 0, 0, 0, 0, 0, 0, 0, 0, 0, 0, 0, 0], "stateRewards": ["", -2, -1, -1, 5, -54, -87, 35, 2, -8, 20, -22, 1, 3, 6, 13, -75, -32, -55, -3, 56, 62, -22, -1, -4, -1, -7, -51, 84, 70, 7, -15, 5, 55], "withholdReward": false, "trial_id": "mdp_trial_15", "block": "test", "trialIndex": 18, "score": 61.6, "costs": -1.4, "simulationMode": [null, null, null, null, null], "rewards": [1, 3, 6, -3, 56], "path": ["0", "0", "12", "13", "14", "19", "20"], "rt": [8340, 114, 129, 533, 125], "actions": ["right", "right", "right", "down", "right"], "actionTimes": [10247, 10918, 11607, 12694, 13350], "queries": {"click": {"state": {"target": ["21"], "time": [2673]}, "edge": {"target": [], "time": []}}, "mouseover": {"state": {"target": ["21", "17"], "time": [2489, 4085]}, "edge": {"target": [], "time": []}}, "mouseout": {"state": {"target": ["0", "21", "17", "17"], "time": [1966, 3772, 9332, 17987]}, "edge": {"target": [], "time": []}}}, "displayed_time": "15.91", "trialTime": 18885, "trial_type": "mouselab-mdp", "trial_index": 29, "time_elapsed": 1369418, "internal_node_id": "0.0-6.0-1.0-14.0"}}, {"uniqueid": "w90278855:a25364920", "current_trial": 30, "dateTime": 1693482356129, "trialdata": {"revealed_states": [], "clicked_states": ["9"], "num_clicks_accrued": [0, 0, 0, 0, 0, 0, 0, 0, 0, 0, 0, 0, 0], "stateRewards": ["", -1, -3, 3, 5, 56, 39, 50, -1, -80, 33, -46, 1, -2, -6, -8, 87, 48, 54, -11, -20, -64, -54, -2, 3, -7, -3, 12, 88, 35, -16, -46, -70, -3], "withholdReward": false, "trial_id": "mdp_trial_16", "block": "test", "trialIndex": 19, "score": 58.6, "costs": -1.4, "simulationMode": [null, null, null, null, null], "rewards": [-1, -3, 3, 5, 56], "path": ["0", "0", "1", "2", "3", "4", "5"], "rt": [3969, 191, 41, 518, 194], "actions": ["up", "up", "up", "right", "up"], "actionTimes": [5322, 6042, 6666, 7746, 8506], "queries": {"click": {"state": {"target": ["9"], "time": [2389]}, "edge": {"target": [], "time": []}}, "mouseover": {"state": {"target": ["1", "9", "9"], "time": [1863, 1935, 2206]}, "edge": {"target": [], "time": []}}, "mouseout": {"state": {"target": ["15", "16", "16", "18", "0", "1", "9", "9"], "time": [172, 236, 394, 454, 1801, 1899, 2019, 2604]}, "edge": {"target": [], "time": []}}}, "displayed_time": "15.36", "trialTime": 16699, "trial_type": "mouselab-mdp", "trial_index": 30, "time_elapsed": 1386730, "internal_node_id": "0.0-6.0-1.0-15.0"}}, {"uniqueid": "w90278855:a25364920", "current_trial": 31, "dateTime": 1693482373682, "trialdata": {"revealed_states": [], "clicked_states": ["29"], "num_clicks_accrued": [0, 0, 0, 0, 0, 0, 0, 0, 0, 0, 0, 0, 0], "stateRewards": ["", 2, -1, 4, -9, -43, 7, 54, -13, 38, -40, -83, -1, 2, -8, -10, 34, -33, 11, -14, -79, 65, 26, 1, 2, 4, 10, 21, 1, 86, 4, -53, 28, -29], "withholdReward": false, "trial_id": "mdp_trial_17", "block": "test", "trialIndex": 20, "score": 48.6, "costs": -1.4, "simulationMode": [null, null, null, null, null, null], "rewards": [2, -1, 4, -9, 54], "path": ["0", "0", "1", "2", "3", "4", "7"], "rt": [2251, 526, 140, 111, 66, 170], "actions": ["up", "up", "up", "up", "right", "down"], "actionTimes": [3860, 4394, 5091, 5730, 6354, 7066], "queries": {"click": {"state": {"target": ["29"], "time": [2517]}, "edge": {"target": [], "time": []}}, "mouseover": {"state": {"target": ["23", "24", "25", "29"], "time": [1664, 1760, 1803, 2198]}, "edge": {"target": [], "time": []}}, "mouseout": {"state": {"target": ["19", "0", "23", "24", "25", "29"], "time": [477, 1657, 1698, 1797, 2105, 3081]}, "edge": {"target": [], "time": []}}}, "displayed_time": "15.61", "trialTime": 16930, "trial_type": "mouselab-mdp", "trial_index": 31, "time_elapsed": 1404283, "internal_node_id": "0.0-6.0-1.0-16.0"}}, {"uniqueid": "w90278855:a25364920", "current_trial": 32, "dateTime": 1693482405314, "trialdata": {"revealed_states": [], "clicked_states": ["21"], "num_clicks_accrued": [0, 0, 0, 0, 0, 0, 0, 0, 0, 0, 0, 0, 0], "stateRewards": ["", 1, 2, -8, 9, 18, -83, -11, 6, -64, -48, 17, -2, -2, -5, -3, -24, -3, -86, -2, 48, -41, -22, -2, 4, 7, 8, 81, 13, -48, 10, 61, 19, 57], "withholdReward": false, "trial_id": "mdp_trial_18", "block": "test", "trialIndex": 21, "score": -16.4, "costs": -1.4, "simulationMode": [null, null, null, null, null, null], "rewards": [-2, -2, -5, -3, -3], "path": ["0", "0", "12", "13", "14", "15", "17"], "rt": [3793, 558, 27, 1073, 391, 85], "actions": ["right", "right", "right", "right", "up", "right"], "actionTimes": [5480, 6046, 6632, 8254, 9174, 9822], "queries": {"click": {"state": {"target": ["21"], "time": [4080]}, "edge": {"target": [], "time": []}}, "mouseover": {"state": {"target": ["7", "18", "19", "21"], "time": [2631, 3654, 3726, 3809]}, "edge": {"target": [], "time": []}}, "mouseout": {"state": {"target": ["24", "23", "7", "18", "19", "21", "18", "9"], "time": [771, 896, 3618, 3689, 3762, 4671, 30334, 30586]}, "edge": {"target": [], "time": []}}}, "displayed_time": "15.69", "trialTime": 30981, "trial_type": "mouselab-mdp", "trial_index": 32, "time_elapsed": 1435915, "internal_node_id": "0.0-6.0-1.0-17.0"}}, {"uniqueid": "w90278855:a25364920", "current_trial": 33, "dateTime": 1693482432747, "trialdata": {"revealed_states": [], "clicked_states": [], "num_clicks_accrued": [0, 0, 0, 0, 0, 0, 0, 0, 0, 0, 0, 0, 0], "stateRewards": ["", 2, 2, 3, -15, 23, -14, 73, -7, -32, -20, -6, 1, 1, -5, -12, 73, 6, -84, 11, -81, -57, 13, -2, -1, -4, -8, -52, -58, 49, 13, 5, -41, -41], "withholdReward": false, "trial_id": "mdp_trial_19", "block": "test", "trialIndex": 22, "score": -20, "costs": 0, "simulationMode": [null, null, null, null, null], "rewards": [2, 2, 3, -7, -20], "path": ["0", "0", "1", "2", "3", "8", "10"], "rt": [1017, 132, 362, 26, 978], "actions": ["up", "up", "up", "left", "down"], "actionTimes": [3719, 4415, 5327, 5913, 7439], "queries": {"click": {"state": {"target": [], "time": []}, "edge": {"target": [], "time": []}}, "mouseover": {"state": {"target": [], "time": []}, "edge": {"target": [], "time": []}}, "mouseout": {"state": {"target": ["9", "6", "4", "7"], "time": [1389, 1734, 1796, 1891]}, "edge": {"target": [], "time": []}}}, "displayed_time": "16.70", "trialTime": 26785, "trial_type": "mouselab-mdp", "trial_index": 33, "time_elapsed": 1463348, "internal_node_id": "0.0-6.0-1.0-18.0"}}, {"uniqueid": "w90278855:a25364920", "current_trial": 34, "dateTime": 1693482470918, "trialdata": {"revealed_states": [], "clicked_states": [], "num_clicks_accrued": [0, 0, 0, 0, 0, 0, 0, 0, 0, 0, 0, 0, 0], "stateRewards": ["", -2, -3, -6, -7, 9, 16, 65, 5, -41, 20, -25, -1, -4, 1, -11, -49, -4, 71, 1, 39, -62, 52, -2, -3, 7, -9, -28, -70, 84, 8, 24, -58, 82], "withholdReward": false, "trial_id": "mdp_trial_20", "block": "test", "trialIndex": 23, "score": -9, "costs": 0, "simulationMode": [null, null, null, null, null], "rewards": [-2, -3, -6, -7, 9], "path": ["0", "0", "1", "2", "3", "4", "5"], "rt": [2249, 42, 27, 28, 187], "actions": ["up", "up", "up", "right", "up"], "actionTimes": [24524, 25116, 25678, 26267, 27020], "queries": {"click": {"state": {"target": [], "time": []}, "edge": {"target": [], "time": []}}, "mouseover": {"state": {"target": ["4", "7", "7", "2", "1"], "time": [22501, 22586, 22799, 22869, 23178]}, "edge": {"target": [], "time": []}}, "mouseout": {"state": {"target": ["0", "2", "4", "7", "7", "2", "1", "1"], "time": [20883, 21329, 22580, 22621, 22834, 23143, 23924, 36986]}, "edge": {"target": [], "time": []}}}, "displayed_time": "36.29", "trialTime": 37550, "trial_type": "mouselab-mdp", "trial_index": 34, "time_elapsed": 1501520, "internal_node_id": "0.0-6.0-1.0-19.0"}}, {"uniqueid": "w90278855:a25364920", "current_trial": 35, "dateTime": 1693482492844, "trialdata": {"revealed_states": [], "clicked_states": [], "num_clicks_accrued": [0, 0, 0, 0, 0, 0, 0, 0, 0, 0, 0, 0, 0], "stateRewards": ["", 1, 4, -4, 14, 35, 51, 19, -13, 54, 78, -74, -2, -1, -3, 13, -11, -42, -73, -15, -24, -3, -69, 2, -1, 5, 16, -27, 73, 58, 9, -60, 5, -60], "withholdReward": false, "trial_id": "mdp_trial_21", "block": "test", "trialIndex": 24, "score": 50, "costs": 0, "simulationMode": [null, null, null, null, null], "rewards": [1, 4, -4, 14, 35], "path": ["0", "0", "1", "2", "3", "4", "5"], "rt": [552, 121, 507, 27, 112], "actions": ["up", "up", "up", "right", "up"], "actionTimes": [2141, 2821, 3877, 4461, 5125], "queries": {"click": {"state": {"target": [], "time": []}, "edge": {"target": [], "time": []}}, "mouseover": {"state": {"target": [], "time": []}, "edge": {"target": [], "time": []}}, "mouseout": {"state": {"target": ["1", "0"], "time": [333, 489]}, "edge": {"target": [], "time": []}}}, "displayed_time": "15.60", "trialTime": 21294, "trial_type": "mouselab-mdp", "trial_index": 35, "time_elapsed": 1523445, "internal_node_id": "0.0-6.0-1.0-20.0"}}, {"uniqueid": "w90278855:a25364920", "current_trial": 36, "dateTime": 1693482521197, "trialdata": {"revealed_states": [], "clicked_states": [], "num_clicks_accrued": [0, 0, 0, 0, 0, 0, 0, 0, 0, 0, 0, 0, 0], "stateRewards": ["", 2, 3, -2, -8, -8, -41, 74, 15, -23, -80, 1, 1, 3, 3, -15, -63, -78, 67, 13, 75, -41, 86, 2, -2, 6, -3, -8, -49, 50, -6, 83, 74, 80], "withholdReward": false, "trial_id": "mdp_trial_22", "block": "test", "trialIndex": 25, "score": -62, "costs": 0, "simulationMode": [null, null, null, null, null], "rewards": [2, 3, -2, 15, -80], "path": ["0", "0", "1", "2", "3", "8", "10"], "rt": [663, 394, 111, 898, 76], "actions": ["up", "up", "up", "left", "down"], "actionTimes": [2598, 3550, 4230, 5678, 6318], "queries": {"click": {"state": {"target": [], "time": []}, "edge": {"target": [], "time": []}}, "mouseover": {"state": {"target": [], "time": []}, "edge": {"target": [], "time": []}}, "mouseout": {"state": {"target": ["0", "0"], "time": [959, 1984]}, "edge": {"target": [], "time": []}}}, "displayed_time": "15.94", "trialTime": 27711, "trial_type": "mouselab-mdp", "trial_index": 36, "time_elapsed": 1551798, "internal_node_id": "0.0-6.0-1.0-21.0"}}, {"uniqueid": "w90278855:a25364920", "current_trial": 37, "dateTime": 1693482543093, "trialdata": {"revealed_states": [], "clicked_states": [], "num_clicks_accrued": [0, 0, 0, 0, 0, 0, 0, 0, 0, 0, 0, 0, 0], "stateRewards": ["", -1, 3, 1, -7, 56, 76, 57, 3, 11, -9, 14, 1, -2, 2, 8, -77, -3, 79, -5, 88, 24, -66, -2, -1, 7, -7, -30, 14, -76, 11, -36, 28, -6], "withholdReward": false, "trial_id": "mdp_trial_23", "block": "test", "trialIndex": 26, "score": 53, "costs": 0, "simulationMode": [null, null, null, null, null], "rewards": [-1, 3, 1, -7, 57], "path": ["0", "0", "1", "2", "3", "4", "7"], "rt": [863, 27, 98, 84, 27], "actions": ["up", "up", "up", "right", "down"], "actionTimes": [7583, 8163, 8791, 9431, 10029], "queries": {"click": {"state": {"target": [], "time": []}, "edge": {"target": [], "time": []}}, "mouseover": {"state": {"target": [], "time": []}, "edge": {"target": [], "time": []}}, "mouseout": {"state": {"target": ["0", "2", "0", "0", "1", "13"], "time": [202, 5701, 6771, 15642, 16705, 16767]}, "edge": {"target": [], "time": []}}}, "displayed_time": "20.72", "trialTime": 21256, "trial_type": "mouselab-mdp", "trial_index": 37, "time_elapsed": 1573694, "internal_node_id": "0.0-6.0-1.0-22.0"}}, {"uniqueid": "w90278855:a25364920", "current_trial": 38, "dateTime": 1693482565878, "trialdata": {"revealed_states": [], "clicked_states": [], "num_clicks_accrued": [0, 0, 0, 0, 0, 0, 0, 0, 0, 0, 0, 0, 0], "stateRewards": ["", -1, 2, -6, 6, -82, -19, -39, -16, -83, 11, -33, -2, -2, 4, -6, -82, -1, -19, -6, -10, -67, -41, -2, 1, -7, 16, -23, -78, -52, 14, 31, -71, 74], "withholdReward": false, "trial_id": "mdp_trial_24", "block": "test", "trialIndex": 27, "score": -47, "costs": 0, "simulationMode": [null, null, null, null, null], "rewards": [-2, -2, 4, -6, -41], "path": ["0", "0", "12", "13", "14", "19", "22"], "rt": [1155, 27, 191, 849, 190], "actions": ["right", "right", "right", "down", "left"], "actionTimes": [2783, 3367, 4103, 5503, 6255], "queries": {"click": {"state": {"target": [], "time": []}, "edge": {"target": [], "time": []}}, "mouseover": {"state": {"target": [], "time": []}, "edge": {"target": [], "time": []}}, "mouseout": {"state": {"target": ["22", "0"], "time": [757, 1099]}, "edge": {"target": [], "time": []}}}, "displayed_time": "15.63", "trialTime": 22096, "trial_type": "mouselab-mdp", "trial_index": 38, "time_elapsed": 1596480, "internal_node_id": "0.0-6.0-1.0-23.0"}}, {"uniqueid": "w90278855:a25364920", "current_trial": 39, "dateTime": 1693482586463, "trialdata": {"revealed_states": [], "clicked_states": [], "num_clicks_accrued": [0, 0, 0, 0, 0, 0, 0, 0, 0, 0, 0, 0, 0], "stateRewards": ["", -1, -4, -6, -15, 21, -67, -63, 9, 51, 69, -14, -1, 3, 8, -8, 39, 72, 63, 15, 19, 47, 15, 1, 4, 5, 16, -18, 34, 35, -14, -80, 40, 1], "withholdReward": false, "trial_id": "mdp_trial_25", "block": "test", "trialIndex": 28, "score": 60, "costs": 0, "simulationMode": [null, null, null, null, null], "rewards": [1, 4, 5, 16, 34], "path": ["0", "0", "23", "24", "25", "26", "28"], "rt": [1525, 106, 1485, 594, 143], "actions": ["left", "left", "left", "up", "right"], "actionTimes": [2949, 3621, 5661, 6805, 7469], "queries": {"click": {"state": {"target": [], "time": []}, "edge": {"target": [], "time": []}}, "mouseover": {"state": {"target": [], "time": []}, "edge": {"target": [], "time": []}}, "mouseout": {"state": {"target": ["0", "0", "0"], "time": [29, 408, 566]}, "edge": {"target": [], "time": []}}}, "displayed_time": "15.43", "trialTime": 19958, "trial_type": "mouselab-mdp", "trial_index": 39, "time_elapsed": 1617064, "internal_node_id": "0.0-6.0-1.0-24.0"}}, {"uniqueid": "w90278855:a25364920", "current_trial": 40, "dateTime": 1693482605672, "trialdata": {"revealed_states": [], "clicked_states": [], "num_clicks_accrued": [0, 0, 0, 0, 0, 0, 0, 0, 0, 0, 0, 0, 0], "stateRewards": ["", 2, -1, -2, -5, -47, -57, -33, -11, 31, -18, -72, -2, 1, -4, -8, -46, -53, -50, 15, -85, -9, 39, -2, -2, 1, 14, -1, -8, 53, -12, -41, -74, 62], "withholdReward": false, "trial_id": "mdp_trial_26", "block": "test", "trialIndex": 29, "score": -39, "costs": 0, "simulationMode": [null, null, null, null, null], "rewards": [2, -1, -2, -5, -33], "path": ["0", "0", "1", "2", "3", "4", "7"], "rt": [457, 25, 269, 32, 26], "actions": ["up", "up", "up", "right", "down"], "actionTimes": [2157, 2735, 3556, 4140, 4727], "queries": {"click": {"state": {"target": [], "time": []}, "edge": {"target": [], "time": []}}, "mouseover": {"state": {"target": [], "time": []}, "edge": {"target": [], "time": []}}, "mouseout": {"state": {"target": ["0", "0", "0", "1", "0"], "time": [799, 1112, 17396, 17708, 17988]}, "edge": {"target": [], "time": []}}}, "displayed_time": "15.70", "trialTime": 18557, "trial_type": "mouselab-mdp", "trial_index": 40, "time_elapsed": 1636273, "internal_node_id": "0.0-6.0-1.0-25.0"}}, {"uniqueid": "w90278855:a25364920", "current_trial": 41, "dateTime": 1693482626136, "trialdata": {"revealed_states": [], "clicked_states": [], "num_clicks_accrued": [0, 0, 0, 0, 0, 0, 0, 0, 0, 0, 0, 0, 0], "stateRewards": ["", -2, 4, 3, 5, -61, 4, 30, 1, -47, 83, 10, 1, 4, 7, -14, 19, -74, -83, 6, -2, -2, -65, -1, -2, 4, -11, 12, -1, -68, 11, -38, -28, 66], "withholdReward": false, "trial_id": "mdp_trial_27", "block": "test", "trialIndex": 30, "score": 40, "costs": 0, "simulationMode": [null, null, null, null, null], "rewards": [-2, 4, 3, 5, 30], "path": ["0", "0", "1", "2", "3", "4", "7"], "rt": [760, 141, 547, 49, 80], "actions": ["up", "up", "up", "right", "down"], "actionTimes": [3280, 3952, 5064, 5656, 6296], "queries": {"click": {"state": {"target": [], "time": []}, "edge": {"target": [], "time": []}}, "mouseover": {"state": {"target": [], "time": []}, "edge": {"target": [], "time": []}}, "mouseout": {"state": {"target": ["17", "15", "18", "0", "1", "9", "10", "0"], "time": [1642, 1703, 1739, 18153, 18194, 18232, 18988, 19080]}, "edge": {"target": [], "time": []}}}, "displayed_time": "16.52", "trialTime": 19801, "trial_type": "mouselab-mdp", "trial_index": 41, "time_elapsed": 1656737, "internal_node_id": "0.0-6.0-1.0-26.0"}}, {"uniqueid": "w90278855:a25364920", "current_trial": 42, "dateTime": 1693482643769, "trialdata": {"revealed_states": [], "clicked_states": [], "num_clicks_accrued": [0, 0, 0, 0, 0, 0, 0, 0, 0, 0, 0, 0, 0], "stateRewards": ["", 1, 1, -6, -2, 7, 77, 3, 16, -16, 66, 31, -1, 3, -8, -6, 33, -50, -48, 7, -60, -66, 36, 2, -3, 3, -7, -12, -61, -79, -4, 8, 74, -70], "withholdReward": false, "trial_id": "mdp_trial_28", "block": "test", "trialIndex": 31, "score": -62, "costs": 0, "simulationMode": [null, null, null, null, null], "rewards": [-1, 3, -8, -6, -50], "path": ["0", "0", "12", "13", "14", "15", "17"], "rt": [1186, 28, 25, 116, 989], "actions": ["right", "right", "right", "up", "right"], "actionTimes": [3191, 3772, 4350, 5031, 6591], "queries": {"click": {"state": {"target": [], "time": []}, "edge": {"target": [], "time": []}}, "mouseover": {"state": {"target": [], "time": []}, "edge": {"target": [], "time": []}}, "mouseout": {"state": {"target": ["0", "0"], "time": [12662, 12911]}, "edge": {"target": [], "time": []}}}, "displayed_time": "16.01", "trialTime": 16984, "trial_type": "mouselab-mdp", "trial_index": 42, "time_elapsed": 1674370, "internal_node_id": "0.0-6.0-1.0-27.0"}}, {"uniqueid": "w90278855:a25364920", "current_trial": 43, "dateTime": 1693482660914, "trialdata": {"revealed_states": [], "clicked_states": [], "num_clicks_accrued": [0, 0, 0, 0, 0, 0, 0, 0, 0, 0, 0, 0, 0], "stateRewards": ["", 1, 2, -3, -5, 66, -50, -47, -5, 1, 28, -27, 1, 1, -1, -6, 37, -25, 56, 1, -82, -66, -40, -1, -4, -7, 15, -61, -23, 26, 10, 14, -56, 29], "withholdReward": false, "trial_id": "mdp_trial_29", "block": "test", "trialIndex": 32, "score": 61, "costs": 0, "simulationMode": [null, null, null, null, null], "rewards": [1, 2, -3, -5, 66], "path": ["0", "0", "1", "2", "3", "4", "5"], "rt": [571, 125, 130, 26, 62], "actions": ["up", "up", "up", "right", "up"], "actionTimes": [1944, 2624, 3304, 3855, 4482], "queries": {"click": {"state": {"target": [], "time": []}, "edge": {"target": [], "time": []}}, "mouseover": {"state": {"target": [], "time": []}, "edge": {"target": [], "time": []}}, "mouseout": {"state": {"target": ["23", "0"], "time": [100, 1423]}, "edge": {"target": [], "time": []}}}, "displayed_time": "15.38", "trialTime": 16505, "trial_type": "mouselab-mdp", "trial_index": 43, "time_elapsed": 1691515, "internal_node_id": "0.0-6.0-1.0-28.0"}}, {"uniqueid": "w90278855:a25364920", "current_trial": 44, "dateTime": 1693482679714, "trialdata": {"revealed_states": [], "clicked_states": [], "num_clicks_accrued": [0, 0, 0, 0, 0, 0, 0, 0, 0, 0, 0, 0, 0], "stateRewards": ["", 2, -3, 5, 11, -79, 54, 11, -9, -78, 33, 22, -2, -1, 2, 14, 43, 34, 1, 10, 49, -65, 39, -1, 1, -1, 3, -16, -2, 11, 2, 12, 48, -65], "withholdReward": false, "trial_id": "mdp_trial_30", "block": "test", "trialIndex": 33, "score": 28, "costs": 0, "simulationMode": [null, null, null, null, null], "rewards": [2, -3, 5, -9, 33], "path": ["0", "0", "1", "2", "3", "8", "10"], "rt": [732, 74, 109, 591, 81], "actions": ["up", "up", "up", "left", "down"], "actionTimes": [3220, 3852, 4484, 5652, 6276], "queries": {"click": {"state": {"target": [], "time": []}, "edge": {"target": [], "time": []}}, "mouseover": {"state": {"target": [], "time": []}, "edge": {"target": [], "time": []}}, "mouseout": {"state": {"target": ["12", "14", "13"], "time": [1113, 1363, 1426]}, "edge": {"target": [], "time": []}}}, "displayed_time": "16.49", "trialTime": 18133, "trial_type": "mouselab-mdp", "trial_index": 44, "time_elapsed": 1710315, "internal_node_id": "0.0-6.0-1.0-29.0"}}, {"uniqueid": "w90278855:a25364920", "current_trial": 45, "dateTime": 1693482708068, "trialdata": {"revealed_states": [], "clicked_states": [], "num_clicks_accrued": [0, 0, 0, 0, 0, 0, 0, 0, 0, 0, 0, 0, 0], "stateRewards": ["", 1, 1, -2, 7, -31, -6, 76, 1, -36, -16, -53, 2, 1, 7, 13, -47, -10, 47, -7, 72, 46, -56, -2, -2, -2, 11, -80, 44, 38, 16, 67, 85, -78], "withholdReward": false, "trial_id": "mdp_trial_31", "block": "test", "trialIndex": 34, "score": 83, "costs": 0, "simulationMode": [null, null, null, null, null], "rewards": [1, 1, -2, 7, 76], "path": ["0", "0", "1", "2", "3", "4", "7"], "rt": [1242, 115, 101, 763, 212], "actions": ["up", "up", "up", "right", "down"], "actionTimes": [4179, 4843, 5499, 6867, 7611], "queries": {"click": {"state": {"target": [], "time": []}, "edge": {"target": [], "time": []}}, "mouseover": {"state": {"target": [], "time": []}, "edge": {"target": [], "time": []}}, "mouseout": {"state": {"target": ["0", "15", "6", "4", "0", "0", "1", "10"], "time": [99, 1882, 1943, 2037, 3447, 26453, 26490, 26916]}, "edge": {"target": [], "time": []}}}, "displayed_time": "16.94", "trialTime": 27661, "trial_type": "mouselab-mdp", "trial_index": 45, "time_elapsed": 1738669, "internal_node_id": "0.0-6.0-1.0-30.0"}}, {"uniqueid": "w90278855:a25364920", "current_trial": 46, "dateTime": 1693482738972, "trialdata": {"revealed_states": [], "clicked_states": [], "num_clicks_accrued": [0, 0, 0, 0, 0, 0, 0, 0, 0, 0, 0, 0, 0], "stateRewards": ["", 2, -3, -5, 5, 11, -9, -33, 6, 67, 6, -30, -1, -2, -6, 13, 55, 13, 72, -14, 75, 21, -66, -2, -4, 6, 15, -1, -35, 60, 2, 51, -73, 12], "withholdReward": false, "trial_id": "mdp_trial_32", "block": "test", "trialIndex": 35, "score": 10, "costs": 0, "simulationMode": [null, null, null, null, null], "rewards": [2, -3, -5, 5, 11], "path": ["0", "0", "1", "2", "3", "4", "5"], "rt": [5701, 109, 668, 222, 230], "actions": ["up", "up", "up", "right", "up"], "actionTimes": [19183, 19870, 21110, 21870, 22638], "queries": {"click": {"state": {"target": [], "time": []}, "edge": {"target": [], "time": []}}, "mouseover": {"state": {"target": [], "time": []}, "edge": {"target": [], "time": []}}, "mouseout": {"state": {"target": ["5", "6", "0", "0"], "time": [3305, 12430, 12555, 29558]}, "edge": {"target": [], "time": []}}}, "displayed_time": "27.48", "trialTime": 30239, "trial_type": "mouselab-mdp", "trial_index": 46, "time_elapsed": 1769573, "internal_node_id": "0.0-6.0-1.0-31.0"}}, {"uniqueid": "w90278855:a25364920", "current_trial": 47, "dateTime": 1693482766197, "trialdata": {"revealed_states": [], "clicked_states": [], "num_clicks_accrued": [0, 0, 0, 0, 0, 0, 0, 0, 0, 0, 0, 0, 0], "stateRewards": ["", -2, -1, -2, -15, 87, 57, 29, -10, 77, -80, -7, 1, -3, 6, 14, -11, 87, -59, 4, -71, 16, -11, 2, 2, -7, 2, -47, 61, 50, 14, -20, 17, 81], "withholdReward": false, "trial_id": "mdp_trial_33", "block": "test", "trialIndex": 36, "score": 62, "costs": 0, "simulationMode": [null, null, null, null, null], "rewards": [-2, -1, -2, -10, 77], "path": ["0", "0", "1", "2", "3", "8", "9"], "rt": [698, 31, 135, 449, 215], "actions": ["up", "up", "up", "left", "up"], "actionTimes": [11560, 12134, 12799, 13767, 14511], "queries": {"click": {"state": {"target": [], "time": []}, "edge": {"target": [], "time": []}}, "mouseover": {"state": {"target": [], "time": []}, "edge": {"target": [], "time": []}}, "mouseout": {"state": {"target": ["12", "1", "0", "0"], "time": [9872, 10121, 25028, 25842]}, "edge": {"target": [], "time": []}}}, "displayed_time": "24.86", "trialTime": 26560, "trial_type": "mouselab-mdp", "trial_index": 47, "time_elapsed": 1796798, "internal_node_id": "0.0-6.0-1.0-32.0"}}, {"uniqueid": "w90278855:a25364920", "current_trial": 48, "dateTime": 1693482787679, "trialdata": {"revealed_states": [], "clicked_states": [], "num_clicks_accrued": [0, 0, 0, 0, 0, 0, 0, 0, 0, 0, 0, 0, 0], "stateRewards": ["", 1, -1, 4, 5, -32, 18, 20, 6, -88, -74, 9, -2, 1, -2, -14, 34, -77, -38, -1, 80, -36, 73, 2, 3, -8, 10, -48, -73, -71, -11, -22, 20, 54], "withholdReward": false, "trial_id": "mdp_trial_34", "block": "test", "trialIndex": 37, "score": 27, "costs": 0, "simulationMode": [null, null, null, null, null], "rewards": [1, -1, 4, 5, 18], "path": ["0", "0", "1", "2", "3", "4", "6"], "rt": [912, 158, 353, 69, 27], "actions": ["up", "up", "up", "right", "right"], "actionTimes": [3723, 4419, 5299, 5931, 6541], "queries": {"click": {"state": {"target": [], "time": []}, "edge": {"target": [], "time": []}}, "mouseover": {"state": {"target": [], "time": []}, "edge": {"target": [], "time": []}}, "mouseout": {"state": {"target": ["2", "10", "10", "1", "0", "1", "0"], "time": [1493, 1680, 1836, 1962, 19650, 20057, 20278]}, "edge": {"target": [], "time": []}}}, "displayed_time": "16.81", "trialTime": 20820, "trial_type": "mouselab-mdp", "trial_index": 48, "time_elapsed": 1818280, "internal_node_id": "0.0-6.0-1.0-33.0"}}, {"uniqueid": "w90278855:a25364920", "current_trial": 49, "dateTime": 1693482809590, "trialdata": {"revealed_states": [], "clicked_states": [], "num_clicks_accrued": [0, 0, 0, 0, 0, 0, 0, 0, 0, 0, 0, 0, 0], "stateRewards": ["", -2, -1, -5, 10, -36, -70, 68, -9, 86, 71, -10, 2, -4, 7, -7, 66, 44, -66, -13, -69, 43, 15, -2, 2, 6, -13, 62, 57, 50, -10, -69, 42, -72], "withholdReward": false, "trial_id": "mdp_trial_35", "block": "test", "trialIndex": 38, "score": 54, "costs": 0, "simulationMode": [null, null, null, null, null], "rewards": [-2, -1, -5, -9, 71], "path": ["0", "0", "1", "2", "3", "8", "10"], "rt": [3338, 174, 1545, 118, 176], "actions": ["up", "up", "up", "left", "down"], "actionTimes": [4698, 5410, 7514, 8194, 8930], "queries": {"click": {"state": {"target": [], "time": []}, "edge": {"target": [], "time": []}}, "mouseover": {"state": {"target": ["0"], "time": [1409]}, "edge": {"target": [], "time": []}}, "mouseout": {"state": {"target": ["2", "0", "0", "26", "28", "24"], "time": [97, 812, 3596, 20347, 20410, 20472]}, "edge": {"target": [], "time": []}}}, "displayed_time": "15.36", "trialTime": 21147, "trial_type": "mouselab-mdp", "trial_index": 49, "time_elapsed": 1840192, "internal_node_id": "0.0-6.0-1.0-34.0"}}, {"uniqueid": "w90278855:a25364920", "current_trial": 50, "dateTime": 1693482857993, "trialdata": {"revealed_states": [], "clicked_states": [], "num_clicks_accrued": [0, 0, 0, 0, 0, 0, 0, 0, 0, 0, 0, 0, 0], "stateRewards": ["", -1, -2, -8, 8, -27, -82, 19, -14, -62, 4, 1, -2, 2, 6, 10, 73, -51, -2, 2, 73, -48, 54, -1, 2, -4, 11, -25, 47, 86, 15, 33, 43, -42], "withholdReward": false, "trial_id": "mdp_trial_36", "block": "test", "trialIndex": 39, "score": -30, "costs": 0, "simulationMode": [null, null, null, null, null], "rewards": [-1, -2, -8, 8, -27], "path": ["0", "0", "1", "2", "3", "4", "5"], "rt": [18113, 76, 61, 33, 577], "actions": ["up", "up", "up", "right", "up"], "actionTimes": [26419, 27050, 27667, 28258, 29395], "queries": {"click": {"state": {"target": [], "time": []}, "edge": {"target": [], "time": []}}, "mouseover": {"state": {"target": ["0", "1"], "time": [23906, 24342]}, "edge": {"target": [], "time": []}}, "mouseout": {"state": {"target": ["24", "0", "0", "1", "27", "26"], "time": [1308, 8355, 24061, 46874, 47219, 47687]}, "edge": {"target": [], "time": []}}}, "displayed_time": "29.93", "trialTime": 47731, "trial_type": "mouselab-mdp", "trial_index": 50, "time_elapsed": 1888594, "internal_node_id": "0.0-6.0-1.0-35.0"}}, {"uniqueid": "w90278855:a25364920", "current_trial": 51, "dateTime": 1693482886002, "trialdata": {"revealed_states": [], "clicked_states": ["1"], "num_clicks_accrued": [0, 0, 0, 0, 0, 0, 0, 0, 0, 0, 0, 0, 0], "stateRewards": ["", -1, 3, -5, -2, -13, -9, -34, -7, -81, 32, 35, -2, -2, 1, -14, -32, 81, 7, 4, 82, 56, -8, -1, 3, -8, 6, -24, -24, -53, 2, 38, 61, 54], "withholdReward": false, "trial_id": "mdp_trial_37", "block": "test", "trialIndex": 40, "score": -19.4, "costs": -1.4, "simulationMode": [null, null, null, null, null, null], "rewards": [-1, 3, -5, -2, -13], "path": ["0", "0", "1", "2", "3", "4", "5"], "rt": [2430, 205, 130, 95, 26, 101], "actions": ["up", "up", "up", "up", "right", "up"], "actionTimes": [3720, 3932, 4635, 5252, 5843, 6499], "queries": {"click": {"state": {"target": ["1"], "time": [2232]}, "edge": {"target": [], "time": []}}, "mouseover": {"state": {"target": ["1", "2"], "time": [1897, 2632]}, "edge": {"target": [], "time": []}}, "mouseout": {"state": {"target": ["18", "13", "0", "1", "2", "7"], "time": [174, 426, 1340, 2377, 3256, 8676]}, "edge": {"target": [], "time": []}}}, "displayed_time": "15.29", "trialTime": 27357, "trial_type": "mouselab-mdp", "trial_index": 51, "time_elapsed": 1916603, "internal_node_id": "0.0-6.0-1.0-36.0"}}, {"uniqueid": "w90278855:a25364920", "current_trial": 52, "dateTime": 1693482908369, "trialdata": {"revealed_states": [], "clicked_states": [], "num_clicks_accrued": [0, 0, 0, 0, 0, 0, 0, 0, 0, 0, 0, 0, 0], "stateRewards": ["", -1, 1, -6, -1, 80, 23, 2, -11, 73, -81, 59, 1, 3, 5, -1, -26, 28, -3, 16, -59, -13, -50, -2, -2, 2, 15, -50, 86, 17, -4, 37, 35, 44], "withholdReward": false, "trial_id": "mdp_trial_38", "block": "test", "trialIndex": 41, "score": -5, "costs": 0, "simulationMode": [null, null, null, null, null], "rewards": [-1, 1, -6, -1, 2], "path": ["0", "0", "1", "2", "3", "4", "7"], "rt": [657, 29, 26, 98, 58], "actions": ["up", "up", "up", "right", "down"], "actionTimes": [4860, 5431, 6005, 6660, 7284], "queries": {"click": {"state": {"target": [], "time": []}, "edge": {"target": [], "time": []}}, "mouseover": {"state": {"target": [], "time": []}, "edge": {"target": [], "time": []}}, "mouseout": {"state": {"target": ["12", "0", "0"], "time": [3158, 3408, 21192]}, "edge": {"target": [], "time": []}}}, "displayed_time": "18.21", "trialTime": 21709, "trial_type": "mouselab-mdp", "trial_index": 52, "time_elapsed": 1938970, "internal_node_id": "0.0-6.0-1.0-37.0"}}, {"uniqueid": "w90278855:a25364920", "current_trial": 53, "dateTime": 1693482928690, "trialdata": {"revealed_states": [], "clicked_states": [], "num_clicks_accrued": [0, 0, 0, 0, 0, 0, 0, 0, 0, 0, 0, 0, 0], "stateRewards": ["", 2, 3, 3, 10, 19, -21, 6, 9, 54, 68, 16, 2, 2, -6, -8, 40, -2, -75, -2, -42, 55, 59, -1, 2, 4, -14, 11, -34, -30, -6, 61, -53, 13], "withholdReward": false, "trial_id": "mdp_trial_39", "block": "test", "trialIndex": 42, "score": 24, "costs": 0, "simulationMode": [null, null, null, null, null], "rewards": [2, 3, 3, 10, 6], "path": ["0", "0", "1", "2", "3", "4", "7"], "rt": [1487, 57, 26, 556, 26], "actions": ["up", "up", "up", "right", "down"], "actionTimes": [3429, 4005, 4583, 5661, 6238], "queries": {"click": {"state": {"target": [], "time": []}, "edge": {"target": [], "time": []}}, "mouseover": {"state": {"target": [], "time": []}, "edge": {"target": [], "time": []}}, "mouseout": {"state": {"target": [], "time": []}, "edge": {"target": [], "time": []}}}, "displayed_time": "15.94", "trialTime": 19622, "trial_type": "mouselab-mdp", "trial_index": 53, "time_elapsed": 1959291, "internal_node_id": "0.0-6.0-1.0-38.0"}}, {"uniqueid": "w90278855:a25364920", "current_trial": 54, "dateTime": 1693482974077, "trialdata": {"revealed_states": [], "clicked_states": [], "num_clicks_accrued": [0, 0, 0, 0, 0, 0, 0, 0, 0, 0, 0, 0, 0], "stateRewards": ["", 2, -1, 8, -2, -16, 69, -39, -7, -13, -27, -86, 2, -2, 2, 13, -34, -16, -20, -5, 19, 81, 32, -2, -1, 2, -14, 20, 80, 58, 4, 70, 12, 73], "withholdReward": false, "trial_id": "mdp_trial_40", "block": "test", "trialIndex": 43, "score": -25, "costs": 0, "simulationMode": [null, null, null, null, null], "rewards": [2, -1, 8, -7, -27], "path": ["0", "0", "1", "2", "3", "8", "10"], "rt": [12456, 80, 872, 119, 27], "actions": ["up", "up", "up", "left", "down"], "actionTimes": [32792, 33415, 34871, 35543, 36098], "queries": {"click": {"state": {"target": [], "time": []}, "edge": {"target": [], "time": []}}, "mouseover": {"state": {"target": ["23", "0", "12"], "time": [20590, 32196, 32237]}, "edge": {"target": [], "time": []}}, "mouseout": {"state": {"target": ["12", "2", "1", "23", "0", "12"], "time": [19148, 19368, 19461, 32151, 32231, 32273]}, "edge": {"target": [], "time": []}}}, "displayed_time": "36.64", "trialTime": 44720, "trial_type": "mouselab-mdp", "trial_index": 54, "time_elapsed": 2004678, "internal_node_id": "0.0-6.0-1.0-39.0"}}, {"uniqueid": "w90278855:a25364920", "current_trial": 55, "dateTime": 1693483027496, "trialdata": {"rt": 53412, "response": {"Q0": "$-2 to $2", "Q1": "$-16 to $16", "Q2": "$-16 to $16", "Q3": "The cost was always $1.4.", "Q4": "Very motivated"}, "question_order": [0, 1, 2, 3, 4], "trial_id": "final_quiz_control", "trial_type": "survey-multi-choice", "trial_index": 55, "time_elapsed": 2058097, "internal_node_id": "0.0-6.0-2.0"}}, {"uniqueid": "w90278855:a25364920", "current_trial": 56, "dateTime": 1693483079561, "trialdata": {"rt": 52049, "response": {"Q0": "1st check was was the 1st node but didnt work", "Q1": "no", "Q2": "very difficult "}, "trial_id": "self_report_control", "trial_type": "survey-text", "trial_index": 56, "time_elapsed": 2110163, "internal_node_id": "0.0-6.0-3.0"}}, {"uniqueid": "w90278855:a25364920", "current_trial": 57, "dateTime": 1693483108091, "trialdata": {"rt": 28523, "response": {"gender": "male", "age": "32", "colorblind": "0", "effort": "0"}, "trial_type": "survey-html-form", "trial_index": 57, "time_elapsed": 2138692, "internal_node_id": "0.0-6.0-4.0"}}, {"uniqueid": "w90278855:a25364920", "current_trial": 58, "dateTime": 1693483131290, "trialdata": {"rt": 23190, "response": {"Q0": "no", "Q1": "no", "Q2": ""}, "trial_type": "survey-text", "trial_index": 58, "time_elapsed": 2161892, "internal_node_id": "0.0-6.0-5.0"}}, {"uniqueid": "w90278855:a25364920", "current_trial": 59, "dateTime": 1693483184246, "trialdata": {"rt": 52948, "stimulus": "<h1>Completion Code Instructions (1/2)</h1>\n<br><br><br><br>\nYou have reached the end of the experiment! The completion code consists of two parts: (1) a code with 2 characters (2) a code with 6 characters. On this page, you will receive the second part of the code. The first part of the completion code will be on the next page.\n<br><br>\nThe second part of your completion code is: <b>EWEK22</b>\n<br><br>\nPlease note this down. Then, press 'Finish HIT' in order to find the first part of your completion code. Once the data has been saved, you will receive this code either in this window or in the original browser window where you started the experiment.\n", "response": 0, "trial_type": "html-button-response", "trial_index": 59, "time_elapsed": 2214848, "internal_node_id": "0.0-6.0-6.0"}}, {"uniqueid": "w90278855:a25364920", "current_trial": 60, "dateTime": 1693483185253, "trialdata": {"success": true, "trial_type": "fullscreen", "trial_index": 60, "time_elapsed": 2215855, "internal_node_id": "0.0-7.0"}}], "questiondata": {"params": {"CODE": "C6DMOQA6", "MIN_TIME": 14, "inspectCost": 1, "startTime": "Thu Aug 31 2023 13:22:47 GMT+0200 (South Africa Standard Time)", "bonusRate": 0.002, "variance": "1_2_4_8_44", "branching": "31123"}, "final_score": 876.4}, "eventdata": [{"eventtype": "initialized", "value": null, "timestamp": 1693480967083, "interval": 0}, {"eventtype": "window_resize", "value": [1920, 982], "timestamp": 1693480967083, "interval": 0}, {"eventtype": "window_resize", "value": [1920, 982], "timestamp": 1693480967559, "interval": 476}, {"eventtype": "window_resize", "value": [1920, 1080], "timestamp": 1693480982218, "interval": 14659}, {"eventtype": "focus", "value": "off", "timestamp": 1693481473366, "interval": 491148}, {"eventtype": "focus", "value": "on", "timestamp": 1693481473366, "interval": 0}, {"eventtype": "window_resize", "value": [1920, 982], "timestamp": 1693481473573, "interval": 207}, {"eventtype": "window_resize", "value": [1920, 1080], "timestamp": 1693481475869, "interval": 2296}, {"eventtype": "window_resize", "value": [1920, 982], "timestamp": 1693483184501, "interval": 1708632}], "useragent": "Mozilla/5.0 (Windows NT 10.0; Win64; x64) AppleWebKit/537.36 (KHTML, like Gecko) Chrome/116.0.0.0 Safari/537.36", "mode": "live", "id": "w90278855:a25364920", "status": "user data saved", "Beginhit": "2023-08-31 11:22:43.863842", "Beginexp": "2023-08-31 11:23:02.245978", "Endhit": "2023-08-31 11:59:46.01518", "psiturkStatus": 3, "browser": "<redacted>", "platform": "windows", "language": "en-US"}