{"condition": 0, "counterbalance": 0, "assignmentId": "a94270546", "workerId": "w88618920", "hitId": "h35376334", "currenttrial": 55, "bonus": 0, "data": [{"uniqueid": "w88618920:a94270546", "current_trial": 0, "dateTime": 1693582331414, "trialdata": {"success": true, "trial_type": "fullscreen", "trial_index": 0, "time_elapsed": 10372, "internal_node_id": "0.0-0.0"}}, {"uniqueid": "w88618920:a94270546", "current_trial": 1, "dateTime": 1693582352093, "trialdata": {"view_history": [{"page_index": 0, "viewing_time": 20668}], "rt": 20669, "trial_id": "exp_instructions_control", "trial_type": "instructions", "trial_index": 1, "time_elapsed": 31052, "internal_node_id": "0.0-1.0"}}, {"uniqueid": "w88618920:a94270546", "current_trial": 2, "dateTime": 1693582645730, "trialdata": {"view_history": [{"page_index": 0, "viewing_time": 67803}, {"page_index": 1, "viewing_time": 114436}, {"page_index": 2, "viewing_time": 50871}, {"page_index": 3, "viewing_time": 60522}], "rt": 293633, "trial_id": "mouselab_instructions_1_control", "trial_type": "instructions", "trial_index": 2, "time_elapsed": 324688, "internal_node_id": "0.0-2.0-1.0"}}, {"uniqueid": "w88618920:a94270546", "current_trial": 3, "dateTime": 1693582697428, "trialdata": {"revealed_states": [], "clicked_states": ["1", "8", "4", "3", "5", "6", "7", "17", "14", "13", "19", "20", "21", "22"], "num_clicks_accrued": [0, 0, 0, 0, 0, 0, 0, 0, 0, 0, 0, 0, 0], "stateRewards": ["", 10, 10, 10, -10, 10, 10, 10, 10, 10, 10, 10, -10, 10, 10, 10, -10, 10, -10, 10, 10, 10, -10, -10, 10, 10, 10, 10, 10, 10, -10, 10, -10, 10], "withholdReward": false, "trial_id": "practice_1", "block": "test", "trialIndex": 0, "score": 46.5, "costs": -7, "simulationMode": [null, null, null, null, null], "rewards": [10, 10, 10, 10, 10], "path": ["0", "0", "1", "2", "3", "8", "9"], "rt": [38983, 817, 856, 848, 310], "actions": ["up", "up", "up", "left", "up"], "actionTimes": [41800, 43127, 44497, 45856, 46684], "queries": {"click": {"state": {"target": ["1", "8", "4", "3", "5", "6", "7", "17", "14", "13", "19", "20", "21", "22"], "time": [6530, 11614, 14493, 18586, 19842, 22079, 23674, 24791, 25866, 28336, 30697, 31850, 33352, 34959]}, "edge": {"target": [], "time": []}}, "mouseover": {"state": {"target": ["1", "2", "3", "8", "3", "4", "1", "12", "13", "7", "3", "5", "6", "6", "7", "17", "14", "15", "18", "13", "19", "20", "21", "22", "12", "0", "0"], "time": [5165, 7570, 10013, 10280, 12640, 12772, 16879, 17262, 17328, 17962, 18228, 19380, 20522, 21495, 22679, 24279, 25412, 26430, 27709, 27792, 30342, 31460, 32543, 34112, 35826, 36956, 37513]}, "edge": {"target": [], "time": []}}, "mouseout": {"state": {"target": ["22", "0", "1", "2", "3", "8", "3", "4", "1", "12", "13", "7", "3", "5", "6", "6", "7", "17", "14", "15", "18", "13", "19", "20", "21", "22", "12", "0"], "time": [1165, 4967, 7517, 9963, 10246, 12616, 12765, 16778, 16897, 17295, 17944, 17979, 19330, 20346, 21293, 22496, 24196, 25346, 26344, 27659, 27727, 29211, 31285, 32477, 33960, 35084, 35861, 36991]}, "edge": {"target": [], "time": []}}}, "displayed_time": "47.21", "trialTime": 51047, "trial_type": "mouselab-mdp", "trial_index": 3, "time_elapsed": 376386, "internal_node_id": "0.0-2.0-2.0-0.0"}}, {"uniqueid": "w88618920:a94270546", "current_trial": 4, "dateTime": 1693582776039, "trialdata": {"revealed_states": [], "clicked_states": ["26", "30", "24", "3", "8", "1", "2", "5", "6", "15", "14", "19", "12", "13", "28", "23", "25"], "num_clicks_accrued": [0, 0, 0, 0, 0, 0, 0, 0, 0, 0, 0, 0, 0], "stateRewards": ["", -10, -10, 10, 10, -10, -10, -10, 10, 10, -10, 10, 10, -10, -10, -10, 10, 10, 10, 10, 10, 10, -10, 10, -10, -10, 10, -10, 10, 10, -10, -10, 10, -10], "withholdReward": false, "trial_id": "practice_2", "block": "test", "trialIndex": 1, "score": 5, "costs": -8.5, "simulationMode": [null, null, null, null, null], "rewards": [10, -10, -10, 10, 10], "path": ["0", "0", "23", "24", "25", "26", "28"], "rt": [45995, 244, 134, 72, 469], "actions": ["left", "left", "left", "up", "right"], "actionTimes": [72282, 73038, 73692, 74279, 75262], "queries": {"click": {"state": {"target": ["26", "30", "24", "3", "8", "1", "2", "5", "6", "15", "14", "19", "12", "13", "28", "23", "25"], "time": [28527, 32447, 36261, 38182, 40949, 43481, 45348, 47497, 49924, 51973, 53828, 55756, 58301, 60643, 64695, 66476, 68564]}, "edge": {"target": [], "time": []}}, "mouseover": {"state": {"target": ["23", "24", "25", "26", "26", "25", "30", "0", "23", "24", "10", "3", "8", "9", "2", "1", "2", "4", "5", "6", "16", "17", "15", "15", "14", "19", "13", "12", "13", "13", "0", "23", "23", "13", "23", "24", "26", "28", "23", "24", "25", "24", "0"], "time": [27167, 27187, 27235, 27633, 28116, 30399, 32032, 35265, 35683, 35765, 37084, 37714, 39149, 42113, 42813, 43129, 44282, 46348, 47046, 48595, 50435, 50534, 50936, 51113, 53260, 54561, 57392, 57992, 58978, 59625, 59696, 59727, 59956, 60341, 60961, 62159, 62624, 64375, 65393, 67841, 67923, 68943, 71406]}, "edge": {"target": [], "time": []}}, "mouseout": {"state": {"target": ["0", "23", "24", "25", "26", "26", "25", "30", "0", "23", "24", "10", "3", "8", "9", "2", "1", "2", "4", "5", "5", "6", "16", "17", "15", "15", "14", "19", "13", "12", "13", "13", "12", "0", "23", "23", "13", "12", "23", "24", "26", "28", "23", "24", "25", "24"], "time": [27151, 27184, 27216, 27600, 27750, 30266, 31899, 33949, 35666, 35699, 37003, 37102, 39000, 41898, 42763, 42864, 43605, 46297, 46381, 47620, 48398, 50349, 50500, 50897, 50995, 53061, 54296, 57326, 57410, 58432, 59044, 59675, 59693, 59710, 59759, 59975, 60911, 60944, 60978, 62312, 63674, 65298, 67807, 67873, 68926, 68959]}, "edge": {"target": [], "time": []}}}, "displayed_time": "75.78", "trialTime": 78196, "trial_type": "mouselab-mdp", "trial_index": 4, "time_elapsed": 454998, "internal_node_id": "0.0-2.0-2.0-1.0"}}, {"uniqueid": "w88618920:a94270546", "current_trial": 5, "dateTime": 1693582819048, "trialdata": {"view_history": [{"page_index": 0, "viewing_time": 31500}, {"page_index": 1, "viewing_time": 11504}], "rt": 43005, "trial_id": "mouselab_instructions_2_control", "trial_type": "instructions", "trial_index": 5, "time_elapsed": 498007, "internal_node_id": "0.0-2.0-3.0"}}, {"uniqueid": "w88618920:a94270546", "current_trial": 6, "dateTime": 1693582852283, "trialdata": {"rt": 33224, "response": {"Q0": "The cost for clicking on nodes may vary between nodes.", "Q1": "The better I perform the higher my bonus will be.", "Q2": "No, the amount of cash at each node of the web may be different each time.", "Q3": "To get the highest total score.", "Q4": "Only before moving the spider.", "Q5": "3 seconds"}, "question_order": [0, 1, 2, 3, 4, 5], "correct": {"Q0": "The cost for clicking on nodes may vary between nodes.", "Q1": "The better I perform the higher my bonus will be.", "Q2": "No, the amount of cash at each node of the web may be different each time.", "Q3": "To get the highest total score.", "Q4": "Only before moving the spider.", "Q5": "3 seconds"}, "trial_id": "mouselab_quiz_control", "trial_type": "survey-multi-choice", "trial_index": 6, "time_elapsed": 531241, "internal_node_id": "0.0-2.0-4.0"}}, {"uniqueid": "w88618920:a94270546", "current_trial": 7, "dateTime": 1693582859765, "trialdata": {"rt": 7468, "response": {"Q0": "No"}, "question_order": [0], "trial_id": "repeat_check", "trial_type": "survey-multi-choice", "trial_index": 7, "time_elapsed": 538723, "internal_node_id": "0.0-4.0-0.0"}}, {"uniqueid": "w88618920:a94270546", "current_trial": 8, "dateTime": 1693582970384, "trialdata": {"rt": 110608, "stimulus": "\n<h1> Get ready to start the game! </h1>\n\nThank you for reading the instructions. Get ready start with the 40 rounds of this game.\n<br><br>\nIf you need to take a break, feel free to take one after the end of a round, before continuing to the next one.\n<br><br>\nRemember, the more money the spider gets, the bigger your bonus will be!\n<br><br>\n<div style='text-align: center;'>Press <code>space</code> to begin.</div>\n\n<br><br>\n(If, at any point, the <code>space</code> key does not take you to the next page, click once on the text and try again.)", "response": " ", "trial_id": "mdp_ready", "trial_type": "html-keyboard-response", "trial_index": 8, "time_elapsed": 649343, "internal_node_id": "0.0-6.0-0.0"}}, {"uniqueid": "w88618920:a94270546", "current_trial": 9, "dateTime": 1693583005422, "trialdata": {"revealed_states": [], "clicked_states": ["3", "8", "1", "15", "19", "13", "12", "21"], "num_clicks_accrued": [0, 0, 0, 0, 0, 0, 0, 0, 0, 0, 0, 0, 0], "stateRewards": ["", 1, 2, -3, 6, -88, 74, -45, 7, -46, 40, -77, 1, -4, 4, 3, 22, -25, -59, 8, -83, 19, -60, -1, -1, -1, -8, 26, -29, 64, -7, -88, -51, -55], "withholdReward": false, "trial_id": "mdp_trial_1", "block": "test", "trialIndex": 2, "score": 16.799999999999997, "costs": -11.200000000000001, "simulationMode": [null, null, null, null, null], "rewards": [1, -4, 4, 8, 19], "path": ["0", "0", "12", "13", "14", "19", "21"], "rt": [26427, 437, 244, 298, 340], "actions": ["right", "right", "right", "down", "down"], "actionTimes": [28945, 29899, 30656, 31480, 32333], "queries": {"click": {"state": {"target": ["3", "8", "1", "15", "19", "13", "12", "21"], "time": [4434, 6909, 9286, 12535, 16013, 19231, 21731, 24022]}, "edge": {"target": [], "time": []}}, "mouseover": {"state": {"target": ["1", "2", "3", "8", "8", "2", "1", "12", "13", "15", "14", "19", "19", "19", "22", "13", "13", "12", "12", "22", "21", "22", "19", "20", "12", "0"], "time": [3482, 3882, 4031, 6129, 6447, 7616, 8133, 9915, 11613, 12013, 12932, 12964, 14644, 15211, 16498, 18627, 18943, 19546, 21427, 22283, 23229, 24812, 24863, 25246, 26692, 27109]}, "edge": {"target": [], "time": []}}, "mouseout": {"state": {"target": ["1", "2", "3", "8", "8", "3", "2", "1", "12", "13", "15", "14", "19", "19", "19", "22", "13", "13", "12", "12", "12", "22", "21", "22", "19", "20", "12"], "time": [3632, 3915, 5867, 6214, 7433, 7584, 7682, 9865, 9965, 11896, 12914, 12948, 12998, 14695, 16481, 16531, 18694, 19512, 19579, 21856, 22229, 22315, 24312, 24828, 24895, 26276, 26726]}, "edge": {"target": [], "time": []}}}, "displayed_time": "32.85", "trialTime": 34571, "trial_type": "mouselab-mdp", "trial_index": 9, "time_elapsed": 684380, "internal_node_id": "0.0-6.0-1.0-0.0"}}, {"uniqueid": "w88618920:a94270546", "current_trial": 10, "dateTime": 1693583038610, "trialdata": {"revealed_states": [], "clicked_states": ["2", "8", "9", "5", "7", "14", "20", "21", "13", "12"], "num_clicks_accrued": [0, 0, 0, 0, 0, 0, 0, 0, 0, 0, 0, 0, 0], "stateRewards": ["", 2, 4, 7, -6, -76, -81, 2, 5, -66, -3, 36, -2, -4, 6, -2, -69, 4, -49, -6, 67, 38, -67, 2, 1, 1, 6, -68, -21, 52, -16, -16, 6, -70], "withholdReward": false, "trial_id": "mdp_trial_2", "block": "test", "trialIndex": 3, "score": 47, "costs": -14.000000000000002, "simulationMode": [null, null, null, null, null], "rewards": [-2, -4, 6, -6, 67], "path": ["0", "0", "12", "13", "14", "19", "20"], "rt": [26331, 156, 45, 76, 150], "actions": ["right", "right", "right", "down", "right"], "actionTimes": [28296, 28962, 29517, 30130, 30788], "queries": {"click": {"state": {"target": ["2", "8", "9", "5", "7", "14", "20", "21", "13", "12"], "time": [4083, 6211, 8712, 11410, 13759, 16396, 18527, 20855, 23661, 26263]}, "edge": {"target": [], "time": []}}, "mouseover": {"state": {"target": ["1", "2", "3", "2", "8", "8", "8", "9", "9", "5", "7", "15", "14", "19", "20", "21", "22", "12", "13", "22", "12"], "time": [2576, 2641, 3124, 3791, 4678, 5095, 5429, 7547, 8389, 10058, 13371, 14462, 15887, 16891, 17523, 18989, 21324, 21373, 22041, 24308, 25869]}, "edge": {"target": [], "time": []}}, "mouseout": {"state": {"target": ["0", "1", "2", "3", "2", "8", "8", "8", "9", "9", "8", "5", "7", "15", "14", "19", "20", "21", "22", "12", "13", "22", "12"], "time": [2474, 2625, 3040, 3458, 4207, 4745, 5114, 6339, 8289, 9126, 9259, 11857, 14340, 15821, 16823, 17423, 18822, 20987, 21342, 21989, 24293, 24339, 26505]}, "edge": {"target": [], "time": []}}}, "displayed_time": "31.30", "trialTime": 32795, "trial_type": "mouselab-mdp", "trial_index": 10, "time_elapsed": 717569, "internal_node_id": "0.0-6.0-1.0-1.0"}}, {"uniqueid": "w88618920:a94270546", "current_trial": 11, "dateTime": 1693583060094, "trialdata": {"revealed_states": [], "clicked_states": ["27", "25", "33", "32", "24"], "num_clicks_accrued": [0, 0, 0, 0, 0, 0, 0, 0, 0, 0, 0, 0, 0], "stateRewards": ["", -2, -1, -1, 5, -54, -87, 35, 2, -8, 20, -22, 1, 3, 6, 13, -75, -32, -55, -3, 56, 62, -22, -1, -4, -1, -7, -51, 84, 70, 7, -15, 5, 55], "withholdReward": false, "trial_id": "mdp_trial_3", "block": "test", "trialIndex": 4, "score": 49, "costs": -7, "simulationMode": [null, null, null, null, null], "rewards": [-1, -4, -1, 7, 55], "path": ["0", "0", "23", "24", "25", "30", "33"], "rt": [13985, 3, 51, 43, 703], "actions": ["left", "left", "left", "down", "left"], "actionTimes": [16147, 16660, 17240, 17815, 19041], "queries": {"click": {"state": {"target": ["27", "25", "33", "32", "24"], "time": [3606, 6172, 8383, 10550, 12870]}, "edge": {"target": [], "time": []}}, "mouseover": {"state": {"target": ["24", "25", "26", "27", "26", "25", "33", "32", "31", "24"], "time": [2639, 2989, 3023, 3339, 4128, 4894, 6791, 9073, 10914, 12471]}, "edge": {"target": [], "time": []}}, "mouseout": {"state": {"target": ["0", "24", "25", "26", "27", "26", "25", "25", "33", "32", "31", "24", "24"], "time": [2589, 2656, 3006, 3089, 4042, 4328, 6298, 6692, 8790, 10677, 12454, 12997, 13455]}, "edge": {"target": [], "time": []}}}, "displayed_time": "19.56", "trialTime": 21084, "trial_type": "mouselab-mdp", "trial_index": 11, "time_elapsed": 739053, "internal_node_id": "0.0-6.0-1.0-2.0"}}, {"uniqueid": "w88618920:a94270546", "current_trial": 12, "dateTime": 1693583086948, "trialdata": {"revealed_states": [], "clicked_states": ["4", "8", "9", "7", "6", "2", "1", "3"], "num_clicks_accrued": [0, 0, 0, 0, 0, 0, 0, 0, 0, 0, 0, 0, 0], "stateRewards": ["", -2, -3, -5, 8, 27, 11, 43, -6, -24, -87, 69, -2, 1, 1, 9, 19, 48, -37, 9, -14, 45, 62, 1, 2, 1, 16, -81, -41, 22, 4, -6, -63, 47], "withholdReward": false, "trial_id": "mdp_trial_4", "block": "test", "trialIndex": 5, "score": 29.799999999999997, "costs": -11.200000000000001, "simulationMode": [null, null, null, null, null], "rewards": [-2, -3, -5, 8, 43], "path": ["0", "0", "1", "2", "3", "4", "7"], "rt": [19215, 48, 2, 661, 177], "actions": ["up", "up", "up", "right", "down"], "actionTimes": [21356, 21921, 22441, 23635, 24334], "queries": {"click": {"state": {"target": ["4", "8", "9", "7", "6", "2", "1", "3"], "time": [3411, 5513, 7616, 9811, 12093, 14761, 17246, 19473]}, "edge": {"target": [], "time": []}}, "mouseover": {"state": {"target": ["3", "4", "5", "5", "8", "9", "11", "10", "7", "6", "2", "1", "3"], "time": [2625, 3108, 4059, 4479, 4792, 6242, 8025, 8276, 8742, 10292, 12808, 16837, 17613]}, "edge": {"target": [], "time": []}}, "mouseout": {"state": {"target": ["12", "3", "4", "5", "5", "8", "9", "11", "10", "7", "6", "7", "2", "2", "1", "2", "3"], "time": [1358, 2908, 3535, 4126, 4510, 5959, 7976, 8209, 8642, 10108, 12607, 12757, 14888, 16605, 17379, 17574, 19597]}, "edge": {"target": [], "time": []}}}, "displayed_time": "24.86", "trialTime": 26462, "trial_type": "mouselab-mdp", "trial_index": 12, "time_elapsed": 765906, "internal_node_id": "0.0-6.0-1.0-3.0"}}, {"uniqueid": "w88618920:a94270546", "current_trial": 13, "dateTime": 1693583116967, "trialdata": {"revealed_states": [], "clicked_states": ["25", "30", "32", "20", "19", "21", "22", "13", "12", "14"], "num_clicks_accrued": [0, 0, 0, 0, 0, 0, 0, 0, 0, 0, 0, 0, 0], "stateRewards": ["", -1, 2, -2, 13, -56, -28, 10, 14, 53, -80, -29, 1, -3, -3, -14, 14, 9, -40, -9, 18, 18, 48, 1, 1, 1, -9, 64, -39, -9, 7, -52, -78, 7], "withholdReward": false, "trial_id": "mdp_trial_5", "block": "test", "trialIndex": 6, "score": 20, "costs": -14.000000000000002, "simulationMode": [null, null, null, null, null], "rewards": [1, -3, -3, -9, 48], "path": ["0", "0", "12", "13", "14", "19", "22"], "rt": [23384, 21, 24, 90, 151], "actions": ["right", "right", "right", "down", "left"], "actionTimes": [25905, 26442, 26980, 27594, 28256], "queries": {"click": {"state": {"target": ["25", "30", "32", "20", "19", "21", "22", "13", "12", "14"], "time": [3611, 5555, 7671, 10273, 12677, 14765, 16862, 19863, 22014, 24023]}, "edge": {"target": [], "time": []}}, "mouseover": {"state": {"target": ["0", "25", "30", "32", "20", "20", "19", "20", "21", "19", "13", "21", "22", "13", "12", "14"], "time": [2958, 3273, 4061, 6109, 8042, 8443, 9639, 9939, 10708, 12305, 13091, 13973, 15244, 17273, 20739, 22522]}, "edge": {"target": [], "time": []}}, "mouseout": {"state": {"target": ["17", "0", "0", "25", "30", "32", "20", "20", "19", "20", "21", "19", "13", "21", "22", "13", "12", "14"], "time": [1491, 1857, 2975, 3992, 5976, 7959, 8059, 8992, 9905, 10675, 12288, 13024, 13891, 14896, 17222, 20338, 22144, 24156]}, "edge": {"target": [], "time": []}}}, "displayed_time": "28.77", "trialTime": 29604, "trial_type": "mouselab-mdp", "trial_index": 13, "time_elapsed": 795925, "internal_node_id": "0.0-6.0-1.0-4.0"}}, {"uniqueid": "w88618920:a94270546", "current_trial": 14, "dateTime": 1693583150054, "trialdata": {"revealed_states": [], "clicked_states": ["25", "14", "16", "13", "21", "20", "12", "19"], "num_clicks_accrued": [0, 0, 0, 0, 0, 0, 0, 0, 0, 0, 0, 0, 0], "stateRewards": ["", 2, 1, -3, 7, 46, 11, -36, 16, 71, 5, 1, 2, -2, -8, -3, -4, 6, 55, 7, 68, -54, 2, 1, 1, 6, -6, 42, -4, -84, -11, -65, 63, 25], "withholdReward": false, "trial_id": "mdp_trial_6", "block": "test", "trialIndex": 7, "score": 55.8, "costs": -11.200000000000001, "simulationMode": [null, null, null, null, null], "rewards": [2, -2, -8, 7, 68], "path": ["0", "0", "12", "13", "14", "19", "20"], "rt": [22910, 333, 60, 141, 231], "actions": ["right", "right", "right", "down", "right"], "actionTimes": [26351, 27198, 27774, 28437, 29179], "queries": {"click": {"state": {"target": ["25", "14", "16", "13", "21", "20", "12", "19"], "time": [4776, 7094, 10785, 13340, 15850, 17948, 21455, 24444]}, "edge": {"target": [], "time": []}}, "mouseover": {"state": {"target": ["23", "24", "25", "25", "24", "13", "14", "24", "15", "16", "15", "19", "21", "22", "13", "19", "21", "20", "19", "22", "13", "12", "19", "20"], "time": [4005, 4037, 4099, 4432, 5204, 5656, 5703, 9664, 9997, 10315, 11200, 11233, 11766, 12714, 12780, 13783, 13933, 16281, 18364, 18432, 20463, 20995, 23995, 24764]}, "edge": {"target": [], "time": []}}, "mouseout": {"state": {"target": ["0", "23", "24", "25", "25", "24", "13", "14", "24", "15", "16", "15", "19", "21", "22", "13", "19", "21", "20", "20", "19", "22", "13", "12", "19", "20"], "time": [3997, 4033, 4066, 4150, 5186, 5219, 5670, 9231, 9682, 10016, 11184, 11217, 11250, 12663, 12731, 13667, 13849, 16231, 18072, 18348, 18398, 20261, 20512, 21747, 24747, 24780]}, "edge": {"target": [], "time": []}}}, "displayed_time": "29.70", "trialTime": 32674, "trial_type": "mouselab-mdp", "trial_index": 14, "time_elapsed": 829012, "internal_node_id": "0.0-6.0-1.0-5.0"}}, {"uniqueid": "w88618920:a94270546", "current_trial": 15, "dateTime": 1693583283852, "trialdata": {"revealed_states": [], "clicked_states": ["25", "32", "23"], "num_clicks_accrued": [0, 0, 0, 0, 0, 0, 0, 0, 0, 0, 0, 0, 0], "stateRewards": ["", 1, 2, -5, 14, 54, -14, -25, 16, -5, -87, 78, -1, 1, 3, -3, 52, 53, 53, -10, 73, -69, -48, 2, 3, 1, 8, -62, -7, 85, 7, 82, 52, -28], "withholdReward": false, "trial_id": "mdp_trial_7", "block": "test", "trialIndex": 8, "score": 60.8, "costs": -4.199999999999999, "simulationMode": [null, null, null, null, null], "rewards": [2, 3, 1, 7, 52], "path": ["0", "0", "23", "24", "25", "30", "32"], "rt": [8763, 99, 31, 57, 86], "actions": ["left", "left", "left", "down", "down"], "actionTimes": [16997, 17608, 18154, 18746, 19344], "queries": {"click": {"state": {"target": ["25", "32", "23"], "time": [9630, 11717, 15061]}, "edge": {"target": [], "time": []}}, "mouseover": {"state": {"target": ["23", "25", "30", "32", "22", "19", "12", "0", "23", "23"], "time": [8973, 9256, 10043, 10176, 12258, 12277, 13837, 13859, 13906, 14588]}, "edge": {"target": [], "time": []}}, "mouseout": {"state": {"target": ["19", "22", "12", "0", "23", "25", "25", "30", "32", "22", "19", "12", "0", "23", "23"], "time": [541, 557, 857, 8956, 8989, 9757, 10026, 10111, 12157, 12274, 13771, 13856, 13888, 13923, 15374]}, "edge": {"target": [], "time": []}}}, "displayed_time": "22.24", "trialTime": 133388, "trial_type": "mouselab-mdp", "trial_index": 15, "time_elapsed": 962810, "internal_node_id": "0.0-6.0-1.0-6.0"}}, {"uniqueid": "w88618920:a94270546", "current_trial": 16, "dateTime": 1693583303185, "trialdata": {"revealed_states": [], "clicked_states": ["15", "17", "20", "13", "14"], "num_clicks_accrued": [0, 0, 0, 0, 0, 0, 0, 0, 0, 0, 0, 0, 0], "stateRewards": ["", -1, 4, 3, 12, -27, 34, -33, 3, -63, 1, 6, 2, 2, -6, -11, -77, -85, 68, -6, 51, 81, -60, -2, -2, 1, 15, 20, 15, 68, -10, -14, 6, -4], "withholdReward": false, "trial_id": "mdp_trial_8", "block": "test", "trialIndex": 9, "score": 36, "costs": -7, "simulationMode": [null, null, null, null, null], "rewards": [2, 2, -6, -6, 51], "path": ["0", "0", "12", "13", "14", "19", "20"], "rt": [12795, 2, 2, 82, 71], "actions": ["right", "right", "right", "down", "right"], "actionTimes": [15249, 15766, 16299, 16913, 17500], "queries": {"click": {"state": {"target": ["15", "17", "20", "13", "14"], "time": [3782, 6005, 8260, 10898, 13021]}, "edge": {"target": [], "time": []}}, "mouseover": {"state": {"target": ["12", "18", "15", "17", "14", "19", "20", "22", "13", "13", "14"], "time": [2963, 3114, 3330, 5311, 6781, 6914, 7314, 9097, 10128, 10644, 11713]}, "edge": {"target": [], "time": []}}, "mouseout": {"state": {"target": ["23", "24", "23", "0", "12", "0", "12", "18", "15", "17", "14", "19", "20", "22", "13", "13", "14"], "time": [863, 1107, 1129, 1146, 1462, 2933, 2979, 3212, 5098, 6714, 6880, 7030, 8631, 10095, 10244, 11023, 13151]}, "edge": {"target": [], "time": []}}}, "displayed_time": "18.01", "trialTime": 18827, "trial_type": "mouselab-mdp", "trial_index": 16, "time_elapsed": 982144, "internal_node_id": "0.0-6.0-1.0-7.0"}}, {"uniqueid": "w88618920:a94270546", "current_trial": 17, "dateTime": 1693583322325, "trialdata": {"revealed_states": [], "clicked_states": ["32", "25", "23", "24", "30"], "num_clicks_accrued": [0, 0, 0, 0, 0, 0, 0, 0, 0, 0, 0, 0, 0], "stateRewards": ["", 1, 1, -2, 7, -31, -6, 76, 1, -36, -16, -53, 2, 1, 7, 13, -47, -10, 47, -7, 72, 46, -56, -2, -2, -2, 11, -80, 44, 38, 16, 67, 85, -78], "withholdReward": false, "trial_id": "mdp_trial_9", "block": "test", "trialIndex": 10, "score": 88, "costs": -7, "simulationMode": [null, null, null, null, null], "rewards": [-2, -2, -2, 16, 85], "path": ["0", "0", "23", "24", "25", "30", "32"], "rt": [12669, 499, 87, 94, 89], "actions": ["left", "left", "left", "down", "down"], "actionTimes": [14611, 15621, 16224, 16833, 17443], "queries": {"click": {"state": {"target": ["32", "25", "23", "24", "30"], "time": [3615, 6573, 8616, 10603, 12662]}, "edge": {"target": [], "time": []}}, "mouseover": {"state": {"target": ["23", "24", "30", "32", "30", "32", "30", "25", "24", "23", "24", "30", "30", "31"], "time": [2288, 2321, 2404, 2554, 2870, 3220, 4540, 6103, 7171, 7855, 9238, 11187, 11470, 13087]}, "edge": {"target": [], "time": []}}, "mouseout": {"state": {"target": ["13", "0", "23", "24", "30", "32", "30", "32", "30", "25", "24", "23", "24", "30", "30", "31"], "time": [720, 1287, 2305, 2371, 2421, 2769, 3104, 4477, 4742, 6698, 7722, 9021, 11136, 11288, 13071, 13121]}, "edge": {"target": [], "time": []}}}, "displayed_time": "17.95", "trialTime": 18678, "trial_type": "mouselab-mdp", "trial_index": 17, "time_elapsed": 1001283, "internal_node_id": "0.0-6.0-1.0-8.0"}}, {"uniqueid": "w88618920:a94270546", "current_trial": 18, "dateTime": 1693583340559, "trialdata": {"revealed_states": [], "clicked_states": ["19", "21", "14", "13", "12"], "num_clicks_accrued": [0, 0, 0, 0, 0, 0, 0, 0, 0, 0, 0, 0, 0], "stateRewards": ["", 1, -4, 6, -3, 40, 76, -51, 5, -24, -63, 44, -2, -2, 8, 1, 76, -85, -58, 10, 59, 20, 11, -2, 3, -3, 3, -82, -10, 54, -7, -57, -6, -32], "withholdReward": false, "trial_id": "mdp_trial_10", "block": "test", "trialIndex": 11, "score": 27, "costs": -7, "simulationMode": [null, null, null, null, null], "rewards": [-2, -2, 8, 10, 20], "path": ["0", "0", "12", "13", "14", "19", "21"], "rt": [12138, 467, 119, 47, 87], "actions": ["right", "right", "right", "down", "down"], "actionTimes": [13758, 14742, 15376, 15937, 16561], "queries": {"click": {"state": {"target": ["19", "21", "14", "13", "12"], "time": [2849, 4879, 7682, 9691, 11860]}, "edge": {"target": [], "time": []}}, "mouseover": {"state": {"target": ["12", "13", "19", "21", "13", "14", "13", "12", "22", "21", "20"], "time": [2075, 2141, 2524, 3726, 5892, 7306, 8174, 10240, 12307, 12690, 12807]}, "edge": {"target": [], "time": []}}, "mouseout": {"state": {"target": ["0", "12", "13", "19", "19", "21", "19", "13", "14", "13", "12", "22", "21", "20"], "time": [973, 2124, 2241, 2975, 3652, 5003, 5330, 6192, 8109, 9816, 12225, 12361, 12740, 12840]}, "edge": {"target": [], "time": []}}}, "displayed_time": "17.07", "trialTime": 17770, "trial_type": "mouselab-mdp", "trial_index": 18, "time_elapsed": 1019517, "internal_node_id": "0.0-6.0-1.0-9.0"}}, {"uniqueid": "w88618920:a94270546", "current_trial": 19, "dateTime": 1693583680678, "trialdata": {"revealed_states": [], "clicked_states": ["10", "3", "2", "8", "1"], "num_clicks_accrued": [0, 0, 0, 0, 0, 0, 0, 0, 0, 0, 0, 0, 0], "stateRewards": ["", 2, 3, 6, -5, -74, -53, 17, -12, 46, 44, 18, -2, 4, 1, -8, 22, -23, -49, 9, -45, 55, 81, 1, -1, -7, -16, -83, -71, -45, 2, 51, 82, 61], "withholdReward": false, "trial_id": "mdp_trial_11", "block": "test", "trialIndex": 12, "score": 36, "costs": -7, "simulationMode": [null, null, null, null, null], "rewards": [2, 3, 6, -12, 44], "path": ["0", "0", "1", "2", "3", "8", "10"], "rt": [14436, 414, 83, 337, 57], "actions": ["up", "up", "up", "left", "down"], "actionTimes": [16247, 17174, 17775, 18629, 19205], "queries": {"click": {"state": {"target": ["10", "3", "2", "8", "1"], "time": [3759, 6780, 8830, 11962, 14325]}, "edge": {"target": [], "time": []}}, "mouseover": {"state": {"target": ["1", "10", "3", "3", "2", "8", "1"], "time": [2393, 2727, 5875, 6242, 7444, 9250, 12793]}, "edge": {"target": [], "time": []}}, "mouseout": {"state": {"target": ["19", "0", "1", "10", "3", "3", "2", "8", "2", "1", "1", "0", "0"], "time": [460, 2327, 2443, 3884, 5942, 7378, 9161, 12409, 12593, 14451, 14777, 269315, 339170]}, "edge": {"target": [], "time": []}}}, "displayed_time": "19.72", "trialTime": 339696, "trial_type": "mouselab-mdp", "trial_index": 19, "time_elapsed": 1359636, "internal_node_id": "0.0-6.0-1.0-10.0"}}, {"uniqueid": "w88618920:a94270546", "current_trial": 20, "dateTime": 1693583698006, "trialdata": {"revealed_states": [], "clicked_states": ["14", "19", "20", "13"], "num_clicks_accrued": [0, 0, 0, 0, 0, 0, 0, 0, 0, 0, 0, 0, 0], "stateRewards": ["", 1, -3, -1, 9, -34, -40, 22, -7, 45, 53, -11, 2, 4, 5, 15, 21, 37, -49, -3, 80, -28, -34, 1, -3, 1, 1, -40, -6, -5, -16, -85, -86, 59], "withholdReward": false, "trial_id": "mdp_trial_12", "block": "test", "trialIndex": 13, "score": 82.4, "costs": -5.6, "simulationMode": [null, null, null, null, null], "rewards": [2, 4, 5, -3, 80], "path": ["0", "0", "12", "13", "14", "19", "20"], "rt": [9538, 31, 7, 40, 51], "actions": ["right", "right", "right", "down", "right"], "actionTimes": [11296, 11843, 12386, 12952, 13531], "queries": {"click": {"state": {"target": ["14", "19", "20", "13"], "time": [2997, 4750, 6917, 9411]}, "edge": {"target": [], "time": []}}, "mouseover": {"state": {"target": ["12", "15", "17", "14", "19", "20", "14", "13"], "time": [2213, 2246, 2266, 2578, 3350, 5365, 7536, 7747]}, "edge": {"target": [], "time": []}}, "mouseout": {"state": {"target": ["0", "12", "15", "17", "14", "19", "20", "14", "13", "20"], "time": [2195, 2229, 2263, 2295, 3300, 5264, 7380, 7583, 9729, 14859]}, "edge": {"target": [], "time": []}}}, "displayed_time": "15.76", "trialTime": 16767, "trial_type": "mouselab-mdp", "trial_index": 20, "time_elapsed": 1376964, "internal_node_id": "0.0-6.0-1.0-11.0"}}, {"uniqueid": "w88618920:a94270546", "current_trial": 21, "dateTime": 1693583725301, "trialdata": {"revealed_states": [], "clicked_states": ["25", "30", "32", "27", "9", "11", "3", "8", "2"], "num_clicks_accrued": [0, 0, 0, 0, 0, 0, 0, 0, 0, 0, 0, 0, 0], "stateRewards": ["", -2, 1, -7, -8, -37, -76, -87, 11, 30, -63, 80, -1, 4, 2, -1, 42, 17, 52, -3, -75, -80, -68, 2, -3, -5, -15, -48, 82, 24, -7, 5, -22, -71], "withholdReward": false, "trial_id": "mdp_trial_13", "block": "test", "trialIndex": 14, "score": 70.4, "costs": -12.600000000000001, "simulationMode": [null, null, null, null, null], "rewards": [-2, 1, -7, 11, 80], "path": ["0", "0", "1", "2", "3", "8", "11"], "rt": [20934, 51, 84, 33, 45], "actions": ["up", "up", "up", "left", "left"], "actionTimes": [22363, 22929, 23541, 24090, 24670], "queries": {"click": {"state": {"target": ["25", "30", "32", "27", "9", "11", "3", "8", "2"], "time": [2570, 4345, 6258, 8534, 11718, 14226, 16575, 18567, 20532]}, "edge": {"target": [], "time": []}}, "mouseover": {"state": {"target": ["23", "25", "25", "30", "30", "32", "33", "27", "26", "24", "8", "9", "11", "11", "9", "9", "11", "8", "3", "3", "2", "8", "2"], "time": [1860, 2043, 2328, 2896, 3163, 5195, 6745, 7926, 9120, 9143, 10592, 10641, 10876, 11075, 11125, 11503, 13923, 14660, 14710, 15176, 17293, 17674, 18926]}, "edge": {"target": [], "time": []}}, "mouseout": {"state": {"target": ["0", "23", "25", "25", "30", "30", "32", "33", "27", "26", "24", "8", "9", "11", "11", "9", "9", "9", "11", "8", "3", "3", "2", "8", "2", "17", "14"], "time": [1844, 1878, 2061, 2880, 2967, 4944, 6578, 6979, 9095, 9139, 9153, 10610, 10858, 10908, 11093, 11142, 11850, 13674, 14627, 14693, 14764, 17159, 17476, 18842, 20758, 25705, 25721]}, "edge": {"target": [], "time": []}}}, "displayed_time": "25.19", "trialTime": 26782, "trial_type": "mouselab-mdp", "trial_index": 21, "time_elapsed": 1404260, "internal_node_id": "0.0-6.0-1.0-12.0"}}, {"uniqueid": "w88618920:a94270546", "current_trial": 22, "dateTime": 1693583748351, "trialdata": {"revealed_states": [], "clicked_states": ["19", "20", "17", "14", "15", "13"], "num_clicks_accrued": [0, 0, 0, 0, 0, 0, 0, 0, 0, 0, 0, 0, 0], "stateRewards": ["", 2, -3, -2, 14, -4, 85, 46, 15, -28, 41, 31, -1, -1, -1, 5, 62, 79, 57, 12, -73, -64, 86, -1, 1, -3, -5, 68, 11, -32, 8, -80, -21, -56], "withholdReward": false, "trial_id": "mdp_trial_14", "block": "test", "trialIndex": 15, "score": 72.6, "costs": -8.4, "simulationMode": [null, null, null, null, null], "rewards": [-1, -1, -1, 5, 79], "path": ["0", "0", "12", "13", "14", "15", "17"], "rt": [16515, 22, 33, 83, 498], "actions": ["right", "right", "right", "up", "right"], "actionTimes": [18252, 18792, 19339, 19936, 20951], "queries": {"click": {"state": {"target": ["19", "20", "17", "14", "15", "13"], "time": [3420, 5477, 9291, 11902, 14503, 16454]}, "edge": {"target": [], "time": []}}, "mouseover": {"state": {"target": ["19", "20", "14", "6", "16", "13", "15", "17", "14", "13", "15", "13"], "time": [2905, 3995, 5973, 6038, 6556, 8119, 8353, 8971, 9907, 12641, 14151, 14936]}, "edge": {"target": [], "time": []}}, "mouseout": {"state": {"target": ["0", "0", "19", "20", "14", "6", "16", "13", "15", "17", "14", "13", "15", "13", "14"], "time": [770, 1749, 3826, 5939, 5995, 6425, 7969, 8252, 8619, 9808, 12538, 14068, 14804, 16704, 22118]}, "edge": {"target": [], "time": []}}}, "displayed_time": "21.47", "trialTime": 22532, "trial_type": "mouselab-mdp", "trial_index": 22, "time_elapsed": 1427309, "internal_node_id": "0.0-6.0-1.0-13.0"}}, {"uniqueid": "w88618920:a94270546", "current_trial": 23, "dateTime": 1693583773379, "trialdata": {"revealed_states": [], "clicked_states": ["8", "4", "17", "14", "13", "12", "15"], "num_clicks_accrued": [0, 0, 0, 0, 0, 0, 0, 0, 0, 0, 0, 0, 0], "stateRewards": ["", -1, -3, 4, -10, -5, 79, -87, -2, 53, 29, -20, -2, -1, -5, 10, 27, 86, 46, -16, -29, 40, 3, 2, 4, -1, -6, 37, 79, -29, 7, 86, -62, 29], "withholdReward": false, "trial_id": "mdp_trial_15", "block": "test", "trialIndex": 16, "score": 78.2, "costs": -9.8, "simulationMode": [null, null, null, null, null], "rewards": [-2, -1, -5, 10, 86], "path": ["0", "0", "12", "13", "14", "15", "17"], "rt": [17684, 42, 48, 47, 28], "actions": ["right", "right", "right", "up", "right"], "actionTimes": [20445, 20998, 21586, 22151, 22699], "queries": {"click": {"state": {"target": ["8", "4", "17", "14", "13", "12", "15"], "time": [4122, 6173, 9756, 12540, 14641, 16555, 18521]}, "edge": {"target": [], "time": []}}, "mouseover": {"state": {"target": ["11", "9", "8", "4", "4", "5", "5", "6", "16", "15", "15", "17", "14", "14", "13", "12", "15", "15"], "time": [3107, 3406, 3890, 4741, 5042, 6596, 6990, 8872, 8905, 8938, 9288, 9471, 11971, 12154, 13239, 15123, 16889, 17222]}, "edge": {"target": [], "time": []}}, "mouseout": {"state": {"target": ["22", "22", "0", "11", "9", "8", "4", "4", "5", "5", "6", "16", "15", "15", "17", "14", "14", "13", "12", "15", "15"], "time": [540, 1922, 3040, 3156, 3723, 4698, 4778, 6300, 6628, 8838, 8888, 8922, 8955, 9438, 11090, 12020, 13189, 15039, 16855, 17038, 18805]}, "edge": {"target": [], "time": []}}}, "displayed_time": "23.24", "trialTime": 24535, "trial_type": "mouselab-mdp", "trial_index": 23, "time_elapsed": 1452338, "internal_node_id": "0.0-6.0-1.0-14.0"}}, {"uniqueid": "w88618920:a94270546", "current_trial": 24, "dateTime": 1693583790953, "trialdata": {"revealed_states": [], "clicked_states": ["14", "19", "21", "13"], "num_clicks_accrued": [0, 0, 0, 0, 0, 0, 0, 0, 0, 0, 0, 0, 0], "stateRewards": ["", -2, -1, -3, -1, -78, -6, 2, -1, 22, -88, 32, 2, 2, -7, -8, -51, -17, 54, 2, -44, 54, 75, 2, -2, -8, -15, -29, 12, -67, 15, -1, -47, -47], "withholdReward": false, "trial_id": "mdp_trial_16", "block": "test", "trialIndex": 17, "score": 47.4, "costs": -5.6, "simulationMode": [null, null, null, null, null], "rewards": [2, 2, -7, 2, 54], "path": ["0", "0", "12", "13", "14", "19", "21"], "rt": [11566, 21, 2, 452, 100], "actions": ["right", "right", "right", "down", "down"], "actionTimes": [13086, 13630, 14153, 15135, 15761], "queries": {"click": {"state": {"target": ["14", "19", "21", "13"], "time": [3121, 5224, 8279, 11199]}, "edge": {"target": [], "time": []}}, "mouseover": {"state": {"target": ["15", "17", "14", "14", "19", "17", "16", "15", "21", "22", "13"], "time": [1555, 1578, 2516, 2816, 3655, 5738, 6118, 7618, 7865, 8984, 10798]}, "edge": {"target": [], "time": []}}, "mouseout": {"state": {"target": ["0", "15", "17", "14", "14", "19", "17", "16", "15", "14", "19", "21", "22", "13", "20"], "time": [1016, 1571, 2500, 2534, 3572, 5353, 5757, 7600, 7636, 7683, 7781, 8717, 10765, 11325, 16713]}, "edge": {"target": [], "time": []}}}, "displayed_time": "16.28", "trialTime": 17091, "trial_type": "mouselab-mdp", "trial_index": 24, "time_elapsed": 1469911, "internal_node_id": "0.0-6.0-1.0-15.0"}}, {"uniqueid": "w88618920:a94270546", "current_trial": 25, "dateTime": 1693583811788, "trialdata": {"revealed_states": [], "clicked_states": ["30", "27", "29", "32", "24", "25", "23"], "num_clicks_accrued": [0, 0, 0, 0, 0, 0, 0, 0, 0, 0, 0, 0, 0], "stateRewards": ["", 1, 4, 7, -16, -84, -6, -46, -12, -7, -49, -26, -1, 2, -4, 2, 22, 37, -64, 1, 88, -13, -10, 1, -4, -2, 5, 2, -10, -34, 9, 66, 55, 38], "withholdReward": false, "trial_id": "mdp_trial_17", "block": "test", "trialIndex": 18, "score": 49.2, "costs": -9.8, "simulationMode": [null, null, null, null, null], "rewards": [1, -4, -2, 9, 55], "path": ["0", "0", "23", "24", "25", "30", "32"], "rt": [15424, 27, 383, 44, 28], "actions": ["left", "left", "left", "down", "down"], "actionTimes": [16769, 17307, 18214, 18772, 19338], "queries": {"click": {"state": {"target": ["30", "27", "29", "32", "24", "25", "23"], "time": [2239, 4434, 6594, 9022, 11229, 13307, 14939]}, "edge": {"target": [], "time": []}}, "mouseover": {"state": {"target": ["23", "24", "30", "25", "26", "27", "26", "25", "29", "29", "33", "32", "24", "25", "23", "23"], "time": [1662, 1712, 1929, 3050, 3084, 3115, 4908, 5663, 5721, 6094, 7031, 7496, 9505, 12211, 13661, 14095]}, "edge": {"target": [], "time": []}}, "mouseout": {"state": {"target": ["0", "23", "24", "30", "25", "26", "27", "27", "26", "25", "29", "29", "33", "32", "24", "25", "23", "23"], "time": [1629, 1696, 1746, 3015, 3067, 3100, 4561, 4881, 4927, 5718, 5750, 6914, 7056, 9412, 12098, 13610, 13885, 15327]}, "edge": {"target": [], "time": []}}}, "displayed_time": "19.88", "trialTime": 20326, "trial_type": "mouselab-mdp", "trial_index": 25, "time_elapsed": 1490746, "internal_node_id": "0.0-6.0-1.0-16.0"}}, {"uniqueid": "w88618920:a94270546", "current_trial": 26, "dateTime": 1693583838265, "trialdata": {"revealed_states": [], "clicked_states": ["4", "8", "5", "6", "7", "17", "20", "19"], "num_clicks_accrued": [0, 0, 0, 0, 0, 0, 0, 0, 0, 0, 0, 0, 0], "stateRewards": ["", 1, -2, -3, 14, -42, -87, -37, -11, -50, 33, -44, -2, 4, -7, 13, 48, -75, -66, 12, 23, -2, 82, 1, -4, 3, 12, 51, -15, -26, -11, -52, -29, 82], "withholdReward": false, "trial_id": "mdp_trial_18", "block": "test", "trialIndex": 19, "score": 18.799999999999997, "costs": -11.200000000000001, "simulationMode": [null, null, null, null, null], "rewards": [-2, 4, -7, 12, 23], "path": ["0", "0", "12", "13", "14", "19", "20"], "rt": [20208, 483, 77, 42, 123], "actions": ["right", "right", "right", "down", "right"], "actionTimes": [21655, 22668, 23258, 23835, 24490], "queries": {"click": {"state": {"target": ["4", "8", "5", "6", "7", "17", "20", "19"], "time": [2383, 4608, 6720, 8720, 10750, 13341, 16252, 18839]}, "edge": {"target": [], "time": []}}, "mouseover": {"state": {"target": ["1", "7", "4", "3", "8", "5", "5", "4", "6", "6", "7", "18", "15", "17", "14", "14", "20", "19", "14", "14"], "time": [1779, 1863, 2129, 3183, 3398, 5135, 5497, 7452, 8064, 8294, 9913, 12714, 12830, 13095, 15447, 15679, 15908, 18432, 19433, 21342]}, "edge": {"target": [], "time": []}}, "mouseout": {"state": {"target": ["0", "1", "7", "4", "3", "8", "5", "5", "4", "6", "6", "7", "18", "15", "17", "14", "14", "20", "19", "14", "14", "22"], "time": [1746, 1813, 1879, 3167, 3236, 5064, 5203, 7347, 7564, 8097, 9280, 11295, 12764, 12877, 14001, 15511, 15754, 16800, 19365, 21192, 21361, 25623]}, "edge": {"target": [], "time": []}}}, "displayed_time": "25.02", "trialTime": 25992, "trial_type": "mouselab-mdp", "trial_index": 26, "time_elapsed": 1517224, "internal_node_id": "0.0-6.0-1.0-17.0"}}, {"uniqueid": "w88618920:a94270546", "current_trial": 27, "dateTime": 1693583861003, "trialdata": {"revealed_states": [], "clicked_states": ["25", "32", "27", "29", "26", "23", "24"], "num_clicks_accrued": [0, 0, 0, 0, 0, 0, 0, 0, 0, 0, 0, 0, 0], "stateRewards": ["", 2, 2, 3, -15, 23, -14, 73, -7, -32, -20, -6, 1, 1, -5, -12, 73, 6, -84, 11, -81, -57, 13, -2, -1, -4, -8, -52, -58, 49, 13, 5, -41, -41], "withholdReward": false, "trial_id": "mdp_trial_19", "block": "test", "trialIndex": 20, "score": 24.2, "costs": -9.8, "simulationMode": [null, null, null, null, null], "rewards": [-2, -1, -4, -8, 49], "path": ["0", "0", "23", "24", "25", "26", "29"], "rt": [16331, 10, 518, 72, 75], "actions": ["left", "left", "left", "up", "left"], "actionTimes": [18082, 18614, 19656, 20243, 20829], "queries": {"click": {"state": {"target": ["25", "32", "27", "29", "26", "23", "24"], "time": [3003, 4965, 7011, 9150, 12183, 14269, 16276]}, "edge": {"target": [], "time": []}}, "mouseover": {"state": {"target": ["24", "25", "31", "32", "26", "27", "29", "26", "28", "19", "14", "15", "17", "1", "28", "26", "26", "23", "24", "18"], "time": [2488, 2721, 3525, 4057, 5491, 5525, 8389, 9494, 9513, 9856, 9892, 9923, 10256, 11386, 11406, 11685, 11902, 12655, 14687, 16570]}, "edge": {"target": [], "time": []}}, "mouseout": {"state": {"target": ["0", "24", "25", "31", "32", "25", "26", "27", "29", "29", "26", "28", "19", "14", "15", "17", "1", "28", "26", "26", "23", "24", "18"], "time": [2238, 2688, 3475, 3543, 5099, 5476, 5507, 7944, 9278, 9492, 9508, 9529, 9888, 9906, 9940, 11352, 11402, 11420, 11719, 12488, 14604, 16537, 16588]}, "edge": {"target": [], "time": []}}}, "displayed_time": "21.35", "trialTime": 21930, "trial_type": "mouselab-mdp", "trial_index": 27, "time_elapsed": 1539961, "internal_node_id": "0.0-6.0-1.0-18.0"}}, {"uniqueid": "w88618920:a94270546", "current_trial": 28, "dateTime": 1693583877494, "trialdata": {"revealed_states": [], "clicked_states": ["5", "2"], "num_clicks_accrued": [0, 0, 0, 0, 0, 0, 0, 0, 0, 0, 0, 0, 0], "stateRewards": ["", -1, 3, -4, -14, 78, 67, 2, 13, -32, 28, 39, -2, 1, -4, -4, -4, -42, -86, 11, 64, -29, -32, -1, -4, 2, -7, 5, 68, -61, 2, -21, 85, 50], "withholdReward": false, "trial_id": "mdp_trial_20", "block": "test", "trialIndex": 21, "score": 59.2, "costs": -2.8, "simulationMode": [null, null, null, null, null], "rewards": [-1, 3, -4, -14, 78], "path": ["0", "0", "1", "2", "3", "4", "5"], "rt": [5614, 51, 20, 17, 31], "actions": ["up", "up", "up", "right", "up"], "actionTimes": [7025, 7592, 8143, 8675, 9237], "queries": {"click": {"state": {"target": ["5", "2"], "time": [2139, 5115]}, "edge": {"target": [], "time": []}}, "mouseover": {"state": {"target": ["4", "5", "6", "18", "18", "7", "2", "4"], "time": [1805, 1824, 2609, 2659, 4174, 4290, 4638, 5523]}, "edge": {"target": [], "time": []}}, "mouseout": {"state": {"target": ["15", "12", "0", "4", "5", "6", "18", "18", "7", "2", "4", "17", "14", "22"], "time": [488, 721, 1722, 1821, 2575, 2625, 2675, 4210, 4429, 5246, 5541, 10403, 10437, 10919]}, "edge": {"target": [], "time": []}}}, "displayed_time": "15.41", "trialTime": 15992, "trial_type": "mouselab-mdp", "trial_index": 28, "time_elapsed": 1556452, "internal_node_id": "0.0-6.0-1.0-19.0"}}, {"uniqueid": "w88618920:a94270546", "current_trial": 29, "dateTime": 1693583894849, "trialdata": {"revealed_states": [], "clicked_states": ["17", "21", "14"], "num_clicks_accrued": [0, 0, 0, 0, 0, 0, 0, 0, 0, 0, 0, 0, 0], "stateRewards": ["", -2, 3, -5, -7, 66, 43, -60, -4, -70, -75, 4, -1, 2, 2, -13, 54, 11, -40, -1, 77, 32, 15, -2, 3, -8, -9, -35, 83, -27, 6, -74, -34, 44], "withholdReward": false, "trial_id": "mdp_trial_21", "block": "test", "trialIndex": 22, "score": 29.8, "costs": -4.199999999999999, "simulationMode": [null, null, null, null, null], "rewards": [-1, 2, 2, -1, 32], "path": ["0", "0", "12", "13", "14", "19", "21"], "rt": [8000, 478, 86, 47, 19], "actions": ["right", "right", "right", "down", "down"], "actionTimes": [9631, 10628, 11233, 11795, 12350], "queries": {"click": {"state": {"target": ["17", "21", "14"], "time": [2472, 4915, 7640]}, "edge": {"target": [], "time": []}}, "mouseover": {"state": {"target": ["12", "17", "20", "21", "22", "14", "13"], "time": [1814, 2147, 2933, 4396, 6214, 7311, 9030]}, "edge": {"target": [], "time": []}}, "mouseout": {"state": {"target": ["0", "12", "17", "17", "20", "21", "22", "14", "13", "21"], "time": [1063, 1830, 2603, 2866, 2950, 5515, 7215, 8348, 9211, 13811]}, "edge": {"target": [], "time": []}}}, "displayed_time": "15.63", "trialTime": 16776, "trial_type": "mouselab-mdp", "trial_index": 29, "time_elapsed": 1573808, "internal_node_id": "0.0-6.0-1.0-20.0"}}, {"uniqueid": "w88618920:a94270546", "current_trial": 30, "dateTime": 1693583911480, "trialdata": {"revealed_states": [], "clicked_states": ["30", "31", "24"], "num_clicks_accrued": [0, 0, 0, 0, 0, 0, 0, 0, 0, 0, 0, 0, 0], "stateRewards": ["", 2, 4, 7, 7, -79, -2, -21, -5, -53, 47, -21, 1, -3, -1, 7, 83, 7, 84, -7, 80, -37, 69, 2, -4, 5, 2, 4, -20, -30, 7, 71, 44, -81], "withholdReward": false, "trial_id": "mdp_trial_22", "block": "test", "trialIndex": 23, "score": 76.8, "costs": -4.199999999999999, "simulationMode": [null, null, null, null, null], "rewards": [2, -4, 5, 7, 71], "path": ["0", "0", "23", "24", "25", "30", "31"], "rt": [7895, 31, 28, 28, 82], "actions": ["left", "left", "left", "down", "right"], "actionTimes": [9261, 9810, 10355, 10922, 11545], "queries": {"click": {"state": {"target": ["30", "31", "24"], "time": [2480, 4799, 7477]}, "edge": {"target": [], "time": []}}, "mouseover": {"state": {"target": ["23", "30", "30", "31", "24", "28", "25", "32", "33", "24", "23"], "time": [1843, 1894, 2177, 4475, 5304, 5464, 6012, 6144, 6592, 7058, 7786]}, "edge": {"target": [], "time": []}}, "mouseout": {"state": {"target": ["0", "23", "30", "30", "31", "24", "28", "25", "30", "32", "33", "30", "24", "23"], "time": [726, 1860, 1927, 4426, 5238, 5413, 5837, 6045, 6098, 6509, 6825, 6876, 7601, 7819]}, "edge": {"target": [], "time": []}}}, "displayed_time": "15.37", "trialTime": 16058, "trial_type": "mouselab-mdp", "trial_index": 30, "time_elapsed": 1590438, "internal_node_id": "0.0-6.0-1.0-21.0"}}, {"uniqueid": "w88618920:a94270546", "current_trial": 31, "dateTime": 1693583928253, "trialdata": {"revealed_states": [], "clicked_states": ["8", "11", "5", "3"], "num_clicks_accrued": [0, 0, 0, 0, 0, 0, 0, 0, 0, 0, 0, 0, 0], "stateRewards": ["", -1, -4, -1, -11, 43, 69, 39, 4, 17, -20, -82, -2, -1, 4, 8, -79, 24, -79, 11, 36, 64, 41, 2, 4, -1, 11, -79, -47, 75, -3, 63, -36, -19], "withholdReward": false, "trial_id": "mdp_trial_23", "block": "test", "trialIndex": 24, "score": 20.4, "costs": -5.6, "simulationMode": [null, null, null, null, null], "rewards": [-1, -4, -1, -11, 43], "path": ["0", "0", "1", "2", "3", "4", "5"], "rt": [11070, 37, 3, 52, 33], "actions": ["up", "up", "up", "right", "up"], "actionTimes": [12395, 12952, 13487, 14069, 14631], "queries": {"click": {"state": {"target": ["8", "11", "5", "3"], "time": [2322, 4947, 7652, 10434]}, "edge": {"target": [], "time": []}}, "mouseover": {"state": {"target": ["10", "8", "11", "2", "2", "3", "5", "4", "7", "4", "4", "3", "13"], "time": [1499, 1933, 4681, 5401, 7031, 7097, 7315, 8148, 9630, 9682, 9895, 10097, 10818]}, "edge": {"target": [], "time": []}}, "mouseout": {"state": {"target": ["0", "10", "8", "11", "2", "2", "3", "5", "4", "7", "4", "4", "3", "13"], "time": [398, 1517, 4315, 5350, 5436, 7066, 7181, 8114, 8183, 9663, 9730, 10049, 10769, 16013]}, "edge": {"target": [], "time": []}}}, "displayed_time": "15.33", "trialTime": 16224, "trial_type": "mouselab-mdp", "trial_index": 31, "time_elapsed": 1607211, "internal_node_id": "0.0-6.0-1.0-22.0"}}, {"uniqueid": "w88618920:a94270546", "current_trial": 32, "dateTime": 1693583945975, "trialdata": {"revealed_states": [], "clicked_states": ["15", "17", "13"], "num_clicks_accrued": [0, 0, 0, 0, 0, 0, 0, 0, 0, 0, 0, 0, 0], "stateRewards": ["", -2, -1, -2, -15, 87, 57, 29, -10, 77, -80, -7, 1, -3, 6, 14, -11, 87, -59, 4, -71, 16, -11, 2, 2, -7, 2, -47, 61, 50, 14, -20, 17, 81], "withholdReward": false, "trial_id": "mdp_trial_24", "block": "test", "trialIndex": 25, "score": 100.8, "costs": -4.199999999999999, "simulationMode": [null, null, null, null, null], "rewards": [1, -3, 6, 14, 87], "path": ["0", "0", "12", "13", "14", "15", "17"], "rt": [9109, 4, 537, 79, 33], "actions": ["right", "right", "right", "up", "right"], "actionTimes": [11444, 11956, 13022, 13614, 14166], "queries": {"click": {"state": {"target": ["15", "17", "13"], "time": [3508, 6656, 9603]}, "edge": {"target": [], "time": []}}, "mouseover": {"state": {"target": ["15", "14", "19", "17", "18", "13"], "time": [3150, 4454, 4538, 6300, 7785, 9065]}, "edge": {"target": [], "time": []}}, "mouseout": {"state": {"target": ["0", "0", "15", "15", "14", "19", "17", "15", "18", "13"], "time": [850, 2771, 3635, 4306, 4521, 5567, 7285, 7389, 8982, 15181]}, "edge": {"target": [], "time": []}}}, "displayed_time": "16.34", "trialTime": 17152, "trial_type": "mouselab-mdp", "trial_index": 32, "time_elapsed": 1624933, "internal_node_id": "0.0-6.0-1.0-23.0"}}, {"uniqueid": "w88618920:a94270546", "current_trial": 33, "dateTime": 1693583982043, "trialdata": {"revealed_states": [], "clicked_states": ["32", "27", "9", "5", "17", "18", "20", "21", "33", "25"], "num_clicks_accrued": [0, 0, 0, 0, 0, 0, 0, 0, 0, 0, 0, 0, 0], "stateRewards": ["", -1, 2, -6, 6, -82, -19, -39, -16, -83, 11, -33, -2, -2, 4, -6, -82, -1, -19, -6, -10, -67, -41, -2, 1, -7, 16, -23, -78, -52, 14, 31, -71, 74], "withholdReward": false, "trial_id": "mdp_trial_25", "block": "test", "trialIndex": 26, "score": 66, "costs": -14.000000000000002, "simulationMode": [null, null, null, null, null], "rewards": [-2, 1, -7, 14, 74], "path": ["0", "0", "23", "24", "25", "30", "33"], "rt": [23320, 6, 27, 44, 99], "actions": ["left", "left", "left", "down", "left"], "actionTimes": [24520, 25040, 25592, 26157, 26779], "queries": {"click": {"state": {"target": ["32", "27", "9", "5", "17", "18", "20", "21", "33", "25"], "time": [3323, 5426, 7470, 9500, 11567, 13638, 15655, 17684, 19757, 22646]}, "edge": {"target": [], "time": []}}, "mouseover": {"state": {"target": ["23", "24", "25", "31", "30", "30", "32", "31", "27", "8", "9", "5", "16", "15", "17", "18", "14", "20", "21", "24", "25", "33", "24", "25", "24", "23"], "time": [1499, 1550, 1750, 2732, 2782, 2916, 3033, 4132, 4368, 6036, 6401, 7870, 9918, 9958, 10320, 12583, 14069, 14483, 16382, 18168, 18202, 18581, 22178, 22395, 22914, 22935]}, "edge": {"target": [], "time": []}}, "mouseout": {"state": {"target": ["0", "23", "24", "25", "31", "30", "30", "32", "31", "27", "27", "8", "9", "5", "16", "15", "17", "18", "14", "20", "21", "24", "25", "33", "24", "25", "24", "23"], "time": [1483, 1533, 1583, 2382, 2766, 2800, 2966, 3784, 4164, 5559, 5984, 6353, 7800, 9850, 9935, 9970, 12083, 14018, 14165, 16088, 17813, 18197, 18515, 21728, 22278, 22773, 22931, 22951]}, "edge": {"target": [], "time": []}}}, "displayed_time": "27.30", "trialTime": 35490, "trial_type": "mouselab-mdp", "trial_index": 33, "time_elapsed": 1661001, "internal_node_id": "0.0-6.0-1.0-24.0"}}, {"uniqueid": "w88618920:a94270546", "current_trial": 34, "dateTime": 1693584014953, "trialdata": {"revealed_states": [], "clicked_states": ["17", "21", "32", "27", "25"], "num_clicks_accrued": [0, 0, 0, 0, 0, 0, 0, 0, 0, 0, 0, 0, 0], "stateRewards": ["", -2, -4, 6, 14, -34, 49, 36, -8, -3, 32, -4, 1, -2, 1, -8, -20, -71, -57, -7, -86, -62, -16, -2, -3, -5, 11, 23, -21, 53, 5, -5, 85, 73], "withholdReward": false, "trial_id": "mdp_trial_26", "block": "test", "trialIndex": 27, "score": 73, "costs": -7, "simulationMode": [null, null, null, null, null], "rewards": [-2, -3, -5, 5, 85], "path": ["0", "0", "23", "24", "25", "30", "32"], "rt": [11563, 54, 19, 9, 62], "actions": ["left", "left", "left", "down", "down"], "actionTimes": [13039, 13604, 14135, 14674, 15261], "queries": {"click": {"state": {"target": ["17", "21", "32", "27", "25"], "time": [2607, 5115, 7150, 9045, 11009]}, "edge": {"target": [], "time": []}}, "mouseover": {"state": {"target": ["18", "15", "17", "17", "20", "20", "21", "31", "32", "30", "25", "26", "27", "26", "25", "30", "25", "25"], "time": [1616, 1635, 1666, 2254, 3086, 3686, 4783, 5702, 6284, 7500, 7533, 7570, 7599, 9550, 9602, 9682, 10067, 10333]}, "edge": {"target": [], "time": []}}, "mouseout": {"state": {"target": ["12", "0", "18", "15", "17", "17", "20", "20", "21", "31", "32", "30", "25", "26", "27", "27", "26", "25", "30", "25", "25", "25"], "time": [631, 1582, 1632, 1650, 1699, 3021, 3335, 4698, 5609, 6000, 7482, 7517, 7566, 7584, 9173, 9533, 9583, 9638, 10049, 10133, 11140, 11300]}, "edge": {"target": [], "time": []}}}, "displayed_time": "15.78", "trialTime": 32358, "trial_type": "mouselab-mdp", "trial_index": 34, "time_elapsed": 1693912, "internal_node_id": "0.0-6.0-1.0-25.0"}}, {"uniqueid": "w88618920:a94270546", "current_trial": 35, "dateTime": 1693584037580, "trialdata": {"revealed_states": [], "clicked_states": ["17", "16", "21", "14"], "num_clicks_accrued": [0, 0, 0, 0, 0, 0, 0, 0, 0, 0, 0, 0, 0], "stateRewards": ["", -1, 2, -7, -12, -62, 12, -13, 5, 77, -71, 83, 1, -4, 7, 15, -42, -87, -4, 5, -25, 44, 88, -1, 4, -5, -8, 14, 51, 8, -5, 83, -24, -19], "withholdReward": false, "trial_id": "mdp_trial_27", "block": "test", "trialIndex": 28, "score": 47.4, "costs": -5.6, "simulationMode": [null, null, null, null, null], "rewards": [1, -4, 7, 5, 44], "path": ["0", "0", "12", "13", "14", "19", "21"], "rt": [10900, 73, 88, 58, 63], "actions": ["right", "right", "right", "down", "down"], "actionTimes": [12957, 13548, 14146, 14717, 15303], "queries": {"click": {"state": {"target": ["17", "16", "21", "14"], "time": [3339, 5802, 8144, 11017]}, "edge": {"target": [], "time": []}}, "mouseover": {"state": {"target": ["0", "12", "13", "14", "17", "16", "15", "21", "22", "22", "14"], "time": [2510, 2528, 2559, 2578, 3007, 4973, 6226, 6709, 8762, 9075, 10688]}, "edge": {"target": [], "time": []}}, "mouseout": {"state": {"target": ["0", "0", "12", "13", "14", "17", "16", "15", "21", "22", "22", "14"], "time": [1424, 2525, 2543, 2574, 2623, 4794, 6209, 6259, 8715, 8829, 10505, 11324]}, "edge": {"target": [], "time": []}}}, "displayed_time": "16.06", "trialTime": 22036, "trial_type": "mouselab-mdp", "trial_index": 35, "time_elapsed": 1716539, "internal_node_id": "0.0-6.0-1.0-26.0"}}, {"uniqueid": "w88618920:a94270546", "current_trial": 36, "dateTime": 1693584072986, "trialdata": {"revealed_states": [], "clicked_states": ["14", "17", "20"], "num_clicks_accrued": [0, 0, 0, 0, 0, 0, 0, 0, 0, 0, 0, 0, 0], "stateRewards": ["", -1, 2, 6, 11, 21, -21, -21, -6, 48, -71, 88, -1, -3, 3, 7, 64, 2, 9, -4, 37, -67, 72, 2, 2, -8, -8, -10, 71, -40, -3, 73, 80, 47], "withholdReward": false, "trial_id": "mdp_trial_28", "block": "test", "trialIndex": 29, "score": 27.8, "costs": -4.199999999999999, "simulationMode": [null, null, null, null, null], "rewards": [-1, -3, 3, -4, 37], "path": ["0", "0", "12", "13", "14", "19", "20"], "rt": [11165, 68, 31, 24, 135], "actions": ["right", "right", "right", "down", "right"], "actionTimes": [12874, 13461, 14003, 14556, 15207], "queries": {"click": {"state": {"target": ["14", "17", "20"], "time": [3533, 5699, 8796]}, "edge": {"target": [], "time": []}}, "mouseover": {"state": {"target": ["0", "12", "14", "17", "15", "13", "14", "17", "20", "26", "25", "23", "12", "13", "14"], "time": [2022, 2206, 2256, 2622, 2740, 3105, 3238, 4009, 8338, 9507, 9839, 11053, 11087, 11107, 11769]}, "edge": {"target": [], "time": []}}, "mouseout": {"state": {"target": ["13", "12", "0", "12", "14", "17", "15", "13", "14", "17", "20", "26", "25", "23", "12", "13", "14"], "time": [689, 705, 2172, 2222, 2322, 2722, 2839, 3188, 3875, 7870, 9124, 9542, 11036, 11069, 11103, 11121, 12235]}, "edge": {"target": [], "time": []}}}, "displayed_time": "15.72", "trialTime": 34828, "trial_type": "mouselab-mdp", "trial_index": 36, "time_elapsed": 1751944, "internal_node_id": "0.0-6.0-1.0-27.0"}}, {"uniqueid": "w88618920:a94270546", "current_trial": 37, "dateTime": 1693584094562, "trialdata": {"revealed_states": [], "clicked_states": [], "num_clicks_accrued": [0, 0, 0, 0, 0, 0, 0, 0, 0, 0, 0, 0, 0], "stateRewards": ["", -2, 2, -4, -4, -59, 88, 62, -3, 69, -15, -34, 1, -2, -5, 7, -54, -20, 78, -16, -74, -53, -21, 2, -4, 2, 13, -8, -44, 26, 9, 72, 4, 17], "withholdReward": false, "trial_id": "mdp_trial_29", "block": "test", "trialIndex": 30, "score": -19, "costs": 0, "simulationMode": [null, null, null, null, null], "rewards": [1, -2, -5, 7, -20], "path": ["0", "0", "12", "13", "14", "15", "17"], "rt": [8591, 49, 593, 39, 6], "actions": ["right", "right", "right", "up", "right"], "actionTimes": [13826, 14387, 15513, 16075, 16609], "queries": {"click": {"state": {"target": [], "time": []}, "edge": {"target": [], "time": []}}, "mouseover": {"state": {"target": ["12", "2", "4", "0", "14", "17"], "time": [5902, 8768, 9135, 10851, 12551, 12684]}, "edge": {"target": [], "time": []}}, "mouseout": {"state": {"target": ["14", "13", "0", "12", "2", "4", "0", "14", "17", "19"], "time": [4118, 4135, 4401, 8709, 8834, 10784, 10868, 12601, 13601, 20366]}, "edge": {"target": [], "time": []}}}, "displayed_time": "19.23", "trialTime": 21011, "trial_type": "mouselab-mdp", "trial_index": 37, "time_elapsed": 1773520, "internal_node_id": "0.0-6.0-1.0-28.0"}}, {"uniqueid": "w88618920:a94270546", "current_trial": 38, "dateTime": 1693584111527, "trialdata": {"revealed_states": [], "clicked_states": ["25", "30", "32"], "num_clicks_accrued": [0, 0, 0, 0, 0, 0, 0, 0, 0, 0, 0, 0, 0], "stateRewards": ["", 1, 1, 1, -3, -7, -1, -41, -10, 20, -72, -63, 1, -4, -2, 2, -66, 30, -84, -2, 49, 23, 71, -1, -4, 4, -12, 67, 5, 18, -16, 88, 56, -5], "withholdReward": false, "trial_id": "mdp_trial_30", "block": "test", "trialIndex": 31, "score": 34.8, "costs": -4.199999999999999, "simulationMode": [null, null, null, null, null], "rewards": [-1, -4, 4, -16, 56], "path": ["0", "0", "23", "24", "25", "30", "32"], "rt": [8157, 91, 63, 16, 18], "actions": ["left", "left", "left", "down", "down"], "actionTimes": [9513, 10123, 10696, 11248, 11782], "queries": {"click": {"state": {"target": ["25", "30", "32"], "time": [2338, 4142, 6121]}, "edge": {"target": [], "time": []}}, "mouseover": {"state": {"target": ["23", "24", "25", "30", "32", "26", "27", "26"], "time": [1748, 1771, 1817, 3135, 4549, 6744, 7066, 8413]}, "edge": {"target": [], "time": []}}, "mouseout": {"state": {"target": ["22", "0", "23", "24", "25", "30", "32", "30", "26", "27", "26", "24"], "time": [114, 1731, 1766, 1800, 3068, 4499, 6633, 6705, 6767, 8379, 8496, 15861]}, "edge": {"target": [], "time": []}}}, "displayed_time": "15.36", "trialTime": 16259, "trial_type": "mouselab-mdp", "trial_index": 38, "time_elapsed": 1790486, "internal_node_id": "0.0-6.0-1.0-29.0"}}, {"uniqueid": "w88618920:a94270546", "current_trial": 39, "dateTime": 1693584128385, "trialdata": {"revealed_states": [], "clicked_states": [], "num_clicks_accrued": [0, 0, 0, 0, 0, 0, 0, 0, 0, 0, 0, 0, 0], "stateRewards": ["", 2, 3, -2, -8, -8, -41, 74, 15, -23, -80, 1, 1, 3, 3, -15, -63, -78, 67, 13, 75, -41, 86, 2, -2, 6, -3, -8, -49, 50, -6, 83, 74, 80], "withholdReward": false, "trial_id": "mdp_trial_31", "block": "test", "trialIndex": 32, "score": 95, "costs": 0, "simulationMode": [null, null, null, null, null], "rewards": [1, 3, 3, 13, 75], "path": ["0", "0", "12", "13", "14", "19", "20"], "rt": [6399, 171, 37, 49, 108], "actions": ["right", "right", "right", "down", "right"], "actionTimes": [7895, 8586, 9137, 9699, 10341], "queries": {"click": {"state": {"target": [], "time": []}, "edge": {"target": [], "time": []}}, "mouseover": {"state": {"target": ["1", "2", "3", "8", "3", "4", "3", "4", "4"], "time": [2147, 2197, 2263, 2647, 3280, 3330, 4967, 6296, 6679]}, "edge": {"target": [], "time": []}}, "mouseout": {"state": {"target": ["0", "1", "2", "3", "8", "3", "4", "3", "4", "4", "28"], "time": [2114, 2164, 2230, 2597, 3247, 3297, 4881, 6262, 6329, 11661, 11727]}, "edge": {"target": [], "time": []}}}, "displayed_time": "15.50", "trialTime": 16238, "trial_type": "mouselab-mdp", "trial_index": 39, "time_elapsed": 1807344, "internal_node_id": "0.0-6.0-1.0-30.0"}}, {"uniqueid": "w88618920:a94270546", "current_trial": 40, "dateTime": 1693584145554, "trialdata": {"revealed_states": [], "clicked_states": ["25", "31", "32", "27"], "num_clicks_accrued": [0, 0, 0, 0, 0, 0, 0, 0, 0, 0, 0, 0, 0], "stateRewards": ["", -1, 1, 3, -8, -23, -15, -14, -11, -23, 58, 68, 1, 3, 5, 12, -17, -41, -7, -10, -4, 82, 10, 1, 4, -4, 11, 73, 55, -55, -1, -86, -86, 54], "withholdReward": false, "trial_id": "mdp_trial_32", "block": "test", "trialIndex": 33, "score": 79.4, "costs": -5.6, "simulationMode": [null, null, null, null, null], "rewards": [1, 4, -4, 11, 73], "path": ["0", "0", "23", "24", "25", "26", "27"], "rt": [10410, 501, 93, 437, 113], "actions": ["left", "left", "left", "up", "up"], "actionTimes": [12056, 13079, 13688, 14648, 15273], "queries": {"click": {"state": {"target": ["25", "31", "32", "27"], "time": [2829, 4800, 6830, 8853]}, "edge": {"target": [], "time": []}}, "mouseover": {"state": {"target": ["23", "24", "24", "25", "30", "32", "32", "31", "32", "30", "26", "27", "27", "8", "9", "8", "28"], "time": [2060, 2100, 2344, 2527, 3181, 3214, 3498, 3995, 5270, 7211, 7246, 7266, 7711, 9362, 9877, 11091, 11194]}, "edge": {"target": [], "time": []}}, "mouseout": {"state": {"target": ["24", "23", "0", "23", "24", "24", "25", "30", "32", "32", "31", "31", "32", "30", "26", "27", "27", "8", "9", "8"], "time": [709, 926, 2043, 2095, 2128, 2460, 2955, 3196, 3264, 3517, 4935, 5136, 6958, 7229, 7262, 7282, 9294, 9412, 11075, 11109]}, "edge": {"target": [], "time": []}}}, "displayed_time": "15.81", "trialTime": 16573, "trial_type": "mouselab-mdp", "trial_index": 40, "time_elapsed": 1824512, "internal_node_id": "0.0-6.0-1.0-31.0"}}, {"uniqueid": "w88618920:a94270546", "current_trial": 41, "dateTime": 1693584162749, "trialdata": {"revealed_states": [], "clicked_states": ["3", "6", "11"], "num_clicks_accrued": [0, 0, 0, 0, 0, 0, 0, 0, 0, 0, 0, 0, 0], "stateRewards": ["", 2, -2, 7, -11, -76, -65, -23, 16, -58, 30, 81, 1, 2, 7, 14, 9, 55, -2, 6, 11, -15, 31, -1, -1, -3, 2, 15, 2, 46, 15, 18, 45, -34], "withholdReward": false, "trial_id": "mdp_trial_33", "block": "test", "trialIndex": 34, "score": 99.8, "costs": -4.199999999999999, "simulationMode": [null, null, null, null, null], "rewards": [2, -2, 7, 16, 81], "path": ["0", "0", "1", "2", "3", "8", "11"], "rt": [9179, 45, 43, 12, 28], "actions": ["up", "up", "up", "left", "left"], "actionTimes": [11279, 11839, 12419, 12956, 13522], "queries": {"click": {"state": {"target": ["3", "6", "11"], "time": [3330, 5468, 8338]}, "edge": {"target": [], "time": []}}, "mouseover": {"state": {"target": ["4", "3", "4", "6", "5", "9", "11", "8"], "time": [2776, 3042, 3713, 4312, 6495, 7825, 8025, 10378]}, "edge": {"target": [], "time": []}}, "mouseout": {"state": {"target": ["28", "0", "0", "4", "3", "4", "6", "5", "9", "11", "8", "1"], "time": [692, 776, 1042, 2991, 3455, 3764, 5944, 6513, 7958, 10374, 10408, 14523]}, "edge": {"target": [], "time": []}}}, "displayed_time": "16.10", "trialTime": 16622, "trial_type": "mouselab-mdp", "trial_index": 41, "time_elapsed": 1841707, "internal_node_id": "0.0-6.0-1.0-32.0"}}, {"uniqueid": "w88618920:a94270546", "current_trial": 42, "dateTime": 1693584179441, "trialdata": {"revealed_states": [], "clicked_states": ["26", "29", "25"], "num_clicks_accrued": [0, 0, 0, 0, 0, 0, 0, 0, 0, 0, 0, 0, 0], "stateRewards": ["", -1, 3, -7, 16, -32, -74, -48, 2, 10, 15, -30, 1, 1, -2, 10, 12, -83, 67, 13, -66, 47, 65, -2, 4, 2, -14, -8, -57, 24, 9, 65, 12, 46], "withholdReward": false, "trial_id": "mdp_trial_34", "block": "test", "trialIndex": 35, "score": 9.8, "costs": -4.199999999999999, "simulationMode": [null, null, null, null, null], "rewards": [-2, 4, 2, -14, 24], "path": ["0", "0", "23", "24", "25", "26", "29"], "rt": [8667, 65, 28, 51, 62], "actions": ["left", "left", "left", "up", "left"], "actionTimes": [10347, 10927, 11473, 12063, 12641], "queries": {"click": {"state": {"target": ["26", "29", "25"], "time": [3537, 5559, 8511]}, "edge": {"target": [], "time": []}}, "mouseover": {"state": {"target": ["23", "29", "26", "26", "29", "25"], "time": [2060, 2261, 2494, 3243, 4730, 6012]}, "edge": {"target": [], "time": []}}, "mouseout": {"state": {"target": ["0", "23", "29", "26", "26", "29", "29", "25", "24"], "time": [2044, 2078, 2395, 2577, 3669, 5692, 5946, 14691, 14740]}, "edge": {"target": [], "time": []}}}, "displayed_time": "15.68", "trialTime": 16136, "trial_type": "mouselab-mdp", "trial_index": 42, "time_elapsed": 1858399, "internal_node_id": "0.0-6.0-1.0-33.0"}}, {"uniqueid": "w88618920:a94270546", "current_trial": 43, "dateTime": 1693584198324, "trialdata": {"revealed_states": [], "clicked_states": ["4", "17", "21", "32", "14"], "num_clicks_accrued": [0, 0, 0, 0, 0, 0, 0, 0, 0, 0, 0, 0, 0], "stateRewards": ["", -1, 2, 5, -6, 13, -64, -47, 8, -79, -80, -33, 1, 2, -2, -16, 56, -71, -10, 3, 29, 44, 85, -1, 4, 5, 4, -36, -56, 19, 8, 52, -13, -2], "withholdReward": false, "trial_id": "mdp_trial_35", "block": "test", "trialIndex": 36, "score": 41, "costs": -7, "simulationMode": [null, null, null, null, null], "rewards": [1, 2, -2, 3, 44], "path": ["0", "0", "12", "13", "14", "19", "21"], "rt": [12594, 68, 15, 335, 116], "actions": ["right", "right", "right", "down", "down"], "actionTimes": [14223, 14813, 15343, 16213, 16844], "queries": {"click": {"state": {"target": ["4", "17", "21", "32", "14"], "time": [2793, 6360, 8114, 10318, 12514]}, "edge": {"target": [], "time": []}}, "mouseover": {"state": {"target": ["7", "4", "5", "6", "16", "15", "17", "17", "21", "31", "30", "32", "32", "22", "19", "14"], "time": [2111, 2344, 3183, 5393, 5444, 5477, 5745, 6077, 7512, 8745, 8766, 9112, 9295, 10861, 11196, 12125]}, "edge": {"target": [], "time": []}}, "mouseout": {"state": {"target": ["0", "7", "4", "5", "6", "16", "15", "17", "17", "21", "31", "30", "32", "32", "22", "19"], "time": [2042, 2186, 3133, 5343, 5426, 5461, 5727, 5843, 7181, 8679, 8762, 9078, 9131, 10778, 10900, 12075]}, "edge": {"target": [], "time": []}}}, "displayed_time": "17.36", "trialTime": 18340, "trial_type": "mouselab-mdp", "trial_index": 43, "time_elapsed": 1877283, "internal_node_id": "0.0-6.0-1.0-34.0"}}, {"uniqueid": "w88618920:a94270546", "current_trial": 44, "dateTime": 1693584215148, "trialdata": {"revealed_states": [], "clicked_states": ["14", "19", "22"], "num_clicks_accrued": [0, 0, 0, 0, 0, 0, 0, 0, 0, 0, 0, 0, 0], "stateRewards": ["", 1, -2, -8, -3, 31, -84, -55, -14, 15, -58, 17, -2, -3, 7, 7, -12, 48, 67, 4, -44, -68, 46, 2, 3, -5, -7, 76, 27, 5, 11, 57, 52, 59], "withholdReward": false, "trial_id": "mdp_trial_36", "block": "test", "trialIndex": 37, "score": 47.8, "costs": -4.199999999999999, "simulationMode": [null, null, null, null, null], "rewards": [-2, -3, 7, 4, 46], "path": ["0", "0", "12", "13", "14", "19", "22"], "rt": [7928, 26, 52, 64, 75], "actions": ["right", "right", "right", "down", "left"], "actionTimes": [9362, 9911, 10472, 11067, 11659], "queries": {"click": {"state": {"target": ["14", "19", "22"], "time": [3173, 5108, 6748]}, "edge": {"target": [], "time": []}}, "mouseover": {"state": {"target": ["12", "13", "13", "14", "19", "22", "22", "21", "14"], "time": [2470, 2502, 2784, 2834, 3803, 5704, 6018, 7651, 8948]}, "edge": {"target": [], "time": []}}, "mouseout": {"state": {"target": ["14", "13", "12", "12", "0", "12", "13", "13", "14", "19", "22", "22", "21", "19", "14"], "time": [517, 567, 616, 717, 2451, 2485, 2518, 2800, 3704, 5669, 5802, 7568, 8848, 8882, 8998]}, "edge": {"target": [], "time": []}}}, "displayed_time": "15.44", "trialTime": 16225, "trial_type": "mouselab-mdp", "trial_index": 44, "time_elapsed": 1894106, "internal_node_id": "0.0-6.0-1.0-35.0"}}, {"uniqueid": "w88618920:a94270546", "current_trial": 45, "dateTime": 1693584257491, "trialdata": {"revealed_states": [], "clicked_states": ["32", "25"], "num_clicks_accrued": [0, 0, 0, 0, 0, 0, 0, 0, 0, 0, 0, 0, 0], "stateRewards": ["", -2, 2, -2, -7, -50, -62, -45, 7, 36, -24, -72, -1, -1, 8, -1, -67, 20, -52, 2, 35, -50, 80, -1, 1, 6, -6, -70, 6, 88, 8, -47, 74, -19], "withholdReward": false, "trial_id": "mdp_trial_37", "block": "test", "trialIndex": 38, "score": 85.2, "costs": -2.8, "simulationMode": [null, null, null, null, null], "rewards": [-1, 1, 6, 8, 74], "path": ["0", "0", "23", "24", "25", "30", "32"], "rt": [5996, 36, 51, 87, 85], "actions": ["left", "left", "left", "down", "down"], "actionTimes": [32338, 32894, 33475, 34079, 34676], "queries": {"click": {"state": {"target": ["32", "25"], "time": [27756, 30534]}, "edge": {"target": [], "time": []}}, "mouseover": {"state": {"target": ["23", "24", "30", "32", "25", "26", "27", "26", "25"], "time": [26656, 26706, 27006, 27456, 28477, 28513, 28791, 30022, 30239]}, "edge": {"target": [], "time": []}}, "mouseout": {"state": {"target": ["14", "13", "12", "0", "23", "24", "30", "32", "25", "26", "27", "26"], "time": [25242, 25274, 25290, 25605, 26690, 26839, 27373, 28446, 28509, 28575, 29989, 30072]}, "edge": {"target": [], "time": []}}}, "displayed_time": "40.34", "trialTime": 41783, "trial_type": "mouselab-mdp", "trial_index": 45, "time_elapsed": 1936449, "internal_node_id": "0.0-6.0-1.0-36.0"}}, {"uniqueid": "w88618920:a94270546", "current_trial": 46, "dateTime": 1693584274924, "trialdata": {"revealed_states": [], "clicked_states": ["17", "21", "32", "25"], "num_clicks_accrued": [0, 0, 0, 0, 0, 0, 0, 0, 0, 0, 0, 0, 0], "stateRewards": ["", 1, 1, 1, 15, -76, 52, -32, 14, -57, 37, 49, 1, -4, -3, 6, 83, -76, 25, 9, 36, -1, -17, -1, 4, 4, -2, -22, -21, 58, -15, -57, 49, -24], "withholdReward": false, "trial_id": "mdp_trial_38", "block": "test", "trialIndex": 39, "score": 35.4, "costs": -5.6, "simulationMode": [null, null, null, null, null], "rewards": [-1, 4, 4, -15, 49], "path": ["0", "0", "23", "24", "25", "30", "32"], "rt": [9586, 11, 34, 77, 81], "actions": ["left", "left", "left", "down", "down"], "actionTimes": [11270, 11800, 12358, 12950, 13553], "queries": {"click": {"state": {"target": ["17", "21", "32", "25"], "time": [2688, 4753, 6783, 9539]}, "edge": {"target": [], "time": []}}, "mouseover": {"state": {"target": ["18", "15", "17", "20", "21", "32", "32", "29", "25"], "time": [1871, 1892, 2438, 3225, 3893, 5207, 5527, 7673, 9037]}, "edge": {"target": [], "time": []}}, "mouseout": {"state": {"target": ["25", "0", "0", "18", "15", "17", "20", "21", "32", "32", "29", "25", "31"], "time": [321, 755, 1805, 1889, 2364, 3145, 3644, 5106, 5242, 7092, 8969, 15102, 15218]}, "edge": {"target": [], "time": []}}}, "displayed_time": "15.69", "trialTime": 16736, "trial_type": "mouselab-mdp", "trial_index": 46, "time_elapsed": 1953882, "internal_node_id": "0.0-6.0-1.0-37.0"}}, {"uniqueid": "w88618920:a94270546", "current_trial": 47, "dateTime": 1693584292295, "trialdata": {"revealed_states": [], "clicked_states": ["9", "3"], "num_clicks_accrued": [0, 0, 0, 0, 0, 0, 0, 0, 0, 0, 0, 0, 0], "stateRewards": ["", 2, 3, -6, -5, -3, 55, 40, 11, 61, 11, 51, 2, -4, -6, 9, -25, 29, -15, -6, 7, -77, -2, -2, -4, 1, 14, -43, -1, 56, -12, -54, 41, -74], "withholdReward": false, "trial_id": "mdp_trial_39", "block": "test", "trialIndex": 40, "score": 68.2, "costs": -2.8, "simulationMode": [null, null, null, null, null], "rewards": [2, 3, -6, 11, 61], "path": ["0", "0", "1", "2", "3", "8", "9"], "rt": [6086, 11, 11, 84, 46], "actions": ["up", "up", "up", "left", "up"], "actionTimes": [8200, 8733, 9266, 9873, 10435], "queries": {"click": {"state": {"target": ["9", "3"], "time": [3296, 6379]}, "edge": {"target": [], "time": []}}, "mouseover": {"state": {"target": ["1", "2", "9", "6", "4", "3"], "time": [2670, 2706, 2986, 4920, 5636, 5736]}, "edge": {"target": [], "time": []}}, "mouseout": {"state": {"target": ["0", "1", "2", "9", "6", "4", "3", "2", "0"], "time": [2640, 2703, 2737, 4290, 5569, 5687, 11686, 11735, 11801]}, "edge": {"target": [], "time": []}}}, "displayed_time": "16.11", "trialTime": 16693, "trial_type": "mouselab-mdp", "trial_index": 47, "time_elapsed": 1971254, "internal_node_id": "0.0-6.0-1.0-38.0"}}, {"uniqueid": "w88618920:a94270546", "current_trial": 48, "dateTime": 1693584309829, "trialdata": {"revealed_states": [], "clicked_states": ["26", "29", "33", "27"], "num_clicks_accrued": [0, 0, 0, 0, 0, 0, 0, 0, 0, 0, 0, 0, 0], "stateRewards": ["", -1, -2, 8, -6, -79, -6, 87, 9, -5, -66, -38, 2, 2, 5, -6, -82, 74, 85, -8, 67, -30, -15, 1, -2, -2, -2, 87, 64, 49, 7, 2, -38, -9], "withholdReward": false, "trial_id": "mdp_trial_40", "block": "test", "trialIndex": 41, "score": 76.4, "costs": -5.6, "simulationMode": [null, null, null, null, null], "rewards": [1, -2, -2, -2, 87], "path": ["0", "0", "23", "24", "25", "26", "27"], "rt": [10079, 49, 50, 28, 74], "actions": ["left", "left", "left", "up", "up"], "actionTimes": [11619, 12182, 12764, 13311, 13906], "queries": {"click": {"state": {"target": ["26", "29", "33", "27"], "time": [2635, 4578, 6520, 8638]}, "edge": {"target": [], "time": []}}, "mouseover": {"state": {"target": ["0", "23", "26", "26", "29", "25", "33", "27", "29", "26"], "time": [1797, 2031, 2081, 2381, 3252, 5252, 5699, 7333, 9348, 11062]}, "edge": {"target": [], "time": []}}, "mouseout": {"state": {"target": ["0", "0", "23", "26", "26", "29", "26", "25", "33", "27", "27", "29", "26", "24"], "time": [314, 2014, 2048, 2130, 3084, 5083, 5216, 5270, 7232, 8774, 9001, 10879, 11112, 15511]}, "edge": {"target": [], "time": []}}}, "displayed_time": "15.54", "trialTime": 16892, "trial_type": "mouselab-mdp", "trial_index": 48, "time_elapsed": 1988787, "internal_node_id": "0.0-6.0-1.0-39.0"}}, {"uniqueid": "w88618920:a94270546", "current_trial": 49, "dateTime": 1693584364274, "trialdata": {"rt": 54402, "response": {"Q0": "$-2 to $2", "Q1": "$-16 to $16", "Q2": "$-88 to $88", "Q3": "The cost for clicking on nodes varied between nodes.", "Q4": "Very motivated"}, "question_order": [0, 1, 2, 3, 4], "trial_id": "final_quiz_control", "trial_type": "survey-multi-choice", "trial_index": 49, "time_elapsed": 2043233, "internal_node_id": "0.0-6.0-2.0"}}, {"uniqueid": "w88618920:a94270546", "current_trial": 50, "dateTime": 1693584486018, "trialdata": {"rt": 121686, "response": {"Q0": "I tended to select nodes that were far away. I would check a few in different areas until I found one with a high reward. After finding one, I would select another couple of nodes on the desired path just to check they would not cost me too much. I generally wouldn't check all unless the reward was very high.", "Q1": "I don't think I improved really.", "Q2": "N/A - I thought my performance stayed relatively the same."}, "trial_id": "self_report_control", "trial_type": "survey-text", "trial_index": 50, "time_elapsed": 2164977, "internal_node_id": "0.0-6.0-3.0"}}, {"uniqueid": "w88618920:a94270546", "current_trial": 51, "dateTime": 1693584502017, "trialdata": {"rt": 15991, "response": {"gender": "female", "age": "30", "colorblind": "0", "effort": "1"}, "trial_type": "survey-html-form", "trial_index": 51, "time_elapsed": 2180976, "internal_node_id": "0.0-6.0-4.0"}}, {"uniqueid": "w88618920:a94270546", "current_trial": 52, "dateTime": 1693584534392, "trialdata": {"rt": 32365, "response": {"Q0": "No, everything was clear.", "Q1": "No, this is my first time completing it.", "Q2": "N/A"}, "trial_type": "survey-text", "trial_index": 52, "time_elapsed": 2213351, "internal_node_id": "0.0-6.0-5.0"}}, {"uniqueid": "w88618920:a94270546", "current_trial": 53, "dateTime": 1693584567605, "trialdata": {"rt": 33199, "stimulus": "<h1>Completion Code Instructions (1/2)</h1>\n<br><br><br><br>\nYou have reached the end of the experiment! The completion code consists of two parts: (1) a code with 2 characters (2) a code with 6 characters. On this page, you will receive the second part of the code. The first part of the completion code will be on the next page.\n<br><br>\nThe second part of your completion code is: <b>EWEK22</b>\n<br><br>\nPlease note this down. Then, press 'Next' in order to find the first part of your completion code. Once the data has been saved, you will receive this code either in this window or in the original browser window where you started the experiment.\n <br><br>\n<h2 style='color: red;'>Note: this is <strong>NOT</strong> the full completion code. Copy this down and click 'Next' to get the full completion code on the next page.</h2>", "response": 0, "trial_type": "html-button-response", "trial_index": 53, "time_elapsed": 2246564, "internal_node_id": "0.0-6.0-6.0"}}, {"uniqueid": "w88618920:a94270546", "current_trial": 54, "dateTime": 1693584568614, "trialdata": {"success": true, "trial_type": "fullscreen", "trial_index": 54, "time_elapsed": 2247573, "internal_node_id": "0.0-7.0"}}], "questiondata": {"params": {"CODE": "C6DMOQA6", "MIN_TIME": 14, "inspectCost": 1, "startTime": "Fri Sep 01 2023 16:32:00 GMT+0100 (British Summer Time)", "bonusRate": 0.002, "variance": "1_2_4_8_44", "branching": "31123"}, "final_score": 2064.4}, "eventdata": [{"eventtype": "initialized", "interval": 0, "timestamp": 1693580186302, "value": null}, {"eventtype": "window_resize", "interval": 1, "timestamp": 1693580186303, "value": [1028, 752]}, {"eventtype": "window_resize", "interval": 468, "timestamp": 1693580186771, "value": [1028, 752]}, {"eventtype": "window_resize", "value": [1028, 752], "timestamp": 1693582320280, "interval": 2133509}, {"eventtype": "window_resize", "value": [1536, 864], "timestamp": 1693582330691, "interval": 10411}, {"eventtype": "focus", "value": "off", "timestamp": 1693583607043, "interval": 1276352}, {"eventtype": "focus", "value": "on", "timestamp": 1693583609515, "interval": 2472}, {"eventtype": "window_resize", "value": [1028, 752], "timestamp": 1693584567928, "interval": 958413}], "useragent": "Mozilla/5.0 (Windows NT 10.0; Win64; x64) AppleWebKit/537.36 (KHTML, like Gecko) Chrome/116.0.0.0 Safari/537.36", "mode": "live", "id": "w88618920:a94270546", "status": "user data saved", "Beginhit": "2023-09-01 14:56:21.449462", "Beginexp": "2023-09-01 15:32:09.702297", "Endhit": "2023-09-01 16:09:29.320702", "psiturkStatus": 3, "browser": "<redacted>", "platform": "windows", "language": "en-GB"}