{"condition": 0, "counterbalance": 0, "assignmentId": "a71096779", "workerId": "w47079964", "hitId": "h21948563", "currenttrial": 55, "bonus": 0, "data": [{"uniqueid": "w47079964:a71096779", "current_trial": 0, "dateTime": 1691142325852, "trialdata": {"success": true, "trial_type": "fullscreen", "trial_index": 0, "time_elapsed": 6505, "internal_node_id": "0.0-0.0"}}, {"uniqueid": "w47079964:a71096779", "current_trial": 1, "dateTime": 1691142342477, "trialdata": {"view_history": [{"page_index": 0, "viewing_time": 16610}], "rt": 16612, "trial_id": "exp_instructions_control", "trial_type": "instructions", "trial_index": 1, "time_elapsed": 23131, "internal_node_id": "0.0-1.0"}}, {"uniqueid": "w47079964:a71096779", "current_trial": 2, "dateTime": 1691142346785, "trialdata": {"success": true, "trial_type": "fullscreen", "trial_index": 2, "time_elapsed": 27440, "internal_node_id": "0.0-2.0-0.0"}}, {"uniqueid": "w47079964:a71096779", "current_trial": 3, "dateTime": 1691142525960, "trialdata": {"view_history": [{"page_index": 0, "viewing_time": 48907}, {"page_index": 1, "viewing_time": 68714}, {"page_index": 2, "viewing_time": 27776}, {"page_index": 3, "viewing_time": 33769}], "rt": 179166, "trial_id": "mouselab_instructions_1_control", "trial_type": "instructions", "trial_index": 3, "time_elapsed": 206615, "internal_node_id": "0.0-2.0-1.0"}}, {"uniqueid": "w47079964:a71096779", "current_trial": 4, "dateTime": 1691142543199, "trialdata": {"revealed_states": [], "clicked_states": [], "num_clicks_accrued": [0, 0, 0, 0, 0, 0, 0, 0, 0, 0, 0, 0, 0], "stateRewards": ["", -10, 10, -10, -10, -10, -10, 10, -10, 10, 10, -10, 10, 10, 10, -10, -10, 10, 10, -10, -10, 10, 10, 10, -10, 10, 10, 10, -10, 10, 10, 10, -10, 10], "withholdReward": false, "trial_id": "practice_1", "block": "test", "trialIndex": 0, "score": 13.5, "costs": 0, "simulationMode": [null, null, null, null, null], "rewards": [10, 10, 10, -10, -10], "path": ["0", "0", "12", "13", "14", "15", "16"], "rt": [1743, 378, 389, 108, 66], "actions": ["right", "right", "right", "up", "up"], "actionTimes": [6241, 7175, 8104, 8764, 9362], "queries": {"click": {"state": {"target": [], "time": []}, "edge": {"target": [], "time": []}}, "mouseover": {"state": {"target": [], "time": []}, "edge": {"target": [], "time": []}}, "mouseout": {"state": {"target": ["0"], "time": [1093]}, "edge": {"target": [], "time": []}}}, "displayed_time": "9.89", "trialTime": 15288, "trial_type": "mouselab-mdp", "trial_index": 4, "time_elapsed": 223852, "internal_node_id": "0.0-2.0-2.0-0.0"}}, {"uniqueid": "w47079964:a71096779", "current_trial": 5, "dateTime": 1691142559613, "trialdata": {"revealed_states": [], "clicked_states": [], "num_clicks_accrued": [0, 0, 0, 0, 0, 0, 0, 0, 0, 0, 0, 0, 0], "stateRewards": ["", -10, 10, -10, -10, 10, 10, 10, -10, 10, -10, 10, -10, 10, -10, 10, -10, 10, 10, 10, -10, 10, 10, -10, -10, 10, -10, -10, -10, 10, 10, 10, -10, 10], "withholdReward": false, "trial_id": "practice_2", "block": "test", "trialIndex": 1, "score": -6.5, "costs": 0, "simulationMode": [null, null, null, null, null], "rewards": [-10, 10, -10, -10, 10], "path": ["0", "0", "1", "2", "3", "4", "5"], "rt": [1749, 212, 3664, 198, 527], "actions": ["up", "up", "up", "right", "up"], "actionTimes": [4301, 5050, 9289, 10007, 11073], "queries": {"click": {"state": {"target": [], "time": []}, "edge": {"target": [], "time": []}}, "mouseover": {"state": {"target": [], "time": []}, "edge": {"target": [], "time": []}}, "mouseout": {"state": {"target": ["21", "0", "21"], "time": [857, 2667, 12525]}, "edge": {"target": [], "time": []}}}, "displayed_time": "11.62", "trialTime": 15216, "trial_type": "mouselab-mdp", "trial_index": 5, "time_elapsed": 240266, "internal_node_id": "0.0-2.0-2.0-1.0"}}, {"uniqueid": "w47079964:a71096779", "current_trial": 6, "dateTime": 1691142587727, "trialdata": {"view_history": [{"page_index": 0, "viewing_time": 19529}, {"page_index": 1, "viewing_time": 8575}], "rt": 28106, "trial_id": "mouselab_instructions_2_control", "trial_type": "instructions", "trial_index": 6, "time_elapsed": 268382, "internal_node_id": "0.0-2.0-3.0"}}, {"uniqueid": "w47079964:a71096779", "current_trial": 7, "dateTime": 1691142628763, "trialdata": {"rt": 41015, "response": {"Q0": "The cost for clicking on nodes may vary between nodes.", "Q1": "The better I perform the higher my bonus will be.", "Q2": "No, the amount of cash at each node of the web may be different each time.", "Q3": "To get the highest total score.", "Q4": "Only before moving the spider.", "Q5": "3 seconds"}, "question_order": [0, 1, 2, 3, 4, 5], "correct": {"Q0": "The cost for clicking on nodes may vary between nodes.", "Q1": "The better I perform the higher my bonus will be.", "Q2": "No, the amount of cash at each node of the web may be different each time.", "Q3": "To get the highest total score.", "Q4": "Only before moving the spider.", "Q5": "3 seconds"}, "trial_id": "mouselab_quiz_control", "trial_type": "survey-multi-choice", "trial_index": 7, "time_elapsed": 309418, "internal_node_id": "0.0-2.0-4.0"}}, {"uniqueid": "w47079964:a71096779", "current_trial": 8, "dateTime": 1691142641707, "trialdata": {"rt": 12922, "stimulus": "\n<h1> Get ready to start the game! </h1>\n\nThank you for reading the instructions. Get ready start with the 40 rounds of this game.\n<br><br>\nIf you need to take a break, feel free to take one after the end of a round, before continuing to the next one.\n<br><br>\nRemember, the more money the spider gets, the bigger your bonus will be!\n<br><br>\n<div style='text-align: center;'>Press <code>space</code> to begin.</div>\n\n<br><br>\n(If, at any point, the <code>space</code> key does not take you to the next page, click once on the text and try again.)", "response": " ", "trial_id": "mdp_ready", "trial_type": "html-keyboard-response", "trial_index": 8, "time_elapsed": 322362, "internal_node_id": "0.0-4.0-0.0"}}, {"uniqueid": "w47079964:a71096779", "current_trial": 9, "dateTime": 1691142664686, "trialdata": {"revealed_states": [], "clicked_states": [], "num_clicks_accrued": [0, 0, 0, 0, 0, 0, 0, 0, 0, 0, 0, 0, 0], "stateRewards": ["", 2, 3, 6, -5, -74, -53, 17, -12, 46, 44, 18, -2, 4, 1, -8, 22, -23, -49, 9, -45, 55, 81, 1, -1, -7, -16, -83, -71, -45, 2, 51, 82, 61], "withholdReward": false, "trial_id": "mdp_trial_1", "block": "test", "trialIndex": 2, "score": 77, "costs": 0, "simulationMode": [null, null, null, null, null], "rewards": [1, -1, -7, 2, 82], "path": ["0", "0", "23", "24", "25", "30", "32"], "rt": [1812, 337, 280, 748, 295], "actions": ["left", "left", "left", "down", "down"], "actionTimes": [5777, 6761, 7629, 9063, 9931], "queries": {"click": {"state": {"target": [], "time": []}, "edge": {"target": [], "time": []}}, "mouseover": {"state": {"target": ["0", "13", "14"], "time": [4584, 4690, 5003]}, "edge": {"target": [], "time": []}}, "mouseout": {"state": {"target": ["3", "2", "0", "0", "13", "14"], "time": [1068, 1233, 1748, 4679, 4838, 14766]}, "edge": {"target": [], "time": []}}}, "displayed_time": "17.97", "trialTime": 20521, "trial_type": "mouselab-mdp", "trial_index": 9, "time_elapsed": 345339, "internal_node_id": "0.0-4.0-1.0-0.0"}}, {"uniqueid": "w47079964:a71096779", "current_trial": 10, "dateTime": 1691142691725, "trialdata": {"revealed_states": [], "clicked_states": ["23"], "num_clicks_accrued": [0, 0, 0, 0, 0, 0, 0, 0, 0, 0, 0, 0, 0], "stateRewards": ["", -2, -1, -3, -1, -78, -6, 2, -1, 22, -88, 32, 2, 2, -7, -8, -51, -17, 54, 2, -44, 54, 75, 2, -2, -8, -15, -29, 12, -67, 15, -1, -47, -47], "withholdReward": false, "trial_id": "mdp_trial_2", "block": "test", "trialIndex": 3, "score": 51.6, "costs": -1.4, "simulationMode": [null, null, null, null, null], "rewards": [2, 2, -7, 2, 54], "path": ["0", "0", "12", "13", "14", "19", "21"], "rt": [6413, 506, 380, 1637, 334], "actions": ["right", "right", "right", "down", "down"], "actionTimes": [10981, 11989, 12917, 15147, 16155], "queries": {"click": {"state": {"target": ["23"], "time": [6323]}, "edge": {"target": [], "time": []}}, "mouseover": {"state": {"target": ["23", "24", "23", "0", "12"], "time": [5266, 5349, 6046, 7086, 7356]}, "edge": {"target": [], "time": []}}, "mouseout": {"state": {"target": ["17", "14", "13", "12", "0", "23", "24", "23", "0", "12"], "time": [697, 829, 930, 1063, 2769, 5342, 5948, 6845, 7186, 24512]}, "edge": {"target": [], "time": []}}}, "displayed_time": "18.57", "trialTime": 25726, "trial_type": "mouselab-mdp", "trial_index": 10, "time_elapsed": 372379, "internal_node_id": "0.0-4.0-1.0-1.0"}}, {"uniqueid": "w47079964:a71096779", "current_trial": 11, "dateTime": 1691142714844, "trialdata": {"revealed_states": [], "clicked_states": [], "num_clicks_accrued": [0, 0, 0, 0, 0, 0, 0, 0, 0, 0, 0, 0, 0], "stateRewards": ["", 1, -3, -1, 9, -34, -40, 22, -7, 45, 53, -11, 2, 4, 5, 15, 21, 37, -49, -3, 80, -28, -34, 1, -3, 1, 1, -40, -6, -5, -16, -85, -86, 59], "withholdReward": false, "trial_id": "mdp_trial_3", "block": "test", "trialIndex": 4, "score": -21, "costs": 0, "simulationMode": [null, null, null, null, null], "rewards": [1, -3, -1, -7, -11], "path": ["0", "0", "1", "2", "3", "8", "11"], "rt": [2592, 336, 5431, 272, 817], "actions": ["up", "up", "up", "left", "left"], "actionTimes": [7996, 8920, 14891, 15713, 17215], "queries": {"click": {"state": {"target": [], "time": []}, "edge": {"target": [], "time": []}}, "mouseover": {"state": {"target": [], "time": []}, "edge": {"target": [], "time": []}}, "mouseout": {"state": {"target": ["0"], "time": [3236]}, "edge": {"target": [], "time": []}}}, "displayed_time": "19.41", "trialTime": 21719, "trial_type": "mouselab-mdp", "trial_index": 11, "time_elapsed": 395498, "internal_node_id": "0.0-4.0-1.0-2.0"}}, {"uniqueid": "w47079964:a71096779", "current_trial": 12, "dateTime": 1691142740222, "trialdata": {"revealed_states": [], "clicked_states": ["1"], "num_clicks_accrued": [0, 0, 0, 0, 0, 0, 0, 0, 0, 0, 0, 0, 0], "stateRewards": ["", -2, -3, -6, -7, 9, 16, 65, 5, -41, 20, -25, -1, -4, 1, -11, -49, -4, 71, 1, 39, -62, 52, -2, -3, 7, -9, -28, -70, 84, 8, 24, -58, 82], "withholdReward": false, "trial_id": "mdp_trial_4", "block": "test", "trialIndex": 5, "score": -78.4, "costs": -1.4, "simulationMode": [null, null, null, null, null], "rewards": [-2, -3, 7, -9, -70], "path": ["0", "0", "23", "24", "25", "26", "28"], "rt": [6773, 2173, 733, 794, 115], "actions": ["left", "left", "left", "up", "right"], "actionTimes": [10521, 13255, 14543, 15862, 16536], "queries": {"click": {"state": {"target": ["1"], "time": [6163]}, "edge": {"target": [], "time": []}}, "mouseover": {"state": {"target": ["1", "18"], "time": [5734, 6737]}, "edge": {"target": [], "time": []}}, "mouseout": {"state": {"target": ["0", "0", "0", "1"], "time": [1582, 2314, 5585, 6533]}, "edge": {"target": [], "time": []}}}, "displayed_time": "17.75", "trialTime": 23994, "trial_type": "mouselab-mdp", "trial_index": 12, "time_elapsed": 420876, "internal_node_id": "0.0-4.0-1.0-3.0"}}, {"uniqueid": "w47079964:a71096779", "current_trial": 13, "dateTime": 1691142763551, "trialdata": {"revealed_states": [], "clicked_states": [], "num_clicks_accrued": [0, 0, 0, 0, 0, 0, 0, 0, 0, 0, 0, 0, 0], "stateRewards": ["", -2, 2, -5, 1, 42, -63, -58, -6, 2, 16, 81, -2, 4, 7, -10, 33, 3, -33, -2, -52, -84, -27, 2, -3, -3, 15, -74, -14, -5, -5, -84, 79, -31], "withholdReward": false, "trial_id": "mdp_trial_5", "block": "test", "trialIndex": 6, "score": 38, "costs": 0, "simulationMode": [null, null, null, null, null], "rewards": [-2, 2, -5, 1, 42], "path": ["0", "0", "1", "2", "3", "4", "5"], "rt": [4892, 326, 411, 262, 385], "actions": ["up", "up", "up", "right", "up"], "actionTimes": [8391, 9249, 10197, 11100, 12109], "queries": {"click": {"state": {"target": [], "time": []}, "edge": {"target": [], "time": []}}, "mouseover": {"state": {"target": [], "time": []}, "edge": {"target": [], "time": []}}, "mouseout": {"state": {"target": ["18", "18", "12", "0"], "time": [1389, 1653, 1771, 2004]}, "edge": {"target": [], "time": []}}}, "displayed_time": "17.50", "trialTime": 21948, "trial_type": "mouselab-mdp", "trial_index": 13, "time_elapsed": 444205, "internal_node_id": "0.0-4.0-1.0-4.0"}}, {"uniqueid": "w47079964:a71096779", "current_trial": 14, "dateTime": 1691142787248, "trialdata": {"revealed_states": [], "clicked_states": [], "num_clicks_accrued": [0, 0, 0, 0, 0, 0, 0, 0, 0, 0, 0, 0, 0], "stateRewards": ["", 2, -1, 1, 10, -52, 86, -22, -2, -14, -63, 38, 1, 3, 7, -8, 11, -32, -27, 9, -71, 40, -87, -2, -1, 5, -7, 12, 31, -57, 13, 86, -58, 29], "withholdReward": false, "trial_id": "mdp_trial_6", "block": "test", "trialIndex": 7, "score": 60, "costs": 0, "simulationMode": [null, null, null, null, null], "rewards": [1, 3, 7, 9, 40], "path": ["0", "0", "12", "13", "14", "19", "21"], "rt": [4512, 448, 347, 355, 1067], "actions": ["right", "right", "right", "down", "down"], "actionTimes": [9018, 9984, 10881, 11847, 13465], "queries": {"click": {"state": {"target": [], "time": []}, "edge": {"target": [], "time": []}}, "mouseover": {"state": {"target": [], "time": []}, "edge": {"target": [], "time": []}}, "mouseout": {"state": {"target": ["14", "19", "0", "23", "0"], "time": [2419, 2472, 2941, 3169, 3397]}, "edge": {"target": [], "time": []}}}, "displayed_time": "18.51", "trialTime": 22259, "trial_type": "mouselab-mdp", "trial_index": 14, "time_elapsed": 467902, "internal_node_id": "0.0-4.0-1.0-5.0"}}, {"uniqueid": "w47079964:a71096779", "current_trial": 15, "dateTime": 1691142811416, "trialdata": {"revealed_states": [], "clicked_states": [], "num_clicks_accrued": [0, 0, 0, 0, 0, 0, 0, 0, 0, 0, 0, 0, 0], "stateRewards": ["", -2, 4, 3, 5, -61, 4, 30, 1, -47, 83, 10, 1, 4, 7, -14, 19, -74, -83, 6, -2, -2, -65, -1, -2, 4, -11, 12, -1, -68, 11, -38, -28, 66], "withholdReward": false, "trial_id": "mdp_trial_7", "block": "test", "trialIndex": 8, "score": 89, "costs": 0, "simulationMode": [null, null, null, null, null], "rewards": [-2, 4, 3, 1, 83], "path": ["0", "0", "1", "2", "3", "8", "10"], "rt": [2883, 598, 587, 330, 335], "actions": ["up", "up", "up", "left", "down"], "actionTimes": [7440, 8561, 9673, 10605, 11592], "queries": {"click": {"state": {"target": [], "time": []}, "edge": {"target": [], "time": []}}, "mouseover": {"state": {"target": [], "time": []}, "edge": {"target": [], "time": []}}, "mouseout": {"state": {"target": ["17", "15"], "time": [2845, 2900]}, "edge": {"target": [], "time": []}}}, "displayed_time": "18.56", "trialTime": 22704, "trial_type": "mouselab-mdp", "trial_index": 15, "time_elapsed": 492070, "internal_node_id": "0.0-4.0-1.0-6.0"}}, {"uniqueid": "w47079964:a71096779", "current_trial": 16, "dateTime": 1691142834965, "trialdata": {"revealed_states": [], "clicked_states": [], "num_clicks_accrued": [0, 0, 0, 0, 0, 0, 0, 0, 0, 0, 0, 0, 0], "stateRewards": ["", 1, 3, 1, -13, 52, -28, 67, -14, 3, 63, -70, -1, -4, 7, -11, -10, 47, -18, 6, 69, -9, -61, 2, 3, -6, 10, 63, -34, 40, -6, -79, -35, -32], "withholdReward": false, "trial_id": "mdp_trial_8", "block": "test", "trialIndex": 9, "score": -86, "costs": 0, "simulationMode": [null, null, null, null, null], "rewards": [2, 3, -6, -6, -79], "path": ["0", "0", "23", "24", "25", "30", "31"], "rt": [4486, 467, 390, 394, 314], "actions": ["left", "left", "left", "down", "right"], "actionTimes": [9386, 10372, 11335, 12306, 13176], "queries": {"click": {"state": {"target": [], "time": []}, "edge": {"target": [], "time": []}}, "mouseover": {"state": {"target": [], "time": []}, "edge": {"target": [], "time": []}}, "mouseout": {"state": {"target": ["13", "12", "0", "0"], "time": [3072, 3205, 3621, 4990]}, "edge": {"target": [], "time": []}}}, "displayed_time": "18.90", "trialTime": 21981, "trial_type": "mouselab-mdp", "trial_index": 16, "time_elapsed": 515618, "internal_node_id": "0.0-4.0-1.0-7.0"}}, {"uniqueid": "w47079964:a71096779", "current_trial": 17, "dateTime": 1691142864665, "trialdata": {"revealed_states": [], "clicked_states": [], "num_clicks_accrued": [0, 0, 0, 0, 0, 0, 0, 0, 0, 0, 0, 0, 0], "stateRewards": ["", -1, 1, -2, 5, 73, 15, 61, 8, 7, 38, 76, 2, 2, -4, -6, -6, -26, 43, -5, -45, -85, -35, -2, 1, -4, 15, -10, 69, 72, -11, 84, -49, -38], "withholdReward": false, "trial_id": "mdp_trial_9", "block": "test", "trialIndex": 10, "score": 0, "costs": 0, "simulationMode": [null, null, null, null, null], "rewards": [-2, 1, -4, 15, -10], "path": ["0", "0", "23", "24", "25", "26", "27"], "rt": [3130, 300, 458, 359, 577], "actions": ["left", "left", "left", "up", "up"], "actionTimes": [6504, 7422, 8416, 9312, 10433], "queries": {"click": {"state": {"target": [], "time": []}, "edge": {"target": [], "time": []}}, "mouseover": {"state": {"target": [], "time": []}, "edge": {"target": [], "time": []}}, "mouseout": {"state": {"target": ["14", "18", "12", "0"], "time": [1339, 1539, 1738, 3469]}, "edge": {"target": [], "time": []}}}, "displayed_time": "17.38", "trialTime": 28135, "trial_type": "mouselab-mdp", "trial_index": 17, "time_elapsed": 545319, "internal_node_id": "0.0-4.0-1.0-8.0"}}, {"uniqueid": "w47079964:a71096779", "current_trial": 18, "dateTime": 1691142886893, "trialdata": {"revealed_states": [], "clicked_states": [], "num_clicks_accrued": [0, 0, 0, 0, 0, 0, 0, 0, 0, 0, 0, 0, 0], "stateRewards": ["", -1, 2, -2, 13, -56, -28, 10, 14, 53, -80, -29, 1, -3, -3, -14, 14, 9, -40, -9, 18, 18, 48, 1, 1, 1, -9, 64, -39, -9, 7, -52, -78, 7], "withholdReward": false, "trial_id": "mdp_trial_10", "block": "test", "trialIndex": 11, "score": -59, "costs": 0, "simulationMode": [null, null, null, null, null], "rewards": [1, -3, -3, -14, -40], "path": ["0", "0", "12", "13", "14", "15", "18"], "rt": [2679, 459, 491, 1102, 419], "actions": ["right", "right", "right", "up", "left"], "actionTimes": [6690, 7754, 8829, 10477, 11473], "queries": {"click": {"state": {"target": [], "time": []}, "edge": {"target": [], "time": []}}, "mouseover": {"state": {"target": ["19"], "time": [4105]}, "edge": {"target": [], "time": []}}, "mouseout": {"state": {"target": ["19", "14", "18", "12", "19"], "time": [2380, 2435, 2576, 2842, 6428]}, "edge": {"target": [], "time": []}}}, "displayed_time": "18.02", "trialTime": 20736, "trial_type": "mouselab-mdp", "trial_index": 18, "time_elapsed": 567548, "internal_node_id": "0.0-4.0-1.0-9.0"}}, {"uniqueid": "w47079964:a71096779", "current_trial": 19, "dateTime": 1691142909098, "trialdata": {"revealed_states": [], "clicked_states": [], "num_clicks_accrued": [0, 0, 0, 0, 0, 0, 0, 0, 0, 0, 0, 0, 0], "stateRewards": ["", -2, -1, -6, -14, -55, 78, -13, 11, 14, -71, 59, 2, 2, 6, -6, 9, 38, 14, 7, 85, 11, 68, 1, -4, -1, -3, -63, -85, 9, -2, 63, -86, -10], "withholdReward": false, "trial_id": "mdp_trial_11", "block": "test", "trialIndex": 12, "score": 16, "costs": 0, "simulationMode": [null, null, null, null, null], "rewards": [-2, -1, -6, 11, 14], "path": ["0", "0", "1", "2", "3", "8", "9"], "rt": [3527, 419, 335, 1374, 337], "actions": ["up", "up", "up", "left", "up"], "actionTimes": [6582, 7586, 8469, 10408, 11326], "queries": {"click": {"state": {"target": [], "time": []}, "edge": {"target": [], "time": []}}, "mouseover": {"state": {"target": [], "time": []}, "edge": {"target": [], "time": []}}, "mouseout": {"state": {"target": ["13", "12", "0"], "time": [1630, 1887, 3139]}, "edge": {"target": [], "time": []}}}, "displayed_time": "17.06", "trialTime": 20520, "trial_type": "mouselab-mdp", "trial_index": 19, "time_elapsed": 589753, "internal_node_id": "0.0-4.0-1.0-10.0"}}, {"uniqueid": "w47079964:a71096779", "current_trial": 20, "dateTime": 1691142930276, "trialdata": {"revealed_states": [], "clicked_states": [], "num_clicks_accrued": [0, 0, 0, 0, 0, 0, 0, 0, 0, 0, 0, 0, 0], "stateRewards": ["", 1, 1, -7, -9, -44, 24, -83, -15, 44, -24, 72, -2, -3, 4, -5, 57, 55, 29, -11, 22, 12, -25, -1, 2, 7, 12, 33, -8, 47, -4, 8, 50, -4], "withholdReward": false, "trial_id": "mdp_trial_12", "block": "test", "trialIndex": 13, "score": -58, "costs": 0, "simulationMode": [null, null, null, null, null], "rewards": [1, 1, -7, -9, -44], "path": ["0", "0", "1", "2", "3", "4", "5"], "rt": [2582, 579, 396, 1521, 166], "actions": ["up", "up", "up", "right", "up"], "actionTimes": [5486, 6628, 7612, 9672, 10426], "queries": {"click": {"state": {"target": [], "time": []}, "edge": {"target": [], "time": []}}, "mouseover": {"state": {"target": [], "time": []}, "edge": {"target": [], "time": []}}, "mouseout": {"state": {"target": ["14", "15"], "time": [1295, 1545]}, "edge": {"target": [], "time": []}}}, "displayed_time": "16.91", "trialTime": 19773, "trial_type": "mouselab-mdp", "trial_index": 20, "time_elapsed": 610930, "internal_node_id": "0.0-4.0-1.0-11.0"}}, {"uniqueid": "w47079964:a71096779", "current_trial": 21, "dateTime": 1691142951236, "trialdata": {"revealed_states": [], "clicked_states": [], "num_clicks_accrued": [0, 0, 0, 0, 0, 0, 0, 0, 0, 0, 0, 0, 0], "stateRewards": ["", -2, -4, -6, 12, -58, -70, -80, 2, 16, -88, -62, 1, 2, -5, 11, 77, -35, -44, -5, 18, -83, 87, 1, -3, -5, 13, -44, -21, -86, 10, -52, 8, 29], "withholdReward": false, "trial_id": "mdp_trial_13", "block": "test", "trialIndex": 14, "score": 80, "costs": 0, "simulationMode": [null, null, null, null, null], "rewards": [1, 2, -5, -5, 87], "path": ["0", "0", "12", "13", "14", "19", "22"], "rt": [4851, 399, 267, 168, 1240], "actions": ["right", "right", "right", "down", "left"], "actionTimes": [7353, 8274, 9075, 9817, 11633], "queries": {"click": {"state": {"target": [], "time": []}, "edge": {"target": [], "time": []}}, "mouseover": {"state": {"target": [], "time": []}, "edge": {"target": [], "time": []}}, "mouseout": {"state": {"target": ["14", "13", "12", "0", "0"], "time": [300, 650, 756, 966, 2594]}, "edge": {"target": [], "time": []}}}, "displayed_time": "16.50", "trialTime": 19707, "trial_type": "mouselab-mdp", "trial_index": 21, "time_elapsed": 631891, "internal_node_id": "0.0-4.0-1.0-12.0"}}, {"uniqueid": "w47079964:a71096779", "current_trial": 22, "dateTime": 1691142974041, "trialdata": {"revealed_states": [], "clicked_states": ["1"], "num_clicks_accrued": [0, 0, 0, 0, 0, 0, 0, 0, 0, 0, 0, 0, 0], "stateRewards": ["", 2, -4, 1, -12, -59, -53, -74, 16, -88, -66, 66, 1, -2, 8, -9, -14, 22, 25, -1, -39, 47, -14, -1, -1, -2, 1, -4, 52, -26, 15, -7, 46, 43], "withholdReward": false, "trial_id": "mdp_trial_14", "block": "test", "trialIndex": 15, "score": 79.6, "costs": -1.4, "simulationMode": [null, null, null, null, null], "rewards": [2, -4, 1, 16, 66], "path": ["0", "0", "1", "2", "3", "8", "11"], "rt": [7684, 398, 348, 1415, 91], "actions": ["up", "up", "up", "left", "left"], "actionTimes": [10974, 11903, 12847, 14847, 15484], "queries": {"click": {"state": {"target": ["1"], "time": [4856]}, "edge": {"target": [], "time": []}}, "mouseover": {"state": {"target": ["1"], "time": [4605]}, "edge": {"target": [], "time": []}}, "mouseout": {"state": {"target": ["19", "0", "1"], "time": [1619, 3375, 4992]}, "edge": {"target": [], "time": []}}}, "displayed_time": "17.29", "trialTime": 21498, "trial_type": "mouselab-mdp", "trial_index": 22, "time_elapsed": 654696, "internal_node_id": "0.0-4.0-1.0-13.0"}}, {"uniqueid": "w47079964:a71096779", "current_trial": 23, "dateTime": 1691142997271, "trialdata": {"revealed_states": [], "clicked_states": ["12"], "num_clicks_accrued": [0, 0, 0, 0, 0, 0, 0, 0, 0, 0, 0, 0, 0], "stateRewards": ["", 1, -2, -8, -13, 4, 34, -84, -4, -49, 88, -70, -1, 3, -4, 10, -77, 13, -34, 15, -21, -16, 27, 1, -2, 8, -8, -6, 38, -26, 6, -15, 66, -3], "withholdReward": false, "trial_id": "mdp_trial_15", "block": "test", "trialIndex": 16, "score": 77.6, "costs": -1.4, "simulationMode": [null, null, null, null, null], "rewards": [1, -2, 8, 6, 66], "path": ["0", "0", "23", "24", "25", "30", "32"], "rt": [7554, 413, 404, 1046, 1096], "actions": ["left", "left", "left", "down", "down"], "actionTimes": [11241, 12202, 13139, 14766, 16427], "queries": {"click": {"state": {"target": ["12"], "time": [6367]}, "edge": {"target": [], "time": []}}, "mouseover": {"state": {"target": ["13", "12"], "time": [5542, 5910]}, "edge": {"target": [], "time": []}}, "mouseout": {"state": {"target": ["12", "0", "13", "12"], "time": [1988, 2705, 5808, 6797]}, "edge": {"target": [], "time": []}}}, "displayed_time": "17.69", "trialTime": 21948, "trial_type": "mouselab-mdp", "trial_index": 23, "time_elapsed": 677925, "internal_node_id": "0.0-4.0-1.0-14.0"}}, {"uniqueid": "w47079964:a71096779", "current_trial": 24, "dateTime": 1691143020288, "trialdata": {"revealed_states": [], "clicked_states": ["23"], "num_clicks_accrued": [0, 0, 0, 0, 0, 0, 0, 0, 0, 0, 0, 0, 0], "stateRewards": ["", -1, -3, -7, -4, -85, -70, 79, 8, 84, -66, 42, 2, -2, -3, -16, -54, -66, 68, -3, 21, -14, 7, -2, -1, -3, -8, 75, 80, 86, -7, -84, 73, -16], "withholdReward": false, "trial_id": "mdp_trial_16", "block": "test", "trialIndex": 17, "score": 62.6, "costs": -1.4, "simulationMode": [null, null, null, null, null], "rewards": [-1, -3, -7, -4, 79], "path": ["0", "0", "1", "2", "3", "4", "7"], "rt": [5074, 529, 1186, 2177, 537], "actions": ["up", "up", "up", "right", "down"], "actionTimes": [8425, 9608, 11311, 13999, 15115], "queries": {"click": {"state": {"target": ["23"], "time": [4410]}, "edge": {"target": [], "time": []}}, "mouseover": {"state": {"target": ["23", "0"], "time": [4081, 4836]}, "edge": {"target": [], "time": []}}, "mouseout": {"state": {"target": ["13", "12", "23", "0"], "time": [1679, 1927, 4828, 4929]}, "edge": {"target": [], "time": []}}}, "displayed_time": "17.35", "trialTime": 21673, "trial_type": "mouselab-mdp", "trial_index": 24, "time_elapsed": 700943, "internal_node_id": "0.0-4.0-1.0-15.0"}}, {"uniqueid": "w47079964:a71096779", "current_trial": 25, "dateTime": 1691143043239, "trialdata": {"revealed_states": [], "clicked_states": ["1"], "num_clicks_accrued": [0, 0, 0, 0, 0, 0, 0, 0, 0, 0, 0, 0, 0], "stateRewards": ["", -1, 4, -6, -5, -22, -38, -38, -2, -56, 88, 14, -1, -1, -7, -6, 61, -60, 21, 11, 57, 31, -30, -2, -2, 6, -9, -44, -70, -44, -15, 34, 16, -78], "withholdReward": false, "trial_id": "mdp_trial_17", "block": "test", "trialIndex": 18, "score": 4.600000000000001, "costs": -1.4, "simulationMode": [null, null, null, null, null], "rewards": [-1, -1, -7, -6, 21], "path": ["0", "0", "12", "13", "14", "15", "18"], "rt": [10223, 542, 866, 437, 363], "actions": ["right", "right", "right", "up", "left"], "actionTimes": [12987, 14073, 15470, 16486, 17387], "queries": {"click": {"state": {"target": ["1"], "time": [3770]}, "edge": {"target": [], "time": []}}, "mouseover": {"state": {"target": ["1", "12"], "time": [3434, 8479]}, "edge": {"target": [], "time": []}}, "mouseout": {"state": {"target": ["12", "0", "1"], "time": [1150, 3234, 4290]}, "edge": {"target": [], "time": []}}}, "displayed_time": "17.98", "trialTime": 21663, "trial_type": "mouselab-mdp", "trial_index": 25, "time_elapsed": 723894, "internal_node_id": "0.0-4.0-1.0-16.0"}}, {"uniqueid": "w47079964:a71096779", "current_trial": 26, "dateTime": 1691143066563, "trialdata": {"revealed_states": [], "clicked_states": ["12"], "num_clicks_accrued": [0, 0, 0, 0, 0, 0, 0, 0, 0, 0, 0, 0, 0], "stateRewards": ["", -1, 3, -5, -2, -13, -9, -34, -7, -81, 32, 35, -2, -2, 1, -14, -32, 81, 7, 4, 82, 56, -8, -1, 3, -8, 6, -24, -24, -53, 2, 38, 61, 54], "withholdReward": false, "trial_id": "mdp_trial_18", "block": "test", "trialIndex": 19, "score": -25.4, "costs": -1.4, "simulationMode": [null, null, null, null, null], "rewards": [-1, 3, -8, 6, -24], "path": ["0", "0", "23", "24", "25", "26", "28"], "rt": [6788, 324, 303, 151, 227], "actions": ["left", "left", "left", "up", "right"], "actionTimes": [9728, 10593, 11455, 12181, 12944], "queries": {"click": {"state": {"target": ["12"], "time": [3893]}, "edge": {"target": [], "time": []}}, "mouseover": {"state": {"target": ["12", "13"], "time": [3255, 4700]}, "edge": {"target": [], "time": []}}, "mouseout": {"state": {"target": ["12", "0", "12", "13"], "time": [1717, 3034, 4264, 5572]}, "edge": {"target": [], "time": []}}}, "displayed_time": "16.94", "trialTime": 22038, "trial_type": "mouselab-mdp", "trial_index": 26, "time_elapsed": 747218, "internal_node_id": "0.0-4.0-1.0-17.0"}}, {"uniqueid": "w47079964:a71096779", "current_trial": 27, "dateTime": 1691143085915, "trialdata": {"revealed_states": [], "clicked_states": ["23"], "num_clicks_accrued": [0, 0, 0, 0, 0, 0, 0, 0, 0, 0, 0, 0, 0], "stateRewards": ["", -1, -4, 8, 8, -68, 47, 24, -7, -61, 49, -69, -1, -1, 8, -7, 42, 1, -45, -11, 10, -63, -6, 1, 4, 6, -16, 79, -37, -58, -12, 81, 18, -53], "withholdReward": false, "trial_id": "mdp_trial_19", "block": "test", "trialIndex": 20, "score": -66.4, "costs": -1.4, "simulationMode": [null, null, null, null, null], "rewards": [-1, -4, 8, -7, -61], "path": ["0", "0", "1", "2", "3", "8", "9"], "rt": [5879, 329, 805, 289, 295], "actions": ["up", "up", "up", "left", "up"], "actionTimes": [8158, 9039, 10379, 11233, 12092], "queries": {"click": {"state": {"target": ["23"], "time": [3410]}, "edge": {"target": [], "time": []}}, "mouseover": {"state": {"target": ["23", "18"], "time": [2866, 3941]}, "edge": {"target": [], "time": []}}, "mouseout": {"state": {"target": ["18", "1", "23"], "time": [77, 511, 3748]}, "edge": {"target": [], "time": []}}}, "displayed_time": "16.28", "trialTime": 17903, "trial_type": "mouselab-mdp", "trial_index": 27, "time_elapsed": 766570, "internal_node_id": "0.0-4.0-1.0-18.0"}}, {"uniqueid": "w47079964:a71096779", "current_trial": 28, "dateTime": 1691143106631, "trialdata": {"revealed_states": [], "clicked_states": [], "num_clicks_accrued": [0, 0, 0, 0, 0, 0, 0, 0, 0, 0, 0, 0, 0], "stateRewards": ["", 1, -2, 4, 7, -43, -83, -60, -5, -86, -80, 83, -1, -2, 6, 11, -15, 21, 13, 9, 29, -49, 11, -1, 4, -6, -11, 87, 40, 63, -8, -39, -11, 62], "withholdReward": false, "trial_id": "mdp_trial_20", "block": "test", "trialIndex": 21, "score": -73, "costs": 0, "simulationMode": [null, null, null, null, null], "rewards": [1, -2, 4, 7, -83], "path": ["0", "0", "1", "2", "3", "4", "6"], "rt": [6441, 178, 180, 68, 180], "actions": ["up", "up", "up", "right", "right"], "actionTimes": [10350, 11080, 11849, 12492, 13247], "queries": {"click": {"state": {"target": [], "time": []}, "edge": {"target": [], "time": []}}, "mouseover": {"state": {"target": ["0"], "time": [9697]}, "edge": {"target": [], "time": []}}, "mouseout": {"state": {"target": ["18", "12", "0", "0"], "time": [1979, 2228, 2413, 3992]}, "edge": {"target": [], "time": []}}}, "displayed_time": "17.91", "trialTime": 19452, "trial_type": "mouselab-mdp", "trial_index": 28, "time_elapsed": 787284, "internal_node_id": "0.0-4.0-1.0-19.0"}}, {"uniqueid": "w47079964:a71096779", "current_trial": 29, "dateTime": 1691143126214, "trialdata": {"revealed_states": [], "clicked_states": [], "num_clicks_accrued": [0, 0, 0, 0, 0, 0, 0, 0, 0, 0, 0, 0, 0], "stateRewards": ["", -2, -3, 8, 14, -73, 73, 84, -12, -2, -50, -17, 2, 1, -2, -9, -44, -27, -33, 16, -63, -47, -66, -2, 1, 4, -5, -33, -11, 50, 9, 38, -79, 31], "withholdReward": false, "trial_id": "mdp_trial_21", "block": "test", "trialIndex": 22, "score": -35, "costs": 0, "simulationMode": [null, null, null, null, null], "rewards": [-2, 1, 4, -5, -33], "path": ["0", "0", "23", "24", "25", "26", "27"], "rt": [5625, 791, 805, 522, 304], "actions": ["left", "left", "left", "up", "up"], "actionTimes": [8526, 9882, 11242, 12394, 13242], "queries": {"click": {"state": {"target": [], "time": []}, "edge": {"target": [], "time": []}}, "mouseover": {"state": {"target": [], "time": []}, "edge": {"target": [], "time": []}}, "mouseout": {"state": {"target": ["0", "2", "1"], "time": [1049, 1382, 1516]}, "edge": {"target": [], "time": []}}}, "displayed_time": "16.91", "trialTime": 18392, "trial_type": "mouselab-mdp", "trial_index": 29, "time_elapsed": 806869, "internal_node_id": "0.0-4.0-1.0-20.0"}}, {"uniqueid": "w47079964:a71096779", "current_trial": 30, "dateTime": 1691143148517, "trialdata": {"revealed_states": [], "clicked_states": ["12"], "num_clicks_accrued": [0, 0, 0, 0, 0, 0, 0, 0, 0, 0, 0, 0, 0], "stateRewards": ["", 2, 3, -3, 4, 72, -28, 34, -12, 57, -64, -15, 2, 1, -4, -15, 2, 49, 31, -1, -42, -58, 31, -2, 1, -2, -13, -75, -19, -22, -6, 61, 10, -56], "withholdReward": false, "trial_id": "mdp_trial_22", "block": "test", "trialIndex": 23, "score": 27.6, "costs": -1.4, "simulationMode": [null, null, null, null, null], "rewards": [2, 1, -4, -1, 31], "path": ["0", "0", "12", "13", "14", "19", "22"], "rt": [5942, 619, 650, 300, 414], "actions": ["right", "right", "right", "down", "left"], "actionTimes": [10086, 11203, 12416, 13288, 14338], "queries": {"click": {"state": {"target": ["12"], "time": [5412]}, "edge": {"target": [], "time": []}}, "mouseover": {"state": {"target": ["12"], "time": [4984]}, "edge": {"target": [], "time": []}}, "mouseout": {"state": {"target": ["1", "12"], "time": [2298, 5845]}, "edge": {"target": [], "time": []}}}, "displayed_time": "18.15", "trialTime": 21113, "trial_type": "mouselab-mdp", "trial_index": 30, "time_elapsed": 829171, "internal_node_id": "0.0-4.0-1.0-21.0"}}, {"uniqueid": "w47079964:a71096779", "current_trial": 31, "dateTime": 1691143172498, "trialdata": {"revealed_states": [], "clicked_states": ["23", "12"], "num_clicks_accrued": [0, 0, 0, 0, 0, 0, 0, 0, 0, 0, 0, 0, 0], "stateRewards": ["", 2, -3, -2, 14, -4, 85, 46, 15, -28, 41, 31, -1, -1, -1, 5, 62, 79, 57, 12, -73, -64, 86, -1, 1, -3, -5, 68, 11, -32, 8, -80, -21, -56], "withholdReward": false, "trial_id": "mdp_trial_23", "block": "test", "trialIndex": 24, "score": 93.2, "costs": -2.8, "simulationMode": [null, null, null, null, null], "rewards": [2, -3, -2, 14, 85], "path": ["0", "0", "1", "2", "3", "4", "6"], "rt": [9096, 517, 428, 491, 786], "actions": ["up", "up", "up", "right", "right"], "actionTimes": [12390, 13469, 14489, 15508, 16838], "queries": {"click": {"state": {"target": ["23", "12"], "time": [5432, 8768]}, "edge": {"target": [], "time": []}}, "mouseover": {"state": {"target": ["23", "1", "12"], "time": [5173, 5805, 8556]}, "edge": {"target": [], "time": []}}, "mouseout": {"state": {"target": ["23", "1", "12"], "time": [5716, 5900, 8974]}, "edge": {"target": [], "time": []}}}, "displayed_time": "17.43", "trialTime": 22850, "trial_type": "mouselab-mdp", "trial_index": 31, "time_elapsed": 853153, "internal_node_id": "0.0-4.0-1.0-22.0"}}, {"uniqueid": "w47079964:a71096779", "current_trial": 32, "dateTime": 1691143195421, "trialdata": {"revealed_states": [], "clicked_states": ["12", "23", "1"], "num_clicks_accrued": [0, 0, 0, 0, 0, 0, 0, 0, 0, 0, 0, 0, 0], "stateRewards": ["", -2, -4, -8, 8, 63, -50, -19, -7, -17, -31, 31, 1, 3, -5, 12, -35, -63, -29, -4, -17, -75, -79, -2, -3, -2, 8, -3, -85, 10, -2, -82, -82, 56], "withholdReward": false, "trial_id": "mdp_trial_24", "block": "test", "trialIndex": 25, "score": -84.2, "costs": -4.199999999999999, "simulationMode": [null, null, null, null, null], "rewards": [1, 3, -5, -4, -75], "path": ["0", "0", "12", "13", "14", "19", "21"], "rt": [9327, 581, 406, 242, 209], "actions": ["right", "right", "right", "down", "down"], "actionTimes": [12728, 13860, 14834, 15618, 16428], "queries": {"click": {"state": {"target": ["12", "23", "1"], "time": [4499, 6567, 9809]}, "edge": {"target": [], "time": []}}, "mouseover": {"state": {"target": ["12", "0", "23", "1"], "time": [4199, 5547, 6189, 9533]}, "edge": {"target": [], "time": []}}, "mouseout": {"state": {"target": ["12", "0", "0", "12", "0", "23", "1"], "time": [1584, 1700, 2182, 4945, 5854, 6872, 10178]}, "edge": {"target": [], "time": []}}}, "displayed_time": "17.40", "trialTime": 21685, "trial_type": "mouselab-mdp", "trial_index": 32, "time_elapsed": 876076, "internal_node_id": "0.0-4.0-1.0-23.0"}}, {"uniqueid": "w47079964:a71096779", "current_trial": 33, "dateTime": 1691143215690, "trialdata": {"revealed_states": [], "clicked_states": [], "num_clicks_accrued": [0, 0, 0, 0, 0, 0, 0, 0, 0, 0, 0, 0, 0], "stateRewards": ["", -1, 3, 8, 9, -53, 20, -84, 2, -28, -62, -31, -1, -2, -7, 2, 51, 58, 45, -4, -17, -41, 36, 2, -2, -7, -15, 29, -54, -37, -16, -43, 65, -17], "withholdReward": false, "trial_id": "mdp_trial_25", "block": "test", "trialIndex": 26, "score": -50, "costs": 0, "simulationMode": [null, null, null, null, null], "rewards": [-1, 3, 8, 2, -62], "path": ["0", "0", "1", "2", "3", "8", "10"], "rt": [2816, 75, 121, 58, 127], "actions": ["up", "up", "up", "left", "down"], "actionTimes": [5710, 6331, 7022, 7629, 8320], "queries": {"click": {"state": {"target": [], "time": []}, "edge": {"target": [], "time": []}}, "mouseover": {"state": {"target": ["1"], "time": [3836]}, "edge": {"target": [], "time": []}}, "mouseout": {"state": {"target": ["1", "1"], "time": [1320, 4436]}, "edge": {"target": [], "time": []}}}, "displayed_time": "16.89", "trialTime": 19225, "trial_type": "mouselab-mdp", "trial_index": 33, "time_elapsed": 896345, "internal_node_id": "0.0-4.0-1.0-24.0"}}, {"uniqueid": "w47079964:a71096779", "current_trial": 34, "dateTime": 1691143237010, "trialdata": {"revealed_states": [], "clicked_states": [], "num_clicks_accrued": [0, 0, 0, 0, 0, 0, 0, 0, 0, 0, 0, 0, 0], "stateRewards": ["", -1, -2, -8, 8, -27, -82, 19, -14, -62, 4, 1, -2, 2, 6, 10, 73, -51, -2, 2, 73, -48, 54, -1, 2, -4, 11, -25, 47, 86, 15, 33, 43, -42], "withholdReward": false, "trial_id": "mdp_trial_26", "block": "test", "trialIndex": 27, "score": -30, "costs": 0, "simulationMode": [null, null, null, null, null], "rewards": [-1, 2, -4, 15, -42], "path": ["0", "0", "23", "24", "25", "30", "33"], "rt": [2071, 303, 326, 221, 1678], "actions": ["left", "left", "left", "down", "left"], "actionTimes": [5386, 6231, 7100, 7929, 10163], "queries": {"click": {"state": {"target": [], "time": []}, "edge": {"target": [], "time": []}}, "mouseover": {"state": {"target": [], "time": []}, "edge": {"target": [], "time": []}}, "mouseout": {"state": {"target": ["0"], "time": [2233]}, "edge": {"target": [], "time": []}}}, "displayed_time": "17.32", "trialTime": 20141, "trial_type": "mouselab-mdp", "trial_index": 34, "time_elapsed": 917665, "internal_node_id": "0.0-4.0-1.0-25.0"}}, {"uniqueid": "w47079964:a71096779", "current_trial": 35, "dateTime": 1691143258975, "trialdata": {"revealed_states": [], "clicked_states": [], "num_clicks_accrued": [0, 0, 0, 0, 0, 0, 0, 0, 0, 0, 0, 0, 0], "stateRewards": ["", 1, 4, 7, -16, -84, -6, -46, -12, -7, -49, -26, -1, 2, -4, 2, 22, 37, -64, 1, 88, -13, -10, 1, -4, -2, 5, 2, -10, -34, 9, 66, 55, 38], "withholdReward": false, "trial_id": "mdp_trial_27", "block": "test", "trialIndex": 28, "score": -26, "costs": 0, "simulationMode": [null, null, null, null, null], "rewards": [1, 4, 7, -12, -26], "path": ["0", "0", "1", "2", "3", "8", "11"], "rt": [3042, 577, 251, 168, 130], "actions": ["up", "up", "up", "left", "left"], "actionTimes": [6123, 7260, 8061, 8778, 9479], "queries": {"click": {"state": {"target": [], "time": []}, "edge": {"target": [], "time": []}}, "mouseover": {"state": {"target": [], "time": []}, "edge": {"target": [], "time": []}}, "mouseout": {"state": {"target": [], "time": []}, "edge": {"target": [], "time": []}}}, "displayed_time": "17.08", "trialTime": 20835, "trial_type": "mouselab-mdp", "trial_index": 35, "time_elapsed": 939630, "internal_node_id": "0.0-4.0-1.0-26.0"}}, {"uniqueid": "w47079964:a71096779", "current_trial": 36, "dateTime": 1691143279673, "trialdata": {"revealed_states": [], "clicked_states": [], "num_clicks_accrued": [0, 0, 0, 0, 0, 0, 0, 0, 0, 0, 0, 0, 0], "stateRewards": ["", -2, 4, -5, -12, 85, -24, -18, -15, -78, -22, 26, -1, -1, 2, 14, -45, 52, -23, 7, -33, 24, -6, -2, -4, 5, -7, -16, 36, -39, 5, 71, -87, -23], "withholdReward": false, "trial_id": "mdp_trial_28", "block": "test", "trialIndex": 29, "score": -31, "costs": 0, "simulationMode": [null, null, null, null, null], "rewards": [-1, -1, 2, 14, -45], "path": ["0", "0", "12", "13", "14", "15", "16"], "rt": [3244, 302, 429, 275, 90], "actions": ["right", "right", "right", "up", "up"], "actionTimes": [6492, 7361, 8338, 9155, 9788], "queries": {"click": {"state": {"target": [], "time": []}, "edge": {"target": [], "time": []}}, "mouseover": {"state": {"target": [], "time": []}, "edge": {"target": [], "time": []}}, "mouseout": {"state": {"target": ["0"], "time": [3338]}, "edge": {"target": [], "time": []}}}, "displayed_time": "17.25", "trialTime": 19068, "trial_type": "mouselab-mdp", "trial_index": 36, "time_elapsed": 960327, "internal_node_id": "0.0-4.0-1.0-27.0"}}, {"uniqueid": "w47079964:a71096779", "current_trial": 37, "dateTime": 1691143299350, "trialdata": {"revealed_states": [], "clicked_states": ["1"], "num_clicks_accrued": [0, 0, 0, 0, 0, 0, 0, 0, 0, 0, 0, 0, 0], "stateRewards": ["", -2, 2, 8, -6, -25, 3, 87, 2, -62, -2, 74, -2, -1, 2, -1, 79, 49, -37, -14, 5, 67, -9, -1, 2, -2, 5, 15, 38, 32, -14, -38, -38, 30], "withholdReward": false, "trial_id": "mdp_trial_29", "block": "test", "trialIndex": 30, "score": -54.4, "costs": -1.4, "simulationMode": [null, null, null, null, null], "rewards": [-1, 2, -2, -14, -38], "path": ["0", "0", "23", "24", "25", "30", "31"], "rt": [6593, 1604, 316, 1490, 265], "actions": ["left", "left", "left", "down", "right"], "actionTimes": [9239, 11383, 12231, 14324, 15137], "queries": {"click": {"state": {"target": ["1"], "time": [4886]}, "edge": {"target": [], "time": []}}, "mouseover": {"state": {"target": ["1", "12"], "time": [4602, 7854]}, "edge": {"target": [], "time": []}}, "mouseout": {"state": {"target": ["12", "1", "12"], "time": [1051, 5467, 8002]}, "edge": {"target": [], "time": []}}}, "displayed_time": "16.65", "trialTime": 18539, "trial_type": "mouselab-mdp", "trial_index": 37, "time_elapsed": 980004, "internal_node_id": "0.0-4.0-1.0-28.0"}}, {"uniqueid": "w47079964:a71096779", "current_trial": 38, "dateTime": 1691143319684, "trialdata": {"revealed_states": [], "clicked_states": [], "num_clicks_accrued": [0, 0, 0, 0, 0, 0, 0, 0, 0, 0, 0, 0, 0], "stateRewards": ["", -1, -3, -3, 1, -38, 2, -53, -2, -1, -81, 70, -1, 1, -5, -9, 46, 15, 35, -1, -22, 38, 59, -2, 4, -8, 13, 1, -83, -43, 4, 76, 13, 48], "withholdReward": false, "trial_id": "mdp_trial_30", "block": "test", "trialIndex": 31, "score": -44, "costs": 0, "simulationMode": [null, null, null, null, null], "rewards": [-1, -3, -3, 1, -38], "path": ["0", "0", "1", "2", "3", "4", "5"], "rt": [3889, 165, 175, 423, 89], "actions": ["up", "up", "up", "right", "up"], "actionTimes": [7046, 7784, 8518, 9480, 10152], "queries": {"click": {"state": {"target": [], "time": []}, "edge": {"target": [], "time": []}}, "mouseover": {"state": {"target": ["14"], "time": [3252]}, "edge": {"target": [], "time": []}}, "mouseout": {"state": {"target": ["12"], "time": [1684]}, "edge": {"target": [], "time": []}}}, "displayed_time": "17.16", "trialTime": 19173, "trial_type": "mouselab-mdp", "trial_index": 38, "time_elapsed": 1000339, "internal_node_id": "0.0-4.0-1.0-29.0"}}, {"uniqueid": "w47079964:a71096779", "current_trial": 39, "dateTime": 1691143340554, "trialdata": {"revealed_states": [], "clicked_states": [], "num_clicks_accrued": [0, 0, 0, 0, 0, 0, 0, 0, 0, 0, 0, 0, 0], "stateRewards": ["", 1, 2, -8, 9, 18, -83, -11, 6, -64, -48, 17, -2, -2, -5, -3, -24, -3, -86, -2, 48, -41, -22, -2, 4, 7, 8, 81, 13, -48, 10, 61, 19, 57], "withholdReward": false, "trial_id": "mdp_trial_31", "block": "test", "trialIndex": 32, "score": -63, "costs": 0, "simulationMode": [null, null, null, null, null], "rewards": [1, 2, -8, 6, -64], "path": ["0", "0", "1", "2", "3", "8", "9"], "rt": [4229, 125, 183, 684, 331], "actions": ["up", "up", "up", "left", "up"], "actionTimes": [7293, 7990, 8749, 10029, 10917], "queries": {"click": {"state": {"target": [], "time": []}, "edge": {"target": [], "time": []}}, "mouseover": {"state": {"target": ["14"], "time": [3208]}, "edge": {"target": [], "time": []}}, "mouseout": {"state": {"target": ["14", "13", "12", "0"], "time": [1496, 1595, 1712, 3187]}, "edge": {"target": [], "time": []}}}, "displayed_time": "17.07", "trialTime": 18689, "trial_type": "mouselab-mdp", "trial_index": 39, "time_elapsed": 1021209, "internal_node_id": "0.0-4.0-1.0-30.0"}}, {"uniqueid": "w47079964:a71096779", "current_trial": 40, "dateTime": 1691143360899, "trialdata": {"revealed_states": [], "clicked_states": [], "num_clicks_accrued": [0, 0, 0, 0, 0, 0, 0, 0, 0, 0, 0, 0, 0], "stateRewards": ["", -2, -1, 3, -3, 71, -58, -21, 7, -10, -75, -37, 2, 4, -1, -12, -79, -29, -48, 3, -41, -10, -30, -1, -2, 1, -15, 13, 66, 22, -1, -42, -86, -55], "withholdReward": false, "trial_id": "mdp_trial_32", "block": "test", "trialIndex": 33, "score": -89, "costs": 0, "simulationMode": [null, null, null, null, null], "rewards": [-1, -2, 1, -1, -86], "path": ["0", "0", "23", "24", "25", "30", "32"], "rt": [2314, 345, 338, 92, 291], "actions": ["left", "left", "left", "down", "down"], "actionTimes": [5353, 6234, 7159, 7796, 8672], "queries": {"click": {"state": {"target": [], "time": []}, "edge": {"target": [], "time": []}}, "mouseover": {"state": {"target": [], "time": []}, "edge": {"target": [], "time": []}}, "mouseout": {"state": {"target": ["14", "0"], "time": [1481, 3137]}, "edge": {"target": [], "time": []}}}, "displayed_time": "17.04", "trialTime": 18954, "trial_type": "mouselab-mdp", "trial_index": 40, "time_elapsed": 1041553, "internal_node_id": "0.0-4.0-1.0-31.0"}}, {"uniqueid": "w47079964:a71096779", "current_trial": 41, "dateTime": 1691143385402, "trialdata": {"revealed_states": [], "clicked_states": ["23", "25", "26"], "num_clicks_accrued": [0, 0, 0, 0, 0, 0, 0, 0, 0, 0, 0, 0, 0], "stateRewards": ["", 2, -3, -5, 5, 11, -9, -33, 6, 67, 6, -30, -1, -2, -6, 13, 55, 13, 72, -14, 75, 21, -66, -2, -4, 6, 15, -1, -35, 60, 2, 51, -73, 12], "withholdReward": false, "trial_id": "mdp_trial_33", "block": "test", "trialIndex": 34, "score": 9.8, "costs": -4.199999999999999, "simulationMode": [null, null, null, null, null], "rewards": [-2, -4, 6, 15, -1], "path": ["0", "0", "23", "24", "25", "26", "27"], "rt": [9743, 200, 81, 205, 640], "actions": ["left", "left", "left", "up", "up"], "actionTimes": [13273, 14009, 14750, 15533, 16722], "queries": {"click": {"state": {"target": ["23", "25", "26"], "time": [4887, 7200, 9918]}, "edge": {"target": [], "time": []}}, "mouseover": {"state": {"target": ["0", "23", "24", "25", "24", "26", "28", "1"], "time": [3639, 4628, 5433, 6301, 7660, 9551, 10225, 10497]}, "edge": {"target": [], "time": []}}, "mouseout": {"state": {"target": ["13", "12", "0", "23", "24", "25", "24", "26", "28", "1"], "time": [1460, 1711, 4362, 5200, 6206, 7563, 9395, 10127, 10323, 11339]}, "edge": {"target": [], "time": []}}}, "displayed_time": "17.53", "trialTime": 23337, "trial_type": "mouselab-mdp", "trial_index": 41, "time_elapsed": 1066057, "internal_node_id": "0.0-4.0-1.0-32.0"}}, {"uniqueid": "w47079964:a71096779", "current_trial": 42, "dateTime": 1691143404908, "trialdata": {"revealed_states": [], "clicked_states": [], "num_clicks_accrued": [0, 0, 0, 0, 0, 0, 0, 0, 0, 0, 0, 0, 0], "stateRewards": ["", 1, 1, -5, 8, -6, 45, 16, -6, -7, -22, -38, -1, -4, 8, -11, -16, 21, -45, -15, -59, -32, 42, -1, 3, 6, 11, -7, 34, -27, -8, 85, 43, -9], "withholdReward": false, "trial_id": "mdp_trial_34", "block": "test", "trialIndex": 35, "score": -53, "costs": 0, "simulationMode": [null, null, null, null, null], "rewards": [-1, -4, 8, -11, -45], "path": ["0", "0", "12", "13", "14", "15", "18"], "rt": [4039, 132, 56, 58, 96], "actions": ["right", "right", "right", "up", "left"], "actionTimes": [6838, 7550, 8160, 8767, 9395], "queries": {"click": {"state": {"target": [], "time": []}, "edge": {"target": [], "time": []}}, "mouseover": {"state": {"target": ["12"], "time": [5021]}, "edge": {"target": [], "time": []}}, "mouseout": {"state": {"target": ["18", "18", "12", "0", "12"], "time": [754, 887, 1126, 2886, 5521]}, "edge": {"target": [], "time": []}}}, "displayed_time": "16.80", "trialTime": 18338, "trial_type": "mouselab-mdp", "trial_index": 42, "time_elapsed": 1085563, "internal_node_id": "0.0-4.0-1.0-33.0"}}, {"uniqueid": "w47079964:a71096779", "current_trial": 43, "dateTime": 1691143428344, "trialdata": {"revealed_states": [], "clicked_states": [], "num_clicks_accrued": [0, 0, 0, 0, 0, 0, 0, 0, 0, 0, 0, 0, 0], "stateRewards": ["", -2, 1, -7, 9, 8, 25, 61, -7, -17, 69, -81, 1, 4, -4, -11, 16, 67, 44, 3, 6, -45, -54, -2, 3, 6, -11, -15, 32, -47, 3, -39, -6, -88], "withholdReward": false, "trial_id": "mdp_trial_35", "block": "test", "trialIndex": 36, "score": 54, "costs": 0, "simulationMode": [null, null, null, null, null], "rewards": [-2, 1, -7, -7, 69], "path": ["0", "0", "1", "2", "3", "8", "10"], "rt": [3360, 530, 404, 563, 683], "actions": ["up", "up", "up", "left", "down"], "actionTimes": [7453, 8517, 9501, 10624, 11881], "queries": {"click": {"state": {"target": [], "time": []}, "edge": {"target": [], "time": []}}, "mouseover": {"state": {"target": [], "time": []}, "edge": {"target": [], "time": []}}, "mouseout": {"state": {"target": ["12", "0", "0"], "time": [1578, 2244, 4184]}, "edge": {"target": [], "time": []}}}, "displayed_time": "18.09", "trialTime": 22416, "trial_type": "mouselab-mdp", "trial_index": 43, "time_elapsed": 1108999, "internal_node_id": "0.0-4.0-1.0-34.0"}}, {"uniqueid": "w47079964:a71096779", "current_trial": 44, "dateTime": 1691143450461, "trialdata": {"revealed_states": [], "clicked_states": [], "num_clicks_accrued": [0, 0, 0, 0, 0, 0, 0, 0, 0, 0, 0, 0, 0], "stateRewards": ["", 1, -1, 1, 13, 31, -56, 72, 2, 41, 5, 63, -2, -3, -2, 3, -71, -26, 52, 13, -31, 24, -67, 2, -2, 5, 4, 66, 43, 72, 9, 86, -26, 44], "withholdReward": false, "trial_id": "mdp_trial_36", "block": "test", "trialIndex": 37, "score": 100, "costs": 0, "simulationMode": [null, null, null, null, null], "rewards": [2, -2, 5, 9, 86], "path": ["0", "0", "23", "24", "25", "30", "31"], "rt": [3891, 460, 844, 657, 226], "actions": ["left", "left", "left", "down", "right"], "actionTimes": [7389, 8398, 9820, 10996, 11823], "queries": {"click": {"state": {"target": [], "time": []}, "edge": {"target": [], "time": []}}, "mouseover": {"state": {"target": ["14"], "time": [3590]}, "edge": {"target": [], "time": []}}, "mouseout": {"state": {"target": ["13", "12", "0"], "time": [1536, 1702, 3582]}, "edge": {"target": [], "time": []}}}, "displayed_time": "17.50", "trialTime": 20958, "trial_type": "mouselab-mdp", "trial_index": 44, "time_elapsed": 1131115, "internal_node_id": "0.0-4.0-1.0-35.0"}}, {"uniqueid": "w47079964:a71096779", "current_trial": 45, "dateTime": 1691143470656, "trialdata": {"revealed_states": [], "clicked_states": [], "num_clicks_accrued": [0, 0, 0, 0, 0, 0, 0, 0, 0, 0, 0, 0, 0], "stateRewards": ["", 1, 1, 1, -3, -7, -1, -41, -10, 20, -72, -63, 1, -4, -2, 2, -66, 30, -84, -2, 49, 23, 71, -1, -4, 4, -12, 67, 5, 18, -16, 88, 56, -5], "withholdReward": false, "trial_id": "mdp_trial_37", "block": "test", "trialIndex": 38, "score": -87, "costs": 0, "simulationMode": [null, null, null, null, null], "rewards": [1, -4, -2, 2, -84], "path": ["0", "0", "12", "13", "14", "15", "18"], "rt": [2857, 543, 394, 252, 392], "actions": ["right", "right", "right", "up", "left"], "actionTimes": [5760, 6903, 7867, 8758, 9706], "queries": {"click": {"state": {"target": [], "time": []}, "edge": {"target": [], "time": []}}, "mouseover": {"state": {"target": [], "time": []}, "edge": {"target": [], "time": []}}, "mouseout": {"state": {"target": ["14", "13", "12"], "time": [1282, 1555, 1640]}, "edge": {"target": [], "time": []}}}, "displayed_time": "16.90", "trialTime": 19073, "trial_type": "mouselab-mdp", "trial_index": 45, "time_elapsed": 1151310, "internal_node_id": "0.0-4.0-1.0-36.0"}}, {"uniqueid": "w47079964:a71096779", "current_trial": 46, "dateTime": 1691143492258, "trialdata": {"revealed_states": [], "clicked_states": [], "num_clicks_accrued": [0, 0, 0, 0, 0, 0, 0, 0, 0, 0, 0, 0, 0], "stateRewards": ["", 1, -1, -7, -7, -22, 15, -13, 13, 26, -32, 38, -1, 1, -7, -4, 16, -62, 86, 12, -54, 56, 64, -2, -1, 6, 14, -57, 37, 62, -6, -25, 50, -70], "withholdReward": false, "trial_id": "mdp_trial_38", "block": "test", "trialIndex": 39, "score": -26, "costs": 0, "simulationMode": [null, null, null, null, null], "rewards": [1, -1, -7, 13, -32], "path": ["0", "0", "1", "2", "3", "8", "10"], "rt": [2995, 241, 288, 174, 132], "actions": ["up", "up", "up", "left", "down"], "actionTimes": [5933, 6801, 7728, 8550, 9357], "queries": {"click": {"state": {"target": [], "time": []}, "edge": {"target": [], "time": []}}, "mouseover": {"state": {"target": ["12"], "time": [3027]}, "edge": {"target": [], "time": []}}, "mouseout": {"state": {"target": [], "time": []}, "edge": {"target": [], "time": []}}}, "displayed_time": "16.94", "trialTime": 19293, "trial_type": "mouselab-mdp", "trial_index": 46, "time_elapsed": 1172913, "internal_node_id": "0.0-4.0-1.0-37.0"}}, {"uniqueid": "w47079964:a71096779", "current_trial": 47, "dateTime": 1691143511115, "trialdata": {"revealed_states": [], "clicked_states": [], "num_clicks_accrued": [0, 0, 0, 0, 0, 0, 0, 0, 0, 0, 0, 0, 0], "stateRewards": ["", 2, 4, -6, -13, -75, -81, 30, 7, 5, 59, -65, -1, -1, 7, 14, -38, 36, -41, 1, -54, -5, 64, 2, -1, 5, 6, -19, 79, 11, 16, -33, -50, 58], "withholdReward": false, "trial_id": "mdp_trial_39", "block": "test", "trialIndex": 40, "score": -88, "costs": 0, "simulationMode": [null, null, null, null, null], "rewards": [2, 4, -6, -13, -75], "path": ["0", "0", "1", "2", "3", "4", "5"], "rt": [5016, 983, 606, 1228, 378], "actions": ["up", "up", "up", "right", "up"], "actionTimes": [7030, 8606, 9755, 11579, 12517], "queries": {"click": {"state": {"target": [], "time": []}, "edge": {"target": [], "time": []}}, "mouseover": {"state": {"target": [], "time": []}, "edge": {"target": [], "time": []}}, "mouseout": {"state": {"target": ["12"], "time": [529]}, "edge": {"target": [], "time": []}}}, "displayed_time": "16.02", "trialTime": 17405, "trial_type": "mouselab-mdp", "trial_index": 47, "time_elapsed": 1191769, "internal_node_id": "0.0-4.0-1.0-38.0"}}, {"uniqueid": "w47079964:a71096779", "current_trial": 48, "dateTime": 1691143532135, "trialdata": {"revealed_states": [], "clicked_states": [], "num_clicks_accrued": [0, 0, 0, 0, 0, 0, 0, 0, 0, 0, 0, 0, 0], "stateRewards": ["", 2, -1, -3, 16, -3, -16, -62, -1, 13, -26, 43, -1, 4, 3, -9, -54, -37, -3, -12, -71, -68, -57, 1, -3, 2, -9, 2, -2, -9, -11, 84, -52, 55], "withholdReward": false, "trial_id": "mdp_trial_40", "block": "test", "trialIndex": 41, "score": 44, "costs": 0, "simulationMode": [null, null, null, null, null], "rewards": [1, -3, 2, -11, 55], "path": ["0", "0", "23", "24", "25", "30", "33"], "rt": [2923, 386, 1483, 979, 891], "actions": ["left", "left", "left", "down", "left"], "actionTimes": [5533, 6522, 8521, 10038, 11480], "queries": {"click": {"state": {"target": [], "time": []}, "edge": {"target": [], "time": []}}, "mouseover": {"state": {"target": [], "time": []}, "edge": {"target": [], "time": []}}, "mouseout": {"state": {"target": [], "time": []}, "edge": {"target": [], "time": []}}}, "displayed_time": "16.61", "trialTime": 19131, "trial_type": "mouselab-mdp", "trial_index": 48, "time_elapsed": 1212790, "internal_node_id": "0.0-4.0-1.0-39.0"}}, {"uniqueid": "w47079964:a71096779", "current_trial": 49, "dateTime": 1691143601658, "trialdata": {"rt": 69509, "response": {"Q0": "$-88 to $88", "Q1": "$-32 to $32", "Q2": "$-88 to $88", "Q3": "The cost was always $1.4.", "Q4": "Very motivated"}, "question_order": [0, 1, 2, 3, 4], "trial_id": "final_quiz_control", "trial_type": "survey-multi-choice", "trial_index": 49, "time_elapsed": 1282311, "internal_node_id": "0.0-4.0-2.0"}}, {"uniqueid": "w47079964:a71096779", "current_trial": 50, "dateTime": 1691143678431, "trialdata": {"rt": 76728, "response": {"Q0": "I just followed my intuition, mostly.", "Q1": "I don't think I did.", "Q2": "I found it somewhat difficult as I did not think there was a strategy to it except guess work."}, "trial_id": "self_report_control", "trial_type": "survey-text", "trial_index": 50, "time_elapsed": 1359086, "internal_node_id": "0.0-4.0-3.0"}}, {"uniqueid": "w47079964:a71096779", "current_trial": 51, "dateTime": 1691143699760, "trialdata": {"rt": 21318, "response": {"gender": "female", "age": "22", "colorblind": "0", "effort": "0"}, "trial_type": "survey-html-form", "trial_index": 51, "time_elapsed": 1380414, "internal_node_id": "0.0-4.0-4.0"}}, {"uniqueid": "w47079964:a71096779", "current_trial": 52, "dateTime": 1691143713130, "trialdata": {"rt": 13325, "response": {"Q0": "No.", "Q1": "No.", "Q2": ""}, "trial_type": "survey-text", "trial_index": 52, "time_elapsed": 1393785, "internal_node_id": "0.0-4.0-5.0"}}, {"uniqueid": "w47079964:a71096779", "current_trial": 53, "dateTime": 1691143715776, "trialdata": {"rt": 2633, "stimulus": "Press 'Finish HIT' in order to reach the completion code. Once the data has been saved, you will receive the code either in this window or in the original browser window where you started the experiment.\n", "response": 0, "trial_type": "html-button-response", "trial_index": 53, "time_elapsed": 1396431, "internal_node_id": "0.0-5.0"}}, {"uniqueid": "w47079964:a71096779", "current_trial": 54, "dateTime": 1691143716812, "trialdata": {"success": true, "trial_type": "fullscreen", "trial_index": 54, "time_elapsed": 1397467, "internal_node_id": "0.0-6.0"}}], "questiondata": {"params": {"CODE": "C6DMOQA6", "MIN_TIME": 14, "inspectCost": 1, "startTime": "Fri Aug 04 2023 11:45:16 GMT+0200 (South Africa Standard Time)", "bonusRate": 0.002, "variance": "1_2_4_8_44", "branching": "31123"}, "final_score": -263.2}, "eventdata": [{"eventtype": "initialized", "value": null, "timestamp": 1691142315760, "interval": 0}, {"eventtype": "window_resize", "value": [1024, 654], "timestamp": 1691142315760, "interval": 0}, {"eventtype": "window_resize", "value": [1024, 654], "timestamp": 1691142316405, "interval": 645}, {"eventtype": "window_resize", "value": [1366, 768], "timestamp": 1691142325173, "interval": 8768}, {"eventtype": "window_resize", "value": [1024, 654], "timestamp": 1691143716540, "interval": 1391367}], "useragent": "Mozilla/5.0 (Windows NT 10.0; Win64; x64) AppleWebKit/537.36 (KHTML, like Gecko) Chrome/115.0.0.0 Safari/537.36", "mode": "live", "id": "w47079964:a71096779", "status": "user data saved", "Beginhit": "2023-08-04 09:45:11.695731", "Beginexp": "2023-08-04 09:45:27.423761", "Endhit": "2023-08-04 10:08:40.347395", "psiturkStatus": 3, "browser": "<redacted>", "platform": "windows", "language": "en-US"}