{"condition": 0, "counterbalance": 0, "assignmentId": "a46861242", "workerId": "w99988518", "hitId": "h97683415", "currenttrial": 61, "bonus": 0, "data": [{"uniqueid": "w99988518:a46861242", "current_trial": 0, "dateTime": 1693660300271, "trialdata": {"success": true, "trial_type": "fullscreen", "trial_index": 0, "time_elapsed": 5509, "internal_node_id": "0.0-0.0"}}, {"uniqueid": "w99988518:a46861242", "current_trial": 1, "dateTime": 1693660316663, "trialdata": {"view_history": [{"page_index": 0, "viewing_time": 16383}], "rt": 16383, "trial_id": "exp_instructions_control", "trial_type": "instructions", "trial_index": 1, "time_elapsed": 21902, "internal_node_id": "0.0-1.0"}}, {"uniqueid": "w99988518:a46861242", "current_trial": 2, "dateTime": 1693660559423, "trialdata": {"view_history": [{"page_index": 0, "viewing_time": 108243}, {"page_index": 1, "viewing_time": 86392}, {"page_index": 2, "viewing_time": 20672}, {"page_index": 3, "viewing_time": 27448}], "rt": 242755, "trial_id": "mouselab_instructions_1_control", "trial_type": "instructions", "trial_index": 2, "time_elapsed": 264661, "internal_node_id": "0.0-2.0-1.0"}}, {"uniqueid": "w99988518:a46861242", "current_trial": 3, "dateTime": 1693660578974, "trialdata": {"revealed_states": [], "clicked_states": [], "num_clicks_accrued": [0, 0, 0, 0, 0, 0, 0, 0, 0, 0, 0, 0, 0], "stateRewards": ["", -10, -10, -10, -10, -10, -10, -10, -10, -10, -10, 10, 10, -10, 10, 10, 10, 10, -10, 10, 10, -10, 10, 10, -10, -10, -10, -10, 10, 10, 10, -10, -10, 10], "withholdReward": false, "trial_id": "practice_1", "block": "test", "trialIndex": 0, "score": -46.5, "costs": 0, "simulationMode": [null, null, null, null, null], "rewards": [-10, -10, -10, -10, -10], "path": ["0", "0", "1", "2", "3", "4", "6"], "rt": [2335, 315, 295, 418, 276], "actions": ["up", "up", "up", "right", "right"], "actionTimes": [9473, 10327, 11157, 12116, 12904], "queries": {"click": {"state": {"target": [], "time": []}, "edge": {"target": [], "time": []}}, "mouseover": {"state": {"target": ["0", "0"], "time": [7180, 7527]}, "edge": {"target": [], "time": []}}, "mouseout": {"state": {"target": ["14", "13", "0", "0", "0"], "time": [5312, 5379, 5927, 7199, 7962]}, "edge": {"target": [], "time": []}}}, "displayed_time": "13.45", "trialTime": 17884, "trial_type": "mouselab-mdp", "trial_index": 3, "time_elapsed": 284212, "internal_node_id": "0.0-2.0-2.0-0.0"}}, {"uniqueid": "w99988518:a46861242", "current_trial": 4, "dateTime": 1693660599285, "trialdata": {"revealed_states": [], "clicked_states": ["24", "28"], "num_clicks_accrued": [0, 0, 0, 0, 0, 0, 0, 0, 0, 0, 0, 0, 0], "stateRewards": ["", 10, 10, 10, -10, -10, 10, -10, -10, 10, 10, -10, -10, 10, 10, -10, -10, 10, 10, -10, -10, -10, -10, -10, 10, 10, -10, 10, 10, -10, -10, 10, -10, -10], "withholdReward": false, "trial_id": "practice_2", "block": "test", "trialIndex": 1, "score": -7.5, "costs": -1, "simulationMode": [null, null, null, null, null], "rewards": [-10, 10, 10, -10, -10], "path": ["0", "0", "23", "24", "25", "26", "29"], "rt": [6096, 458, 3292, 843, 300], "actions": ["left", "left", "left", "up", "left"], "actionTimes": [9759, 10745, 14566, 15949, 16795], "queries": {"click": {"state": {"target": ["24", "28"], "time": [5663, 7489]}, "edge": {"target": [], "time": []}}, "mouseover": {"state": {"target": ["12", "1", "24", "25", "25", "28", "23", "0"], "time": [3907, 4490, 4856, 6761, 7007, 7142, 8659, 8759]}, "edge": {"target": [], "time": []}}, "mouseout": {"state": {"target": ["12", "12", "1", "24", "25", "25", "28", "23"], "time": [2204, 3929, 4557, 6747, 6818, 7041, 8446, 8694]}, "edge": {"target": [], "time": []}}}, "displayed_time": "17.33", "trialTime": 19475, "trial_type": "mouselab-mdp", "trial_index": 4, "time_elapsed": 304523, "internal_node_id": "0.0-2.0-2.0-1.0"}}, {"uniqueid": "w99988518:a46861242", "current_trial": 5, "dateTime": 1693660655613, "trialdata": {"view_history": [{"page_index": 0, "viewing_time": 53651}, {"page_index": 1, "viewing_time": 2672}], "rt": 56324, "trial_id": "mouselab_instructions_2_control", "trial_type": "instructions", "trial_index": 5, "time_elapsed": 360852, "internal_node_id": "0.0-2.0-3.0"}}, {"uniqueid": "w99988518:a46861242", "current_trial": 6, "dateTime": 1693660730585, "trialdata": {"rt": 74961, "response": {"Q0": "The cost for clicking on nodes may vary between nodes.", "Q1": "The better I perform the higher my bonus will be.", "Q2": "No, the amount of cash at each node of the web may be different each time.", "Q3": "To get the highest total score.", "Q4": "Any time during the round.", "Q5": "3 seconds"}, "question_order": [0, 1, 2, 3, 4, 5], "correct": {"Q0": "The cost for clicking on nodes may vary between nodes.", "Q1": "The better I perform the higher my bonus will be.", "Q2": "No, the amount of cash at each node of the web may be different each time.", "Q3": "To get the highest total score.", "Q4": "Only before moving the spider.", "Q5": "3 seconds"}, "trial_id": "mouselab_quiz_control", "trial_type": "survey-multi-choice", "trial_index": 6, "time_elapsed": 435824, "internal_node_id": "0.0-2.0-4.0"}}, {"uniqueid": "w99988518:a46861242", "current_trial": 7, "dateTime": 1693660742767, "trialdata": {"success": true, "trial_type": "fullscreen", "trial_index": 7, "time_elapsed": 448006, "internal_node_id": "0.0-2.1-0.1-0.1"}}, {"uniqueid": "w99988518:a46861242", "current_trial": 8, "dateTime": 1693660761941, "trialdata": {"view_history": [{"page_index": 0, "viewing_time": 13160}, {"page_index": 1, "viewing_time": 2688}, {"page_index": 2, "viewing_time": 1624}, {"page_index": 3, "viewing_time": 1696}], "rt": 19169, "trial_id": "mouselab_instructions_1_control", "trial_type": "instructions", "trial_index": 8, "time_elapsed": 467180, "internal_node_id": "0.0-2.1-1.1"}}, {"uniqueid": "w99988518:a46861242", "current_trial": 9, "dateTime": 1693660776980, "trialdata": {"revealed_states": [], "clicked_states": [], "num_clicks_accrued": [0, 0, 0, 0, 0, 0, 0, 0, 0, 0, 0, 0, 0], "stateRewards": ["", -10, -10, -10, -10, -10, -10, -10, -10, -10, -10, 10, 10, -10, 10, 10, 10, 10, -10, 10, 10, -10, 10, 10, -10, -10, -10, -10, 10, 10, 10, -10, -10, 10], "withholdReward": false, "trial_id": "practice_1", "block": "test", "trialIndex": 2, "score": -46.5, "costs": 0, "simulationMode": [null, null, null, null, null], "rewards": [-10, -10, -10, -10, -10], "path": ["0", "0", "1", "2", "3", "8", "9"], "rt": [1047, 603, 366, 682, 3271], "actions": ["up", "up", "up", "left", "up"], "actionTimes": [3655, 5312, 6198, 7414, 11216], "queries": {"click": {"state": {"target": [], "time": []}, "edge": {"target": [], "time": []}}, "mouseover": {"state": {"target": [], "time": []}, "edge": {"target": [], "time": []}}, "mouseout": {"state": {"target": ["0"], "time": [1365]}, "edge": {"target": [], "time": []}}}, "displayed_time": "11.74", "trialTime": 13989, "trial_type": "mouselab-mdp", "trial_index": 9, "time_elapsed": 482218, "internal_node_id": "0.0-2.1-2.1-0.1"}}, {"uniqueid": "w99988518:a46861242", "current_trial": 10, "dateTime": 1693660791277, "trialdata": {"revealed_states": [], "clicked_states": [], "num_clicks_accrued": [0, 0, 0, 0, 0, 0, 0, 0, 0, 0, 0, 0, 0], "stateRewards": ["", 10, 10, 10, -10, -10, 10, -10, -10, 10, 10, -10, -10, 10, 10, -10, -10, 10, 10, -10, -10, -10, -10, -10, 10, 10, -10, 10, 10, -10, -10, 10, -10, -10], "withholdReward": false, "trial_id": "practice_2", "block": "test", "trialIndex": 3, "score": -6.5, "costs": 0, "simulationMode": [null, null, null, null, null], "rewards": [-10, 10, 10, -10, -10], "path": ["0", "0", "12", "13", "14", "19", "20"], "rt": [1893, 165, 212, 1535, 771], "actions": ["right", "right", "right", "down", "right"], "actionTimes": [6214, 6957, 7685, 9751, 11054], "queries": {"click": {"state": {"target": [], "time": []}, "edge": {"target": [], "time": []}}, "mouseover": {"state": {"target": [], "time": []}, "edge": {"target": [], "time": []}}, "mouseout": {"state": {"target": ["0", "0", "12", "0"], "time": [1784, 2083, 2484, 2650]}, "edge": {"target": [], "time": []}}}, "displayed_time": "11.58", "trialTime": 13273, "trial_type": "mouselab-mdp", "trial_index": 10, "time_elapsed": 496515, "internal_node_id": "0.0-2.1-2.1-1.1"}}, {"uniqueid": "w99988518:a46861242", "current_trial": 11, "dateTime": 1693660798677, "trialdata": {"view_history": [{"page_index": 0, "viewing_time": 5346}, {"page_index": 1, "viewing_time": 2047}], "rt": 7395, "trial_id": "mouselab_instructions_2_control", "trial_type": "instructions", "trial_index": 11, "time_elapsed": 503916, "internal_node_id": "0.0-2.1-3.1"}}, {"uniqueid": "w99988518:a46861242", "current_trial": 12, "dateTime": 1693660957279, "trialdata": {"rt": 158595, "response": {"Q0": "The cost for clicking on nodes may vary between nodes.", "Q1": "The better I perform the higher my bonus will be.", "Q2": "No, the amount of cash at each node of the web may be different each time.", "Q3": "To get the highest total score.", "Q4": "Only before moving the spider.", "Q5": "3 seconds"}, "question_order": [0, 1, 2, 3, 4, 5], "correct": {"Q0": "The cost for clicking on nodes may vary between nodes.", "Q1": "The better I perform the higher my bonus will be.", "Q2": "No, the amount of cash at each node of the web may be different each time.", "Q3": "To get the highest total score.", "Q4": "Only before moving the spider.", "Q5": "3 seconds"}, "trial_id": "mouselab_quiz_control", "trial_type": "survey-multi-choice", "trial_index": 12, "time_elapsed": 662518, "internal_node_id": "0.0-2.1-4.1"}}, {"uniqueid": "w99988518:a46861242", "current_trial": 13, "dateTime": 1693660964694, "trialdata": {"rt": 7398, "response": {"Q0": "No"}, "question_order": [0], "trial_id": "repeat_check", "trial_type": "survey-multi-choice", "trial_index": 13, "time_elapsed": 669932, "internal_node_id": "0.0-4.0-0.0"}}, {"uniqueid": "w99988518:a46861242", "current_trial": 14, "dateTime": 1693660986383, "trialdata": {"rt": 21669, "stimulus": "\n<h1> Get ready to start the game! </h1>\n\nThank you for reading the instructions. Get ready start with the 40 rounds of this game.\n<br><br>\nIf you need to take a break, feel free to take one after the end of a round, before continuing to the next one.\n<br><br>\nRemember, the more money the spider gets, the bigger your bonus will be!\n<br><br>\n<div style='text-align: center;'>Press <code>space</code> to begin.</div>\n\n<br><br>\n(If, at any point, the <code>space</code> key does not take you to the next page, click once on the text and try again.)", "response": " ", "trial_id": "mdp_ready", "trial_type": "html-keyboard-response", "trial_index": 14, "time_elapsed": 691621, "internal_node_id": "0.0-6.0-0.0"}}, {"uniqueid": "w99988518:a46861242", "current_trial": 15, "dateTime": 1693661009902, "trialdata": {"revealed_states": [], "clicked_states": [], "num_clicks_accrued": [0, 0, 0, 0, 0, 0, 0, 0, 0, 0, 0, 0, 0], "stateRewards": ["", 2, -1, 3, -12, -83, 6, -33, 9, 28, 24, -50, -2, -1, -2, -5, -87, 37, 82, 12, 80, -5, 10, -2, -3, -6, 9, 22, -1, 16, 9, 77, -62, 58], "withholdReward": false, "trial_id": "mdp_trial_1", "block": "test", "trialIndex": 4, "score": -41, "costs": 0, "simulationMode": [null, null, null, null, null], "rewards": [2, -1, 3, -12, -33], "path": ["0", "0", "1", "2", "3", "4", "7"], "rt": [2475, 671, 687, 683, 1065], "actions": ["up", "up", "up", "right", "down"], "actionTimes": [6877, 8114, 9613, 10854, 12459], "queries": {"click": {"state": {"target": [], "time": []}, "edge": {"target": [], "time": []}}, "mouseover": {"state": {"target": [], "time": []}, "edge": {"target": [], "time": []}}, "mouseout": {"state": {"target": ["0", "1", "0"], "time": [2392, 2759, 2826]}, "edge": {"target": [], "time": []}}}, "displayed_time": "18.40", "trialTime": 22584, "trial_type": "mouselab-mdp", "trial_index": 15, "time_elapsed": 715140, "internal_node_id": "0.0-6.0-1.0-0.0"}}, {"uniqueid": "w99988518:a46861242", "current_trial": 16, "dateTime": 1693661040751, "trialdata": {"revealed_states": [], "clicked_states": ["1", "13", "24", "3", "5", "20", "19"], "num_clicks_accrued": [0, 0, 0, 0, 0, 0, 0, 0, 0, 0, 0, 0, 0], "stateRewards": ["", -2, 3, -5, -7, 66, 43, -60, -4, -70, -75, 4, -1, 2, 2, -13, 54, 11, -40, -1, 77, 32, 15, -2, 3, -8, -9, -35, 83, -27, 6, -74, -34, 44], "withholdReward": false, "trial_id": "mdp_trial_2", "block": "test", "trialIndex": 5, "score": -44.8, "costs": -9.8, "simulationMode": [null, null, null, null, null], "rewards": [-2, 3, -8, 6, -34], "path": ["0", "0", "23", "24", "25", "30", "32"], "rt": [17411, 448, 426, 381, 263], "actions": ["left", "left", "left", "down", "down"], "actionTimes": [21626, 22599, 23551, 24487, 25286], "queries": {"click": {"state": {"target": ["1", "13", "24", "3", "5", "20", "19"], "time": [6655, 8735, 10856, 12823, 14614, 16462, 18841]}, "edge": {"target": [], "time": []}}, "mouseover": {"state": {"target": ["0", "1", "13", "12", "0", "23", "24", "2", "4", "3", "8", "3", "4", "5", "6", "14", "19", "20", "19", "19", "22"], "time": [4246, 5509, 8259, 9373, 9413, 9453, 9915, 11893, 11963, 12128, 12237, 12594, 13457, 13614, 15120, 15723, 16013, 16185, 16992, 18508, 19442]}, "edge": {"target": [], "time": []}}, "mouseout": {"state": {"target": ["0", "0", "1", "13", "12", "0", "23", "24", "2", "4", "3", "8", "3", "4", "5", "6", "14", "19", "20", "19", "19", "22"], "time": [3074, 5209, 7772, 9343, 9402, 9440, 9724, 11711, 11927, 12097, 12191, 12435, 13424, 13511, 15086, 15368, 15846, 16095, 16934, 18012, 19412, 19877]}, "edge": {"target": [], "time": []}}}, "displayed_time": "25.83", "trialTime": 29932, "trial_type": "mouselab-mdp", "trial_index": 16, "time_elapsed": 745989, "internal_node_id": "0.0-6.0-1.0-1.0"}}, {"uniqueid": "w99988518:a46861242", "current_trial": 17, "dateTime": 1693661075347, "trialdata": {"revealed_states": [], "clicked_states": ["11", "6", "15", "24", "26", "19", "3"], "num_clicks_accrued": [0, 0, 0, 0, 0, 0, 0, 0, 0, 0, 0, 0, 0], "stateRewards": ["", 2, -1, -3, 16, -3, -16, -62, -1, 13, -26, 43, -1, 4, 3, -9, -54, -37, -3, -12, -71, -68, -57, 1, -3, 2, -9, 2, -2, -9, -11, 84, -52, 55], "withholdReward": false, "trial_id": "mdp_trial_3", "block": "test", "trialIndex": 6, "score": -11.8, "costs": -9.8, "simulationMode": [null, null, null, null, null], "rewards": [2, -1, -3, 16, -16], "path": ["0", "0", "1", "2", "3", "4", "6"], "rt": [21572, 343, 226, 960, 154], "actions": ["up", "up", "up", "right", "right"], "actionTimes": [23753, 24633, 25386, 26867, 27555], "queries": {"click": {"state": {"target": ["11", "6", "15", "24", "26", "19", "3"], "time": [3838, 5479, 7965, 10641, 13603, 16557, 18539]}, "edge": {"target": [], "time": []}}, "mouseover": {"state": {"target": ["1", "10", "11", "8", "3", "4", "6", "7", "15", "12", "23", "23", "24", "23", "28", "26", "28", "0", "22", "19", "2", "3", "2", "7"], "time": [2981, 3231, 3548, 4420, 4544, 4603, 4866, 6142, 6731, 8861, 9049, 9665, 10197, 12648, 12847, 13065, 14279, 14685, 15797, 16314, 17499, 17783, 19481, 19634]}, "edge": {"target": [], "time": []}}, "mouseout": {"state": {"target": ["22", "0", "1", "10", "11", "8", "3", "4", "6", "7", "15", "12", "23", "23", "24", "23", "28", "26", "28", "0", "22", "19", "2", "3", "2", "7"], "time": [779, 2864, 3001, 3348, 4351, 4494, 4576, 4633, 6005, 6279, 8727, 8912, 9079, 9685, 11649, 12715, 12931, 14229, 14307, 14897, 15849, 17227, 17620, 19236, 19532, 19689]}, "edge": {"target": [], "time": []}}}, "displayed_time": "28.13", "trialTime": 33618, "trial_type": "mouselab-mdp", "trial_index": 17, "time_elapsed": 780585, "internal_node_id": "0.0-6.0-1.0-2.0"}}, {"uniqueid": "w99988518:a46861242", "current_trial": 18, "dateTime": 1693661095530, "trialdata": {"revealed_states": [], "clicked_states": ["23"], "num_clicks_accrued": [0, 0, 0, 0, 0, 0, 0, 0, 0, 0, 0, 0, 0], "stateRewards": ["", 1, 4, 5, -5, 58, -80, 75, 6, 25, -39, 46, 2, -2, 4, 2, 59, 31, -22, -12, -61, 15, 72, 1, -2, -7, 8, 77, 76, -23, -7, 71, -15, -3], "withholdReward": false, "trial_id": "mdp_trial_4", "block": "test", "trialIndex": 7, "score": -19.4, "costs": -1.4, "simulationMode": [null, null, null, null, null], "rewards": [1, -2, -7, -7, -3], "path": ["0", "0", "23", "24", "25", "30", "33"], "rt": [7071, 637, 310, 188, 323], "actions": ["left", "left", "left", "down", "left"], "actionTimes": [9184, 10362, 11191, 11936, 12794], "queries": {"click": {"state": {"target": ["23"], "time": [3427]}, "edge": {"target": [], "time": []}}, "mouseover": {"state": {"target": ["23", "23"], "time": [2752, 3166]}, "edge": {"target": [], "time": []}}, "mouseout": {"state": {"target": ["0", "23", "23", "23"], "time": [2732, 2771, 3533, 4084]}, "edge": {"target": [], "time": []}}}, "displayed_time": "16.11", "trialTime": 19170, "trial_type": "mouselab-mdp", "trial_index": 18, "time_elapsed": 800768, "internal_node_id": "0.0-6.0-1.0-3.0"}}, {"uniqueid": "w99988518:a46861242", "current_trial": 19, "dateTime": 1693661117888, "trialdata": {"revealed_states": [], "clicked_states": [], "num_clicks_accrued": [0, 0, 0, 0, 0, 0, 0, 0, 0, 0, 0, 0, 0], "stateRewards": ["", 1, -3, -6, -5, 47, 80, -29, 11, -71, 10, -29, -2, 3, -6, 12, 2, -78, -6, 8, 34, -16, -5, -1, 3, 3, -13, 84, -36, -62, -3, -27, 66, 15], "withholdReward": false, "trial_id": "mdp_trial_5", "block": "test", "trialIndex": 8, "score": 9, "costs": 0, "simulationMode": [null, null, null, null, null], "rewards": [-2, 3, -6, 12, 2], "path": ["0", "0", "12", "13", "14", "15", "16"], "rt": [4546, 131, 254, 1465, 136], "actions": ["right", "right", "right", "up", "up"], "actionTimes": [7086, 7771, 8559, 10587, 11273], "queries": {"click": {"state": {"target": [], "time": []}, "edge": {"target": [], "time": []}}, "mouseover": {"state": {"target": ["4", "9", "7", "18"], "time": [2809, 3293, 3426, 3497]}, "edge": {"target": [], "time": []}}, "mouseout": {"state": {"target": ["0", "4", "9", "7", "18"], "time": [1475, 2828, 3312, 3447, 3519]}, "edge": {"target": [], "time": []}}}, "displayed_time": "16.54", "trialTime": 21306, "trial_type": "mouselab-mdp", "trial_index": 19, "time_elapsed": 823126, "internal_node_id": "0.0-6.0-1.0-4.0"}}, {"uniqueid": "w99988518:a46861242", "current_trial": 20, "dateTime": 1693661141602, "trialdata": {"revealed_states": [], "clicked_states": [], "num_clicks_accrued": [0, 0, 0, 0, 0, 0, 0, 0, 0, 0, 0, 0, 0], "stateRewards": ["", 2, 1, -3, 7, 46, 11, -36, 16, 71, 5, 1, 2, -2, -8, -3, -4, 6, 55, 7, 68, -54, 2, 1, 1, 6, -6, 42, -4, -84, -11, -65, 63, 25], "withholdReward": false, "trial_id": "mdp_trial_6", "block": "test", "trialIndex": 9, "score": 1, "costs": 0, "simulationMode": [null, null, null, null, null], "rewards": [2, -2, -8, 7, 2], "path": ["0", "0", "12", "13", "14", "19", "22"], "rt": [3355, 215, 262, 825, 429], "actions": ["right", "right", "right", "down", "left"], "actionTimes": [6802, 7572, 8377, 9747, 10726], "queries": {"click": {"state": {"target": [], "time": []}, "edge": {"target": [], "time": []}}, "mouseover": {"state": {"target": [], "time": []}, "edge": {"target": [], "time": []}}, "mouseout": {"state": {"target": ["15", "15", "18", "18", "12", "0"], "time": [1619, 1653, 1719, 1868, 2119, 13004]}, "edge": {"target": [], "time": []}}}, "displayed_time": "17.45", "trialTime": 22583, "trial_type": "mouselab-mdp", "trial_index": 20, "time_elapsed": 846840, "internal_node_id": "0.0-6.0-1.0-5.0"}}, {"uniqueid": "w99988518:a46861242", "current_trial": 21, "dateTime": 1693661163440, "trialdata": {"revealed_states": [], "clicked_states": [], "num_clicks_accrued": [0, 0, 0, 0, 0, 0, 0, 0, 0, 0, 0, 0, 0], "stateRewards": ["", 1, 2, 2, -15, -84, 28, -26, 13, 31, 86, 30, -2, 1, -1, -8, 66, -40, -1, -10, -32, 57, -17, 1, 2, -2, 9, -23, 77, 85, 12, -32, -62, -35], "withholdReward": false, "trial_id": "mdp_trial_7", "block": "test", "trialIndex": 10, "score": 18, "costs": 0, "simulationMode": [null, null, null, null, null], "rewards": [1, 2, 2, -15, 28], "path": ["0", "0", "1", "2", "3", "4", "6"], "rt": [2127, 254, 156, 255, 323], "actions": ["up", "up", "up", "right", "right"], "actionTimes": [5716, 6518, 7222, 8048, 8904], "queries": {"click": {"state": {"target": [], "time": []}, "edge": {"target": [], "time": []}}, "mouseover": {"state": {"target": [], "time": []}, "edge": {"target": [], "time": []}}, "mouseout": {"state": {"target": ["0"], "time": [10772]}, "edge": {"target": [], "time": []}}}, "displayed_time": "17.59", "trialTime": 20824, "trial_type": "mouselab-mdp", "trial_index": 21, "time_elapsed": 868678, "internal_node_id": "0.0-6.0-1.0-6.0"}}, {"uniqueid": "w99988518:a46861242", "current_trial": 22, "dateTime": 1693661189808, "trialdata": {"revealed_states": [], "clicked_states": ["25", "15"], "num_clicks_accrued": [0, 0, 0, 0, 0, 0, 0, 0, 0, 0, 0, 0, 0], "stateRewards": ["", 2, -3, 5, 11, -79, 54, 11, -9, -78, 33, 22, -2, -1, 2, 14, 43, 34, 1, 10, 49, -65, 39, -1, 1, -1, 3, -16, -2, 11, 2, 12, 48, -65], "withholdReward": false, "trial_id": "mdp_trial_8", "block": "test", "trialIndex": 11, "score": 44.2, "costs": -2.8, "simulationMode": [null, null, null, null, null], "rewards": [-2, -1, 2, 14, 34], "path": ["0", "0", "12", "13", "14", "15", "17"], "rt": [10223, 229, 337, 570, 307], "actions": ["right", "right", "right", "up", "right"], "actionTimes": [14048, 14822, 15700, 16818, 17694], "queries": {"click": {"state": {"target": ["25", "15"], "time": [6026, 9776]}, "edge": {"target": [], "time": []}}, "mouseover": {"state": {"target": ["23", "24", "25", "24", "1", "18", "15"], "time": [4686, 4953, 5403, 6396, 8565, 9107, 9253]}, "edge": {"target": [], "time": []}}, "mouseout": {"state": {"target": ["0", "0", "23", "24", "25", "24", "1", "18", "15"], "time": [1687, 2653, 4736, 5237, 6092, 6547, 8870, 9187, 10677]}, "edge": {"target": [], "time": []}}}, "displayed_time": "18.24", "trialTime": 25272, "trial_type": "mouselab-mdp", "trial_index": 22, "time_elapsed": 895046, "internal_node_id": "0.0-6.0-1.0-7.0"}}, {"uniqueid": "w99988518:a46861242", "current_trial": 23, "dateTime": 1693661214602, "trialdata": {"revealed_states": [], "clicked_states": ["24", "19", "4"], "num_clicks_accrued": [0, 0, 0, 0, 0, 0, 0, 0, 0, 0, 0, 0, 0], "stateRewards": ["", 1, 4, 5, 8, -55, -11, 8, 16, -37, 77, -22, -2, 3, -8, -10, 45, 87, -67, 4, 17, -33, -22, -1, -3, 7, 6, -39, -85, 75, -1, 7, -48, 45], "withholdReward": false, "trial_id": "mdp_trial_9", "block": "test", "trialIndex": 12, "score": -41.2, "costs": -4.199999999999999, "simulationMode": [null, null, null, null, null], "rewards": [1, 4, 5, 8, -55], "path": ["0", "0", "1", "2", "3", "4", "5"], "rt": [10255, 146, 231, 175, 349], "actions": ["up", "up", "up", "right", "up"], "actionTimes": [14044, 14735, 15511, 16226, 17130], "queries": {"click": {"state": {"target": ["24", "19", "4"], "time": [4950, 7563, 10440]}, "edge": {"target": [], "time": []}}, "mouseover": {"state": {"target": ["23", "24", "22", "19", "14", "18", "4"], "time": [4562, 4645, 7133, 7185, 9747, 9801, 10116]}, "edge": {"target": [], "time": []}}, "mouseout": {"state": {"target": ["18", "23", "24", "22", "19", "14", "18", "4", "7", "2", "29"], "time": [1996, 4597, 5498, 7156, 8206, 9788, 9859, 12697, 22395, 22414, 22663]}, "edge": {"target": [], "time": []}}}, "displayed_time": "17.79", "trialTime": 23644, "trial_type": "mouselab-mdp", "trial_index": 23, "time_elapsed": 919840, "internal_node_id": "0.0-6.0-1.0-8.0"}}, {"uniqueid": "w99988518:a46861242", "current_trial": 24, "dateTime": 1693661236393, "trialdata": {"revealed_states": [], "clicked_states": ["15", "26", "30"], "num_clicks_accrued": [0, 0, 0, 0, 0, 0, 0, 0, 0, 0, 0, 0, 0], "stateRewards": ["", 1, 2, -3, 6, -88, 74, -45, 7, -46, 40, -77, 1, -4, 4, 3, 22, -25, -59, 8, -83, 19, -60, -1, -1, -1, -8, 26, -29, 64, -7, -88, -51, -55], "withholdReward": false, "trial_id": "mdp_trial_10", "block": "test", "trialIndex": 13, "score": -59.2, "costs": -4.199999999999999, "simulationMode": [null, null, null, null, null], "rewards": [1, -4, 4, 3, -59], "path": ["0", "0", "12", "13", "14", "15", "18"], "rt": [12509, 102, 214, 437, 395], "actions": ["right", "right", "right", "up", "left"], "actionTimes": [15393, 16043, 16796, 17772, 18707], "queries": {"click": {"state": {"target": ["15", "26", "30"], "time": [4551, 8424, 11671]}, "edge": {"target": [], "time": []}}, "mouseover": {"state": {"target": ["12", "18", "15", "14", "18", "26", "26", "25", "30", "30", "31"], "time": [3677, 3895, 4211, 6995, 7063, 7644, 8195, 10478, 10845, 11261, 13795]}, "edge": {"target": [], "time": []}}, "mouseout": {"state": {"target": ["29", "26", "28", "12", "18", "15", "14", "18", "26", "26", "25", "30", "30", "31"], "time": [1125, 1226, 1392, 3728, 3914, 5543, 7014, 7100, 7694, 8996, 10544, 11061, 12307, 13861]}, "edge": {"target": [], "time": []}}}, "displayed_time": "19.23", "trialTime": 20685, "trial_type": "mouselab-mdp", "trial_index": 24, "time_elapsed": 941631, "internal_node_id": "0.0-6.0-1.0-9.0"}}, {"uniqueid": "w99988518:a46861242", "current_trial": 25, "dateTime": 1693661261641, "trialdata": {"revealed_states": [], "clicked_states": ["14", "3", "8", "4", "30"], "num_clicks_accrued": [0, 0, 0, 0, 0, 0, 0, 0, 0, 0, 0, 0, 0], "stateRewards": ["", 1, 2, -3, -5, 66, -50, -47, -5, 1, 28, -27, 1, 1, -1, -6, 37, -25, 56, 1, -82, -66, -40, -1, -4, -7, 15, -61, -23, 26, 10, 14, -56, 29], "withholdReward": false, "trial_id": "mdp_trial_11", "block": "test", "trialIndex": 14, "score": -65, "costs": -7, "simulationMode": [null, null, null, null, null], "rewards": [-1, -4, -7, 10, -56], "path": ["0", "0", "23", "24", "25", "30", "32"], "rt": [16965, 153, 184, 253, 271], "actions": ["left", "left", "left", "down", "down"], "actionTimes": [19220, 19919, 20641, 21407, 22195], "queries": {"click": {"state": {"target": ["14", "3", "8", "4", "30"], "time": [4493, 7754, 10233, 12284, 15538]}, "edge": {"target": [], "time": []}}, "mouseover": {"state": {"target": ["12", "14", "19", "18", "4", "3", "7", "2", "8", "7", "4", "7", "2", "29", "30", "31"], "time": [3759, 4205, 5594, 6605, 7138, 7438, 8105, 9755, 9988, 10902, 11521, 14271, 14328, 14406, 14839, 16319]}, "edge": {"target": [], "time": []}}, "mouseout": {"state": {"target": ["0", "12", "14", "19", "14", "18", "4", "3", "7", "2", "8", "8", "7", "4", "7", "2", "29", "30", "31"], "time": [3722, 3810, 5447, 6505, 6555, 6623, 7321, 8072, 8693, 9805, 10378, 10672, 11422, 12749, 14308, 14352, 14588, 16265, 16352]}, "edge": {"target": [], "time": []}}}, "displayed_time": "22.75", "trialTime": 24077, "trial_type": "mouselab-mdp", "trial_index": 25, "time_elapsed": 966879, "internal_node_id": "0.0-6.0-1.0-10.0"}}, {"uniqueid": "w99988518:a46861242", "current_trial": 26, "dateTime": 1693661283041, "trialdata": {"revealed_states": [], "clicked_states": [], "num_clicks_accrued": [0, 0, 0, 0, 0, 0, 0, 0, 0, 0, 0, 0, 0], "stateRewards": ["", -2, 2, 5, -14, -56, 64, 84, -5, 52, 39, 85, -2, 1, 7, 8, 21, 29, -78, -9, -10, -69, 10, -2, -1, -7, 15, 72, 20, 41, -2, 52, 80, 22], "withholdReward": false, "trial_id": "mdp_trial_12", "block": "test", "trialIndex": 15, "score": 35, "costs": 0, "simulationMode": [null, null, null, null, null], "rewards": [-2, 1, 7, 8, 21], "path": ["0", "0", "12", "13", "14", "15", "16"], "rt": [1474, 448, 128, 796, 22], "actions": ["right", "right", "right", "up", "up"], "actionTimes": [6624, 7640, 8296, 9632, 10182], "queries": {"click": {"state": {"target": [], "time": []}, "edge": {"target": [], "time": []}}, "mouseover": {"state": {"target": [], "time": []}, "edge": {"target": [], "time": []}}, "mouseout": {"state": {"target": ["27", "1", "13", "13", "12", "0"], "time": [3229, 3309, 3359, 3642, 3709, 5185]}, "edge": {"target": [], "time": []}}}, "displayed_time": "19.15", "trialTime": 20352, "trial_type": "mouselab-mdp", "trial_index": 26, "time_elapsed": 988279, "internal_node_id": "0.0-6.0-1.0-11.0"}}, {"uniqueid": "w99988518:a46861242", "current_trial": 27, "dateTime": 1693661304324, "trialdata": {"revealed_states": [], "clicked_states": [], "num_clicks_accrued": [0, 0, 0, 0, 0, 0, 0, 0, 0, 0, 0, 0, 0], "stateRewards": ["", -2, -3, 1, -14, 48, -49, 67, -1, -35, -48, 3, -2, 1, -4, -5, 86, -84, 39, 1, 48, 41, -42, -1, -4, 2, -7, 18, -86, 17, 7, -9, 57, -69], "withholdReward": false, "trial_id": "mdp_trial_13", "block": "test", "trialIndex": 16, "score": -96, "costs": 0, "simulationMode": [null, null, null, null, null], "rewards": [-1, -4, 2, -7, -86], "path": ["0", "0", "23", "24", "25", "26", "28"], "rt": [7333, 235, 288, 518, 251], "actions": ["left", "left", "left", "up", "right"], "actionTimes": [10469, 11236, 12065, 13219, 14001], "queries": {"click": {"state": {"target": [], "time": []}, "edge": {"target": [], "time": []}}, "mouseover": {"state": {"target": ["0"], "time": [8546]}, "edge": {"target": [], "time": []}}, "mouseout": {"state": {"target": ["0", "0"], "time": [3169, 8856]}, "edge": {"target": [], "time": []}}}, "displayed_time": "17.14", "trialTime": 20120, "trial_type": "mouselab-mdp", "trial_index": 27, "time_elapsed": 1009562, "internal_node_id": "0.0-6.0-1.0-12.0"}}, {"uniqueid": "w99988518:a46861242", "current_trial": 28, "dateTime": 1693661323422, "trialdata": {"revealed_states": [], "clicked_states": [], "num_clicks_accrued": [0, 0, 0, 0, 0, 0, 0, 0, 0, 0, 0, 0, 0], "stateRewards": ["", -1, -3, -6, 14, 41, 18, 63, -14, 80, 21, 17, -2, -4, -2, -5, 13, 70, 8, -4, -64, -10, -20, 2, -1, 4, -1, -17, -55, 42, -7, 47, 54, 15], "withholdReward": false, "trial_id": "mdp_trial_14", "block": "test", "trialIndex": 17, "score": -3, "costs": 0, "simulationMode": [null, null, null, null, null], "rewards": [-1, -3, -6, -14, 21], "path": ["0", "0", "1", "2", "3", "8", "10"], "rt": [1580, 289, 445, 859, 191], "actions": ["up", "up", "up", "left", "down"], "actionTimes": [3931, 4961, 5947, 7988, 8739], "queries": {"click": {"state": {"target": [], "time": []}, "edge": {"target": [], "time": []}}, "mouseover": {"state": {"target": [], "time": []}, "edge": {"target": [], "time": []}}, "mouseout": {"state": {"target": ["13", "12", "0"], "time": [32, 627, 2430]}, "edge": {"target": [], "time": []}}}, "displayed_time": "16.35", "trialTime": 17487, "trial_type": "mouselab-mdp", "trial_index": 28, "time_elapsed": 1028660, "internal_node_id": "0.0-6.0-1.0-13.0"}}, {"uniqueid": "w99988518:a46861242", "current_trial": 29, "dateTime": 1693661343277, "trialdata": {"revealed_states": [], "clicked_states": [], "num_clicks_accrued": [0, 0, 0, 0, 0, 0, 0, 0, 0, 0, 0, 0, 0], "stateRewards": ["", -1, 2, 7, 8, 75, 67, -11, 6, 52, -17, 38, -1, 4, -8, 14, 74, -37, -17, -12, 52, 55, 71, -2, -1, -5, 2, 21, 6, -88, -14, 64, -61, -47], "withholdReward": false, "trial_id": "mdp_trial_15", "block": "test", "trialIndex": 18, "score": 83, "costs": 0, "simulationMode": [null, null, null, null, null], "rewards": [-1, 4, -8, 14, 74], "path": ["0", "0", "12", "13", "14", "15", "16"], "rt": [2211, 112, 241, 346, 187], "actions": ["right", "right", "right", "up", "up"], "actionTimes": [5520, 6189, 6972, 7837, 8547], "queries": {"click": {"state": {"target": [], "time": []}, "edge": {"target": [], "time": []}}, "mouseover": {"state": {"target": [], "time": []}, "edge": {"target": [], "time": []}}, "mouseout": {"state": {"target": [], "time": []}, "edge": {"target": [], "time": []}}}, "displayed_time": "17.31", "trialTime": 18634, "trial_type": "mouselab-mdp", "trial_index": 29, "time_elapsed": 1048515, "internal_node_id": "0.0-6.0-1.0-14.0"}}, {"uniqueid": "w99988518:a46861242", "current_trial": 30, "dateTime": 1693661385074, "trialdata": {"revealed_states": [], "clicked_states": [], "num_clicks_accrued": [0, 0, 0, 0, 0, 0, 0, 0, 0, 0, 0, 0, 0], "stateRewards": ["", 2, 3, 6, -5, -74, -53, 17, -12, 46, 44, 18, -2, 4, 1, -8, 22, -23, -49, 9, -45, 55, 81, 1, -1, -7, -16, -83, -71, -45, 2, 51, 82, 61], "withholdReward": false, "trial_id": "mdp_trial_16", "block": "test", "trialIndex": 19, "score": 56, "costs": 0, "simulationMode": [null, null, null, null, null], "rewards": [1, -1, -7, 2, 61], "path": ["0", "0", "23", "24", "25", "30", "33"], "rt": [2857, 576, 210, 157, 180], "actions": ["left", "left", "left", "down", "left"], "actionTimes": [7693, 8805, 9562, 10256, 10983], "queries": {"click": {"state": {"target": [], "time": []}, "edge": {"target": [], "time": []}}, "mouseover": {"state": {"target": [], "time": []}, "edge": {"target": [], "time": []}}, "mouseout": {"state": {"target": ["1"], "time": [3056]}, "edge": {"target": [], "time": []}}}, "displayed_time": "18.84", "trialTime": 40597, "trial_type": "mouselab-mdp", "trial_index": 30, "time_elapsed": 1090313, "internal_node_id": "0.0-6.0-1.0-15.0"}}, {"uniqueid": "w99988518:a46861242", "current_trial": 31, "dateTime": 1693661407332, "trialdata": {"revealed_states": [], "clicked_states": [], "num_clicks_accrued": [0, 0, 0, 0, 0, 0, 0, 0, 0, 0, 0, 0, 0], "stateRewards": ["", 2, -1, 5, 6, 10, 86, 55, 10, -45, 63, -71, 1, -2, 5, -8, -50, -72, 36, 15, 61, 12, 33, -1, -4, 6, 5, 79, -56, -21, -16, -87, 60, -81], "withholdReward": false, "trial_id": "mdp_trial_17", "block": "test", "trialIndex": 20, "score": -55, "costs": 0, "simulationMode": [null, null, null, null, null], "rewards": [2, -1, 5, 10, -71], "path": ["0", "0", "1", "2", "3", "8", "11"], "rt": [2545, 195, 267, 666, 62], "actions": ["up", "up", "up", "left", "left"], "actionTimes": [7613, 8344, 9146, 10356, 10959], "queries": {"click": {"state": {"target": [], "time": []}, "edge": {"target": [], "time": []}}, "mouseover": {"state": {"target": [], "time": []}, "edge": {"target": [], "time": []}}, "mouseout": {"state": {"target": ["12", "3", "11", "10", "1", "0"], "time": [2588, 2623, 3121, 3422, 3688, 13607]}, "edge": {"target": [], "time": []}}}, "displayed_time": "19.07", "trialTime": 21111, "trial_type": "mouselab-mdp", "trial_index": 31, "time_elapsed": 1112570, "internal_node_id": "0.0-6.0-1.0-16.0"}}, {"uniqueid": "w99988518:a46861242", "current_trial": 32, "dateTime": 1693661432758, "trialdata": {"revealed_states": [], "clicked_states": [], "num_clicks_accrued": [0, 0, 0, 0, 0, 0, 0, 0, 0, 0, 0, 0, 0], "stateRewards": ["", 1, 1, 1, -3, -7, -1, -41, -10, 20, -72, -63, 1, -4, -2, 2, -66, 30, -84, -2, 49, 23, 71, -1, -4, 4, -12, 67, 5, 18, -16, 88, 56, -5], "withholdReward": false, "trial_id": "mdp_trial_18", "block": "test", "trialIndex": 21, "score": 27, "costs": 0, "simulationMode": [null, null, null, null, null], "rewards": [1, -4, -2, 2, 30], "path": ["0", "0", "12", "13", "14", "15", "17"], "rt": [3992, 110, 4582, 869, 201], "actions": ["right", "right", "right", "up", "right"], "actionTimes": [11532, 12200, 17317, 18714, 19458], "queries": {"click": {"state": {"target": [], "time": []}, "edge": {"target": [], "time": []}}, "mouseover": {"state": {"target": [], "time": []}, "edge": {"target": [], "time": []}}, "mouseout": {"state": {"target": ["0", "0"], "time": [2812, 23129]}, "edge": {"target": [], "time": []}}}, "displayed_time": "21.54", "trialTime": 24085, "trial_type": "mouselab-mdp", "trial_index": 32, "time_elapsed": 1137996, "internal_node_id": "0.0-6.0-1.0-17.0"}}, {"uniqueid": "w99988518:a46861242", "current_trial": 33, "dateTime": 1693661452930, "trialdata": {"revealed_states": [], "clicked_states": [], "num_clicks_accrued": [0, 0, 0, 0, 0, 0, 0, 0, 0, 0, 0, 0, 0], "stateRewards": ["", -1, 3, 1, -7, 56, 76, 57, 3, 11, -9, 14, 1, -2, 2, 8, -77, -3, 79, -5, 88, 24, -66, -2, -1, 7, -7, -30, 14, -76, 11, -36, 28, -6], "withholdReward": false, "trial_id": "mdp_trial_19", "block": "test", "trialIndex": 22, "score": 84, "costs": 0, "simulationMode": [null, null, null, null, null], "rewards": [1, -2, 2, -5, 88], "path": ["0", "0", "12", "13", "14", "19", "20"], "rt": [2175, 187, 353, 351, 243], "actions": ["right", "right", "right", "down", "right"], "actionTimes": [5653, 6397, 7283, 8175, 8948], "queries": {"click": {"state": {"target": [], "time": []}, "edge": {"target": [], "time": []}}, "mouseover": {"state": {"target": ["0"], "time": [3523]}, "edge": {"target": [], "time": []}}, "mouseout": {"state": {"target": ["12", "1", "0", "0"], "time": [1958, 2308, 3504, 4627]}, "edge": {"target": [], "time": []}}}, "displayed_time": "17.48", "trialTime": 18864, "trial_type": "mouselab-mdp", "trial_index": 33, "time_elapsed": 1158168, "internal_node_id": "0.0-6.0-1.0-18.0"}}, {"uniqueid": "w99988518:a46861242", "current_trial": 34, "dateTime": 1693661499325, "trialdata": {"revealed_states": [], "clicked_states": [], "num_clicks_accrued": [0, 0, 0, 0, 0, 0, 0, 0, 0, 0, 0, 0, 0], "stateRewards": ["", -1, 2, -6, 6, -82, -19, -39, -16, -83, 11, -33, -2, -2, 4, -6, -82, -1, -19, -6, -10, -67, -41, -2, 1, -7, 16, -23, -78, -52, 14, 31, -71, 74], "withholdReward": false, "trial_id": "mdp_trial_20", "block": "test", "trialIndex": 23, "score": -16, "costs": 0, "simulationMode": [null, null, null, null, null], "rewards": [-2, -2, 4, -6, -10], "path": ["0", "0", "12", "13", "14", "19", "20"], "rt": [1848, 1291, 1441, 774, 258], "actions": ["right", "right", "right", "down", "right"], "actionTimes": [31714, 33571, 35555, 36862, 37635], "queries": {"click": {"state": {"target": [], "time": []}, "edge": {"target": [], "time": []}}, "mouseover": {"state": {"target": [], "time": []}, "edge": {"target": [], "time": []}}, "mouseout": {"state": {"target": ["0"], "time": [39756]}, "edge": {"target": [], "time": []}}}, "displayed_time": "43.87", "trialTime": 44810, "trial_type": "mouselab-mdp", "trial_index": 34, "time_elapsed": 1204563, "internal_node_id": "0.0-6.0-1.0-19.0"}}, {"uniqueid": "w99988518:a46861242", "current_trial": 35, "dateTime": 1693661525318, "trialdata": {"revealed_states": [], "clicked_states": [], "num_clicks_accrued": [0, 0, 0, 0, 0, 0, 0, 0, 0, 0, 0, 0, 0], "stateRewards": ["", -2, 1, -7, 9, 8, 25, 61, -7, -17, 69, -81, 1, 4, -4, -11, 16, 67, 44, 3, 6, -45, -54, -2, 3, 6, -11, -15, 32, -47, 3, -39, -6, -88], "withholdReward": false, "trial_id": "mdp_trial_21", "block": "test", "trialIndex": 24, "score": 57, "costs": 0, "simulationMode": [null, null, null, null, null], "rewards": [1, 4, -4, -11, 67], "path": ["0", "0", "12", "13", "14", "15", "17"], "rt": [15393, 203, 179, 452, 161], "actions": ["right", "right", "right", "up", "right"], "actionTimes": [19278, 20030, 20738, 21719, 22430], "queries": {"click": {"state": {"target": [], "time": []}, "edge": {"target": [], "time": []}}, "mouseover": {"state": {"target": ["23", "24", "26", "29", "29", "26", "8", "2", "1", "0"], "time": [6563, 6631, 7217, 11489, 12230, 12846, 13379, 14829, 14929, 15529]}, "edge": {"target": [], "time": []}}, "mouseout": {"state": {"target": ["12", "0", "23", "24", "26", "29", "29", "26", "8", "2", "1", "0"], "time": [2560, 6513, 6597, 6696, 11480, 11514, 12762, 12913, 14729, 14864, 15045, 15929]}, "edge": {"target": [], "time": []}}}, "displayed_time": "22.98", "trialTime": 24793, "trial_type": "mouselab-mdp", "trial_index": 35, "time_elapsed": 1230556, "internal_node_id": "0.0-6.0-1.0-20.0"}}, {"uniqueid": "w99988518:a46861242", "current_trial": 36, "dateTime": 1693661553880, "trialdata": {"revealed_states": [], "clicked_states": ["26"], "num_clicks_accrued": [0, 0, 0, 0, 0, 0, 0, 0, 0, 0, 0, 0, 0], "stateRewards": ["", -1, 1, -2, 5, 73, 15, 61, 8, 7, 38, 76, 2, 2, -4, -6, -6, -26, 43, -5, -45, -85, -35, -2, 1, -4, 15, -10, 69, 72, -11, 84, -49, -38], "withholdReward": false, "trial_id": "mdp_trial_22", "block": "test", "trialIndex": 25, "score": 77.6, "costs": -1.4, "simulationMode": [null, null, null, null, null], "rewards": [-2, 1, -4, 15, 69], "path": ["0", "0", "23", "24", "25", "26", "28"], "rt": [6268, 208, 216, 369, 223], "actions": ["left", "left", "left", "up", "right"], "actionTimes": [9599, 10349, 11114, 12021, 12772], "queries": {"click": {"state": {"target": ["26"], "time": [4814]}, "edge": {"target": [], "time": []}}, "mouseover": {"state": {"target": ["1", "0", "28", "26", "18", "15", "13"], "time": [3376, 3648, 4249, 4499, 5453, 5893, 8065]}, "edge": {"target": [], "time": []}}, "mouseout": {"state": {"target": ["0", "1", "0", "28", "26", "18", "15", "13"], "time": [3369, 3452, 3932, 4349, 5285, 5490, 7982, 8084]}, "edge": {"target": [], "time": []}}}, "displayed_time": "17.33", "trialTime": 27459, "trial_type": "mouselab-mdp", "trial_index": 36, "time_elapsed": 1259118, "internal_node_id": "0.0-6.0-1.0-21.0"}}, {"uniqueid": "w99988518:a46861242", "current_trial": 37, "dateTime": 1693661584255, "trialdata": {"revealed_states": [], "clicked_states": [], "num_clicks_accrued": [0, 0, 0, 0, 0, 0, 0, 0, 0, 0, 0, 0, 0], "stateRewards": ["", -2, 1, -7, -8, -37, -76, -87, 11, 30, -63, 80, -1, 4, 2, -1, 42, 17, 52, -3, -75, -80, -68, 2, -3, -5, -15, -48, 82, 24, -7, 5, -22, -71], "withholdReward": false, "trial_id": "mdp_trial_23", "block": "test", "trialIndex": 26, "score": -73, "costs": 0, "simulationMode": [null, null, null, null, null], "rewards": [-1, 4, 2, -3, -75], "path": ["0", "0", "12", "13", "14", "19", "20"], "rt": [5988, 1340, 163, 70, 94], "actions": ["right", "right", "right", "down", "right"], "actionTimes": [19798, 22556, 23261, 23871, 24505], "queries": {"click": {"state": {"target": [], "time": []}, "edge": {"target": [], "time": []}}, "mouseover": {"state": {"target": [], "time": []}, "edge": {"target": [], "time": []}}, "mouseout": {"state": {"target": ["22", "13", "12", "0"], "time": [9767, 9850, 12929, 13873]}, "edge": {"target": [], "time": []}}}, "displayed_time": "27.81", "trialTime": 28906, "trial_type": "mouselab-mdp", "trial_index": 37, "time_elapsed": 1289493, "internal_node_id": "0.0-6.0-1.0-22.0"}}, {"uniqueid": "w99988518:a46861242", "current_trial": 38, "dateTime": 1693661605526, "trialdata": {"revealed_states": [], "clicked_states": ["25", "26"], "num_clicks_accrued": [0, 0, 0, 0, 0, 0, 0, 0, 0, 0, 0, 0, 0], "stateRewards": ["", 2, -4, 7, 3, 23, -42, 4, 7, -81, -33, 7, -2, -4, 5, -1, 50, -57, -14, -13, -14, 44, 55, -2, -2, 5, -2, 33, 1, 57, -13, -7, 58, 87], "withholdReward": false, "trial_id": "mdp_trial_24", "block": "test", "trialIndex": 27, "score": -21.8, "costs": -2.8, "simulationMode": [null, null, null, null, null], "rewards": [-2, -2, 5, -13, -7], "path": ["0", "0", "23", "24", "25", "30", "31"], "rt": [7254, 7, 78, 220, 210], "actions": ["left", "left", "left", "down", "right"], "actionTimes": [10479, 11028, 11695, 12476, 13216], "queries": {"click": {"state": {"target": ["25", "26"], "time": [5154, 7129]}, "edge": {"target": [], "time": []}}, "mouseover": {"state": {"target": ["24", "25", "26"], "time": [4560, 4876, 5955]}, "edge": {"target": [], "time": []}}, "mouseout": {"state": {"target": ["0", "0", "24", "25", "26"], "time": [1841, 4327, 4612, 5867, 7632]}, "edge": {"target": [], "time": []}}}, "displayed_time": "17.23", "trialTime": 18668, "trial_type": "mouselab-mdp", "trial_index": 38, "time_elapsed": 1310764, "internal_node_id": "0.0-6.0-1.0-23.0"}}, {"uniqueid": "w99988518:a46861242", "current_trial": 39, "dateTime": 1693661625159, "trialdata": {"revealed_states": [], "clicked_states": [], "num_clicks_accrued": [0, 0, 0, 0, 0, 0, 0, 0, 0, 0, 0, 0, 0], "stateRewards": ["", 1, -3, -2, 14, 49, -40, -39, 2, 26, -61, 73, 1, -4, -8, 12, 79, 29, -65, -13, 55, -26, 27, -1, 3, 3, 9, -17, -60, -18, -8, 35, -88, 69], "withholdReward": false, "trial_id": "mdp_trial_25", "block": "test", "trialIndex": 28, "score": 3, "costs": 0, "simulationMode": [null, null, null, null, null], "rewards": [1, -4, -8, -13, 27], "path": ["0", "0", "12", "13", "14", "19", "22"], "rt": [2402, 161, 274, 177, 473], "actions": ["right", "right", "right", "down", "left"], "actionTimes": [5450, 6165, 6992, 7691, 8710], "queries": {"click": {"state": {"target": [], "time": []}, "edge": {"target": [], "time": []}}, "mouseover": {"state": {"target": [], "time": []}, "edge": {"target": [], "time": []}}, "mouseout": {"state": {"target": ["0"], "time": [14371]}, "edge": {"target": [], "time": []}}}, "displayed_time": "17.05", "trialTime": 18161, "trial_type": "mouselab-mdp", "trial_index": 39, "time_elapsed": 1330397, "internal_node_id": "0.0-6.0-1.0-24.0"}}, {"uniqueid": "w99988518:a46861242", "current_trial": 40, "dateTime": 1693661645857, "trialdata": {"revealed_states": [], "clicked_states": [], "num_clicks_accrued": [0, 0, 0, 0, 0, 0, 0, 0, 0, 0, 0, 0, 0], "stateRewards": ["", 1, 2, -3, -6, 50, -7, 7, -7, -80, 21, -1, 2, 2, 4, -1, 33, 84, 1, 14, -53, 81, 6, -2, -2, -3, -9, -87, -38, -59, -5, -74, -3, -71], "withholdReward": false, "trial_id": "mdp_trial_26", "block": "test", "trialIndex": 29, "score": 44, "costs": 0, "simulationMode": [null, null, null, null, null], "rewards": [1, 2, -3, -6, 50], "path": ["0", "0", "1", "2", "3", "4", "5"], "rt": [4821, 209, 550, 199, 148], "actions": ["up", "up", "up", "right", "up"], "actionTimes": [9128, 10528, 11626, 12354, 13022], "queries": {"click": {"state": {"target": [], "time": []}, "edge": {"target": [], "time": []}}, "mouseover": {"state": {"target": [], "time": []}, "edge": {"target": [], "time": []}}, "mouseout": {"state": {"target": ["1"], "time": [3014]}, "edge": {"target": [], "time": []}}}, "displayed_time": "18.32", "trialTime": 19491, "trial_type": "mouselab-mdp", "trial_index": 40, "time_elapsed": 1351095, "internal_node_id": "0.0-6.0-1.0-25.0"}}, {"uniqueid": "w99988518:a46861242", "current_trial": 41, "dateTime": 1693661669284, "trialdata": {"revealed_states": [], "clicked_states": [], "num_clicks_accrued": [0, 0, 0, 0, 0, 0, 0, 0, 0, 0, 0, 0, 0], "stateRewards": ["", 2, -2, 7, -11, -76, -65, -23, 16, -58, 30, 81, 1, 2, 7, 14, 9, 55, -2, 6, 11, -15, 31, -1, -1, -3, 2, 15, 2, 46, 15, 18, 45, -34], "withholdReward": false, "trial_id": "mdp_trial_27", "block": "test", "trialIndex": 30, "score": 27, "costs": 0, "simulationMode": [null, null, null, null, null], "rewards": [1, 2, 7, 6, 11], "path": ["0", "0", "12", "13", "14", "19", "20"], "rt": [1470, 102, 474, 248, 278], "actions": ["right", "right", "right", "down", "right"], "actionTimes": [7750, 8407, 9414, 10188, 11001], "queries": {"click": {"state": {"target": [], "time": []}, "edge": {"target": [], "time": []}}, "mouseover": {"state": {"target": [], "time": []}, "edge": {"target": [], "time": []}}, "mouseout": {"state": {"target": [], "time": []}, "edge": {"target": [], "time": []}}}, "displayed_time": "20.28", "trialTime": 22075, "trial_type": "mouselab-mdp", "trial_index": 41, "time_elapsed": 1374522, "internal_node_id": "0.0-6.0-1.0-26.0"}}, {"uniqueid": "w99988518:a46861242", "current_trial": 42, "dateTime": 1693661690515, "trialdata": {"revealed_states": [], "clicked_states": [], "num_clicks_accrued": [0, 0, 0, 0, 0, 0, 0, 0, 0, 0, 0, 0, 0], "stateRewards": ["", 2, -2, -3, 10, -4, -1, -11, -8, -9, -36, -78, 2, 1, 7, -7, 44, -1, -31, -1, 26, 47, 83, 2, -4, -4, -6, -52, -76, -81, -1, -59, 45, 67], "withholdReward": false, "trial_id": "mdp_trial_28", "block": "test", "trialIndex": 31, "score": 56, "costs": 0, "simulationMode": [null, null, null, null, null], "rewards": [2, 1, 7, -1, 47], "path": ["0", "0", "12", "13", "14", "19", "21"], "rt": [2699, 366, 379, 146, 170], "actions": ["right", "right", "right", "down", "down"], "actionTimes": [6567, 7492, 8431, 9128, 9839], "queries": {"click": {"state": {"target": [], "time": []}, "edge": {"target": [], "time": []}}, "mouseover": {"state": {"target": [], "time": []}, "edge": {"target": [], "time": []}}, "mouseout": {"state": {"target": ["0"], "time": [3905]}, "edge": {"target": [], "time": []}}}, "displayed_time": "17.87", "trialTime": 19881, "trial_type": "mouselab-mdp", "trial_index": 42, "time_elapsed": 1395753, "internal_node_id": "0.0-6.0-1.0-27.0"}}, {"uniqueid": "w99988518:a46861242", "current_trial": 43, "dateTime": 1693661710194, "trialdata": {"revealed_states": [], "clicked_states": [], "num_clicks_accrued": [0, 0, 0, 0, 0, 0, 0, 0, 0, 0, 0, 0, 0], "stateRewards": ["", -2, -3, -7, 7, -54, -69, -4, -14, -77, 22, 40, -2, -1, 5, 6, -35, 50, -60, 10, -28, 75, 57, 1, -4, -2, 2, 68, 34, -18, 12, 3, -21, -43], "withholdReward": false, "trial_id": "mdp_trial_29", "block": "test", "trialIndex": 32, "score": 58, "costs": 0, "simulationMode": [null, null, null, null, null], "rewards": [-2, -1, 5, 6, 50], "path": ["0", "0", "12", "13", "14", "15", "17"], "rt": [1545, 69, 166, 97, 269], "actions": ["right", "right", "right", "up", "right"], "actionTimes": [5076, 5675, 6356, 6996, 7823], "queries": {"click": {"state": {"target": [], "time": []}, "edge": {"target": [], "time": []}}, "mouseover": {"state": {"target": [], "time": []}, "edge": {"target": [], "time": []}}, "mouseout": {"state": {"target": ["0"], "time": [3567]}, "edge": {"target": [], "time": []}}}, "displayed_time": "17.53", "trialTime": 18235, "trial_type": "mouselab-mdp", "trial_index": 43, "time_elapsed": 1415432, "internal_node_id": "0.0-6.0-1.0-28.0"}}, {"uniqueid": "w99988518:a46861242", "current_trial": 44, "dateTime": 1693661730987, "trialdata": {"revealed_states": [], "clicked_states": [], "num_clicks_accrued": [0, 0, 0, 0, 0, 0, 0, 0, 0, 0, 0, 0, 0], "stateRewards": ["", -2, -3, 7, -13, 60, 9, 37, -6, 37, 20, 1, 2, -2, -8, 6, -80, -31, -10, -7, 70, -65, -44, -1, 1, 7, 6, -11, 73, -85, 16, -21, 47, 34], "withholdReward": false, "trial_id": "mdp_trial_30", "block": "test", "trialIndex": 33, "score": 70, "costs": 0, "simulationMode": [null, null, null, null, null], "rewards": [-1, 1, 7, 16, 47], "path": ["0", "0", "23", "24", "25", "30", "32"], "rt": [3027, 180, 454, 654, 83], "actions": ["left", "left", "left", "down", "down"], "actionTimes": [6721, 7446, 8432, 9611, 10240], "queries": {"click": {"state": {"target": [], "time": []}, "edge": {"target": [], "time": []}}, "mouseover": {"state": {"target": [], "time": []}, "edge": {"target": [], "time": []}}, "mouseout": {"state": {"target": ["1", "0"], "time": [2254, 3775]}, "edge": {"target": [], "time": []}}}, "displayed_time": "17.70", "trialTime": 19499, "trial_type": "mouselab-mdp", "trial_index": 44, "time_elapsed": 1436225, "internal_node_id": "0.0-6.0-1.0-29.0"}}, {"uniqueid": "w99988518:a46861242", "current_trial": 45, "dateTime": 1693661749836, "trialdata": {"revealed_states": [], "clicked_states": [], "num_clicks_accrued": [0, 0, 0, 0, 0, 0, 0, 0, 0, 0, 0, 0, 0], "stateRewards": ["", 2, -1, -2, -5, -47, -57, -33, -11, 31, -18, -72, -2, 1, -4, -8, -46, -53, -50, 15, -85, -9, 39, -2, -2, 1, 14, -1, -8, 53, -12, -41, -74, 62], "withholdReward": false, "trial_id": "mdp_trial_31", "block": "test", "trialIndex": 34, "score": -53, "costs": 0, "simulationMode": [null, null, null, null, null], "rewards": [2, -1, -2, -5, -47], "path": ["0", "0", "1", "2", "3", "4", "5"], "rt": [1691, 164, 623, 169, 108], "actions": ["up", "up", "up", "right", "up"], "actionTimes": [4203, 5774, 6979, 7689, 8357], "queries": {"click": {"state": {"target": [], "time": []}, "edge": {"target": [], "time": []}}, "mouseover": {"state": {"target": [], "time": []}, "edge": {"target": [], "time": []}}, "mouseout": {"state": {"target": ["0"], "time": [2547]}, "edge": {"target": [], "time": []}}}, "displayed_time": "16.51", "trialTime": 17373, "trial_type": "mouselab-mdp", "trial_index": 45, "time_elapsed": 1455074, "internal_node_id": "0.0-6.0-1.0-30.0"}}, {"uniqueid": "w99988518:a46861242", "current_trial": 46, "dateTime": 1693661773548, "trialdata": {"revealed_states": [], "clicked_states": [], "num_clicks_accrued": [0, 0, 0, 0, 0, 0, 0, 0, 0, 0, 0, 0, 0], "stateRewards": ["", 2, 3, -6, -5, -3, 55, 40, 11, 61, 11, 51, 2, -4, -6, 9, -25, 29, -15, -6, 7, -77, -2, -2, -4, 1, 14, -43, -1, 56, -12, -54, 41, -74], "withholdReward": false, "trial_id": "mdp_trial_32", "block": "test", "trialIndex": 35, "score": 71, "costs": 0, "simulationMode": [null, null, null, null, null], "rewards": [2, 3, -6, 11, 61], "path": ["0", "0", "1", "2", "3", "8", "9"], "rt": [1381, 119, 265, 212, 145], "actions": ["up", "up", "up", "left", "up"], "actionTimes": [4795, 5457, 6247, 6989, 7668], "queries": {"click": {"state": {"target": [], "time": []}, "edge": {"target": [], "time": []}}, "mouseover": {"state": {"target": [], "time": []}, "edge": {"target": [], "time": []}}, "mouseout": {"state": {"target": ["0"], "time": [1387]}, "edge": {"target": [], "time": []}}}, "displayed_time": "17.41", "trialTime": 22243, "trial_type": "mouselab-mdp", "trial_index": 46, "time_elapsed": 1478786, "internal_node_id": "0.0-6.0-1.0-31.0"}}, {"uniqueid": "w99988518:a46861242", "current_trial": 47, "dateTime": 1693661794326, "trialdata": {"revealed_states": [], "clicked_states": [], "num_clicks_accrued": [0, 0, 0, 0, 0, 0, 0, 0, 0, 0, 0, 0, 0], "stateRewards": ["", 1, 2, -6, -13, -51, 22, -4, -12, -44, -12, 6, -2, -2, -2, -14, -46, -4, -77, -2, 36, -79, 41, 2, -4, 2, -6, -55, 59, 70, -5, 39, -19, 24], "withholdReward": false, "trial_id": "mdp_trial_33", "block": "test", "trialIndex": 36, "score": -87, "costs": 0, "simulationMode": [null, null, null, null, null], "rewards": [-2, -2, -2, -2, -79], "path": ["0", "0", "12", "13", "14", "19", "21"], "rt": [2338, 147, 170, 67, 191], "actions": ["right", "right", "right", "down", "down"], "actionTimes": [6275, 6975, 7675, 8305, 9035], "queries": {"click": {"state": {"target": [], "time": []}, "edge": {"target": [], "time": []}}, "mouseover": {"state": {"target": [], "time": []}, "edge": {"target": [], "time": []}}, "mouseout": {"state": {"target": ["0"], "time": [3978]}, "edge": {"target": [], "time": []}}}, "displayed_time": "17.94", "trialTime": 19459, "trial_type": "mouselab-mdp", "trial_index": 47, "time_elapsed": 1499564, "internal_node_id": "0.0-6.0-1.0-32.0"}}, {"uniqueid": "w99988518:a46861242", "current_trial": 48, "dateTime": 1693661814118, "trialdata": {"revealed_states": [], "clicked_states": [], "num_clicks_accrued": [0, 0, 0, 0, 0, 0, 0, 0, 0, 0, 0, 0, 0], "stateRewards": ["", -2, -1, -5, 10, -36, -70, 68, -9, 86, 71, -10, 2, -4, 7, -7, 66, 44, -66, -13, -69, 43, 15, -2, 2, 6, -13, 62, 57, 50, -10, -69, 42, -72], "withholdReward": false, "trial_id": "mdp_trial_34", "block": "test", "trialIndex": 37, "score": -76, "costs": 0, "simulationMode": [null, null, null, null, null], "rewards": [-2, 2, 6, -10, -72], "path": ["0", "0", "23", "24", "25", "30", "33"], "rt": [2352, 187, 240, 154, 135], "actions": ["left", "left", "left", "down", "left"], "actionTimes": [4981, 5707, 6494, 7179, 7851], "queries": {"click": {"state": {"target": [], "time": []}, "edge": {"target": [], "time": []}}, "mouseover": {"state": {"target": [], "time": []}, "edge": {"target": [], "time": []}}, "mouseout": {"state": {"target": ["0"], "time": [1423]}, "edge": {"target": [], "time": []}}}, "displayed_time": "16.63", "trialTime": 18071, "trial_type": "mouselab-mdp", "trial_index": 48, "time_elapsed": 1519356, "internal_node_id": "0.0-6.0-1.0-33.0"}}, {"uniqueid": "w99988518:a46861242", "current_trial": 49, "dateTime": 1693661846179, "trialdata": {"revealed_states": [], "clicked_states": [], "num_clicks_accrued": [0, 0, 0, 0, 0, 0, 0, 0, 0, 0, 0, 0, 0], "stateRewards": ["", -2, 3, -1, 2, -72, 63, 20, -1, 62, -66, 39, -2, 3, -6, 14, 22, 47, 1, 8, -49, -1, -41, 2, 2, -6, -16, -64, -60, -34, 16, 54, 22, -7], "withholdReward": false, "trial_id": "mdp_trial_35", "block": "test", "trialIndex": 38, "score": -78, "costs": 0, "simulationMode": [null, null, null, null, null], "rewards": [2, 2, -6, -16, -60], "path": ["0", "0", "23", "24", "25", "26", "28"], "rt": [2289, 488, 253, 317, 231], "actions": ["left", "left", "left", "up", "right"], "actionTimes": [16214, 17235, 18029, 18886, 19643], "queries": {"click": {"state": {"target": [], "time": []}, "edge": {"target": [], "time": []}}, "mouseover": {"state": {"target": [], "time": []}, "edge": {"target": [], "time": []}}, "mouseout": {"state": {"target": ["0"], "time": [21683]}, "edge": {"target": [], "time": []}}}, "displayed_time": "27.93", "trialTime": 30504, "trial_type": "mouselab-mdp", "trial_index": 49, "time_elapsed": 1551417, "internal_node_id": "0.0-6.0-1.0-34.0"}}, {"uniqueid": "w99988518:a46861242", "current_trial": 50, "dateTime": 1693661866186, "trialdata": {"revealed_states": [], "clicked_states": [], "num_clicks_accrued": [0, 0, 0, 0, 0, 0, 0, 0, 0, 0, 0, 0, 0], "stateRewards": ["", 2, 3, 8, 14, 69, -27, 17, 2, -71, -65, -10, 2, -3, 7, 8, 65, -10, 65, -12, 73, -12, 13, -2, -2, 6, 10, -79, -69, -18, 10, -85, 67, 74], "withholdReward": false, "trial_id": "mdp_trial_36", "block": "test", "trialIndex": 39, "score": -18, "costs": 0, "simulationMode": [null, null, null, null, null], "rewards": [2, -3, 7, -12, -12], "path": ["0", "0", "12", "13", "14", "19", "21"], "rt": [4793, 20, 148, 243, 43], "actions": ["right", "right", "right", "down", "down"], "actionTimes": [8534, 9098, 9781, 10571, 11138], "queries": {"click": {"state": {"target": [], "time": []}, "edge": {"target": [], "time": []}}, "mouseover": {"state": {"target": [], "time": []}, "edge": {"target": [], "time": []}}, "mouseout": {"state": {"target": ["0"], "time": [3786]}, "edge": {"target": [], "time": []}}}, "displayed_time": "17.74", "trialTime": 18331, "trial_type": "mouselab-mdp", "trial_index": 50, "time_elapsed": 1571424, "internal_node_id": "0.0-6.0-1.0-35.0"}}, {"uniqueid": "w99988518:a46861242", "current_trial": 51, "dateTime": 1693661900565, "trialdata": {"revealed_states": [], "clicked_states": ["14", "25", "8"], "num_clicks_accrued": [0, 0, 0, 0, 0, 0, 0, 0, 0, 0, 0, 0, 0], "stateRewards": ["", -2, 1, -8, 12, -65, -79, 16, 7, -80, -17, -45, -2, 2, -5, -2, -85, 23, -4, -7, 48, 27, -76, 2, 3, 5, 2, 43, 71, -13, 7, -49, 59, -31], "withholdReward": false, "trial_id": "mdp_trial_37", "block": "test", "trialIndex": 40, "score": -86.2, "costs": -4.199999999999999, "simulationMode": [null, null, null, null, null], "rewards": [-2, 1, -8, 7, -80], "path": ["0", "0", "1", "2", "3", "8", "9"], "rt": [10662, 21, 1042, 356, 315], "actions": ["up", "up", "up", "left", "up"], "actionTimes": [13804, 14578, 16317, 17570, 18404], "queries": {"click": {"state": {"target": ["14", "25", "8"], "time": [4521, 6664, 8935]}, "edge": {"target": [], "time": []}}, "mouseover": {"state": {"target": ["14", "0", "25", "25", "28", "3", "8", "7"], "time": [4087, 5311, 5672, 6254, 7510, 7621, 8001, 12355]}, "edge": {"target": [], "time": []}}, "mouseout": {"state": {"target": ["0", "14", "0", "25", "25", "28", "3", "8"], "time": [3176, 5062, 5349, 5770, 7451, 7563, 7672, 12343]}, "edge": {"target": [], "time": []}}}, "displayed_time": "18.94", "trialTime": 32882, "trial_type": "mouselab-mdp", "trial_index": 51, "time_elapsed": 1605803, "internal_node_id": "0.0-6.0-1.0-36.0"}}, {"uniqueid": "w99988518:a46861242", "current_trial": 52, "dateTime": 1693661933638, "trialdata": {"revealed_states": [], "clicked_states": [], "num_clicks_accrued": [0, 0, 0, 0, 0, 0, 0, 0, 0, 0, 0, 0, 0], "stateRewards": ["", -2, -4, -6, 12, -58, -70, -80, 2, 16, -88, -62, 1, 2, -5, 11, 77, -35, -44, -5, 18, -83, 87, 1, -3, -5, 13, -44, -21, -86, 10, -52, 8, 29], "withholdReward": false, "trial_id": "mdp_trial_38", "block": "test", "trialIndex": 41, "score": -58, "costs": 0, "simulationMode": [null, null, null, null, null], "rewards": [-2, -4, -6, 12, -58], "path": ["0", "0", "1", "2", "3", "4", "5"], "rt": [2019, 652, 180, 141, 635], "actions": ["up", "up", "up", "right", "up"], "actionTimes": [18915, 20735, 21501, 22158, 23476], "queries": {"click": {"state": {"target": [], "time": []}, "edge": {"target": [], "time": []}}, "mouseover": {"state": {"target": [], "time": []}, "edge": {"target": [], "time": []}}, "mouseout": {"state": {"target": ["0"], "time": [26069]}, "edge": {"target": [], "time": []}}}, "displayed_time": "30.90", "trialTime": 31603, "trial_type": "mouselab-mdp", "trial_index": 52, "time_elapsed": 1638876, "internal_node_id": "0.0-6.0-1.0-37.0"}}, {"uniqueid": "w99988518:a46861242", "current_trial": 53, "dateTime": 1693661972792, "trialdata": {"revealed_states": [], "clicked_states": [], "num_clicks_accrued": [0, 0, 0, 0, 0, 0, 0, 0, 0, 0, 0, 0, 0], "stateRewards": ["", 1, -1, 8, -3, 38, 85, -20, -4, 8, 23, 73, 2, -4, 6, -13, 44, 7, -28, -11, -77, 45, -69, 1, -1, -7, -11, 75, -51, -87, 7, 36, -53, -26], "withholdReward": false, "trial_id": "mdp_trial_39", "block": "test", "trialIndex": 42, "score": 38, "costs": 0, "simulationMode": [null, null, null, null, null], "rewards": [2, -4, 6, -11, 45], "path": ["0", "0", "12", "13", "14", "19", "21"], "rt": [3257, 88, 69, 83, 20], "actions": ["right", "right", "right", "down", "down"], "actionTimes": [20722, 21366, 21976, 22586, 23199], "queries": {"click": {"state": {"target": [], "time": []}, "edge": {"target": [], "time": []}}, "mouseover": {"state": {"target": [], "time": []}, "edge": {"target": [], "time": []}}, "mouseout": {"state": {"target": ["0"], "time": [25119]}, "edge": {"target": [], "time": []}}}, "displayed_time": "31.47", "trialTime": 37591, "trial_type": "mouselab-mdp", "trial_index": 53, "time_elapsed": 1678030, "internal_node_id": "0.0-6.0-1.0-38.0"}}, {"uniqueid": "w99988518:a46861242", "current_trial": 54, "dateTime": 1693661994390, "trialdata": {"revealed_states": [], "clicked_states": [], "num_clicks_accrued": [0, 0, 0, 0, 0, 0, 0, 0, 0, 0, 0, 0, 0], "stateRewards": ["", 1, 4, -8, -13, -13, -87, -77, -10, -44, 54, 42, 2, -3, -4, 12, -9, -80, 52, 9, 84, -2, -65, 1, -4, -5, -6, 8, 80, 32, 13, -59, -5, -13], "withholdReward": false, "trial_id": "mdp_trial_40", "block": "test", "trialIndex": 43, "score": 0, "costs": 0, "simulationMode": [null, null, null, null, null], "rewards": [1, -4, -5, 13, -5], "path": ["0", "0", "23", "24", "25", "30", "32"], "rt": [2237, 3542, 2568, 463, 118], "actions": ["left", "left", "left", "down", "down"], "actionTimes": [5324, 10444, 13742, 14781, 15419], "queries": {"click": {"state": {"target": [], "time": []}, "edge": {"target": [], "time": []}}, "mouseover": {"state": {"target": ["0"], "time": [3126]}, "edge": {"target": [], "time": []}}, "mouseout": {"state": {"target": ["0", "0"], "time": [1994, 3334]}, "edge": {"target": [], "time": []}}}, "displayed_time": "17.09", "trialTime": 19839, "trial_type": "mouselab-mdp", "trial_index": 54, "time_elapsed": 1699628, "internal_node_id": "0.0-6.0-1.0-39.0"}}, {"uniqueid": "w99988518:a46861242", "current_trial": 55, "dateTime": 1693662083687, "trialdata": {"rt": 89130, "response": {"Q0": "$-88 to $88", "Q1": "$-16 to $16", "Q2": "$-88 to $88", "Q3": "The cost for clicking on nodes varied between nodes.", "Q4": "Very motivated"}, "question_order": [0, 1, 2, 3, 4], "trial_id": "final_quiz_control", "trial_type": "survey-multi-choice", "trial_index": 55, "time_elapsed": 1788925, "internal_node_id": "0.0-6.0-2.0"}}, {"uniqueid": "w99988518:a46861242", "current_trial": 56, "dateTime": 1693662139189, "trialdata": {"rt": 54497, "response": {"Q0": "i tried to just go with the route i felt bet with it was random ", "Q1": "no", "Q2": "it was difficualt as it cost to look at nides so lowered your bonus"}, "trial_id": "self_report_control", "trial_type": "survey-text", "trial_index": 56, "time_elapsed": 1844428, "internal_node_id": "0.0-6.0-3.0"}}, {"uniqueid": "w99988518:a46861242", "current_trial": 57, "dateTime": 1693662160492, "trialdata": {"rt": 21277, "response": {"gender": "female", "age": "35", "colorblind": "0", "effort": "0"}, "trial_type": "survey-html-form", "trial_index": 57, "time_elapsed": 1865731, "internal_node_id": "0.0-6.0-4.0"}}, {"uniqueid": "w99988518:a46861242", "current_trial": 58, "dateTime": 1693662173435, "trialdata": {"rt": 12932, "response": {"Q0": "no", "Q1": "no", "Q2": "none"}, "trial_type": "survey-text", "trial_index": 58, "time_elapsed": 1878674, "internal_node_id": "0.0-6.0-5.0"}}, {"uniqueid": "w99988518:a46861242", "current_trial": 59, "dateTime": 1693662216620, "trialdata": {"rt": 43122, "stimulus": "<h1>Completion Code Instructions (1/2)</h1>\n<br><br><br><br>\nYou have reached the end of the experiment! The completion code consists of two parts: (1) a code with 2 characters (2) a code with 6 characters. On this page, you will receive the second part of the code. The first part of the completion code will be on the next page.\n<br><br>\nThe second part of your completion code is: <b>EWEK22</b>\n<br><br>\nPlease note this down. Then, press 'Next' in order to find the first part of your completion code. Once the data has been saved, you will receive this code either in this window or in the original browser window where you started the experiment.\n <br><br>\n<h2 style='color: red;'>Note: this is <strong>NOT</strong> the full completion code. Copy this down and click 'Next' to get the full completion code on the next page.</h2>", "response": 0, "trial_type": "html-button-response", "trial_index": 59, "time_elapsed": 1921859, "internal_node_id": "0.0-6.0-6.0"}}, {"uniqueid": "w99988518:a46861242", "current_trial": 60, "dateTime": 1693662217658, "trialdata": {"success": true, "trial_type": "fullscreen", "trial_index": 60, "time_elapsed": 1922897, "internal_node_id": "0.0-7.0"}}], "questiondata": {"params": {"CODE": "C6DMOQA6", "MIN_TIME": 14, "inspectCost": 1, "startTime": "Sat Sep 02 2023 14:11:33 GMT+0100 (British Summer Time)", "bonusRate": 0.002, "variance": "1_2_4_8_44", "branching": "31123"}, "final_score": -144.6}, "eventdata": [{"eventtype": "initialized", "value": null, "timestamp": 1693660291687, "interval": 0}, {"eventtype": "window_resize", "value": [1024, 694], "timestamp": 1693660291687, "interval": 0}, {"eventtype": "window_resize", "value": [1024, 694], "timestamp": 1693660292847, "interval": 1160}, {"eventtype": "window_resize", "value": [1366, 768], "timestamp": 1693660300037, "interval": 7190}, {"eventtype": "focus", "value": "off", "timestamp": 1693660738644, "interval": 438607}, {"eventtype": "focus", "value": "on", "timestamp": 1693660738644, "interval": 0}, {"eventtype": "window_resize", "value": [1024, 694], "timestamp": 1693660738887, "interval": 243}, {"eventtype": "window_resize", "value": [1366, 768], "timestamp": 1693660742034, "interval": 3147}], "useragent": "Mozilla/5.0 (Windows NT 10.0; Win64; x64) AppleWebKit/537.36 (KHTML, like Gecko) Chrome/116.0.0.0 Safari/537.36", "mode": "live", "id": "w99988518:a46861242", "status": "user data saved", "Beginhit": "2023-09-02 13:11:28.450927", "Beginexp": "2023-09-02 13:11:41.028706", "Endhit": "2023-09-02 13:43:44.686605", "psiturkStatus": 3, "browser": "<redacted>", "platform": "windows", "language": "en-US"}