{"condition": 1, "counterbalance": 0, "assignmentId": "a24381831", "workerId": "w56023310", "hitId": "h76544011", "currenttrial": 7, "bonus": 0, "data": [{"uniqueid": "w56023310:a24381831", "current_trial": 0, "dateTime": 1691071048754, "trialdata": {"success": true, "trial_type": "fullscreen", "trial_index": 0, "time_elapsed": 3104, "internal_node_id": "0.0-0.0"}}, {"uniqueid": "w56023310:a24381831", "current_trial": 1, "dateTime": 1691071059382, "trialdata": {"view_history": [{"page_index": 0, "viewing_time": 10622}], "rt": 10623, "trial_id": "exp_instructions_misaligned", "trial_type": "instructions", "trial_index": 1, "time_elapsed": 13732, "internal_node_id": "0.0-1.0"}}, {"uniqueid": "w56023310:a24381831", "current_trial": 2, "dateTime": 1691071062253, "trialdata": {"success": true, "trial_type": "fullscreen", "trial_index": 2, "time_elapsed": 16603, "internal_node_id": "0.0-2.0-0.0"}}, {"uniqueid": "w56023310:a24381831", "current_trial": 3, "dateTime": 1691071088643, "trialdata": {"view_history": [{"page_index": 0, "viewing_time": 19763}, {"page_index": 1, "viewing_time": 2896}, {"page_index": 2, "viewing_time": 1992}, {"page_index": 3, "viewing_time": 1736}], "rt": 26388, "trial_id": "mouselab_instructions_1_misaligned", "trial_type": "instructions", "trial_index": 3, "time_elapsed": 42993, "internal_node_id": "0.0-2.0-1.0"}}, {"uniqueid": "w56023310:a24381831", "current_trial": 4, "dateTime": 1691071112467, "trialdata": {"revealed_states": [], "clicked_states": [], "num_clicks_accrued": [0, 0, 0, 0, 0, 0, 0, 0, 0, 0, 0, 0, 0], "stateRewards": ["", -10, -10, -10, -10, 10, -10, 10, -10, 10, 10, 10, 10, 10, 10, 10, 10, -10, -10, -10, 10, 10, 10, 10, -10, 10, 10, -10, -10, -10, 10, 10, 10, 10], "withholdReward": false, "trial_id": "practice_1", "block": "test", "trialIndex": 0, "score": -26.5, "costs": 0, "simulationMode": [null, null, null, null, null], "rewards": [-10, -10, -10, -10, 10], "path": ["0", "0", "1", "2", "3", "4", "5"], "rt": [4112, 1924, 927, 724, 4410], "actions": ["up", "up", "up", "right", "up"], "actionTimes": [6174, 8593, 10011, 11228, 16132], "queries": {"click": {"state": {"target": [], "time": []}, "edge": {"target": [], "time": []}}, "mouseover": {"state": {"target": ["1"], "time": [4351]}, "edge": {"target": [], "time": []}}, "mouseout": {"state": {"target": ["0", "1"], "time": [1133, 4935]}, "edge": {"target": [], "time": []}}}, "displayed_time": "16.62", "trialTime": 23403, "trial_type": "mouselab-mdp", "trial_index": 4, "time_elapsed": 66816, "internal_node_id": "0.0-2.0-2.0-0.0"}}, {"uniqueid": "w56023310:a24381831", "current_trial": 5, "dateTime": 1691071134146, "trialdata": {"revealed_states": [], "clicked_states": [], "num_clicks_accrued": [0, 0, 0, 0, 0, 0, 0, 0, 0, 0, 0, 0, 0], "stateRewards": ["", -10, -10, -10, -10, -10, 10, -10, -10, 10, 10, -10, 10, -10, -10, 10, 10, -10, 10, 10, 10, 10, 10, 10, 10, 10, 10, 10, -10, -10, -10, -10, 10, 10], "withholdReward": false, "trial_id": "practice_2", "block": "test", "trialIndex": 1, "score": -6.5, "costs": 0, "simulationMode": [null, null, null, null, null], "rewards": [10, -10, -10, 10, -10], "path": ["0", "0", "12", "13", "14", "15", "17"], "rt": [7188, 888, 452, 597, 1764], "actions": ["right", "right", "right", "up", "right"], "actionTimes": [13194, 14572, 15520, 16614, 18884], "queries": {"click": {"state": {"target": [], "time": []}, "edge": {"target": [], "time": []}}, "mouseover": {"state": {"target": ["0"], "time": [9264]}, "edge": {"target": [], "time": []}}, "mouseout": {"state": {"target": [], "time": []}, "edge": {"target": [], "time": []}}}, "displayed_time": "19.39", "trialTime": 21571, "trial_type": "mouselab-mdp", "trial_index": 5, "time_elapsed": 88495, "internal_node_id": "0.0-2.0-2.0-1.0"}}, {"uniqueid": "w56023310:a24381831", "current_trial": 6, "dateTime": 1691071270910, "trialdata": {"view_history": [{"page_index": 0, "viewing_time": 134255}, {"page_index": 1, "viewing_time": 2506}], "rt": 136762, "trial_id": "mouselab_instructions_2_misaligned", "trial_type": "instructions", "trial_index": 6, "time_elapsed": 225260, "internal_node_id": "0.0-2.0-3.0"}}], "questiondata": {"params": {"CODE": "C6DMOQA6", "MIN_TIME": 14, "inspectCost": 1, "startTime": "Thu Aug 03 2023 15:57:24 GMT+0200 (South Africa Standard Time)", "bonusRate": 0.002, "variance": "1_2_4_8_44", "branching": "31123"}}, "eventdata": [{"eventtype": "initialized", "interval": 0, "timestamp": 1691070917917, "value": null}, {"eventtype": "window_resize", "interval": 0, "timestamp": 1691070917917, "value": [1024, 756]}, {"eventtype": "focus", "interval": 467, "timestamp": 1691070918384, "value": "off"}, {"eventtype": "window_resize", "interval": 853, "timestamp": 1691070919237, "value": [1024, 756]}, {"eventtype": "window_resize", "value": [1024, 756], "timestamp": 1691071044206, "interval": 124969}, {"eventtype": "window_resize", "value": [1536, 864], "timestamp": 1691071047968, "interval": 3762}, {"eventtype": "focus", "value": "off", "timestamp": 1691071142529, "interval": 94561}, {"eventtype": "focus", "value": "on", "timestamp": 1691071268288, "interval": 125759}, {"eventtype": "window_resize", "value": [1024, 756], "timestamp": 1691071278645, "interval": 10357}], "useragent": "Mozilla/5.0 (Windows NT 10.0; Win64; x64) AppleWebKit/537.36 (KHTML, like Gecko) Chrome/115.0.0.0 Safari/537.36 Edg/115.0.1901.188", "mode": "live", "id": "w56023310:a24381831", "status": "user data saved", "Beginhit": "2023-08-03 13:55:13.566308", "Beginexp": "2023-08-03 13:57:28.902233", "Endhit": null, "psiturkStatus": 6, "browser": "<redacted>", "platform": "windows", "language": "en-GB", "excludeReason": "quizfail"}