{"condition": 1, "counterbalance": 0, "assignmentId": "a49775724", "workerId": "w92010698", "hitId": "h58571109", "currenttrial": 56, "bonus": 0, "data": [{"uniqueid": "w92010698:a49775724", "current_trial": 0, "dateTime": 1691142239042, "trialdata": {"success": true, "trial_type": "fullscreen", "trial_index": 0, "time_elapsed": 5598, "internal_node_id": "0.0-0.0"}}, {"uniqueid": "w92010698:a49775724", "current_trial": 1, "dateTime": 1691142260996, "trialdata": {"view_history": [{"page_index": 0, "viewing_time": 21932}], "rt": 21933, "trial_id": "exp_instructions_misaligned", "trial_type": "instructions", "trial_index": 1, "time_elapsed": 27553, "internal_node_id": "0.0-1.0"}}, {"uniqueid": "w92010698:a49775724", "current_trial": 2, "dateTime": 1691142264106, "trialdata": {"success": true, "trial_type": "fullscreen", "trial_index": 2, "time_elapsed": 30663, "internal_node_id": "0.0-2.0-0.0"}}, {"uniqueid": "w92010698:a49775724", "current_trial": 3, "dateTime": 1691142458310, "trialdata": {"view_history": [{"page_index": 0, "viewing_time": 52860}, {"page_index": 1, "viewing_time": 63800}, {"page_index": 2, "viewing_time": 28649}, {"page_index": 3, "viewing_time": 3089}, {"page_index": 2, "viewing_time": 3245}, {"page_index": 3, "viewing_time": 42551}], "rt": 194195, "trial_id": "mouselab_instructions_1_misaligned", "trial_type": "instructions", "trial_index": 3, "time_elapsed": 224867, "internal_node_id": "0.0-2.0-1.0"}}, {"uniqueid": "w92010698:a49775724", "current_trial": 4, "dateTime": 1691142490881, "trialdata": {"revealed_states": [], "clicked_states": ["23", "1", "12", "26"], "num_clicks_accrued": [0, 0, 0, 0, 0, 0, 0, 0, 0, 0, 0, 0, 0], "stateRewards": ["", 10, -10, -10, -10, 10, 10, -10, -10, 10, -10, -10, 10, 10, -10, -10, 10, -10, -10, 10, 10, 10, 10, 10, 10, 10, 10, -10, 10, 10, 10, -10, 10, -10], "withholdReward": false, "trial_id": "practice_1", "block": "test", "trialIndex": 0, "score": 51.5, "costs": -2, "simulationMode": [null, null, null, null, null], "rewards": [10, 10, 10, 10, 10], "path": ["0", "0", "23", "24", "25", "26", "29"], "rt": [14371, 566, 546, 356, 1476], "actions": ["left", "left", "left", "up", "left"], "actionTimes": [16334, 17460, 18577, 19501, 21519], "queries": {"click": {"state": {"target": ["23", "1", "12", "26"], "time": [5088, 7931, 9734, 12479]}, "edge": {"target": [], "time": []}}, "mouseover": {"state": {"target": ["23", "24", "28", "1", "12", "25", "26", "12", "12", "23"], "time": [3974, 6048, 6889, 7603, 8835, 11535, 12117, 14065, 14501, 14622]}, "edge": {"target": [], "time": []}}, "mouseout": {"state": {"target": ["0", "23", "24", "28", "1", "12", "25", "26", "12", "12"], "time": [3876, 5858, 6664, 7177, 8137, 11236, 11903, 13786, 14117, 14535]}, "edge": {"target": [], "time": []}}}, "displayed_time": "22.05", "trialTime": 30948, "trial_type": "mouselab-mdp", "trial_index": 4, "time_elapsed": 257437, "internal_node_id": "0.0-2.0-2.0-0.0"}}, {"uniqueid": "w92010698:a49775724", "current_trial": 5, "dateTime": 1691142521658, "trialdata": {"revealed_states": [], "clicked_states": ["1", "23", "12", "15", "26", "30"], "num_clicks_accrued": [0, 0, 0, 0, 0, 0, 0, 0, 0, 0, 0, 0, 0], "stateRewards": ["", 10, -10, -10, 10, -10, 10, -10, -10, -10, 10, -10, 10, 10, -10, -10, 10, 10, 10, -10, 10, 10, 10, 10, -10, -10, -10, 10, 10, -10, 10, 10, 10, 10], "withholdReward": false, "trial_id": "practice_2", "block": "test", "trialIndex": 1, "score": 10.5, "costs": -3, "simulationMode": [null, null, null, null, null], "rewards": [10, -10, -10, 10, 10], "path": ["0", "0", "23", "24", "25", "30", "31"], "rt": [15126, 614, 289, 366, 901], "actions": ["left", "left", "left", "down", "right"], "actionTimes": [18814, 19961, 20803, 21728, 23166], "queries": {"click": {"state": {"target": ["1", "23", "12", "15", "26", "30"], "time": [5174, 6656, 8467, 10468, 13579, 15860]}, "edge": {"target": [], "time": []}}, "mouseover": {"state": {"target": ["1", "23", "0", "12", "15", "14", "19", "23", "26", "25", "30", "25", "28", "0"], "time": [4729, 5978, 7375, 8026, 10074, 11481, 12056, 12608, 13272, 15255, 15551, 17420, 17467, 17984]}, "edge": {"target": [], "time": []}}, "mouseout": {"state": {"target": ["23", "1", "1", "23", "0", "12", "15", "14", "19", "23", "26", "25", "30", "25", "28", "0", "22"], "time": [2311, 5390, 5741, 7306, 7705, 9990, 11373, 11675, 12522, 12633, 15221, 15425, 16070, 17454, 17584, 18067, 27044]}, "edge": {"target": [], "time": []}}}, "displayed_time": "23.71", "trialTime": 29622, "trial_type": "mouselab-mdp", "trial_index": 5, "time_elapsed": 288214, "internal_node_id": "0.0-2.0-2.0-1.0"}}, {"uniqueid": "w92010698:a49775724", "current_trial": 6, "dateTime": 1691142558866, "trialdata": {"view_history": [{"page_index": 0, "viewing_time": 28123}, {"page_index": 1, "viewing_time": 9074}], "rt": 37198, "trial_id": "mouselab_instructions_2_misaligned", "trial_type": "instructions", "trial_index": 6, "time_elapsed": 325423, "internal_node_id": "0.0-2.0-3.0"}}, {"uniqueid": "w92010698:a49775724", "current_trial": 7, "dateTime": 1691142592400, "trialdata": {"rt": 33524, "response": {"Q0": "The cost for clicking on nodes may vary between nodes.", "Q1": "The better I perform the higher my bonus will be.", "Q2": "No, the amount of cash at each node of the web may be different each time.", "Q3": "To get the highest total score.", "Q4": "Only before moving the spider.", "Q5": "3 seconds"}, "question_order": [0, 1, 2, 3, 4, 5], "correct": {"Q0": "The cost for clicking on nodes may vary between nodes.", "Q1": "The better I perform the higher my bonus will be.", "Q2": "No, the amount of cash at each node of the web may be different each time.", "Q3": "To get the highest total score.", "Q4": "Only before moving the spider.", "Q5": "3 seconds"}, "trial_id": "mouselab_quiz_misaligned", "trial_type": "survey-multi-choice", "trial_index": 7, "time_elapsed": 358957, "internal_node_id": "0.0-2.0-4.0"}}, {"uniqueid": "w92010698:a49775724", "current_trial": 8, "dateTime": 1691142602698, "trialdata": {"rt": 10275, "stimulus": "\n<h1> Get ready to start the game! </h1>\n\nThank you for reading the instructions. Get ready start with the 40 rounds of this game.\n<br><br>\nIf you need to take a break, feel free to take one after the end of a round, before continuing to the next one.\n<br><br>\nRemember, the more money the spider gets, the bigger your bonus will be!\n<br><br>\n<div style='text-align: center;'>Press <code>space</code> to begin.</div>\n\n<br><br>\n(If, at any point, the <code>space</code> key does not take you to the next page, click once on the text and try again.)", "response": " ", "trial_id": "mdp_ready", "trial_type": "html-keyboard-response", "trial_index": 8, "time_elapsed": 369254, "internal_node_id": "0.0-4.0-0.0"}}, {"uniqueid": "w92010698:a49775724", "current_trial": 9, "dateTime": 1691142662361, "trialdata": {"revealed_states": [], "clicked_states": ["26", "30", "31", "32", "33", "19", "20", "22", "15", "16", "4", "8", "21", "18", "11"], "num_clicks_accrued": [0, 0, 0, 0, 0, 0, 0, 0, 0, 0, 0, 0, 0], "stateRewards": ["", -1, -3, -6, -2, -7, 80, -45, -3, -38, -72, 76, 2, 1, 7, 4, -62, 14, -74, 14, -87, -21, -88, -2, 1, -7, -10, 66, 56, -76, 10, -29, -72, -70], "withholdReward": false, "trial_id": "mdp_trial_1", "block": "test", "trialIndex": 2, "score": 34.35, "costs": -28.65, "simulationMode": [null, null, null, null, null], "rewards": [-1, -3, -6, -3, 76], "path": ["0", "0", "1", "2", "3", "8", "11"], "rt": [46391, 760, 323, 505, 181], "actions": ["up", "up", "up", "left", "left"], "actionTimes": [49346, 50676, 51535, 52586, 53323], "queries": {"click": {"state": {"target": ["26", "30", "31", "32", "33", "19", "20", "22", "15", "16", "4", "8", "21", "18", "11"], "time": [4949, 6034, 7996, 11826, 14753, 18194, 19966, 23913, 26777, 29465, 34093, 35672, 38401, 41845, 44676]}, "edge": {"target": [], "time": []}}, "mouseover": {"state": {"target": ["0", "23", "24", "26", "25", "30", "31", "22", "31", "24", "25", "24", "31", "33", "32", "33", "22", "19", "14", "19", "20", "21", "22", "21", "19", "14", "14", "15", "3", "3", "3", "8", "4", "16", "18", "7", "3", "3", "4", "8", "18", "20", "21", "18", "18", "3", "11", "3", "8", "3", "2", "1"], "time": [3704, 3887, 4430, 4486, 5459, 5691, 6521, 6750, 6908, 7134, 7201, 7550, 7667, 9044, 11363, 12671, 16072, 16571, 16811, 16934, 19557, 20862, 23419, 24651, 24831, 24970, 25166, 25216, 27607, 28000, 28215, 28381, 28451, 28748, 30170, 33180, 33228, 33444, 33710, 34875, 36381, 36908, 38023, 39039, 39684, 42613, 42862, 45679, 46657, 47396, 48123, 48298]}, "edge": {"target": [], "time": []}}, "mouseout": {"state": {"target": ["0", "0", "23", "24", "26", "25", "30", "31", "22", "31", "24", "25", "24", "31", "30", "33", "32", "33", "22", "19", "14", "19", "20", "21", "22", "21", "19", "14", "14", "15", "3", "3", "3", "8", "4", "16", "18", "7", "3", "3", "4", "8", "18", "20", "21", "18", "18", "3", "11", "3", "8", "3", "2", "1"], "time": [1485, 3786, 4403, 4463, 5415, 5495, 6501, 6564, 6836, 6973, 7169, 7349, 7585, 8639, 8914, 11099, 12576, 15486, 16125, 16609, 16890, 18374, 20595, 23284, 24533, 24794, 24871, 25053, 25203, 26975, 27656, 28054, 28246, 28417, 28484, 29963, 33144, 33216, 33256, 33578, 34789, 35892, 36438, 37809, 38990, 39102, 42566, 42663, 45530, 46612, 47049, 48082, 48231, 48365]}, "edge": {"target": [], "time": []}}}, "displayed_time": "53.88", "trialTime": 58475, "trial_type": "mouselab-mdp", "trial_index": 9, "time_elapsed": 428917, "internal_node_id": "0.0-4.0-1.0-0.0"}}, {"uniqueid": "w92010698:a49775724", "current_trial": 10, "dateTime": 1691142705596, "trialdata": {"revealed_states": [], "clicked_states": ["26", "29", "28", "30", "19", "15", "4", "8", "9", "11"], "num_clicks_accrued": [0, 0, 0, 0, 0, 0, 0, 0, 0, 0, 0, 0, 0], "stateRewards": ["", -2, 4, -7, -3, -76, 39, -28, 10, 14, 12, 60, 2, -3, 6, -10, 88, -34, -41, -3, 72, -13, -56, 1, 3, 2, 8, -51, 23, -57, 1, 14, -46, -16], "withholdReward": false, "trial_id": "mdp_trial_2", "block": "test", "trialIndex": 3, "score": 47.099999999999994, "costs": -17.900000000000002, "simulationMode": [null, null, null, null, null], "rewards": [-2, 4, -7, 10, 60], "path": ["0", "0", "1", "2", "3", "8", "11"], "rt": [28051, 218, 435, 181, 260], "actions": ["up", "up", "up", "left", "left"], "actionTimes": [32285, 33044, 34018, 34742, 35569], "queries": {"click": {"state": {"target": ["26", "29", "28", "30", "19", "15", "4", "8", "9", "11"], "time": [5791, 8077, 11377, 16040, 17424, 19130, 20890, 22114, 23950, 27292]}, "edge": {"target": [], "time": []}}, "mouseover": {"state": {"target": ["23", "24", "25", "26", "26", "25", "30", "33", "29", "29", "28", "30", "30", "31", "19", "14", "15", "15", "4", "3", "4", "3", "8", "9", "11", "8", "3", "10", "1"], "time": [4963, 5031, 5179, 5265, 5429, 6423, 6758, 7014, 7353, 7780, 8753, 15439, 15687, 16720, 16995, 18365, 18438, 18737, 20020, 20222, 20505, 21523, 21772, 23386, 24569, 27945, 28042, 29550, 31447]}, "edge": {"target": [], "time": []}}, "mouseout": {"state": {"target": ["21", "0", "23", "24", "25", "26", "26", "25", "30", "33", "29", "29", "26", "28", "30", "30", "31", "19", "14", "15", "15", "4", "3", "4", "3", "8", "9", "11", "8", "3", "10", "1", "12", "13", "19", "13", "15", "17", "20", "22", "13"], "time": [1929, 2512, 4999, 5063, 5229, 5309, 6320, 6521, 6979, 7051, 7401, 8619, 8688, 15371, 15604, 16703, 16768, 17627, 18420, 18575, 19847, 20158, 20388, 21470, 21611, 22781, 24392, 27895, 27995, 29413, 31413, 31496, 37191, 37225, 38223, 38339, 38409, 38441, 38689, 38757, 38889]}, "edge": {"target": [], "time": []}}}, "displayed_time": "36.12", "trialTime": 42038, "trial_type": "mouselab-mdp", "trial_index": 10, "time_elapsed": 472151, "internal_node_id": "0.0-4.0-1.0-1.0"}}, {"uniqueid": "w92010698:a49775724", "current_trial": 11, "dateTime": 1691142739145, "trialdata": {"revealed_states": [], "clicked_states": ["26", "30", "8", "4", "15", "19", "29", "27", "28"], "num_clicks_accrued": [0, 0, 0, 0, 0, 0, 0, 0, 0, 0, 0, 0, 0], "stateRewards": ["", 1, 3, 1, -13, 52, -28, 67, -14, 3, 63, -70, -1, -4, 7, -11, -10, 47, -18, 6, 69, -9, -61, 2, 3, -6, 10, 63, -34, 40, -6, -79, -35, -32], "withholdReward": false, "trial_id": "mdp_trial_3", "block": "test", "trialIndex": 4, "score": 56.25, "costs": -15.750000000000002, "simulationMode": [null, null, null, null, null], "rewards": [2, 3, -6, 10, 63], "path": ["0", "0", "23", "24", "25", "26", "27"], "rt": [20196, 175, 220, 112, 171], "actions": ["left", "left", "left", "up", "up"], "actionTimes": [25356, 26089, 26861, 27509, 28228], "queries": {"click": {"state": {"target": ["26", "30", "8", "4", "15", "19", "29", "27", "28"], "time": [6662, 7955, 9536, 10780, 12036, 13282, 14626, 18045, 21488]}, "edge": {"target": [], "time": []}}, "mouseover": {"state": {"target": ["23", "24", "25", "26", "25", "30", "24", "10", "8", "3", "4", "15", "14", "19", "29", "29", "27", "28", "24"], "time": [5886, 5942, 6030, 6164, 7304, 7636, 8657, 8866, 9209, 10142, 10424, 11514, 12752, 12869, 13919, 14269, 15239, 18765, 23177]}, "edge": {"target": [], "time": []}}, "mouseout": {"state": {"target": ["0", "23", "24", "25", "26", "25", "30", "24", "10", "8", "3", "4", "15", "14", "19", "29", "29", "27", "28", "24"], "time": [5862, 5917, 5978, 6112, 7258, 7411, 8161, 8706, 8995, 10127, 10184, 11318, 12687, 12798, 13504, 13967, 15165, 18554, 23093, 24080]}, "edge": {"target": [], "time": []}}}, "displayed_time": "28.76", "trialTime": 32319, "trial_type": "mouselab-mdp", "trial_index": 11, "time_elapsed": 505701, "internal_node_id": "0.0-4.0-1.0-2.0"}}, {"uniqueid": "w92010698:a49775724", "current_trial": 12, "dateTime": 1691142772104, "trialdata": {"revealed_states": [], "clicked_states": ["26", "30", "8", "4", "15", "19"], "num_clicks_accrued": [0, 0, 0, 0, 0, 0, 0, 0, 0, 0, 0, 0, 0], "stateRewards": ["", -2, -1, -4, -15, -14, -67, 32, -3, -59, 63, 31, 2, -1, -7, -15, 71, -66, -27, -3, -54, -39, 72, 2, 1, 1, -13, 77, -40, 35, -9, 35, 75, 57], "withholdReward": false, "trial_id": "mdp_trial_4", "block": "test", "trialIndex": 5, "score": 58.7, "costs": -9.3, "simulationMode": [null, null, null, null, null], "rewards": [2, 1, 1, -13, 77], "path": ["0", "0", "23", "24", "25", "26", "27"], "rt": [17758, 117, 200, 493, 110], "actions": ["left", "left", "left", "up", "up"], "actionTimes": [23704, 24377, 25132, 26177, 26860], "queries": {"click": {"state": {"target": ["26", "30", "8", "4", "15", "19"], "time": [7316, 8507, 9747, 11603, 13172, 14541]}, "edge": {"target": [], "time": []}}, "mouseover": {"state": {"target": ["23", "24", "26", "25", "30", "8", "3", "4", "15", "14", "19", "22", "25", "26", "8", "27", "29", "24", "23", "10", "28", "28"], "time": [6641, 6689, 6941, 7936, 8082, 9201, 10605, 10937, 12575, 13883, 14149, 15302, 15420, 15611, 17317, 17973, 18098, 18596, 19413, 19482, 19747, 22962]}, "edge": {"target": [], "time": []}}, "mouseout": {"state": {"target": ["12", "0", "23", "24", "26", "25", "30", "8", "3", "4", "15", "15", "14", "19", "22", "25", "26", "8", "27", "29", "24", "23", "10", "28", "28"], "time": [1748, 4724, 6676, 6717, 7921, 7982, 9085, 10502, 10765, 12183, 13372, 13814, 13992, 14764, 15351, 15461, 17012, 17864, 18002, 18125, 18665, 19440, 19681, 22795, 22995]}, "edge": {"target": [], "time": []}}}, "displayed_time": "27.39", "trialTime": 31674, "trial_type": "mouselab-mdp", "trial_index": 12, "time_elapsed": 538660, "internal_node_id": "0.0-4.0-1.0-3.0"}}, {"uniqueid": "w92010698:a49775724", "current_trial": 13, "dateTime": 1691142803265, "trialdata": {"revealed_states": [], "clicked_states": ["26", "30", "19", "15", "4", "8", "32", "33", "31"], "num_clicks_accrued": [0, 0, 0, 0, 0, 0, 0, 0, 0, 0, 0, 0, 0], "stateRewards": ["", 1, 4, 7, -16, -84, -6, -46, -12, -7, -49, -26, -1, 2, -4, 2, 22, 37, -64, 1, 88, -13, -10, 1, -4, -2, 5, 2, -10, -34, 9, 66, 55, 38], "withholdReward": false, "trial_id": "mdp_trial_5", "block": "test", "trialIndex": 6, "score": 54.25, "costs": -15.750000000000002, "simulationMode": [null, null, null, null, null], "rewards": [1, -4, -2, 9, 66], "path": ["0", "0", "23", "24", "25", "30", "31"], "rt": [19281, 6, 46, 298, 127], "actions": ["left", "left", "left", "down", "right"], "actionTimes": [21625, 22191, 22794, 23644, 24306], "queries": {"click": {"state": {"target": ["26", "30", "19", "15", "4", "8", "32", "33", "31"], "time": [3941, 5205, 6837, 8098, 9450, 10624, 11797, 15100, 18392]}, "edge": {"target": [], "time": []}}, "mouseover": {"state": {"target": ["23", "24", "26", "25", "30", "31", "22", "19", "14", "15", "7", "3", "4", "8", "25", "30", "32", "33", "30", "31"], "time": [3167, 3230, 3365, 4615, 4814, 5835, 6198, 6378, 7547, 7657, 8679, 8818, 9085, 10014, 11176, 11305, 11472, 12517, 15696, 15929]}, "edge": {"target": [], "time": []}}, "mouseout": {"state": {"target": ["0", "23", "24", "26", "25", "30", "31", "22", "19", "14", "15", "7", "3", "4", "8", "25", "30", "32", "33", "30", "31", "22"], "time": [3138, 3201, 3265, 4565, 4660, 5405, 5934, 6296, 7507, 7618, 8607, 8803, 9009, 9934, 11094, 11260, 11388, 12354, 15668, 15745, 19333, 27077]}, "edge": {"target": [], "time": []}}}, "displayed_time": "24.86", "trialTime": 29449, "trial_type": "mouselab-mdp", "trial_index": 13, "time_elapsed": 569821, "internal_node_id": "0.0-4.0-1.0-4.0"}}, {"uniqueid": "w92010698:a49775724", "current_trial": 14, "dateTime": 1691142834327, "trialdata": {"revealed_states": [], "clicked_states": ["26", "30", "8", "4", "15", "19", "32", "33", "31"], "num_clicks_accrued": [0, 0, 0, 0, 0, 0, 0, 0, 0, 0, 0, 0, 0], "stateRewards": ["", -2, -3, -6, -7, 9, 16, 65, 5, -41, 20, -25, -1, -4, 1, -11, -49, -4, 71, 1, 39, -62, 52, -2, -3, 7, -9, -28, -70, 84, 8, 24, -58, 82], "withholdReward": false, "trial_id": "mdp_trial_6", "block": "test", "trialIndex": 7, "score": 76.25, "costs": -15.750000000000002, "simulationMode": [null, null, null, null, null], "rewards": [-2, -3, 7, 8, 82], "path": ["0", "0", "23", "24", "25", "30", "33"], "rt": [19830, 424, 134, 151, 286], "actions": ["left", "left", "left", "down", "left"], "actionTimes": [22557, 23528, 24217, 24919, 25770], "queries": {"click": {"state": {"target": ["26", "30", "8", "4", "15", "19", "32", "33", "31"], "time": [4147, 5314, 6843, 8110, 9337, 10599, 12491, 15882, 19257]}, "edge": {"target": [], "time": []}}, "mouseover": {"state": {"target": ["23", "24", "25", "26", "25", "30", "8", "8", "3", "4", "16", "15", "14", "19", "19", "30", "32", "33", "31"], "time": [3330, 3382, 3419, 3720, 4738, 4913, 6159, 6417, 7419, 7511, 8762, 8971, 9855, 9925, 10243, 11367, 11693, 13222, 16410]}, "edge": {"target": [], "time": []}}, "mouseout": {"state": {"target": ["0", "23", "24", "25", "26", "25", "30", "8", "8", "3", "4", "16", "15", "14", "19", "19", "30", "32", "33", "31", "20"], "time": [3304, 3370, 3407, 3445, 4698, 4812, 6052, 6235, 7370, 7463, 8629, 8838, 9812, 9912, 10033, 11112, 11630, 12939, 16343, 19472, 27487]}, "edge": {"target": [], "time": []}}}, "displayed_time": "26.30", "trialTime": 29528, "trial_type": "mouselab-mdp", "trial_index": 14, "time_elapsed": 600883, "internal_node_id": "0.0-4.0-1.0-5.0"}}, {"uniqueid": "w92010698:a49775724", "current_trial": 15, "dateTime": 1691142865878, "trialdata": {"revealed_states": [], "clicked_states": ["26", "30", "8", "4", "15", "19", "32", "33", "31"], "num_clicks_accrued": [0, 0, 0, 0, 0, 0, 0, 0, 0, 0, 0, 0, 0], "stateRewards": ["", -2, -3, 1, -14, 48, -49, 67, -1, -35, -48, 3, -2, 1, -4, -5, 86, -84, 39, 1, 48, 41, -42, -1, -4, 2, -7, 18, -86, 17, 7, -9, 57, -69], "withholdReward": false, "trial_id": "mdp_trial_7", "block": "test", "trialIndex": 8, "score": 45.25, "costs": -15.750000000000002, "simulationMode": [null, null, null, null, null], "rewards": [-1, -4, 2, 7, 57], "path": ["0", "0", "23", "24", "25", "30", "32"], "rt": [19226, 97, 113, 158, 137], "actions": ["left", "left", "left", "down", "down"], "actionTimes": [23316, 23948, 24624, 25324, 26008], "queries": {"click": {"state": {"target": ["26", "30", "8", "4", "15", "19", "32", "33", "31"], "time": [5387, 6666, 8100, 9171, 10415, 11581, 13278, 16637, 20032]}, "edge": {"target": [], "time": []}}, "mouseover": {"state": {"target": ["23", "26", "25", "30", "8", "3", "4", "15", "14", "19", "32", "33", "31"], "time": [4668, 4900, 6067, 6236, 7702, 8667, 8751, 10047, 10960, 11276, 12879, 13959, 17255]}, "edge": {"target": [], "time": []}}, "mouseout": {"state": {"target": ["22", "23", "26", "25", "30", "8", "3", "4", "15", "14", "19", "32", "33", "31", "22"], "time": [868, 4702, 6020, 6114, 7319, 8301, 8710, 9722, 10948, 11072, 11804, 13805, 17154, 21147, 28199]}, "edge": {"target": [], "time": []}}}, "displayed_time": "26.57", "trialTime": 30020, "trial_type": "mouselab-mdp", "trial_index": 15, "time_elapsed": 632434, "internal_node_id": "0.0-4.0-1.0-6.0"}}, {"uniqueid": "w92010698:a49775724", "current_trial": 16, "dateTime": 1691142897341, "trialdata": {"revealed_states": [], "clicked_states": ["26", "30", "8", "4", "15", "19", "31", "32", "33"], "num_clicks_accrued": [0, 0, 0, 0, 0, 0, 0, 0, 0, 0, 0, 0, 0], "stateRewards": ["", -2, 3, -1, 2, -72, 63, 20, -1, 62, -66, 39, -2, 3, -6, 14, 22, 47, 1, 8, -49, -1, -41, 2, 2, -6, -16, -64, -60, -34, 16, 54, 22, -7], "withholdReward": false, "trial_id": "mdp_trial_8", "block": "test", "trialIndex": 9, "score": 52.25, "costs": -15.750000000000002, "simulationMode": [null, null, null, null, null], "rewards": [2, 2, -6, 16, 54], "path": ["0", "0", "23", "24", "25", "30", "31"], "rt": [19783, 122, 51, 215, 144], "actions": ["left", "left", "left", "down", "right"], "actionTimes": [22223, 22888, 23502, 24278, 24958], "queries": {"click": {"state": {"target": ["26", "30", "8", "4", "15", "19", "31", "32", "33"], "time": [3681, 4978, 6553, 7769, 9112, 10355, 12067, 15535, 18943]}, "edge": {"target": [], "time": []}}, "mouseover": {"state": {"target": ["23", "24", "26", "25", "30", "25", "8", "3", "4", "15", "14", "19", "31", "30", "31", "32", "33"], "time": [3065, 3114, 3180, 4416, 4527, 5613, 6086, 7256, 7408, 8573, 9695, 9905, 11374, 11502, 11652, 12592, 16195]}, "edge": {"target": [], "time": []}}, "mouseout": {"state": {"target": ["19", "22", "0", "23", "24", "26", "25", "30", "25", "8", "3", "4", "15", "14", "19", "31", "30", "31", "31", "32", "33", "22", "19", "21"], "time": [760, 797, 864, 3101, 3148, 4396, 4477, 5565, 5660, 7209, 7301, 8258, 9654, 9771, 11060, 11438, 11610, 12291, 12540, 16108, 19548, 27794, 27831, 29562]}, "edge": {"target": [], "time": []}}}, "displayed_time": "25.51", "trialTime": 29988, "trial_type": "mouselab-mdp", "trial_index": 16, "time_elapsed": 663897, "internal_node_id": "0.0-4.0-1.0-7.0"}}, {"uniqueid": "w92010698:a49775724", "current_trial": 17, "dateTime": 1691142940895, "trialdata": {"revealed_states": [], "clicked_states": ["26", "30", "8", "4", "15", "19", "17", "18", "16", "32", "33", "31"], "num_clicks_accrued": [0, 0, 0, 0, 0, 0, 0, 0, 0, 0, 0, 0, 0], "stateRewards": ["", -2, 3, 8, -9, 59, 41, -50, -1, 82, 66, 33, 2, -2, 7, 8, 1, -38, 12, -16, 24, -37, 67, 1, 4, -2, 5, 35, -83, 28, 8, -27, 69, -64], "withholdReward": false, "trial_id": "mdp_trial_9", "block": "test", "trialIndex": 10, "score": 57.8, "costs": -22.2, "simulationMode": [null, null, null, null, null], "rewards": [1, 4, -2, 8, 69], "path": ["0", "0", "23", "24", "25", "30", "32"], "rt": [30224, 33, 34, 435, 13], "actions": ["left", "left", "left", "down", "down"], "actionTimes": [35369, 35945, 36537, 37538, 38098], "queries": {"click": {"state": {"target": ["26", "30", "8", "4", "15", "19", "17", "18", "16", "32", "33", "31"], "time": [6761, 7943, 9322, 10379, 11501, 12953, 14891, 18524, 21925, 25376, 28790, 32151]}, "edge": {"target": [], "time": []}}, "mouseover": {"state": {"target": ["23", "24", "25", "26", "25", "30", "25", "28", "8", "3", "4", "15", "14", "19", "14", "17", "15", "18", "16", "32", "33", "30", "31"], "time": [5950, 5992, 6046, 6330, 7390, 7526, 8542, 8608, 8908, 9873, 9986, 11137, 12074, 12539, 14187, 14508, 15489, 15673, 19130, 23478, 26028, 29420, 29536]}, "edge": {"target": [], "time": []}}, "mouseout": {"state": {"target": ["22", "12", "23", "24", "25", "26", "25", "30", "25", "28", "8", "3", "4", "15", "14", "19", "14", "17", "15", "18", "16", "32", "33", "30"], "time": [3465, 3531, 5980, 6032, 6076, 7341, 7436, 8525, 8596, 8649, 9827, 9912, 10863, 12005, 12283, 14143, 14242, 15441, 15569, 19068, 22410, 25961, 29358, 29474]}, "edge": {"target": [], "time": []}}}, "displayed_time": "38.64", "trialTime": 42103, "trial_type": "mouselab-mdp", "trial_index": 17, "time_elapsed": 707451, "internal_node_id": "0.0-4.0-1.0-8.0"}}, {"uniqueid": "w92010698:a49775724", "current_trial": 18, "dateTime": 1691142974786, "trialdata": {"revealed_states": [], "clicked_states": ["26", "30", "8", "4", "15", "19", "27", "29", "28"], "num_clicks_accrued": [0, 0, 0, 0, 0, 0, 0, 0, 0, 0, 0, 0, 0], "stateRewards": ["", -2, 2, 8, -6, -25, 3, 87, 2, -62, -2, 74, -2, -1, 2, -1, 79, 49, -37, -14, 5, 67, -9, -1, 2, -2, 5, 15, 38, 32, -14, -38, -38, 30], "withholdReward": false, "trial_id": "mdp_trial_10", "block": "test", "trialIndex": 11, "score": 26.25, "costs": -15.750000000000002, "simulationMode": [null, null, null, null, null], "rewards": [-1, 2, -2, 5, 38], "path": ["0", "0", "23", "24", "25", "26", "28"], "rt": [20682, 8, 38, 483, 647], "actions": ["left", "left", "left", "up", "right"], "actionTimes": [23845, 24477, 25066, 26078, 27307], "queries": {"click": {"state": {"target": ["26", "30", "8", "4", "15", "19", "27", "29", "28"], "time": [5055, 6074, 7544, 9015, 10106, 11785, 13891, 17198, 20612]}, "edge": {"target": [], "time": []}}, "mouseover": {"state": {"target": ["0", "23", "26", "25", "30", "28", "8", "3", "4", "4", "15", "14", "19", "22", "0", "26", "27", "29", "28", "23"], "time": [3801, 3847, 4216, 5560, 5756, 6691, 6997, 8083, 8158, 8606, 9775, 10656, 11042, 12418, 12944, 13050, 13374, 14384, 17872, 21500]}, "edge": {"target": [], "time": []}}, "mouseout": {"state": {"target": ["31", "23", "0", "23", "26", "25", "30", "28", "8", "3", "4", "4", "15", "14", "19", "22", "0", "26", "27", "27", "29", "28", "23"], "time": [1197, 1249, 3835, 3882, 5512, 5608, 6612, 6736, 8067, 8145, 8267, 9434, 10616, 10758, 12361, 12461, 12986, 13291, 14125, 14338, 17421, 21351, 21557]}, "edge": {"target": [], "time": []}}}, "displayed_time": "27.84", "trialTime": 32364, "trial_type": "mouselab-mdp", "trial_index": 18, "time_elapsed": 741342, "internal_node_id": "0.0-4.0-1.0-9.0"}}, {"uniqueid": "w92010698:a49775724", "current_trial": 19, "dateTime": 1691143009970, "trialdata": {"revealed_states": [], "clicked_states": ["26", "8", "4", "15", "19", "30", "22", "21", "20"], "num_clicks_accrued": [0, 0, 0, 0, 0, 0, 0, 0, 0, 0, 0, 0, 0], "stateRewards": ["", 2, -2, -8, 9, -20, 55, -58, 14, 42, 2, 36, 1, -3, -5, 5, -58, 57, 60, 16, 57, 30, -70, -2, 1, 3, 10, 59, 23, 77, -13, -26, 88, -72], "withholdReward": false, "trial_id": "mdp_trial_11", "block": "test", "trialIndex": 12, "score": 50.25, "costs": -15.750000000000002, "simulationMode": [null, null, null, null, null], "rewards": [1, -3, -5, 16, 57], "path": ["0", "0", "12", "13", "14", "19", "20"], "rt": [22445, 179, 293, 316, 290], "actions": ["right", "right", "right", "down", "right"], "actionTimes": [25647, 26367, 27191, 28082, 28909], "queries": {"click": {"state": {"target": ["26", "8", "4", "15", "19", "30", "22", "21", "20"], "time": [4851, 6425, 8157, 9508, 10721, 12115, 14355, 18101, 21530]}, "edge": {"target": [], "time": []}}, "mouseover": {"state": {"target": ["23", "28", "26", "8", "3", "4", "4", "16", "15", "14", "19", "30", "25", "8", "2", "13", "22", "21", "21", "20"], "time": [4163, 4243, 4414, 5947, 7175, 7274, 7814, 8774, 9100, 10132, 10301, 11673, 12925, 13247, 13307, 13412, 13962, 14842, 15273, 18774]}, "edge": {"target": [], "time": []}}, "mouseout": {"state": {"target": ["21", "22", "0", "23", "28", "26", "8", "3", "4", "4", "16", "15", "14", "19", "30", "25", "8", "2", "13", "22", "21", "21", "20"], "time": [865, 1149, 4135, 4195, 4315, 5628, 7129, 7227, 7441, 8691, 8878, 10048, 10214, 11292, 12910, 12993, 13276, 13338, 13463, 14769, 14976, 18602, 31783]}, "edge": {"target": [], "time": []}}}, "displayed_time": "29.45", "trialTime": 33643, "trial_type": "mouselab-mdp", "trial_index": 19, "time_elapsed": 776526, "internal_node_id": "0.0-4.0-1.0-10.0"}}, {"uniqueid": "w92010698:a49775724", "current_trial": 20, "dateTime": 1691143053683, "trialdata": {"revealed_states": [], "clicked_states": ["30", "26", "8", "4", "15", "19", "18", "16", "17", "32", "33", "31"], "num_clicks_accrued": [0, 0, 0, 0, 0, 0, 0, 0, 0, 0, 0, 0, 0], "stateRewards": ["", -2, -1, -2, -15, 87, 57, 29, -10, 77, -80, -7, 1, -3, 6, 14, -11, 87, -59, 4, -71, 16, -11, 2, 2, -7, 2, -47, 61, 50, 14, -20, 17, 81], "withholdReward": false, "trial_id": "mdp_trial_12", "block": "test", "trialIndex": 13, "score": 82.8, "costs": -22.2, "simulationMode": [null, null, null, null, null], "rewards": [1, -3, 6, 14, 87], "path": ["0", "0", "12", "13", "14", "15", "17"], "rt": [30654, 36, 183, 330, 567], "actions": ["right", "right", "right", "up", "right"], "actionTimes": [33817, 34405, 35165, 36028, 37165], "queries": {"click": {"state": {"target": ["30", "26", "8", "4", "15", "19", "18", "16", "17", "32", "33", "31"], "time": [4647, 5833, 7203, 8268, 9787, 11121, 12450, 15872, 19289, 23253, 26764, 30480]}, "edge": {"target": [], "time": []}}, "mouseover": {"state": {"target": ["23", "24", "25", "30", "26", "8", "4", "16", "15", "14", "19", "14", "18", "16", "17", "13", "32", "33", "31"], "time": [3858, 3948, 4058, 4159, 5485, 6814, 7801, 9268, 9427, 10317, 10534, 11844, 12134, 13493, 16442, 19929, 21958, 24209, 27332]}, "edge": {"target": [], "time": []}}, "mouseout": {"state": {"target": ["22", "23", "0", "23", "24", "25", "30", "26", "8", "4", "16", "15", "14", "19", "14", "18", "16", "17", "13", "32", "33", "31", "32"], "time": [1292, 1658, 1957, 3917, 3990, 4091, 5300, 6455, 7669, 9153, 9333, 10300, 10397, 11818, 11901, 13229, 16361, 19873, 20010, 23907, 27237, 31865, 39461]}, "edge": {"target": [], "time": []}}}, "displayed_time": "37.71", "trialTime": 42073, "trial_type": "mouselab-mdp", "trial_index": 20, "time_elapsed": 820239, "internal_node_id": "0.0-4.0-1.0-11.0"}}, {"uniqueid": "w92010698:a49775724", "current_trial": 21, "dateTime": 1691143085340, "trialdata": {"revealed_states": [], "clicked_states": ["26", "30", "8", "4", "15", "19", "28", "27", "29"], "num_clicks_accrued": [0, 0, 0, 0, 0, 0, 0, 0, 0, 0, 0, 0, 0], "stateRewards": ["", -2, 1, -3, -16, -39, -52, 30, -7, -41, -59, 11, 2, 1, 8, 2, -11, -26, -42, -13, 87, -59, -48, -1, -1, -1, 16, -79, 31, 50, -1, -84, 34, -82], "withholdReward": false, "trial_id": "mdp_trial_13", "block": "test", "trialIndex": 14, "score": 47.25, "costs": -15.750000000000002, "simulationMode": [null, null, null, null, null], "rewards": [-1, -1, -1, 16, 50], "path": ["0", "0", "23", "24", "25", "26", "29"], "rt": [20753, 199, 70, 382, 643], "actions": ["left", "left", "left", "up", "left"], "actionTimes": [23845, 24625, 25271, 26213, 27406], "queries": {"click": {"state": {"target": ["26", "30", "8", "4", "15", "19", "28", "27", "29"], "time": [5667, 7032, 8715, 9610, 11051, 12136, 13670, 17183, 20597]}, "edge": {"target": [], "time": []}}, "mouseover": {"state": {"target": ["1", "1", "0", "23", "24", "25", "26", "30", "3", "8", "4", "16", "15", "14", "19", "28", "28", "27", "29"], "time": [4033, 4350, 4499, 4714, 4799, 5066, 5237, 6596, 7907, 8290, 9236, 10577, 10742, 11654, 11754, 13091, 13290, 14641, 17772]}, "edge": {"target": [], "time": []}}, "mouseout": {"state": {"target": ["0", "1", "1", "0", "23", "24", "25", "26", "30", "3", "8", "4", "16", "15", "14", "19", "28", "28", "27", "29"], "time": [1831, 4083, 4415, 4648, 4751, 4981, 5181, 6442, 7695, 8060, 9137, 10426, 10639, 11639, 11738, 12907, 13150, 14207, 17670, 21303]}, "edge": {"target": [], "time": []}}}, "displayed_time": "27.96", "trialTime": 30173, "trial_type": "mouselab-mdp", "trial_index": 21, "time_elapsed": 851896, "internal_node_id": "0.0-4.0-1.0-12.0"}}, {"uniqueid": "w92010698:a49775724", "current_trial": 22, "dateTime": 1691143120106, "trialdata": {"revealed_states": [], "clicked_states": ["26", "30", "8", "4", "15", "19", "6", "5", "7"], "num_clicks_accrued": [0, 0, 0, 0, 0, 0, 0, 0, 0, 0, 0, 0, 0], "stateRewards": ["", -2, 1, -7, 9, 8, 25, 61, -7, -17, 69, -81, 1, 4, -4, -11, 16, 67, 44, 3, 6, -45, -54, -2, 3, 6, -11, -15, 32, -47, 3, -39, -6, -88], "withholdReward": false, "trial_id": "mdp_trial_14", "block": "test", "trialIndex": 15, "score": 46.25, "costs": -15.750000000000002, "simulationMode": [null, null, null, null, null], "rewards": [-2, 1, -7, 9, 61], "path": ["0", "0", "1", "2", "3", "4", "7"], "rt": [21862, 206, 326, 205, 367], "actions": ["up", "up", "up", "right", "down"], "actionTimes": [24259, 25001, 25897, 26662, 27589], "queries": {"click": {"state": {"target": ["26", "30", "8", "4", "15", "19", "6", "5", "7"], "time": [3751, 4994, 6741, 7976, 9328, 11432, 13066, 16541, 20042]}, "edge": {"target": [], "time": []}}, "mouseover": {"state": {"target": ["23", "24", "26", "25", "30", "28", "8", "8", "3", "4", "16", "15", "14", "19", "6", "5", "4", "7"], "time": [3029, 3078, 3363, 4332, 4423, 5594, 5717, 6074, 7339, 7522, 8639, 8889, 10105, 10335, 12708, 13853, 18606, 18860]}, "edge": {"target": [], "time": []}}, "mouseout": {"state": {"target": ["25", "31", "23", "23", "24", "26", "25", "30", "28", "8", "8", "3", "4", "16", "15", "14", "19", "6", "5", "4", "7", "12"], "time": [78, 413, 595, 3065, 3130, 4286, 4377, 5545, 5639, 5803, 7293, 7400, 8540, 8758, 9991, 10205, 12351, 13680, 18350, 18728, 31054, 31188]}, "edge": {"target": [], "time": []}}}, "displayed_time": "28.14", "trialTime": 33178, "trial_type": "mouselab-mdp", "trial_index": 22, "time_elapsed": 886662, "internal_node_id": "0.0-4.0-1.0-13.0"}}, {"uniqueid": "w92010698:a49775724", "current_trial": 23, "dateTime": 1691143173940, "trialdata": {"revealed_states": [], "clicked_states": ["26", "30", "8", "4", "15", "19", "22", "21", "20", "29", "27", "28", "33", "32", "31"], "num_clicks_accrued": [0, 0, 0, 0, 0, 0, 0, 0, 0, 0, 0, 0, 0], "stateRewards": ["", 2, -1, -2, -5, -47, -57, -33, -11, 31, -18, -72, -2, 1, -4, -8, -46, -53, -50, 15, -85, -9, 39, -2, -2, 1, 14, -1, -8, 53, -12, -41, -74, 62], "withholdReward": false, "trial_id": "mdp_trial_15", "block": "test", "trialIndex": 16, "score": 18.35000000000001, "costs": -28.649999999999995, "simulationMode": [null, null, null, null, null], "rewards": [-2, -2, 1, -12, 62], "path": ["0", "0", "23", "24", "25", "30", "33"], "rt": [42155, 41, 29, 297, 465], "actions": ["left", "left", "left", "down", "left"], "actionTimes": [44833, 45443, 46031, 46897, 47931], "queries": {"click": {"state": {"target": ["26", "30", "8", "4", "15", "19", "22", "21", "20", "29", "27", "28", "33", "32", "31"], "time": [4108, 5388, 6870, 8019, 9174, 10349, 12277, 15935, 19320, 23484, 27598, 31136, 34583, 37948, 41312]}, "edge": {"target": [], "time": []}}, "mouseover": {"state": {"target": ["23", "26", "30", "28", "10", "8", "3", "4", "18", "15", "14", "19", "22", "0", "23", "12", "22", "22", "21", "20", "23", "29", "27", "27", "23", "28", "25", "33", "33", "32", "31"], "time": [3383, 3613, 4979, 6076, 6304, 6509, 7485, 7689, 8762, 8849, 9651, 9921, 11054, 11241, 11353, 11565, 11649, 11940, 12872, 16982, 22815, 22897, 24406, 26910, 28244, 28944, 32837, 33565, 33722, 35497, 38733]}, "edge": {"target": [], "time": []}}, "mouseout": {"state": {"target": ["0", "23", "26", "30", "28", "10", "8", "3", "4", "18", "15", "15", "14", "19", "22", "0", "23", "12", "22", "22", "21", "20", "23", "29", "27", "27", "23", "28", "25", "33", "33", "32", "31"], "time": [3348, 3416, 4873, 5589, 6156, 6379, 7428, 7528, 8519, 8807, 9400, 9635, 9788, 10554, 11149, 11298, 11509, 11603, 11684, 12783, 16679, 22747, 22850, 24083, 26429, 28100, 28528, 32607, 32945, 33616, 35163, 38170, 42105]}, "edge": {"target": [], "time": []}}}, "displayed_time": "48.50", "trialTime": 52145, "trial_type": "mouselab-mdp", "trial_index": 23, "time_elapsed": 940496, "internal_node_id": "0.0-4.0-1.0-14.0"}}, {"uniqueid": "w92010698:a49775724", "current_trial": 24, "dateTime": 1691143206350, "trialdata": {"revealed_states": [], "clicked_states": ["26", "30", "8", "4", "15", "19", "29", "27", "28"], "num_clicks_accrued": [0, 0, 0, 0, 0, 0, 0, 0, 0, 0, 0, 0, 0], "stateRewards": ["", 1, 1, -7, -9, -44, 24, -83, -15, 44, -24, 72, -2, -3, 4, -5, 57, 55, 29, -11, 22, 12, -25, -1, 2, 7, 12, 33, -8, 47, -4, 8, 50, -4], "withholdReward": false, "trial_id": "mdp_trial_16", "block": "test", "trialIndex": 17, "score": 51.25, "costs": -15.750000000000002, "simulationMode": [null, null, null, null, null], "rewards": [-1, 2, 7, 12, 47], "path": ["0", "0", "23", "24", "25", "26", "29"], "rt": [18809, 69, 436, 209, 87], "actions": ["left", "left", "left", "up", "left"], "actionTimes": [22708, 23335, 24353, 25090, 25729], "queries": {"click": {"state": {"target": ["26", "30", "8", "4", "15", "19", "29", "27", "28"], "time": [4970, 6067, 7375, 8438, 9541, 11004, 12377, 15763, 19376]}, "edge": {"target": [], "time": []}}, "mouseover": {"state": {"target": ["23", "26", "25", "30", "28", "8", "3", "4", "15", "14", "19", "26", "29", "27", "28", "23"], "time": [4431, 4500, 5462, 5712, 6736, 7004, 7889, 8031, 9154, 10132, 10208, 11918, 12055, 13022, 16315, 20278]}, "edge": {"target": [], "time": []}}, "mouseout": {"state": {"target": ["12", "23", "26", "25", "30", "28", "8", "3", "4", "15", "14", "19", "26", "29", "27", "28", "23"], "time": [2530, 4462, 5181, 5513, 6640, 6782, 7842, 7931, 8931, 10074, 10190, 11611, 11974, 12924, 16254, 20218, 20366]}, "edge": {"target": [], "time": []}}}, "displayed_time": "26.28", "trialTime": 30829, "trial_type": "mouselab-mdp", "trial_index": 24, "time_elapsed": 972906, "internal_node_id": "0.0-4.0-1.0-15.0"}}, {"uniqueid": "w92010698:a49775724", "current_trial": 25, "dateTime": 1691143240624, "trialdata": {"revealed_states": [], "clicked_states": ["26", "30", "8", "4", "15", "19", "5", "6", "7"], "num_clicks_accrued": [0, 0, 0, 0, 0, 0, 0, 0, 0, 0, 0, 0, 0], "stateRewards": ["", -2, 1, -8, 12, -65, -79, 16, 7, -80, -17, -45, -2, 2, -5, -2, -85, 23, -4, -7, 48, 27, -76, 2, 3, 5, 2, 43, 71, -13, 7, -49, 59, -31], "withholdReward": false, "trial_id": "mdp_trial_17", "block": "test", "trialIndex": 18, "score": 3.25, "costs": -15.750000000000002, "simulationMode": [null, null, null, null, null], "rewards": [-2, 1, -8, 12, 16], "path": ["0", "0", "1", "2", "3", "4", "7"], "rt": [22067, 20, 79, 328, 109], "actions": ["up", "up", "up", "right", "down"], "actionTimes": [24582, 25174, 25783, 26663, 27311], "queries": {"click": {"state": {"target": ["26", "30", "8", "4", "15", "19", "5", "6", "7"], "time": [4111, 6462, 7649, 8906, 10182, 11256, 13646, 17077, 20737]}, "edge": {"target": [], "time": []}}, "mouseover": {"state": {"target": ["23", "28", "26", "24", "30", "8", "3", "4", "15", "14", "19", "6", "5", "5", "6", "7"], "time": [3271, 3441, 3574, 5389, 5624, 7169, 8348, 8515, 9687, 10786, 10937, 12163, 12314, 12670, 14203, 17587]}, "edge": {"target": [], "time": []}}, "mouseout": {"state": {"target": ["0", "23", "28", "26", "26", "24", "30", "8", "3", "4", "15", "14", "19", "6", "5", "5", "6", "7", "0"], "time": [3241, 3309, 3484, 5013, 5324, 5453, 6970, 8288, 8414, 9528, 10769, 10869, 12101, 12225, 12463, 14084, 17519, 30600, 30899]}, "edge": {"target": [], "time": []}}}, "displayed_time": "27.88", "trialTime": 32640, "trial_type": "mouselab-mdp", "trial_index": 25, "time_elapsed": 1007180, "internal_node_id": "0.0-4.0-1.0-16.0"}}, {"uniqueid": "w92010698:a49775724", "current_trial": 26, "dateTime": 1691143285124, "trialdata": {"revealed_states": [], "clicked_states": ["26", "30", "8", "4", "15", "19", "32", "33", "31", "22", "21", "20"], "num_clicks_accrued": [0, 0, 0, 0, 0, 0, 0, 0, 0, 0, 0, 0, 0], "stateRewards": ["", -2, -3, -7, 7, -54, -69, -4, -14, -77, 22, 40, -2, -1, 5, 6, -35, 50, -60, 10, -28, 75, 57, 1, -4, -2, 2, 68, 34, -18, 12, 3, -21, -43], "withholdReward": false, "trial_id": "mdp_trial_18", "block": "test", "trialIndex": 19, "score": 64.8, "costs": -22.2, "simulationMode": [null, null, null, null, null], "rewards": [-2, -1, 5, 10, 75], "path": ["0", "0", "12", "13", "14", "19", "21"], "rt": [30597, 68, 222, 184, 346], "actions": ["right", "right", "right", "down", "down"], "actionTimes": [34322, 34932, 35736, 36463, 37375], "queries": {"click": {"state": {"target": ["26", "30", "8", "4", "15", "19", "32", "33", "31", "22", "21", "20"], "time": [4851, 5932, 7412, 9112, 10424, 11683, 13331, 16951, 20508, 24117, 27549, 31002]}, "edge": {"target": [], "time": []}}, "mouseover": {"state": {"target": ["0", "23", "24", "26", "25", "30", "28", "8", "3", "4", "15", "14", "19", "31", "32", "33", "31", "22", "21", "21", "20"], "time": [4238, 4309, 4354, 4425, 5368, 5633, 6549, 7031, 8202, 8351, 9982, 11117, 11268, 12721, 12990, 14232, 17947, 22490, 24774, 25079, 28254]}, "edge": {"target": [], "time": []}}, "mouseout": {"state": {"target": ["23", "0", "23", "24", "26", "26", "25", "30", "28", "8", "3", "4", "15", "14", "19", "31", "32", "33", "31", "22", "21", "21", "20", "22"], "time": [1989, 4269, 4344, 4391, 5097, 5328, 5491, 6169, 6611, 8185, 8279, 9754, 11098, 11201, 12396, 12780, 13946, 17476, 21308, 24757, 24852, 28241, 40892, 40992]}, "edge": {"target": [], "time": []}}}, "displayed_time": "37.93", "trialTime": 42653, "trial_type": "mouselab-mdp", "trial_index": 26, "time_elapsed": 1051680, "internal_node_id": "0.0-4.0-1.0-17.0"}}, {"uniqueid": "w92010698:a49775724", "current_trial": 27, "dateTime": 1691143339193, "trialdata": {"revealed_states": [], "clicked_states": ["26", "30", "8", "4", "15", "19", "29", "27", "28", "11", "10", "9"], "num_clicks_accrued": [0, 0, 0, 0, 0, 0, 0, 0, 0, 0, 0, 0, 0], "stateRewards": ["", 2, 3, -6, -5, -3, 55, 40, 11, 61, 11, 51, 2, -4, -6, 9, -25, 29, -15, -6, 7, -77, -2, -2, -4, 1, 14, -43, -1, 56, -12, -54, 41, -74], "withholdReward": false, "trial_id": "mdp_trial_19", "block": "test", "trialIndex": 20, "score": 42.8, "costs": -22.2, "simulationMode": [null, null, null, null, null], "rewards": [-2, -4, 1, 14, 56], "path": ["0", "0", "23", "24", "25", "26", "29"], "rt": [31639, 915, 103, 417, 164], "actions": ["left", "left", "left", "up", "left"], "actionTimes": [34932, 36414, 37084, 38079, 38792], "queries": {"click": {"state": {"target": ["26", "30", "8", "4", "15", "19", "29", "27", "28", "11", "10", "9"], "time": [4662, 5786, 7264, 8419, 9751, 11107, 12777, 16285, 19934, 24582, 28129, 31610]}, "edge": {"target": [], "time": []}}, "mouseover": {"state": {"target": ["23", "26", "25", "30", "25", "8", "3", "4", "15", "14", "19", "29", "27", "28", "11", "10", "9"], "time": [3941, 4138, 5233, 5470, 6371, 6661, 7799, 7999, 9385, 10467, 10735, 12396, 14677, 16901, 23738, 25487, 28825]}, "edge": {"target": [], "time": []}}, "mouseout": {"state": {"target": ["0", "0", "23", "26", "25", "30", "25", "8", "3", "4", "15", "14", "19", "29", "27", "28", "11", "10", "9", "10", "23", "25", "24", "23"], "time": [1473, 3911, 3981, 5186, 5280, 6355, 6460, 7745, 7884, 9237, 10372, 10534, 11859, 14602, 16744, 23471, 25219, 28717, 32215, 32381, 50833, 51333, 51373, 51485]}, "edge": {"target": [], "time": []}}}, "displayed_time": "39.38", "trialTime": 52072, "trial_type": "mouselab-mdp", "trial_index": 27, "time_elapsed": 1105749, "internal_node_id": "0.0-4.0-1.0-18.0"}}, {"uniqueid": "w92010698:a49775724", "current_trial": 28, "dateTime": 1691143374464, "trialdata": {"revealed_states": [], "clicked_states": ["30", "26", "8", "4", "15", "19", "22", "21", "20"], "num_clicks_accrued": [0, 0, 0, 0, 0, 0, 0, 0, 0, 0, 0, 0, 0], "stateRewards": ["", 1, 1, -3, 7, 49, 78, 26, -5, 26, 48, -43, -1, -3, 2, -5, 4, -1, -60, 10, -35, 51, 81, -2, 1, -7, -5, -39, -86, -54, 4, -3, 74, 77], "withholdReward": false, "trial_id": "mdp_trial_20", "block": "test", "trialIndex": 21, "score": 73.25, "costs": -15.750000000000002, "simulationMode": [null, null, null, null, null], "rewards": [-1, -3, 2, 10, 81], "path": ["0", "0", "12", "13", "14", "19", "22"], "rt": [20036, 178, 336, 260, 407], "actions": ["right", "right", "right", "down", "left"], "actionTimes": [22223, 22945, 23813, 24618, 25598], "queries": {"click": {"state": {"target": ["30", "26", "8", "4", "15", "19", "22", "21", "20"], "time": [3508, 4807, 6184, 7421, 8868, 10561, 12026, 15442, 18887]}, "edge": {"target": [], "time": []}}, "mouseover": {"state": {"target": ["23", "30", "25", "26", "8", "3", "4", "15", "14", "19", "22", "21", "20"], "time": [2794, 3124, 4342, 4436, 5754, 6803, 7044, 8474, 9546, 9722, 11721, 12725, 16063]}, "edge": {"target": [], "time": []}}, "mouseout": {"state": {"target": ["0", "23", "30", "25", "26", "8", "3", "4", "15", "14", "19", "22", "21"], "time": [590, 2828, 4293, 4389, 5534, 6387, 6873, 8139, 9520, 9661, 11669, 12585, 15979]}, "edge": {"target": [], "time": []}}}, "displayed_time": "26.17", "trialTime": 33191, "trial_type": "mouselab-mdp", "trial_index": 28, "time_elapsed": 1141020, "internal_node_id": "0.0-4.0-1.0-19.0"}}, {"uniqueid": "w92010698:a49775724", "current_trial": 29, "dateTime": 1691143406239, "trialdata": {"revealed_states": [], "clicked_states": ["30", "26", "8", "4", "15", "19", "29", "27", "28"], "num_clicks_accrued": [0, 0, 0, 0, 0, 0, 0, 0, 0, 0, 0, 0, 0], "stateRewards": ["", 1, 4, 5, -5, 58, -80, 75, 6, 25, -39, 46, 2, -2, 4, 2, 59, 31, -22, -12, -61, 15, 72, 1, -2, -7, 8, 77, 76, -23, -7, 71, -15, -3], "withholdReward": false, "trial_id": "mdp_trial_21", "block": "test", "trialIndex": 22, "score": 61.25, "costs": -15.750000000000002, "simulationMode": [null, null, null, null, null], "rewards": [1, -2, -7, 8, 77], "path": ["0", "0", "23", "24", "25", "26", "27"], "rt": [20600, 278, 296, 182, 227], "actions": ["left", "left", "left", "up", "up"], "actionTimes": [23286, 24121, 24985, 25705, 26500], "queries": {"click": {"state": {"target": ["30", "26", "8", "4", "15", "19", "29", "27", "28"], "time": [4165, 5655, 6969, 8048, 9911, 11383, 12707, 16315, 19960]}, "edge": {"target": [], "time": []}}, "mouseover": {"state": {"target": ["24", "25", "30", "25", "26", "8", "3", "4", "15", "15", "14", "19", "26", "29", "27", "28", "23"], "time": [3390, 3463, 3730, 4755, 4849, 6395, 7485, 7635, 9120, 9599, 10577, 11057, 12165, 12376, 13746, 17105, 20855]}, "edge": {"target": [], "time": []}}, "mouseout": {"state": {"target": ["20", "22", "0", "24", "25", "30", "25", "26", "8", "3", "4", "15", "15", "14", "19", "26", "29", "27", "28", "23"], "time": [807, 906, 3341, 3426, 3688, 4711, 4804, 6154, 7472, 7540, 8828, 9213, 10501, 10835, 11583, 12222, 13349, 17011, 20791, 20959]}, "edge": {"target": [], "time": []}}}, "displayed_time": "27.15", "trialTime": 29742, "trial_type": "mouselab-mdp", "trial_index": 29, "time_elapsed": 1172795, "internal_node_id": "0.0-4.0-1.0-20.0"}}, {"uniqueid": "w92010698:a49775724", "current_trial": 30, "dateTime": 1691143439455, "trialdata": {"revealed_states": [], "clicked_states": ["26", "30", "8", "4", "15", "19", "21", "22", "20"], "num_clicks_accrued": [0, 0, 0, 0, 0, 0, 0, 0, 0, 0, 0, 0, 0], "stateRewards": ["", 2, -1, 3, -12, -83, 6, -33, 9, 28, 24, -50, -2, -1, -2, -5, -87, 37, 82, 12, 80, -5, 10, -2, -3, -6, 9, 22, -1, 16, 9, 77, -62, 58], "withholdReward": false, "trial_id": "mdp_trial_22", "block": "test", "trialIndex": 23, "score": 71.25, "costs": -15.750000000000002, "simulationMode": [null, null, null, null, null], "rewards": [-2, -1, -2, 12, 80], "path": ["0", "0", "12", "13", "14", "19", "20"], "rt": [20496, 190, 340, 282, 353], "actions": ["right", "right", "right", "down", "right"], "actionTimes": [25691, 26445, 27383, 28224, 29140], "queries": {"click": {"state": {"target": ["26", "30", "8", "4", "15", "19", "21", "22", "20"], "time": [6566, 7861, 9187, 10627, 11902, 13075, 14419, 17938, 21396]}, "edge": {"target": [], "time": []}}, "mouseover": {"state": {"target": ["23", "25", "26", "25", "30", "8", "3", "4", "15", "19", "21", "22", "19", "20", "19"], "time": [5834, 5950, 6200, 7130, 7451, 8684, 9865, 10099, 11445, 12559, 14134, 15510, 18522, 18659, 25135]}, "edge": {"target": [], "time": []}}, "mouseout": {"state": {"target": ["0", "23", "25", "26", "25", "30", "8", "3", "4", "15", "19", "21", "22", "19", "20", "19"], "time": [3402, 5880, 6062, 7074, 7316, 8482, 9848, 9933, 11230, 12453, 14010, 14619, 18485, 18593, 25002, 25174]}, "edge": {"target": [], "time": []}}}, "displayed_time": "29.69", "trialTime": 31315, "trial_type": "mouselab-mdp", "trial_index": 30, "time_elapsed": 1206010, "internal_node_id": "0.0-4.0-1.0-21.0"}}, {"uniqueid": "w92010698:a49775724", "current_trial": 31, "dateTime": 1691143482987, "trialdata": {"revealed_states": [], "clicked_states": ["30", "26", "8", "4", "15", "19", "29", "27", "28", "33", "32", "31"], "num_clicks_accrued": [0, 0, 0, 0, 0, 0, 0, 0, 0, 0, 0, 0, 0], "stateRewards": ["", 1, -3, -4, -11, -56, 61, -47, -16, -28, -9, 69, -2, -3, -4, -8, 40, -86, 59, -4, 80, 27, 54, -1, 3, -1, 8, 67, 23, 50, 6, 83, -43, -29], "withholdReward": false, "trial_id": "mdp_trial_23", "block": "test", "trialIndex": 24, "score": 67.8, "costs": -22.2, "simulationMode": [null, null, null, null, null], "rewards": [-1, 3, -1, 6, 83], "path": ["0", "0", "23", "24", "25", "30", "31"], "rt": [30351, 78, 763, 908, 387], "actions": ["left", "left", "left", "down", "right"], "actionTimes": [34458, 35114, 36451, 37962, 38887], "queries": {"click": {"state": {"target": ["30", "26", "8", "4", "15", "19", "29", "27", "28", "33", "32", "31"], "time": [5387, 6515, 7801, 8903, 10282, 11446, 13032, 16561, 20278, 23789, 27226, 31146]}, "edge": {"target": [], "time": []}}, "mouseover": {"state": {"target": ["0", "30", "25", "26", "8", "4", "15", "19", "26", "29", "27", "28", "24", "33", "32", "31"], "time": [4626, 4961, 6007, 6120, 7482, 8557, 9991, 11054, 12365, 12621, 13782, 17219, 21128, 22444, 24455, 27839]}, "edge": {"target": [], "time": []}}, "mouseout": {"state": {"target": ["23", "0", "30", "25", "26", "8", "4", "15", "19", "26", "29", "27", "28", "24", "33", "33", "32", "31"], "time": [2643, 4664, 5991, 6055, 6740, 8374, 9640, 10864, 12214, 12488, 13272, 17086, 20960, 21366, 24029, 24295, 27776, 32003]}, "edge": {"target": [], "time": []}}}, "displayed_time": "39.43", "trialTime": 41454, "trial_type": "mouselab-mdp", "trial_index": 31, "time_elapsed": 1249543, "internal_node_id": "0.0-4.0-1.0-22.0"}}, {"uniqueid": "w92010698:a49775724", "current_trial": 32, "dateTime": 1691143532570, "trialdata": {"revealed_states": [], "clicked_states": ["30", "26", "8", "4", "15", "19", "29", "27", "28", "18", "16", "17", "32"], "num_clicks_accrued": [0, 0, 0, 0, 0, 0, 0, 0, 0, 0, 0, 0, 0], "stateRewards": ["", 1, -4, -6, -1, -21, 17, -72, 10, 77, 67, -46, -1, 4, -2, 14, -66, -49, -45, -15, -52, 23, -67, 2, -2, -2, 15, -3, 45, -64, 5, -44, 83, 61], "withholdReward": false, "trial_id": "mdp_trial_24", "block": "test", "trialIndex": 25, "score": 61.650000000000006, "costs": -24.349999999999998, "simulationMode": [null, null, null, null, null], "rewards": [2, -2, -2, 5, 83], "path": ["0", "0", "23", "24", "25", "30", "32"], "rt": [39475, 75, 279, 241, 313], "actions": ["left", "left", "left", "down", "down"], "actionTimes": [42400, 43021, 43876, 44688, 45545], "queries": {"click": {"state": {"target": ["30", "26", "8", "4", "15", "19", "29", "27", "28", "18", "16", "17", "32"], "time": [4632, 6723, 8125, 9301, 10936, 12356, 14024, 17634, 21191, 25690, 29187, 32716, 37305]}, "edge": {"target": [], "time": []}}, "mouseover": {"state": {"target": ["28", "26", "25", "30", "25", "26", "26", "8", "3", "4", "15", "14", "19", "22", "24", "29", "27", "28", "18", "16", "17", "12", "31", "32", "33", "30"], "time": [3798, 3897, 4114, 4262, 5210, 5307, 6378, 7728, 8800, 9000, 10244, 11641, 11967, 13057, 13142, 13307, 15005, 18231, 25229, 26545, 29877, 36504, 36580, 36970, 38014, 41473]}, "edge": {"target": [], "time": []}}, "mouseout": {"state": {"target": ["0", "28", "26", "25", "30", "25", "26", "26", "8", "3", "4", "15", "14", "19", "22", "24", "29", "27", "28", "18", "16", "17", "12", "31", "32", "33", "30"], "time": [3565, 3848, 4064, 4164, 4848, 5257, 5711, 7329, 8768, 8911, 10110, 11624, 11803, 12568, 13124, 13241, 14606, 18158, 25130, 25922, 29761, 36472, 36546, 36613, 37853, 41434, 41508]}, "edge": {"target": [], "time": []}}}, "displayed_time": "46.11", "trialTime": 47825, "trial_type": "mouselab-mdp", "trial_index": 32, "time_elapsed": 1299126, "internal_node_id": "0.0-4.0-1.0-23.0"}}, {"uniqueid": "w92010698:a49775724", "current_trial": 33, "dateTime": 1691143576593, "trialdata": {"revealed_states": [], "clicked_states": ["30", "26", "8", "4", "15", "19", "18", "16", "17", "5", "7", "6"], "num_clicks_accrued": [0, 0, 0, 0, 0, 0, 0, 0, 0, 0, 0, 0, 0], "stateRewards": ["", 1, -3, -2, 14, 49, -40, -39, 2, 26, -61, 73, 1, -4, -8, 12, 79, 29, -65, -13, 55, -26, 27, -1, 3, 3, 9, -17, -60, -18, -8, 35, -88, 69], "withholdReward": false, "trial_id": "mdp_trial_25", "block": "test", "trialIndex": 26, "score": 57.8, "costs": -22.2, "simulationMode": [null, null, null, null, null], "rewards": [1, -4, -8, 12, 79], "path": ["0", "0", "12", "13", "14", "15", "16"], "rt": [31242, 278, 356, 231, 257], "actions": ["right", "right", "right", "up", "up"], "actionTimes": [36987, 37833, 38743, 39531, 40342], "queries": {"click": {"state": {"target": ["30", "26", "8", "4", "15", "19", "18", "16", "17", "5", "7", "6"], "time": [7075, 8654, 9788, 11089, 12441, 13990, 15256, 18710, 22179, 26540, 30103, 33612]}, "edge": {"target": [], "time": []}}, "mouseover": {"state": {"target": ["23", "24", "30", "26", "26", "8", "4", "15", "14", "19", "18", "16", "17", "4", "5", "4", "7", "6"], "time": [6386, 6430, 6645, 7659, 8360, 9327, 10621, 12061, 13173, 13608, 14901, 16038, 19500, 25780, 26114, 27228, 27441, 30791]}, "edge": {"target": [], "time": []}}, "mouseout": {"state": {"target": ["0", "23", "24", "30", "26", "26", "8", "4", "15", "15", "14", "19", "18", "16", "17", "4", "5", "4", "7", "6", "7"], "time": [6346, 6420, 6496, 7572, 7724, 8913, 10510, 11717, 12653, 13109, 13548, 14655, 15923, 19170, 25696, 25823, 27067, 27356, 30726, 34241, 34455]}, "edge": {"target": [], "time": []}}}, "displayed_time": "40.88", "trialTime": 42108, "trial_type": "mouselab-mdp", "trial_index": 33, "time_elapsed": 1343149, "internal_node_id": "0.0-4.0-1.0-24.0"}}, {"uniqueid": "w92010698:a49775724", "current_trial": 34, "dateTime": 1691143611763, "trialdata": {"revealed_states": [], "clicked_states": ["30", "26", "8", "4", "15", "19", "29", "27", "28"], "num_clicks_accrued": [0, 0, 0, 0, 0, 0, 0, 0, 0, 0, 0, 0, 0], "stateRewards": ["", 1, -1, 1, -14, -10, 67, -28, -11, 72, 40, -65, -1, 1, 1, -2, 8, -55, 34, -10, 61, 33, -15, 2, -4, 7, 4, -75, 63, -21, -16, 61, 19, 21], "withholdReward": false, "trial_id": "mdp_trial_26", "block": "test", "trialIndex": 27, "score": 56.25, "costs": -15.750000000000002, "simulationMode": [null, null, null, null, null], "rewards": [2, -4, 7, 4, 63], "path": ["0", "0", "23", "24", "25", "26", "28"], "rt": [20956, 140, 640, 339, 315], "actions": ["left", "left", "left", "up", "right"], "actionTimes": [27980, 28677, 29895, 30826, 31717], "queries": {"click": {"state": {"target": ["30", "26", "8", "4", "15", "19", "29", "27", "28"], "time": [8828, 10220, 11349, 12652, 13932, 15404, 16961, 20470, 24023]}, "edge": {"target": [], "time": []}}, "mouseover": {"state": {"target": ["31", "30", "30", "25", "26", "8", "4", "15", "14", "19", "23", "29", "29", "27", "28"], "time": [7935, 8202, 8317, 9552, 9807, 10834, 12319, 13484, 14615, 15064, 16149, 16250, 16655, 17726, 21061]}, "edge": {"target": [], "time": []}}, "mouseout": {"state": {"target": ["0", "31", "30", "30", "25", "26", "8", "4", "15", "14", "19", "23", "29", "29", "27"], "time": [7836, 8018, 8252, 9464, 9616, 10749, 11957, 13310, 14547, 14844, 16132, 16231, 16330, 17547, 20993]}, "edge": {"target": [], "time": []}}}, "displayed_time": "32.27", "trialTime": 33371, "trial_type": "mouselab-mdp", "trial_index": 34, "time_elapsed": 1378319, "internal_node_id": "0.0-4.0-1.0-25.0"}}, {"uniqueid": "w92010698:a49775724", "current_trial": 35, "dateTime": 1691143667133, "trialdata": {"revealed_states": [], "clicked_states": ["30", "26", "8", "4", "15", "19", "18", "16", "17", "7", "6", "5", "28", "27", "29"], "num_clicks_accrued": [0, 0, 0, 0, 0, 0, 0, 0, 0, 0, 0, 0, 0], "stateRewards": ["", 1, -3, -1, 9, -34, -40, 22, -7, 45, 53, -11, 2, 4, 5, 15, 21, 37, -49, -3, 80, -28, -34, 1, -3, 1, 1, -40, -6, -5, -16, -85, -86, 59], "withholdReward": false, "trial_id": "mdp_trial_27", "block": "test", "trialIndex": 28, "score": 34.35000000000001, "costs": -28.649999999999995, "simulationMode": [null, null, null, null, null], "rewards": [2, 4, 5, 15, 37], "path": ["0", "0", "12", "13", "14", "15", "17"], "rt": [42646, 245, 254, 216, 152], "actions": ["right", "right", "right", "up", "right"], "actionTimes": [45538, 46329, 47241, 48013, 48731], "queries": {"click": {"state": {"target": ["30", "26", "8", "4", "15", "19", "18", "16", "17", "7", "6", "5", "28", "27", "29"], "time": [4541, 5832, 7258, 8285, 9834, 11134, 12440, 15957, 19530, 23119, 26710, 30372, 35187, 38657, 42163]}, "edge": {"target": [], "time": []}}, "mouseover": {"state": {"target": ["23", "30", "25", "26", "26", "8", "4", "15", "19", "13", "18", "16", "17", "15", "7", "6", "5", "7", "1", "28", "27", "27", "29", "29", "26", "28"], "time": [3446, 3575, 5163, 5247, 5510, 6896, 7928, 9456, 10568, 11973, 12059, 13175, 16608, 20318, 20478, 23882, 27413, 31112, 34342, 34891, 35855, 36120, 39281, 39743, 42774, 42883]}, "edge": {"target": [], "time": []}}, "mouseout": {"state": {"target": ["28", "23", "0", "0", "23", "30", "25", "26", "26", "8", "4", "15", "19", "13", "18", "16", "17", "15", "7", "6", "5", "7", "1", "28", "27", "27", "29", "29", "26", "28", "24", "33", "33", "30", "31"], "time": [749, 832, 881, 3433, 3552, 5132, 5231, 5308, 6594, 7860, 9022, 10420, 11901, 12041, 13064, 16514, 20292, 20404, 23831, 27348, 30944, 31177, 34507, 35398, 35925, 39203, 39500, 42748, 42867, 42953, 50494, 50610, 50777, 50814, 50896]}, "edge": {"target": [], "time": []}}}, "displayed_time": "49.28", "trialTime": 53143, "trial_type": "mouselab-mdp", "trial_index": 35, "time_elapsed": 1433688, "internal_node_id": "0.0-4.0-1.0-26.0"}}, {"uniqueid": "w92010698:a49775724", "current_trial": 36, "dateTime": 1691143703866, "trialdata": {"revealed_states": [], "clicked_states": ["30", "26", "8", "4", "15", "19", "6", "7", "5", "22"], "num_clicks_accrued": [0, 0, 0, 0, 0, 0, 0, 0, 0, 0, 0, 0, 0], "stateRewards": ["", 2, -2, -3, 10, -4, -1, -11, -8, -9, -36, -78, 2, 1, 7, -7, 44, -1, -31, -1, 26, 47, 83, 2, -4, -4, -6, -52, -76, -81, -1, -59, 45, 67], "withholdReward": false, "trial_id": "mdp_trial_28", "block": "test", "trialIndex": 29, "score": 74.1, "costs": -17.900000000000002, "simulationMode": [null, null, null, null, null], "rewards": [2, 1, 7, -1, 83], "path": ["0", "0", "12", "13", "14", "19", "22"], "rt": [25776, 144, 287, 227, 145], "actions": ["right", "right", "right", "down", "left"], "actionTimes": [28507, 29207, 30038, 30876, 31611], "queries": {"click": {"state": {"target": ["30", "26", "8", "4", "15", "19", "6", "7", "5", "22"], "time": [4217, 5597, 6796, 8156, 9527, 10840, 12274, 15707, 19211, 24491]}, "edge": {"target": [], "time": []}}, "mouseover": {"state": {"target": ["33", "33", "30", "26", "8", "3", "4", "15", "14", "19", "6", "7", "5", "2", "18", "14", "19", "22", "21"], "time": [3316, 3498, 3865, 5116, 6349, 7562, 7830, 9183, 10292, 10443, 11791, 13236, 16488, 23265, 23548, 23715, 23932, 24148, 25128]}, "edge": {"target": [], "time": []}}, "mouseout": {"state": {"target": ["23", "1", "33", "33", "30", "26", "8", "3", "4", "15", "15", "14", "19", "6", "7", "5", "2", "18", "14", "19", "22", "21"], "time": [848, 1031, 3348, 3614, 5005, 6282, 6981, 7663, 8845, 9735, 10263, 10373, 11057, 12994, 16320, 23165, 23400, 23592, 23831, 24081, 24711, 33559]}, "edge": {"target": [], "time": []}}}, "displayed_time": "32.18", "trialTime": 34554, "trial_type": "mouselab-mdp", "trial_index": 36, "time_elapsed": 1470422, "internal_node_id": "0.0-4.0-1.0-27.0"}}, {"uniqueid": "w92010698:a49775724", "current_trial": 37, "dateTime": 1691143755035, "trialdata": {"revealed_states": [], "clicked_states": ["30", "26", "8", "4", "15", "19", "22", "21", "20", "9", "11", "10", "29", "27"], "num_clicks_accrued": [0, 0, 0, 0, 0, 0, 0, 0, 0, 0, 0, 0, 0], "stateRewards": ["", 2, -1, 5, 6, 10, 86, 55, 10, -45, 63, -71, 1, -2, 5, -8, -50, -72, 36, 15, 61, 12, 33, -1, -4, 6, 5, 79, -56, -21, -16, -87, 60, -81], "withholdReward": false, "trial_id": "mdp_trial_29", "block": "test", "trialIndex": 30, "score": 58.5, "costs": -26.499999999999996, "simulationMode": [null, null, null, null, null], "rewards": [-1, -4, 6, 5, 79], "path": ["0", "0", "23", "24", "25", "26", "27"], "rt": [38785, 156, 275, 231, 225], "actions": ["left", "left", "left", "up", "up"], "actionTimes": [44219, 44936, 45788, 46593, 47389], "queries": {"click": {"state": {"target": ["30", "26", "8", "4", "15", "19", "22", "21", "20", "9", "11", "10", "29", "27"], "time": [6649, 7693, 8770, 10205, 11742, 12871, 15295, 18826, 22287, 25813, 29311, 32742, 36200, 39658]}, "edge": {"target": [], "time": []}}, "mouseover": {"state": {"target": ["0", "31", "30", "26", "8", "4", "16", "15", "14", "19", "2", "18", "22", "21", "20", "19", "11", "9", "11", "10", "29", "27", "28"], "time": [5936, 6041, 6212, 7290, 8307, 9756, 11188, 11364, 12273, 12550, 13899, 14312, 14743, 15957, 19724, 22925, 23269, 23565, 26644, 29976, 33805, 36997, 40418]}, "edge": {"target": [], "time": []}}, "mouseout": {"state": {"target": ["0", "0", "31", "30", "26", "8", "4", "16", "15", "14", "19", "2", "18", "22", "21", "20", "19", "11", "9", "11", "10", "29", "27"], "time": [1230, 5976, 6101, 7203, 8138, 9558, 11004, 11259, 12256, 12355, 13036, 14271, 14363, 15851, 19384, 22898, 23016, 23336, 26278, 29789, 33471, 36734, 40171]}, "edge": {"target": [], "time": []}}}, "displayed_time": "47.89", "trialTime": 49221, "trial_type": "mouselab-mdp", "trial_index": 37, "time_elapsed": 1521591, "internal_node_id": "0.0-4.0-1.0-28.0"}}, {"uniqueid": "w92010698:a49775724", "current_trial": 38, "dateTime": 1691143792626, "trialdata": {"revealed_states": [], "clicked_states": ["29", "26", "30", "8", "4", "15", "19", "32", "33", "31", "7"], "num_clicks_accrued": [0, 0, 0, 0, 0, 0, 0, 0, 0, 0, 0, 0, 0], "stateRewards": ["", 2, -1, 1, 10, -52, 86, -22, -2, -14, -63, 38, 1, 3, 7, -8, 11, -32, -27, 9, -71, 40, -87, -2, -1, 5, -7, 12, 31, -57, 13, 86, -58, 29], "withholdReward": false, "trial_id": "mdp_trial_30", "block": "test", "trialIndex": 31, "score": 80.95, "costs": -20.05, "simulationMode": [null, null, null, null, null, null], "rewards": [-2, -1, 5, 13, 86], "path": ["0", "0", "23", "24", "25", "30", "31"], "rt": [25629, 570, 11, 156, 281, 263], "actions": ["left", "left", "left", "left", "down", "right"], "actionTimes": [27905, 28490, 29036, 29744, 30618, 31451], "queries": {"click": {"state": {"target": ["29", "26", "30", "8", "4", "15", "19", "32", "33", "31", "7"], "time": [3666, 7113, 8137, 9825, 11258, 12359, 13816, 15256, 18715, 22242, 25702]}, "edge": {"target": [], "time": []}}, "mouseover": {"state": {"target": ["23", "29", "27", "26", "25", "30", "11", "8", "3", "4", "16", "15", "19", "30", "32", "33", "30", "31", "23", "1", "7", "6", "18"], "time": [2773, 3339, 4316, 4905, 7669, 7771, 9157, 9394, 10538, 10658, 11893, 12074, 13405, 14814, 14935, 16021, 19240, 19413, 23312, 23421, 23516, 26389, 26935]}, "edge": {"target": [], "time": []}}, "mouseout": {"state": {"target": ["0", "23", "29", "27", "26", "25", "30", "26", "11", "8", "3", "4", "16", "15", "19", "30", "32", "33", "30", "31", "23", "1", "7", "6", "18"], "time": [870, 2807, 4202, 4887, 7652, 7752, 8983, 9085, 9295, 10518, 10637, 11732, 11999, 13322, 14433, 14882, 15469, 19217, 19332, 23222, 23403, 23501, 25946, 26858, 27013]}, "edge": {"target": [], "time": []}}}, "displayed_time": "32.00", "trialTime": 35563, "trial_type": "mouselab-mdp", "trial_index": 38, "time_elapsed": 1559182, "internal_node_id": "0.0-4.0-1.0-29.0"}}, {"uniqueid": "w92010698:a49775724", "current_trial": 39, "dateTime": 1691143839691, "trialdata": {"revealed_states": [], "clicked_states": ["30", "26", "8", "4", "15", "21", "31", "19", "32", "33", "9", "11", "10"], "num_clicks_accrued": [0, 0, 0, 0, 0, 0, 0, 0, 0, 0, 0, 0, 0], "stateRewards": ["", 2, -2, 7, -11, -76, -65, -23, 16, -58, 30, 81, 1, 2, 7, 14, 9, 55, -2, 6, 11, -15, 31, -1, -1, -3, 2, 15, 2, 46, 15, 18, 45, -34], "withholdReward": false, "trial_id": "mdp_trial_31", "block": "test", "trialIndex": 32, "score": 79.65, "costs": -24.349999999999998, "simulationMode": [null, null, null, null, null], "rewards": [2, -2, 7, 16, 81], "path": ["0", "0", "1", "2", "3", "8", "11"], "rt": [34574, 192, 313, 108, 361], "actions": ["up", "up", "up", "left", "left"], "actionTimes": [38376, 39140, 40030, 40688, 41590], "queries": {"click": {"state": {"target": ["30", "26", "8", "4", "15", "21", "31", "19", "32", "33", "9", "11", "10"], "time": [5109, 6430, 7688, 8953, 10243, 12199, 15760, 19536, 20853, 24332, 27810, 31562, 35029]}, "edge": {"target": [], "time": []}}, "mouseover": {"state": {"target": ["23", "30", "30", "25", "26", "8", "3", "4", "6", "16", "15", "14", "19", "21", "31", "32", "22", "19", "32", "33", "27", "11", "9", "11", "10", "2"], "time": [4358, 4429, 4792, 5768, 5968, 7356, 8252, 8683, 9583, 9781, 9934, 10885, 10987, 11935, 13476, 16324, 18837, 18959, 20542, 21525, 24980, 25058, 25830, 28504, 32185, 35665]}, "edge": {"target": [], "time": []}}, "mouseout": {"state": {"target": ["31", "24", "28", "23", "30", "30", "25", "26", "8", "3", "4", "6", "16", "15", "14", "19", "21", "31", "32", "22", "19", "32", "33", "27", "11", "9", "9", "11", "10", "2", "23"], "time": [823, 924, 972, 4413, 4491, 5317, 5844, 7089, 8235, 8314, 9165, 9659, 9849, 10818, 10963, 11060, 12430, 16230, 18070, 18907, 19960, 21073, 24545, 25042, 25259, 28045, 28332, 32002, 35647, 35748, 44146]}, "edge": {"target": [], "time": []}}}, "displayed_time": "42.12", "trialTime": 44857, "trial_type": "mouselab-mdp", "trial_index": 39, "time_elapsed": 1606246, "internal_node_id": "0.0-4.0-1.0-30.0"}}, {"uniqueid": "w92010698:a49775724", "current_trial": 40, "dateTime": 1691143870068, "trialdata": {"revealed_states": [], "clicked_states": ["30", "26", "8", "4", "15", "19", "21", "22", "20"], "num_clicks_accrued": [0, 0, 0, 0, 0, 0, 0, 0, 0, 0, 0, 0, 0], "stateRewards": ["", 2, 3, 6, -5, -74, -53, 17, -12, 46, 44, 18, -2, 4, 1, -8, 22, -23, -49, 9, -45, 55, 81, 1, -1, -7, -16, -83, -71, -45, 2, 51, 82, 61], "withholdReward": false, "trial_id": "mdp_trial_32", "block": "test", "trialIndex": 33, "score": 77.25, "costs": -15.750000000000002, "simulationMode": [null, null, null, null, null], "rewards": [-2, 4, 1, 9, 81], "path": ["0", "0", "12", "13", "14", "19", "22"], "rt": [19643, 235, 288, 266, 157], "actions": ["right", "right", "right", "down", "left"], "actionTimes": [22366, 23149, 24013, 24823, 25562], "queries": {"click": {"state": {"target": ["30", "26", "8", "4", "15", "19", "21", "22", "20"], "time": [4044, 5473, 6833, 8049, 9470, 10567, 12027, 15513, 19020]}, "edge": {"target": [], "time": []}}, "mouseover": {"state": {"target": ["0", "32", "30", "25", "26", "26", "8", "4", "15", "14", "19", "21", "22", "20"], "time": [3326, 3434, 3664, 4667, 4751, 5185, 6413, 7574, 9171, 10014, 10269, 11727, 13101, 16266]}, "edge": {"target": [], "time": []}}, "mouseout": {"state": {"target": ["0", "32", "30", "25", "26", "26", "8", "4", "15", "15", "14", "19", "21", "22", "20"], "time": [3378, 3515, 4650, 4734, 4818, 6071, 7373, 8738, 9689, 9993, 10142, 11644, 12243, 15999, 19695]}, "edge": {"target": [], "time": []}}}, "displayed_time": "26.11", "trialTime": 28190, "trial_type": "mouselab-mdp", "trial_index": 40, "time_elapsed": 1636624, "internal_node_id": "0.0-4.0-1.0-31.0"}}, {"uniqueid": "w92010698:a49775724", "current_trial": 41, "dateTime": 1691143905560, "trialdata": {"revealed_states": [], "clicked_states": ["30", "26", "8", "4", "15", "19", "6", "7", "5"], "num_clicks_accrued": [0, 0, 0, 0, 0, 0, 0, 0, 0, 0, 0, 0, 0], "stateRewards": ["", -2, -4, 6, 14, -34, 49, 36, -8, -3, 32, -4, 1, -2, 1, -8, -20, -71, -57, -7, -86, -62, -16, -2, -3, -5, 11, 23, -21, 53, 5, -5, 85, 73], "withholdReward": false, "trial_id": "mdp_trial_33", "block": "test", "trialIndex": 34, "score": 34.25, "costs": -15.750000000000002, "simulationMode": [null, null, null, null, null], "rewards": [-2, -4, 6, 14, 36], "path": ["0", "0", "1", "2", "3", "4", "7"], "rt": [22736, 71, 234, 1145, 2117], "actions": ["up", "up", "up", "right", "down"], "actionTimes": [25387, 26023, 26806, 28482, 31153], "queries": {"click": {"state": {"target": ["30", "26", "8", "4", "15", "19", "6", "7", "5"], "time": [4125, 5468, 6853, 7958, 9831, 11550, 13205, 16642, 20155]}, "edge": {"target": [], "time": []}}, "mouseover": {"state": {"target": ["0", "0", "33", "30", "26", "26", "8", "4", "15", "14", "19", "18", "6", "7", "5", "3", "8", "6"], "time": [2703, 3124, 3217, 3706, 4757, 5154, 6320, 7518, 9177, 10784, 11221, 12285, 12692, 13809, 17212, 24208, 24506, 24639]}, "edge": {"target": [], "time": []}}, "mouseout": {"state": {"target": ["0", "0", "0", "33", "30", "26", "26", "8", "4", "15", "15", "14", "19", "18", "6", "7", "5", "3", "8", "6", "18", "13"], "time": [1189, 2826, 3164, 3558, 4691, 4914, 5687, 7451, 8718, 10054, 10658, 11110, 11763, 12358, 13749, 17196, 24174, 24246, 24551, 24674, 32738, 32782]}, "edge": {"target": [], "time": []}}}, "displayed_time": "31.68", "trialTime": 33489, "trial_type": "mouselab-mdp", "trial_index": 41, "time_elapsed": 1672116, "internal_node_id": "0.0-4.0-1.0-32.0"}}, {"uniqueid": "w92010698:a49775724", "current_trial": 42, "dateTime": 1691143935875, "trialdata": {"revealed_states": [], "clicked_states": ["30", "26", "8", "4", "15", "19", "18", "16", "17"], "num_clicks_accrued": [0, 0, 0, 0, 0, 0, 0, 0, 0, 0, 0, 0, 0], "stateRewards": ["", -1, -3, 4, -10, -5, 79, -87, -2, 53, 29, -20, -2, -1, -5, 10, 27, 86, 46, -16, -29, 40, 3, 2, 4, -1, -6, 37, 79, -29, 7, 86, -62, 29], "withholdReward": false, "trial_id": "mdp_trial_34", "block": "test", "trialIndex": 35, "score": 72.25, "costs": -15.750000000000002, "simulationMode": [null, null, null, null, null], "rewards": [-2, -1, -5, 10, 86], "path": ["0", "0", "12", "13", "14", "15", "17"], "rt": [20103, 118, 318, 245, 136], "actions": ["right", "right", "right", "up", "right"], "actionTimes": [22575, 23248, 24125, 24921, 25599], "queries": {"click": {"state": {"target": ["30", "26", "8", "4", "15", "19", "18", "16", "17"], "time": [3624, 4888, 6056, 7320, 8535, 9860, 11225, 14708, 18170]}, "edge": {"target": [], "time": []}}, "mouseover": {"state": {"target": ["23", "31", "30", "25", "26", "8", "3", "4", "16", "15", "14", "19", "18", "16", "17", "17", "14"], "time": [3033, 3108, 3189, 4207, 4572, 5661, 6731, 6883, 8015, 8165, 9249, 9502, 10943, 12164, 15246, 15511, 21483]}, "edge": {"target": [], "time": []}}, "mouseout": {"state": {"target": ["23", "31", "30", "25", "26", "8", "3", "4", "16", "15", "14", "19", "18", "16", "17", "17", "14"], "time": [3074, 3149, 4190, 4273, 5485, 6280, 6811, 7546, 8084, 9165, 9334, 10616, 11895, 15230, 15331, 21442, 21533]}, "edge": {"target": [], "time": []}}}, "displayed_time": "26.17", "trialTime": 28315, "trial_type": "mouselab-mdp", "trial_index": 42, "time_elapsed": 1702431, "internal_node_id": "0.0-4.0-1.0-33.0"}}, {"uniqueid": "w92010698:a49775724", "current_trial": 43, "dateTime": 1691143989611, "trialdata": {"revealed_states": [], "clicked_states": ["30", "26", "8", "4", "15", "19", "33", "32", "31", "10", "11", "9", "18", "16", "17"], "num_clicks_accrued": [0, 0, 0, 0, 0, 0, 0, 0, 0, 0, 0, 0, 0], "stateRewards": ["", 2, -4, -8, -15, 71, -43, -41, 7, -17, 20, 67, -1, -1, -4, 6, 37, -24, -47, 9, 34, 57, 45, 1, 2, -4, -5, -23, 88, -5, 13, -40, 43, 44], "withholdReward": false, "trial_id": "mdp_trial_35", "block": "test", "trialIndex": 36, "score": -11.649999999999991, "costs": -28.649999999999995, "simulationMode": [null, null, null, null, null], "rewards": [2, -4, -8, 7, 20], "path": ["0", "0", "1", "2", "3", "8", "10"], "rt": [41575, 106, 380, 103, 301], "actions": ["up", "up", "up", "left", "down"], "actionTimes": [44053, 44753, 45726, 46388, 47324], "queries": {"click": {"state": {"target": ["30", "26", "8", "4", "15", "19", "33", "32", "31", "10", "11", "9", "18", "16", "17"], "time": [4252, 5578, 6713, 8143, 9277, 10563, 12172, 15662, 19136, 22567, 26136, 29703, 33346, 36907, 40349]}, "edge": {"target": [], "time": []}}, "mouseover": {"state": {"target": ["0", "31", "30", "26", "8", "3", "4", "15", "19", "22", "30", "33", "32", "31", "24", "10", "11", "9", "8", "10", "1", "18", "18", "16", "17"], "time": [3130, 3213, 3946, 5244, 6276, 7483, 7779, 8827, 10243, 11389, 11605, 11786, 12774, 16302, 19703, 20151, 23145, 26744, 30465, 30621, 31823, 32534, 32977, 34094, 37700]}, "edge": {"target": [], "time": []}}, "mouseout": {"state": {"target": ["0", "0", "31", "30", "26", "8", "3", "4", "15", "19", "22", "30", "33", "32", "31", "24", "10", "11", "9", "8", "10", "1", "18", "18", "16", "17", "20", "19"], "time": [1155, 3171, 3412, 4892, 6161, 7460, 7560, 8707, 10157, 10790, 11457, 11671, 12757, 16203, 19683, 19791, 23080, 26627, 30432, 30538, 30805, 31893, 32764, 33972, 37511, 50107, 50306, 50358]}, "edge": {"target": [], "time": []}}}, "displayed_time": "47.86", "trialTime": 51414, "trial_type": "mouselab-mdp", "trial_index": 43, "time_elapsed": 1756166, "internal_node_id": "0.0-4.0-1.0-34.0"}}, {"uniqueid": "w92010698:a49775724", "current_trial": 44, "dateTime": 1691144042525, "trialdata": {"revealed_states": [], "clicked_states": ["30", "26", "8", "4", "15", "19", "11", "10", "9", "5", "6", "7", "27", "29", "28"], "num_clicks_accrued": [0, 0, 0, 0, 0, 0, 0, 0, 0, 0, 0, 0, 0], "stateRewards": ["", -2, -4, -2, 10, -8, -15, -47, 7, -84, 53, 5, -1, 2, -7, 3, 83, 31, 47, -1, 30, -8, 69, 2, -4, -1, 8, -7, 12, -8, -8, -13, 30, -84], "withholdReward": false, "trial_id": "mdp_trial_36", "block": "test", "trialIndex": 37, "score": 23.35000000000001, "costs": -28.649999999999995, "simulationMode": [null, null, null, null, null], "rewards": [-2, -4, -2, 7, 53], "path": ["0", "0", "1", "2", "3", "8", "10"], "rt": [41913, 186, 252, 207, 282], "actions": ["up", "up", "up", "left", "down"], "actionTimes": [44724, 45479, 46314, 47054, 47910], "queries": {"click": {"state": {"target": ["30", "26", "8", "4", "15", "19", "11", "10", "9", "5", "6", "7", "27", "29", "28"], "time": [4124, 5407, 7202, 8576, 9953, 11454, 13024, 16428, 19927, 23392, 26842, 30253, 33702, 37388, 40803]}, "edge": {"target": [], "time": []}}, "mouseover": {"state": {"target": ["0", "30", "26", "26", "10", "8", "3", "4", "15", "14", "19", "22", "8", "11", "10", "9", "5", "6", "7", "28", "27", "29", "26", "28"], "time": [3426, 3789, 4729, 5024, 6505, 6776, 7794, 8029, 9554, 10640, 11118, 12128, 12290, 12633, 13752, 17270, 20991, 24298, 27670, 30859, 31145, 34304, 37853, 37989]}, "edge": {"target": [], "time": []}}, "mouseout": {"state": {"target": ["23", "0", "30", "26", "26", "10", "8", "3", "4", "15", "14", "19", "22", "8", "11", "10", "9", "5", "6", "7", "28", "27", "29", "26"], "time": [997, 3478, 4636, 4792, 6315, 6720, 7695, 7859, 9045, 10542, 10810, 12108, 12222, 12418, 13634, 16951, 20867, 23948, 27429, 30794, 30927, 34239, 37836, 37920]}, "edge": {"target": [], "time": []}}}, "displayed_time": "48.48", "trialTime": 50877, "trial_type": "mouselab-mdp", "trial_index": 44, "time_elapsed": 1809081, "internal_node_id": "0.0-4.0-1.0-35.0"}}, {"uniqueid": "w92010698:a49775724", "current_trial": 45, "dateTime": 1691144095762, "trialdata": {"revealed_states": [], "clicked_states": ["30", "26", "8", "4", "15", "19", "7", "6", "5", "29", "27", "28", "33", "32", "31"], "num_clicks_accrued": [0, 0, 0, 0, 0, 0, 0, 0, 0, 0, 0, 0, 0], "stateRewards": ["", 2, 3, 8, 14, 69, -27, 17, 2, -71, -65, -10, 2, -3, 7, 8, 65, -10, 65, -12, 73, -12, 13, -2, -2, 6, 10, -79, -69, -18, 10, -85, 67, 74], "withholdReward": false, "trial_id": "mdp_trial_37", "block": "test", "trialIndex": 38, "score": 57.35000000000001, "costs": -28.649999999999995, "simulationMode": [null, null, null, null, null], "rewards": [-2, -2, 6, 10, 74], "path": ["0", "0", "23", "24", "25", "30", "33"], "rt": [40035, 241, 320, 285, 314], "actions": ["left", "left", "left", "down", "left"], "actionTimes": [44972, 45779, 46658, 47505, 48384], "queries": {"click": {"state": {"target": ["30", "26", "8", "4", "15", "19", "7", "6", "5", "29", "27", "28", "33", "32", "31"], "time": [6033, 7431, 8734, 9912, 11246, 12378, 13929, 17533, 20964, 24361, 27797, 31219, 34656, 38245, 41651]}, "edge": {"target": [], "time": []}}, "mouseover": {"state": {"target": ["23", "24", "30", "25", "26", "26", "8", "3", "4", "15", "14", "19", "7", "6", "5", "23", "29", "27", "28", "33", "32", "31"], "time": [5429, 5476, 5706, 6559, 6622, 7163, 8422, 9337, 9588, 10903, 11852, 12067, 13626, 14752, 18163, 21669, 22143, 25091, 28368, 32074, 35275, 38969]}, "edge": {"target": [], "time": []}}, "mouseout": {"state": {"target": ["28", "0", "0", "23", "24", "30", "25", "26", "26", "8", "3", "4", "15", "14", "19", "7", "6", "5", "23", "29", "27", "28", "33", "32", "31"], "time": [780, 1040, 5391, 5467, 5520, 6242, 6609, 6714, 7637, 8925, 9414, 10551, 11835, 11937, 13052, 14551, 18013, 21494, 21786, 24905, 28040, 31794, 35086, 38894, 42274]}, "edge": {"target": [], "time": []}}}, "displayed_time": "48.95", "trialTime": 51065, "trial_type": "mouselab-mdp", "trial_index": 45, "time_elapsed": 1862316, "internal_node_id": "0.0-4.0-1.0-36.0"}}, {"uniqueid": "w92010698:a49775724", "current_trial": 46, "dateTime": 1691144137543, "trialdata": {"revealed_states": [], "clicked_states": ["26", "30", "8", "4", "15", "19", "33", "32", "31", "18", "16", "17"], "num_clicks_accrued": [0, 0, 0, 0, 0, 0, 0, 0, 0, 0, 0, 0, 0], "stateRewards": ["", 2, -1, 8, -2, -16, 69, -39, -7, -13, -27, -86, 2, -2, 2, 13, -34, -16, -20, -5, 19, 81, 32, -2, -1, 2, -14, 20, 80, 58, 4, 70, 12, 73], "withholdReward": false, "trial_id": "mdp_trial_38", "block": "test", "trialIndex": 39, "score": 53.8, "costs": -22.2, "simulationMode": [null, null, null, null, null], "rewards": [-2, -1, 2, 4, 73], "path": ["0", "0", "23", "24", "25", "30", "33"], "rt": [30290, 161, 307, 302, 325], "actions": ["left", "left", "left", "down", "left"], "actionTimes": [32724, 33471, 34335, 35196, 36086], "queries": {"click": {"state": {"target": ["26", "30", "8", "4", "15", "19", "33", "32", "31", "18", "16", "17"], "time": [3948, 5218, 6631, 7739, 9079, 10262, 11861, 15369, 18841, 22270, 25693, 29115]}, "edge": {"target": [], "time": []}}, "mouseover": {"state": {"target": ["24", "25", "26", "25", "30", "8", "3", "4", "15", "14", "19", "33", "32", "31", "18", "16", "17"], "time": [3282, 3334, 3602, 4451, 4536, 6321, 7178, 7324, 8766, 9679, 9853, 11424, 12428, 18105, 19737, 22816, 26242]}, "edge": {"target": [], "time": []}}, "mouseout": {"state": {"target": ["0", "24", "25", "26", "26", "25", "30", "8", "3", "4", "15", "14", "19", "33", "32", "31", "18", "16", "17"], "time": [933, 3323, 3374, 4161, 4434, 4519, 5864, 6841, 7252, 8426, 9662, 9798, 11077, 12407, 16007, 19336, 22680, 26115, 29859]}, "edge": {"target": [], "time": []}}}, "displayed_time": "36.66", "trialTime": 39440, "trial_type": "mouselab-mdp", "trial_index": 46, "time_elapsed": 1904099, "internal_node_id": "0.0-4.0-1.0-37.0"}}, {"uniqueid": "w92010698:a49775724", "current_trial": 47, "dateTime": 1691144161199, "trialdata": {"revealed_states": [], "clicked_states": ["30", "26", "8", "6", "4"], "num_clicks_accrued": [0, 0, 0, 0, 0, 0, 0, 0, 0, 0, 0, 0, 0], "stateRewards": ["", 1, -3, -6, -5, 47, 80, -29, 11, -71, 10, -29, -2, 3, -6, 12, 2, -78, -6, 8, 34, -16, -5, -1, 3, 3, -13, 84, -36, -62, -3, -27, 66, 15], "withholdReward": false, "trial_id": "mdp_trial_39", "block": "test", "trialIndex": 40, "score": 58.65, "costs": -8.350000000000001, "simulationMode": [null, null, null, null, null], "rewards": [1, -3, -6, -5, 80], "path": ["0", "0", "1", "2", "3", "4", "6"], "rt": [12228, 167, 256, 183, 197], "actions": ["up", "up", "up", "right", "right"], "actionTimes": [14665, 15375, 16180, 16913, 17713], "queries": {"click": {"state": {"target": ["30", "26", "8", "6", "4"], "time": [3980, 5253, 6599, 9246, 12686]}, "edge": {"target": [], "time": []}}, "mouseover": {"state": {"target": ["28", "26", "30", "25", "26", "8", "3", "6", "4", "7"], "time": [2885, 2935, 3378, 4631, 4890, 6216, 7223, 7414, 10104, 13625]}, "edge": {"target": [], "time": []}}, "mouseout": {"state": {"target": ["0", "28", "26", "30", "25", "26", "8", "3", "6", "4", "4", "7", "0"], "time": [944, 2926, 2974, 4564, 4764, 5899, 7200, 7345, 10032, 12905, 13387, 13744, 19454]}, "edge": {"target": [], "time": []}}}, "displayed_time": "18.29", "trialTime": 21527, "trial_type": "mouselab-mdp", "trial_index": 47, "time_elapsed": 1927755, "internal_node_id": "0.0-4.0-1.0-38.0"}}, {"uniqueid": "w92010698:a49775724", "current_trial": 48, "dateTime": 1691144210331, "trialdata": {"revealed_states": [], "clicked_states": ["30", "26", "8", "4", "15", "19", "11", "10", "9", "31", "32", "33", "29", "27"], "num_clicks_accrued": [0, 0, 0, 0, 0, 0, 0, 0, 0, 0, 0, 0, 0], "stateRewards": ["", -1, -2, 8, -6, -79, -6, 87, 9, -5, -66, -38, 2, 2, 5, -6, -82, 74, 85, -8, 67, -30, -15, 1, -2, -2, -2, 87, 64, 49, 7, 2, -38, -9], "withholdReward": false, "trial_id": "mdp_trial_40", "block": "test", "trialIndex": 41, "score": 55.5, "costs": -26.499999999999996, "simulationMode": [null, null, null, null, null], "rewards": [1, -2, -2, -2, 87], "path": ["0", "0", "23", "24", "25", "26", "27"], "rt": [38019, 105, 231, 212, 174], "actions": ["left", "left", "left", "up", "up"], "actionTimes": [40639, 41291, 42087, 42850, 43612], "queries": {"click": {"state": {"target": ["30", "26", "8", "4", "15", "19", "11", "10", "9", "31", "32", "33", "29", "27"], "time": [3811, 4873, 6183, 7547, 8794, 9992, 11387, 14826, 18248, 21744, 25228, 28710, 32795, 36323]}, "edge": {"target": [], "time": []}}, "mouseover": {"state": {"target": ["30", "25", "26", "8", "4", "4", "15", "14", "19", "11", "11", "10", "9", "28", "31", "32", "33", "29", "29", "29", "27", "28", "28"], "time": [3332, 4423, 4528, 5691, 6802, 7266, 8492, 9422, 9680, 10715, 11048, 12335, 15509, 18823, 18932, 22516, 25874, 30999, 32091, 32485, 33684, 37060, 37863]}, "edge": {"target": [], "time": []}}, "mouseout": {"state": {"target": ["0", "0", "30", "25", "26", "8", "4", "4", "15", "14", "19", "11", "11", "10", "9", "28", "31", "32", "33", "29", "29", "29", "27", "28"], "time": [901, 3084, 4369, 4477, 5492, 6730, 6923, 8082, 9016, 9504, 10211, 10889, 12061, 15041, 18805, 18918, 22218, 25752, 30649, 32049, 32301, 33411, 37042, 37131]}, "edge": {"target": [], "time": []}}}, "displayed_time": "44.20", "trialTime": 46747, "trial_type": "mouselab-mdp", "trial_index": 48, "time_elapsed": 1976887, "internal_node_id": "0.0-4.0-1.0-39.0"}}, {"uniqueid": "w92010698:a49775724", "current_trial": 49, "dateTime": 1691144262395, "trialdata": {"rt": 51784, "response": {"Q0": "$-16 to 16", "Q1": "$-16 to $16", "Q2": "$-88 to $88", "Q3": "The cost for clicking on nodes varied between nodes.", "Q4": "Slightly motivated"}, "question_order": [0, 1, 2, 3, 4], "trial_id": "final_quiz_control", "trial_type": "survey-multi-choice", "trial_index": 49, "time_elapsed": 2028952, "internal_node_id": "0.0-4.0-2.0"}}, {"uniqueid": "w92010698:a49775724", "current_trial": 50, "dateTime": 1691144464808, "trialdata": {"rt": 201999, "response": {"Q0": "i would click the first node to see which one was positive. then the 4th nodes of the positive paths to see which were positive. the the 5th nodes of the positive 4th nodes so i can see the highest and  then take that path. if i would encounter anode over 80 in the 5th nodes i wouldnt inspect further and just take that path.", "Q1": "no, i found myself making mistakes at the end but i used the same strategy throughout once i figured out the maximum in 5th node was 88", "Q2": "not dificult"}, "trial_id": "self_report_control", "trial_type": "survey-text", "trial_index": 50, "time_elapsed": 2231365, "internal_node_id": "0.0-4.0-3.0"}}, {"uniqueid": "w92010698:a49775724", "current_trial": 51, "dateTime": 1691144514241, "trialdata": {"rt": 49420, "response": {"Q0": "Strongly agree", "Q1": "Disagree", "Q2": "Agree", "Q3": "Strongly agree", "Q4": "Disagree", "Q5": "Strongly agree", "Q6": "Disagree"}, "question_order": [0, 1, 2, 3, 4, 5, 6], "trial_id": "self_report_2", "trial_type": "survey-multi-choice", "trial_index": 51, "time_elapsed": 2280798, "internal_node_id": "0.0-4.0-4.0"}}, {"uniqueid": "w92010698:a49775724", "current_trial": 52, "dateTime": 1691144544284, "trialdata": {"rt": 29910, "response": {"gender": "female", "age": "25", "colorblind": "0", "effort": "0"}, "trial_type": "survey-html-form", "trial_index": 52, "time_elapsed": 2310840, "internal_node_id": "0.0-4.0-5.0"}}, {"uniqueid": "w92010698:a49775724", "current_trial": 53, "dateTime": 1691144561119, "trialdata": {"rt": 16795, "response": {"Q0": "no", "Q1": "no", "Q2": "no"}, "trial_type": "survey-text", "trial_index": 53, "time_elapsed": 2327676, "internal_node_id": "0.0-4.0-6.0"}}, {"uniqueid": "w92010698:a49775724", "current_trial": 54, "dateTime": 1691144569585, "trialdata": {"rt": 8309, "stimulus": "Press 'Finish HIT' in order to reach the completion code. Once the data has been saved, you will receive the code either in this window or in the original browser window where you started the experiment.\n", "response": 0, "trial_type": "html-button-response", "trial_index": 54, "time_elapsed": 2336142, "internal_node_id": "0.0-5.0"}}, {"uniqueid": "w92010698:a49775724", "current_trial": 55, "dateTime": 1691144570848, "trialdata": {"success": true, "trial_type": "fullscreen", "trial_index": 55, "time_elapsed": 2337405, "internal_node_id": "0.0-6.0"}}], "questiondata": {"params": {"CODE": "C6DMOQA6", "MIN_TIME": 14, "inspectCost": 1, "startTime": "Fri Aug 04 2023 11:43:45 GMT+0200 (South Africa Standard Time)", "bonusRate": 0.002, "variance": "1_2_4_8_44", "branching": "31123"}, "final_score": 2113}, "eventdata": [{"eventtype": "initialized", "value": null, "timestamp": 1691142224691, "interval": 0}, {"eventtype": "window_resize", "value": [1032, 608], "timestamp": 1691142224692, "interval": 1}, {"eventtype": "window_resize", "value": [1032, 608], "timestamp": 1691142225511, "interval": 819}, {"eventtype": "window_resize", "value": [1280, 720], "timestamp": 1691142238428, "interval": 12917}], "useragent": "Mozilla/5.0 (Windows NT 10.0; Win64; x64) AppleWebKit/537.36 (KHTML, like Gecko) Chrome/115.0.0.0 Safari/537.36", "mode": "live", "id": "w92010698:a49775724", "status": "user data saved", "Beginhit": "2023-08-04 09:43:09.436642", "Beginexp": "2023-08-04 09:43:34.951863", "Endhit": "2023-08-04 10:22:29.028135", "psiturkStatus": 3, "browser": "<redacted>", "platform": "windows", "language": "en-US"}