{"condition": 1, "counterbalance": 0, "assignmentId": "a70360378", "workerId": "w31309762", "hitId": "h58529458", "currenttrial": 56, "bonus": 0, "data": [{"uniqueid": "w31309762:a70360378", "current_trial": 0, "dateTime": 1693564854987, "trialdata": {"success": true, "trial_type": "fullscreen", "trial_index": 0, "time_elapsed": 2924, "internal_node_id": "0.0-0.0"}}, {"uniqueid": "w31309762:a70360378", "current_trial": 1, "dateTime": 1693564856216, "trialdata": {"view_history": [{"page_index": 0, "viewing_time": 1226}], "rt": 1226, "trial_id": "exp_instructions_misaligned", "trial_type": "instructions", "trial_index": 1, "time_elapsed": 4153, "internal_node_id": "0.0-1.0"}}, {"uniqueid": "w31309762:a70360378", "current_trial": 2, "dateTime": 1693564925624, "trialdata": {"view_history": [{"page_index": 0, "viewing_time": 29102}, {"page_index": 1, "viewing_time": 21721}, {"page_index": 2, "viewing_time": 11192}, {"page_index": 3, "viewing_time": 7392}], "rt": 69407, "trial_id": "mouselab_instructions_1_misaligned", "trial_type": "instructions", "trial_index": 2, "time_elapsed": 73560, "internal_node_id": "0.0-2.0-1.0"}}, {"uniqueid": "w31309762:a70360378", "current_trial": 3, "dateTime": 1693565020306, "trialdata": {"revealed_states": [], "clicked_states": ["12", "13", "14", "19", "21", "20", "22", "15", "17", "23", "1", "2", "3", "4", "5", "29", "32", "24", "25", "26", "28", "27", "30", "31", "33", "8", "10", "11", "9", "7", "6", "16", "18"], "num_clicks_accrued": [0, 0, 0, 0, 0, 0, 0, 0, 0, 0, 0, 0, 0], "stateRewards": ["", 10, -10, 10, -10, 10, 10, 10, -10, 10, 10, -10, -10, -10, -10, -10, 10, 10, 10, 10, -10, -10, 10, 10, -10, 10, 10, 10, -10, -10, -10, -10, -10, 10], "withholdReward": false, "trial_id": "practice_1", "block": "test", "trialIndex": 0, "score": -43, "costs": -16.5, "simulationMode": [null, null, null, null, null], "rewards": [-10, -10, -10, 10, -10], "path": ["0", "0", "12", "13", "14", "19", "20"], "rt": [84987, 1878, 520, 138, 132], "actions": ["right", "right", "right", "down", "right"], "actionTimes": [86755, 89136, 90165, 90809, 91448], "queries": {"click": {"state": {"target": ["12", "13", "14", "19", "21", "20", "22", "15", "17", "23", "1", "2", "3", "4", "5", "29", "32", "24", "25", "26", "28", "27", "30", "31", "33", "8", "10", "11", "9", "7", "6", "16", "18"], "time": [4808, 7798, 9302, 11606, 15133, 16390, 19775, 22293, 23414, 25046, 27159, 28573, 32502, 34286, 35511, 39679, 42055, 43423, 44733, 45861, 48710, 50742, 55270, 56282, 58182, 60094, 61293, 62646, 63885, 65246, 68606, 71054, 72102]}, "edge": {"target": [], "time": []}}, "mouseover": {"state": {"target": ["12", "13", "14", "17", "13", "12", "13", "14", "19", "20", "21", "20", "19", "22", "14", "14", "22", "14", "15", "17", "16", "0", "23", "24", "1", "1", "2", "3", "7", "4", "5", "4", "2", "10", "28", "26", "29", "24", "24", "25", "33", "32", "23", "24", "25", "26", "26", "28", "28", "27", "24", "31", "12", "0", "23", "0", "0", "23", "31", "30", "31", "31", "33", "32", "33", "32", "25", "26", "27", "3", "8", "9", "11", "10", "11", "9", "9", "2", "7", "6", "6", "1", "6", "16", "18", "12", "12", "0", "1", "1", "1", "12", "22"], "time": [2635, 2651, 2675, 3079, 3835, 4272, 6035, 8948, 10578, 12203, 14763, 16136, 18108, 18235, 19011, 19277, 19603, 21811, 22203, 22859, 24004, 24563, 24917, 26267, 26779, 27019, 27521, 30079, 32779, 33265, 34867, 39049, 39084, 39100, 39164, 39347, 39534, 40202, 41401, 41475, 41570, 41851, 43147, 43331, 44060, 45168, 45771, 46251, 47692, 50219, 52035, 52077, 52923, 53131, 54339, 54401, 54679, 54935, 55002, 55083, 55706, 56234, 56622, 57717, 58029, 58647, 59182, 59271, 59500, 59756, 59971, 60312, 60639, 61243, 61853, 62990, 63351, 64918, 65131, 65703, 66022, 67346, 68523, 70683, 71240, 72481, 74977, 75675, 77467, 78300, 78859, 78923, 78971]}, "edge": {"target": [], "time": []}}, "mouseout": {"state": {"target": ["12", "0", "12", "13", "14", "17", "13", "12", "13", "14", "19", "20", "19", "21", "20", "20", "19", "22", "14", "14", "22", "22", "14", "15", "17", "16", "0", "23", "24", "23", "1", "1", "2", "3", "7", "4", "5", "4", "2", "10", "28", "26", "29", "24", "24", "25", "33", "32", "23", "24", "24", "25", "26", "26", "28", "24", "25", "28", "27", "28", "24", "31", "12", "0", "23", "0", "0", "23", "31", "30", "31", "31", "30", "33", "32", "33", "32", "30", "25", "26", "27", "3", "8", "9", "11", "8", "10", "11", "9", "9", "10", "2", "7", "6", "6", "1", "6", "6", "16", "18", "12", "12", "0", "1", "1", "1", "12", "22"], "time": [61, 2620, 2643, 2659, 2684, 3759, 3898, 5606, 8249, 10460, 12148, 14523, 14553, 15915, 17916, 18011, 18171, 18988, 19027, 19347, 19852, 19959, 21886, 22805, 23419, 24439, 24659, 25494, 26735, 26756, 26803, 27411, 29594, 32723, 33195, 34783, 35678, 39059, 39092, 39115, 39268, 39416, 40091, 40833, 41459, 41484, 41764, 42664, 43252, 43507, 43982, 44761, 45571, 46105, 46639, 46709, 47595, 49926, 50968, 51434, 52067, 52092, 53090, 53203, 54363, 54422, 54883, 54942, 55059, 55477, 55984, 56553, 56601, 57443, 57955, 58627, 59141, 59169, 59191, 59315, 59659, 59946, 60159, 60534, 61006, 61077, 61631, 62949, 63040, 64234, 64884, 65077, 65335, 65787, 66278, 67915, 68702, 70530, 71163, 72467, 72487, 75635, 77267, 77859, 78347, 78875, 78939, 79287]}, "edge": {"target": [], "time": []}}}, "displayed_time": "91.95", "trialTime": 94267, "trial_type": "mouselab-mdp", "trial_index": 3, "time_elapsed": 168243, "internal_node_id": "0.0-2.0-2.0-0.0"}}, {"uniqueid": "w31309762:a70360378", "current_trial": 4, "dateTime": 1693565037732, "trialdata": {"revealed_states": [], "clicked_states": ["9", "29", "17"], "num_clicks_accrued": [0, 0, 0, 0, 0, 0, 0, 0, 0, 0, 0, 0, 0], "stateRewards": ["", 10, -10, -10, -10, 10, -10, -10, 10, -10, 10, 10, -10, 10, -10, -10, 10, 10, 10, -10, -10, 10, 10, -10, -10, -10, -10, 10, 10, -10, 10, 10, -10, 10], "withholdReward": false, "trial_id": "practice_2", "block": "test", "trialIndex": 1, "score": -8, "costs": -1.5, "simulationMode": [null, null, null, null, null], "rewards": [-10, 10, -10, -10, 10], "path": ["0", "0", "12", "13", "14", "15", "17"], "rt": [9553, 634, 281, 438, 223], "actions": ["right", "right", "right", "up", "right"], "actionTimes": [10821, 11961, 12752, 13700, 14428], "queries": {"click": {"state": {"target": ["9", "29", "17"], "time": [2534, 5854, 7461]}, "edge": {"target": [], "time": []}}, "mouseover": {"state": {"target": ["1", "2", "9", "3", "4", "7", "24", "25", "29", "25", "24", "23", "0", "17", "15"], "time": [1930, 2010, 2208, 2951, 2988, 3962, 4463, 4682, 4923, 6157, 6559, 6568, 6577, 7066, 7863]}, "edge": {"target": [], "time": []}}, "mouseout": {"state": {"target": ["0", "1", "2", "9", "3", "4", "7", "24", "25", "29", "25", "24", "23", "0", "17", "15", "17", "22"], "time": [842, 1969, 2106, 2882, 2965, 3930, 3970, 4491, 4784, 6124, 6552, 6566, 6574, 6582, 7662, 9486, 10692, 16041]}, "edge": {"target": [], "time": []}}}, "displayed_time": "14.94", "trialTime": 17253, "trial_type": "mouselab-mdp", "trial_index": 4, "time_elapsed": 185668, "internal_node_id": "0.0-2.0-2.0-1.0"}}, {"uniqueid": "w31309762:a70360378", "current_trial": 5, "dateTime": 1693565058664, "trialdata": {"view_history": [{"page_index": 0, "viewing_time": 14074}, {"page_index": 1, "viewing_time": 6856}], "rt": 20930, "trial_id": "mouselab_instructions_2_misaligned", "trial_type": "instructions", "trial_index": 5, "time_elapsed": 206601, "internal_node_id": "0.0-2.0-3.0"}}, {"uniqueid": "w31309762:a70360378", "current_trial": 6, "dateTime": 1693565083537, "trialdata": {"rt": 24870, "response": {"Q0": "The cost for clicking on nodes may vary between nodes.", "Q1": "The better I perform the higher my bonus will be.", "Q2": "No, the amount of cash at each node of the web may be different each time.", "Q3": "To get the highest total score.", "Q4": "Only before moving the spider.", "Q5": "3 seconds"}, "question_order": [0, 1, 2, 3, 4, 5], "correct": {"Q0": "The cost for clicking on nodes may vary between nodes.", "Q1": "The better I perform the higher my bonus will be.", "Q2": "No, the amount of cash at each node of the web may be different each time.", "Q3": "To get the highest total score.", "Q4": "Only before moving the spider.", "Q5": "3 seconds"}, "trial_id": "mouselab_quiz_misaligned", "trial_type": "survey-multi-choice", "trial_index": 6, "time_elapsed": 231474, "internal_node_id": "0.0-2.0-4.0"}}, {"uniqueid": "w31309762:a70360378", "current_trial": 7, "dateTime": 1693565088648, "trialdata": {"rt": 5106, "response": {"Q0": "No"}, "question_order": [0], "trial_id": "repeat_check", "trial_type": "survey-multi-choice", "trial_index": 7, "time_elapsed": 236585, "internal_node_id": "0.0-4.0-0.0"}}, {"uniqueid": "w31309762:a70360378", "current_trial": 8, "dateTime": 1693565096619, "trialdata": {"rt": 7968, "stimulus": "\n<h1> Get ready to start the game! </h1>\n\nThank you for reading the instructions. Get ready start with the 40 rounds of this game.\n<br><br>\nIf you need to take a break, feel free to take one after the end of a round, before continuing to the next one.\n<br><br>\nRemember, the more money the spider gets, the bigger your bonus will be!\n<br><br>\n<div style='text-align: center;'>Press <code>space</code> to begin.</div>\n\n<br><br>\n(If, at any point, the <code>space</code> key does not take you to the next page, click once on the text and try again.)", "response": " ", "trial_id": "mdp_ready", "trial_type": "html-keyboard-response", "trial_index": 8, "time_elapsed": 244556, "internal_node_id": "0.0-6.0-0.0"}}, {"uniqueid": "w31309762:a70360378", "current_trial": 9, "dateTime": 1693565117538, "trialdata": {"revealed_states": [], "clicked_states": ["17"], "num_clicks_accrued": [0, 0, 0, 0, 0, 0, 0, 0, 0, 0, 0, 0, 0], "stateRewards": ["", 2, -3, 5, -14, -63, -9, -24, -11, -54, -43, 68, 2, -2, -4, 7, -64, 30, 47, 12, -74, 11, 86, 1, -3, 3, 10, -71, -42, -52, -1, -29, -16, 69], "withholdReward": false, "trial_id": "mdp_trial_1", "block": "test", "trialIndex": 2, "score": -33.15, "costs": -2.15, "simulationMode": [null, null, null, null, null], "rewards": [1, -3, 3, 10, -42], "path": ["0", "0", "23", "24", "25", "26", "28"], "rt": [10096, 301, 1124, 442, 237], "actions": ["left", "left", "left", "up", "right"], "actionTimes": [11777, 12587, 14216, 15166, 15910], "queries": {"click": {"state": {"target": ["17"], "time": [3928]}, "edge": {"target": [], "time": []}}, "mouseover": {"state": {"target": ["15", "17", "12", "13", "20", "0", "0", "23", "24", "25", "29", "26", "24", "23"], "time": [3675, 3902, 5015, 5036, 5085, 6174, 8906, 9085, 9149, 9205, 9333, 9870, 10612, 10654]}, "edge": {"target": [], "time": []}}, "mouseout": {"state": {"target": ["7", "15", "17", "17", "12", "13", "20", "0", "0", "23", "24", "25", "29", "26", "24", "23"], "time": [453, 3801, 4280, 4620, 5030, 5050, 5091, 6368, 8997, 9125, 9181, 9266, 9773, 10574, 10633, 10669]}, "edge": {"target": [], "time": []}}}, "displayed_time": "16.41", "trialTime": 20766, "trial_type": "mouselab-mdp", "trial_index": 9, "time_elapsed": 265475, "internal_node_id": "0.0-6.0-1.0-0.0"}}, {"uniqueid": "w31309762:a70360378", "current_trial": 10, "dateTime": 1693565135451, "trialdata": {"revealed_states": [], "clicked_states": ["11", "6"], "num_clicks_accrued": [0, 0, 0, 0, 0, 0, 0, 0, 0, 0, 0, 0, 0], "stateRewards": ["", 2, 3, 6, -12, -29, 12, 87, 4, 35, -30, 67, 2, 3, -5, -9, 44, 69, -8, 1, 45, -8, 28, -2, -1, -8, 11, -12, -5, 81, 9, 87, 82, 88], "withholdReward": false, "trial_id": "mdp_trial_2", "block": "test", "trialIndex": 3, "score": 77.7, "costs": -4.3, "simulationMode": [null, null, null, null, null], "rewards": [2, 3, 6, 4, 67], "path": ["0", "0", "1", "2", "3", "8", "11"], "rt": [8706, 701, 136, 8, 31], "actions": ["up", "up", "up", "left", "left"], "actionTimes": [9822, 11031, 11681, 12198, 12741], "queries": {"click": {"state": {"target": ["11", "6"], "time": [3364, 6956]}, "edge": {"target": [], "time": []}}, "mouseover": {"state": {"target": ["1", "2", "2", "8", "11", "8", "3", "16", "16", "6", "18"], "time": [1521, 1546, 2057, 2537, 3017, 4915, 4939, 5452, 6083, 6201, 9046]}, "edge": {"target": [], "time": []}}, "mouseout": {"state": {"target": ["0", "1", "2", "2", "8", "11", "11", "8", "3", "16", "16", "6", "18", "18"], "time": [927, 1537, 1554, 2393, 2993, 3371, 4909, 4933, 4960, 5493, 6097, 8249, 9413, 13052]}, "edge": {"target": [], "time": []}}}, "displayed_time": "15.12", "trialTime": 17763, "trial_type": "mouselab-mdp", "trial_index": 10, "time_elapsed": 283387, "internal_node_id": "0.0-6.0-1.0-1.0"}}, {"uniqueid": "w31309762:a70360378", "current_trial": 11, "dateTime": 1693565152323, "trialdata": {"revealed_states": [], "clicked_states": ["20"], "num_clicks_accrued": [0, 0, 0, 0, 0, 0, 0, 0, 0, 0, 0, 0, 0], "stateRewards": ["", -2, 2, 3, -7, -31, -33, 29, -8, -57, 50, -83, -1, -1, 5, 13, -23, -62, 25, 5, -66, -85, 14, 1, -2, -1, 16, 71, 33, -19, -14, 5, -43, 79], "withholdReward": false, "trial_id": "mdp_trial_3", "block": "test", "trialIndex": 4, "score": 38.85, "costs": -2.15, "simulationMode": [null, null, null, null, null], "rewards": [-1, -1, 5, 13, 25], "path": ["0", "0", "12", "13", "14", "15", "18"], "rt": [4072, 141, 107, 507, 152], "actions": ["right", "right", "right", "up", "left"], "actionTimes": [5106, 5758, 6375, 7393, 8057], "queries": {"click": {"state": {"target": ["20"], "time": [2289]}, "edge": {"target": [], "time": []}}, "mouseover": {"state": {"target": ["12", "13", "14", "20", "15"], "time": [1190, 1215, 1232, 1710, 3782]}, "edge": {"target": [], "time": []}}, "mouseout": {"state": {"target": ["15", "12", "0", "12", "13", "14", "20", "15", "17", "17", "13"], "time": [446, 533, 1174, 1207, 1224, 1249, 2352, 5891, 6258, 15928, 15967]}, "edge": {"target": [], "time": []}}}, "displayed_time": "15.04", "trialTime": 16704, "trial_type": "mouselab-mdp", "trial_index": 11, "time_elapsed": 300259, "internal_node_id": "0.0-6.0-1.0-2.0"}}, {"uniqueid": "w31309762:a70360378", "current_trial": 12, "dateTime": 1693565170539, "trialdata": {"revealed_states": [], "clicked_states": [], "num_clicks_accrued": [0, 0, 0, 0, 0, 0, 0, 0, 0, 0, 0, 0, 0], "stateRewards": ["", -1, 4, -6, -5, -22, -38, -38, -2, -56, 88, 14, -1, -1, -7, -6, 61, -60, 21, 11, 57, 31, -30, -2, -2, 6, -9, -44, -70, -44, -15, 34, 16, -78], "withholdReward": false, "trial_id": "mdp_trial_4", "block": "test", "trialIndex": 5, "score": 83, "costs": 0, "simulationMode": [null, null, null, null, null], "rewards": [-1, 4, -6, -2, 88], "path": ["0", "0", "1", "2", "3", "8", "10"], "rt": [949, 198, 63, 154, 58], "actions": ["up", "up", "up", "left", "down"], "actionTimes": [2699, 3410, 3981, 4641, 5217], "queries": {"click": {"state": {"target": [], "time": []}, "edge": {"target": [], "time": []}}, "mouseover": {"state": {"target": ["1", "2", "18"], "time": [2028, 2412, 2486]}, "edge": {"target": [], "time": []}}, "mouseout": {"state": {"target": ["0", "1", "1", "2", "18", "16", "10", "18", "15", "17", "17", "7", "2"], "time": [37, 1027, 2099, 2420, 2507, 8556, 9467, 9851, 9876, 9891, 17401, 17844, 17947]}, "edge": {"target": [], "time": []}}}, "displayed_time": "15.75", "trialTime": 18037, "trial_type": "mouselab-mdp", "trial_index": 12, "time_elapsed": 318475, "internal_node_id": "0.0-6.0-1.0-3.0"}}, {"uniqueid": "w31309762:a70360378", "current_trial": 13, "dateTime": 1693565187297, "trialdata": {"revealed_states": [], "clicked_states": [], "num_clicks_accrued": [0, 0, 0, 0, 0, 0, 0, 0, 0, 0, 0, 0, 0], "stateRewards": ["", -2, -3, -5, 8, 27, 11, 43, -6, -24, -87, 69, -2, 1, 1, 9, 19, 48, -37, 9, -14, 45, 62, 1, 2, 1, 16, -81, -41, 22, 4, -6, -63, 47], "withholdReward": false, "trial_id": "mdp_trial_5", "block": "test", "trialIndex": 6, "score": -103, "costs": 0, "simulationMode": [null, null, null, null, null], "rewards": [-2, -3, -5, -6, -87], "path": ["0", "0", "1", "2", "3", "8", "10"], "rt": [1371, 11, 436, 492, 160], "actions": ["up", "up", "up", "left", "down"], "actionTimes": [2662, 3189, 4134, 5134, 5801], "queries": {"click": {"state": {"target": [], "time": []}, "edge": {"target": [], "time": []}}, "mouseover": {"state": {"target": ["1", "10", "10", "2"], "time": [1974, 2094, 2335, 2605]}, "edge": {"target": [], "time": []}}, "mouseout": {"state": {"target": ["10", "1", "12", "0", "1", "10", "10", "2", "16"], "time": [685, 741, 845, 1557, 1991, 2149, 2557, 2621, 15277]}, "edge": {"target": [], "time": []}}}, "displayed_time": "15.29", "trialTime": 16572, "trial_type": "mouselab-mdp", "trial_index": 13, "time_elapsed": 335233, "internal_node_id": "0.0-6.0-1.0-4.0"}}, {"uniqueid": "w31309762:a70360378", "current_trial": 14, "dateTime": 1693565203314, "trialdata": {"revealed_states": [], "clicked_states": ["31"], "num_clicks_accrued": [0, 0, 0, 0, 0, 0, 0, 0, 0, 0, 0, 0, 0], "stateRewards": ["", 2, -1, 5, 6, 10, 86, 55, 10, -45, 63, -71, 1, -2, 5, -8, -50, -72, 36, 15, 61, 12, 33, -1, -4, 6, 5, 79, -56, -21, -16, -87, 60, -81], "withholdReward": false, "trial_id": "mdp_trial_6", "block": "test", "trialIndex": 7, "score": -17.15, "costs": -2.15, "simulationMode": [null, null, null, null, null, null], "rewards": [-1, -4, 6, 5, -21], "path": ["0", "0", "23", "24", "25", "26", "29"], "rt": [3664, 507, 537, 222, 189, 106], "actions": ["left", "left", "left", "left", "up", "left"], "actionTimes": [4323, 4833, 5890, 6623, 7318, 7935], "queries": {"click": {"state": {"target": ["31"], "time": [2930]}, "edge": {"target": [], "time": []}}, "mouseover": {"state": {"target": ["23", "31", "31"], "time": [1446, 1687, 2334]}, "edge": {"target": [], "time": []}}, "mouseout": {"state": {"target": ["12", "0", "23", "31", "31", "0", "23"], "time": [188, 1126, 1471, 2046, 3875, 12222, 12343]}, "edge": {"target": [], "time": []}}}, "displayed_time": "14.66", "trialTime": 15847, "trial_type": "mouselab-mdp", "trial_index": 14, "time_elapsed": 351250, "internal_node_id": "0.0-6.0-1.0-5.0"}}, {"uniqueid": "w31309762:a70360378", "current_trial": 15, "dateTime": 1693565219817, "trialdata": {"revealed_states": [], "clicked_states": ["5"], "num_clicks_accrued": [0, 0, 0, 0, 0, 0, 0, 0, 0, 0, 0, 0, 0], "stateRewards": ["", -2, -3, -3, 9, 79, 67, 22, -15, -56, 27, -85, -2, 4, -4, -15, -20, -32, 60, 15, 71, 57, 17, 1, 2, -8, 15, -37, -81, 82, 15, 21, -3, 2], "withholdReward": false, "trial_id": "mdp_trial_7", "block": "test", "trialIndex": 8, "score": 77.85, "costs": -2.15, "simulationMode": [null, null, null, null, null, null], "rewards": [-2, -3, -3, 9, 79], "path": ["0", "0", "1", "2", "3", "4", "5"], "rt": [2262, 2267, 471, 156, 98, 128], "actions": ["up", "up", "up", "up", "right", "up"], "actionTimes": [3416, 5686, 6668, 7337, 7944, 8584], "queries": {"click": {"state": {"target": ["5"], "time": [2398]}, "edge": {"target": [], "time": []}}, "mouseover": {"state": {"target": ["1", "7", "5", "6", "16"], "time": [1668, 1740, 2268, 3612, 4284]}, "edge": {"target": [], "time": []}}, "mouseout": {"state": {"target": ["24", "23", "0", "1", "7", "5", "6", "16", "16", "17", "19", "19", "14"], "time": [612, 644, 1293, 1716, 1758, 2695, 3632, 4290, 10868, 15852, 15916, 16204, 16276]}, "edge": {"target": [], "time": []}}}, "displayed_time": "15.16", "trialTime": 16339, "trial_type": "mouselab-mdp", "trial_index": 15, "time_elapsed": 367753, "internal_node_id": "0.0-6.0-1.0-6.0"}}, {"uniqueid": "w31309762:a70360378", "current_trial": 16, "dateTime": 1693565238096, "trialdata": {"revealed_states": [], "clicked_states": ["17"], "num_clicks_accrued": [0, 0, 0, 0, 0, 0, 0, 0, 0, 0, 0, 0, 0], "stateRewards": ["", -2, -3, 4, 1, 33, -53, 15, 9, -12, 61, -6, -2, 4, 6, -11, 47, -43, -7, -11, 46, 23, -28, -1, -1, 3, -10, 11, 76, -76, 10, 18, -38, 87], "withholdReward": false, "trial_id": "mdp_trial_8", "block": "test", "trialIndex": 9, "score": -12.15, "costs": -2.15, "simulationMode": [null, null, null, null, null], "rewards": [-2, 4, 6, -11, -7], "path": ["0", "0", "12", "13", "14", "15", "18"], "rt": [3959, 80, 345, 419, 56], "actions": ["right", "right", "right", "up", "left"], "actionTimes": [5539, 6130, 6983, 7910, 8477], "queries": {"click": {"state": {"target": ["17"], "time": [2271]}, "edge": {"target": [], "time": []}}, "mouseover": {"state": {"target": ["12", "15", "17"], "time": [1684, 1980, 2168]}, "edge": {"target": [], "time": []}}, "mouseout": {"state": {"target": ["16", "18", "13", "0", "0", "12", "15", "17", "17", "14"], "time": [587, 641, 684, 1171, 1652, 1716, 2012, 2543, 16645, 17428]}, "edge": {"target": [], "time": []}}}, "displayed_time": "15.58", "trialTime": 18074, "trial_type": "mouselab-mdp", "trial_index": 16, "time_elapsed": 386032, "internal_node_id": "0.0-6.0-1.0-7.0"}}, {"uniqueid": "w31309762:a70360378", "current_trial": 17, "dateTime": 1693565257148, "trialdata": {"revealed_states": [], "clicked_states": ["2"], "num_clicks_accrued": [0, 0, 0, 0, 0, 0, 0, 0, 0, 0, 0, 0, 0], "stateRewards": ["", -1, 3, -7, 16, -32, -74, -48, 2, 10, 15, -30, 1, 1, -2, 10, 12, -83, 67, 13, -66, 47, 65, -2, 4, 2, -14, -8, -57, 24, 9, 65, 12, 46], "withholdReward": false, "trial_id": "mdp_trial_9", "block": "test", "trialIndex": 10, "score": 6.65, "costs": -0.35, "simulationMode": [null, null, null, null, null], "rewards": [-1, 3, -7, 2, 10], "path": ["0", "0", "1", "2", "3", "8", "9"], "rt": [4256, 325, 21, 9343, 244], "actions": ["up", "up", "up", "left", "up"], "actionTimes": [5247, 6077, 6605, 16463, 17214], "queries": {"click": {"state": {"target": ["2"], "time": [3467]}, "edge": {"target": [], "time": []}}, "mouseover": {"state": {"target": ["1", "2", "18"], "time": [1529, 2368, 3707]}, "edge": {"target": [], "time": []}}, "mouseout": {"state": {"target": ["13", "12", "1", "2", "2", "18", "18", "7", "2", "12"], "time": [213, 664, 2312, 3537, 3692, 3725, 14937, 15512, 15732, 18288]}, "edge": {"target": [], "time": []}}}, "displayed_time": "17.73", "trialTime": 18835, "trial_type": "mouselab-mdp", "trial_index": 17, "time_elapsed": 405085, "internal_node_id": "0.0-6.0-1.0-8.0"}}, {"uniqueid": "w31309762:a70360378", "current_trial": 18, "dateTime": 1693565276318, "trialdata": {"revealed_states": [], "clicked_states": ["31", "32", "33"], "num_clicks_accrued": [0, 0, 0, 0, 0, 0, 0, 0, 0, 0, 0, 0, 0], "stateRewards": ["", -1, -3, 1, 13, -64, -29, 12, -4, -33, 50, 56, 2, -3, 4, 11, -64, -58, -55, 12, 47, 38, -25, -2, 2, 5, -15, 85, 7, 84, 10, 8, 57, 26], "withholdReward": false, "trial_id": "mdp_trial_10", "block": "test", "trialIndex": 11, "score": 65.55, "costs": -6.449999999999999, "simulationMode": [null, null, null, null, null], "rewards": [-2, 2, 5, 10, 57], "path": ["0", "0", "23", "24", "25", "30", "32"], "rt": [12681, 335, 237, 460, 57], "actions": ["left", "left", "left", "down", "down"], "actionTimes": [13712, 14557, 15315, 16284, 16851], "queries": {"click": {"state": {"target": ["31", "32", "33"], "time": [3536, 6584, 9633]}, "edge": {"target": [], "time": []}}, "mouseover": {"state": {"target": ["23", "31", "32", "31", "32", "33", "30", "21", "31", "30"], "time": [1262, 1376, 1645, 3181, 4008, 8280, 9884, 10445, 10779, 13683]}, "edge": {"target": [], "time": []}}, "mouseout": {"state": {"target": ["0", "23", "31", "32", "31", "32", "33", "30", "21", "31", "32", "33", "30", "31"], "time": [1253, 1285, 1397, 2781, 3883, 7318, 9880, 9897, 10466, 10912, 11862, 13341, 14269, 14293]}, "edge": {"target": [], "time": []}}}, "displayed_time": "17.36", "trialTime": 19002, "trial_type": "mouselab-mdp", "trial_index": 18, "time_elapsed": 424254, "internal_node_id": "0.0-6.0-1.0-9.0"}}, {"uniqueid": "w31309762:a70360378", "current_trial": 19, "dateTime": 1693565293832, "trialdata": {"revealed_states": [], "clicked_states": ["5"], "num_clicks_accrued": [0, 0, 0, 0, 0, 0, 0, 0, 0, 0, 0, 0, 0], "stateRewards": ["", 1, -1, 8, 4, 76, -33, -17, -3, -1, -54, -74, -2, 2, -5, 13, -51, 63, 83, 1, 84, 29, -36, 2, -1, 7, -12, -10, -44, -43, -14, 8, -69, 19], "withholdReward": false, "trial_id": "mdp_trial_11", "block": "test", "trialIndex": 12, "score": 85.85, "costs": -2.15, "simulationMode": [null, null, null, null, null], "rewards": [1, -1, 8, 4, 76], "path": ["0", "0", "1", "2", "3", "4", "5"], "rt": [6549, 85, 170, 251, 175], "actions": ["up", "up", "up", "right", "up"], "actionTimes": [7782, 8374, 9055, 9818, 10503], "queries": {"click": {"state": {"target": ["5"], "time": [2163]}, "edge": {"target": [], "time": []}}, "mouseover": {"state": {"target": ["7", "4", "5", "6"], "time": [1617, 1779, 2025, 2696]}, "edge": {"target": [], "time": []}}, "mouseout": {"state": {"target": ["0", "7", "4", "5", "6"], "time": [1564, 1641, 1946, 2446, 16138]}, "edge": {"target": [], "time": []}}}, "displayed_time": "15.23", "trialTime": 17320, "trial_type": "mouselab-mdp", "trial_index": 19, "time_elapsed": 441769, "internal_node_id": "0.0-6.0-1.0-10.0"}}, {"uniqueid": "w31309762:a70360378", "current_trial": 20, "dateTime": 1693565310936, "trialdata": {"revealed_states": [], "clicked_states": [], "num_clicks_accrued": [0, 0, 0, 0, 0, 0, 0, 0, 0, 0, 0, 0, 0], "stateRewards": ["", -1, -4, -1, -5, -28, -23, -15, -15, -38, 59, -87, 2, 2, -5, 9, -55, -39, -71, -6, 85, -85, -11, -1, -2, 5, -10, 1, 25, 41, -4, 69, -35, 86], "withholdReward": false, "trial_id": "mdp_trial_12", "block": "test", "trialIndex": 13, "score": -59, "costs": 0, "simulationMode": [null, null, null, null, null], "rewards": [-1, -4, -1, -15, -38], "path": ["0", "0", "1", "2", "3", "8", "9"], "rt": [4638, 312, 415, 486, 170], "actions": ["up", "up", "up", "left", "up"], "actionTimes": [6424, 7247, 8171, 9166, 9848], "queries": {"click": {"state": {"target": [], "time": []}, "edge": {"target": [], "time": []}}, "mouseover": {"state": {"target": ["2", "3", "2", "2", "3", "8"], "time": [2753, 3021, 3425, 4313, 4582, 4897]}, "edge": {"target": [], "time": []}}, "mouseout": {"state": {"target": ["2", "3", "2", "2", "3", "8", "2", "7", "2", "1", "0"], "time": [2806, 3375, 3834, 4433, 4874, 6850, 6909, 12865, 16241, 16258, 16281]}, "edge": {"target": [], "time": []}}}, "displayed_time": "15.79", "trialTime": 16936, "trial_type": "mouselab-mdp", "trial_index": 20, "time_elapsed": 458872, "internal_node_id": "0.0-6.0-1.0-11.0"}}, {"uniqueid": "w31309762:a70360378", "current_trial": 21, "dateTime": 1693565330082, "trialdata": {"revealed_states": [], "clicked_states": ["14"], "num_clicks_accrued": [0, 0, 0, 0, 0, 0, 0, 0, 0, 0, 0, 0, 0], "stateRewards": ["", -2, 1, -5, 2, -68, 80, 33, 10, 67, -59, 20, -1, -3, 3, 14, 74, -2, 24, -16, 63, 80, 46, -1, 4, 6, 12, 83, -38, -43, -4, 43, 14, -79], "withholdReward": false, "trial_id": "mdp_trial_13", "block": "test", "trialIndex": 14, "score": 86.05, "costs": -0.95, "simulationMode": [null, null, null, null, null], "rewards": [-1, -3, 3, 14, 74], "path": ["0", "0", "12", "13", "14", "15", "16"], "rt": [5872, 28, 85, 644, 679], "actions": ["right", "right", "right", "up", "up"], "actionTimes": [9262, 9797, 10388, 11537, 12723], "queries": {"click": {"state": {"target": ["14"], "time": [5315]}, "edge": {"target": [], "time": []}}, "mouseover": {"state": {"target": ["12", "13", "19", "20", "14", "19", "22"], "time": [3772, 3911, 4047, 4967, 5111, 6152, 7428]}, "edge": {"target": [], "time": []}}, "mouseout": {"state": {"target": ["0", "12", "13", "19", "20", "14", "19", "22", "19", "20"], "time": [3640, 3847, 3991, 4056, 5063, 6125, 6375, 13535, 13775, 14583]}, "edge": {"target": [], "time": []}}}, "displayed_time": "17.39", "trialTime": 18872, "trial_type": "mouselab-mdp", "trial_index": 21, "time_elapsed": 478018, "internal_node_id": "0.0-6.0-1.0-12.0"}}, {"uniqueid": "w31309762:a70360378", "current_trial": 22, "dateTime": 1693565347464, "trialdata": {"revealed_states": [], "clicked_states": ["20"], "num_clicks_accrued": [0, 0, 0, 0, 0, 0, 0, 0, 0, 0, 0, 0, 0], "stateRewards": ["", 2, -4, 1, -12, -59, -53, -74, 16, -88, -66, 66, 1, -2, 8, -9, -14, 22, 25, -1, -39, 47, -14, -1, -1, -2, 1, -4, 52, -26, 15, -7, 46, 43], "withholdReward": false, "trial_id": "mdp_trial_14", "block": "test", "trialIndex": 15, "score": 17.85, "costs": -2.15, "simulationMode": [null, null, null, null, null], "rewards": [1, -2, 8, -9, 22], "path": ["0", "0", "12", "13", "14", "15", "17"], "rt": [5255, 285, 794, 272, 157], "actions": ["right", "right", "right", "up", "right"], "actionTimes": [7164, 7955, 9256, 10038, 10707], "queries": {"click": {"state": {"target": ["20"], "time": [3547]}, "edge": {"target": [], "time": []}}, "mouseover": {"state": {"target": ["2", "9", "4", "6", "16", "17", "20"], "time": [2289, 2610, 2905, 2923, 2961, 3024, 3401]}, "edge": {"target": [], "time": []}}, "mouseout": {"state": {"target": ["14", "14", "13", "12", "2", "9", "4", "6", "16", "17", "20", "20"], "time": [397, 1176, 1201, 1232, 2312, 2882, 2915, 2937, 2971, 3185, 3958, 14873]}, "edge": {"target": [], "time": []}}}, "displayed_time": "15.91", "trialTime": 17160, "trial_type": "mouselab-mdp", "trial_index": 22, "time_elapsed": 495401, "internal_node_id": "0.0-6.0-1.0-13.0"}}, {"uniqueid": "w31309762:a70360378", "current_trial": 23, "dateTime": 1693565363598, "trialdata": {"revealed_states": [], "clicked_states": ["29"], "num_clicks_accrued": [0, 0, 0, 0, 0, 0, 0, 0, 0, 0, 0, 0, 0], "stateRewards": ["", 2, -1, -4, -13, 74, 77, 3, 2, -43, -2, -11, 2, 3, 7, 11, -26, -29, -33, -3, -3, -13, -3, 1, 3, -7, 14, -59, 33, 9, -5, 34, 79, 68], "withholdReward": false, "trial_id": "mdp_trial_15", "block": "test", "trialIndex": 16, "score": 41.85, "costs": -2.15, "simulationMode": [null, null, null, null, null], "rewards": [1, 3, -7, 14, 33], "path": ["0", "0", "23", "24", "25", "26", "28"], "rt": [3715, 49, 115, 124, 370], "actions": ["left", "left", "left", "up", "right"], "actionTimes": [4952, 5512, 6133, 6766, 7643], "queries": {"click": {"state": {"target": ["29"], "time": [1878]}, "edge": {"target": [], "time": []}}, "mouseover": {"state": {"target": ["23", "26", "29", "26", "23"], "time": [1433, 1626, 1777, 2076, 2126]}, "edge": {"target": [], "time": []}}, "mouseout": {"state": {"target": ["20", "19", "23", "23", "26", "29", "26", "23"], "time": [681, 690, 1026, 1458, 1697, 2055, 2105, 3640]}, "edge": {"target": [], "time": []}}}, "displayed_time": "15.24", "trialTime": 15943, "trial_type": "mouselab-mdp", "trial_index": 23, "time_elapsed": 511535, "internal_node_id": "0.0-6.0-1.0-14.0"}}, {"uniqueid": "w31309762:a70360378", "current_trial": 24, "dateTime": 1693565380262, "trialdata": {"revealed_states": [], "clicked_states": ["32"], "num_clicks_accrued": [0, 0, 0, 0, 0, 0, 0, 0, 0, 0, 0, 0, 0], "stateRewards": ["", -1, 1, -2, 5, 73, 15, 61, 8, 7, 38, 76, 2, 2, -4, -6, -6, -26, 43, -5, -45, -85, -35, -2, 1, -4, 15, -10, 69, 72, -11, 84, -49, -38], "withholdReward": false, "trial_id": "mdp_trial_16", "block": "test", "trialIndex": 17, "score": -2.1500000000000004, "costs": -2.15, "simulationMode": [null, null, null, null, null], "rewards": [-2, 1, -4, 15, -10], "path": ["0", "0", "23", "24", "25", "26", "27"], "rt": [3895, 277, 117, 346, 235], "actions": ["left", "left", "left", "up", "up"], "actionTimes": [4420, 5210, 5836, 6690, 7432], "queries": {"click": {"state": {"target": ["32"], "time": [1274]}, "edge": {"target": [], "time": []}}, "mouseover": {"state": {"target": ["0", "23", "24", "30", "32"], "time": [632, 768, 833, 1177, 1263]}, "edge": {"target": [], "time": []}}, "mouseout": {"state": {"target": ["23", "0", "23", "24", "30", "32", "31"], "time": [111, 752, 809, 920, 1187, 1280, 9832]}, "edge": {"target": [], "time": []}}}, "displayed_time": "14.53", "trialTime": 16422, "trial_type": "mouselab-mdp", "trial_index": 24, "time_elapsed": 528199, "internal_node_id": "0.0-6.0-1.0-15.0"}}, {"uniqueid": "w31309762:a70360378", "current_trial": 25, "dateTime": 1693565397047, "trialdata": {"revealed_states": [], "clicked_states": ["21"], "num_clicks_accrued": [0, 0, 0, 0, 0, 0, 0, 0, 0, 0, 0, 0, 0], "stateRewards": ["", 2, 3, -1, 16, -78, -11, 46, 2, -20, 79, -67, 2, 3, 2, 11, -83, -42, -58, -11, -67, -22, 55, 2, -1, -1, -16, -83, -82, 23, -11, -29, 13, 13], "withholdReward": false, "trial_id": "mdp_trial_17", "block": "test", "trialIndex": 18, "score": -26.15, "costs": -2.15, "simulationMode": [null, null, null, null, null], "rewards": [2, 3, 2, 11, -42], "path": ["0", "0", "12", "13", "14", "15", "17"], "rt": [4169, 355, 116, 84, 48], "actions": ["right", "right", "right", "up", "right"], "actionTimes": [5271, 6133, 6755, 7347, 7900], "queries": {"click": {"state": {"target": ["21"], "time": [2193]}, "edge": {"target": [], "time": []}}, "mouseover": {"state": {"target": ["18", "15", "15", "20", "21", "20"], "time": [1255, 1511, 1626, 1911, 2132, 2786]}, "edge": {"target": [], "time": []}}, "mouseout": {"state": {"target": ["0", "18", "15", "15", "20", "21", "20"], "time": [1183, 1327, 1522, 1704, 1967, 2717, 2807]}, "edge": {"target": [], "time": []}}}, "displayed_time": "15.10", "trialTime": 16574, "trial_type": "mouselab-mdp", "trial_index": 25, "time_elapsed": 544984, "internal_node_id": "0.0-6.0-1.0-16.0"}}, {"uniqueid": "w31309762:a70360378", "current_trial": 26, "dateTime": 1693565413395, "trialdata": {"revealed_states": [], "clicked_states": ["5"], "num_clicks_accrued": [0, 0, 0, 0, 0, 0, 0, 0, 0, 0, 0, 0, 0], "stateRewards": ["", 1, 2, -3, -6, 50, -7, 7, -7, -80, 21, -1, 2, 2, 4, -1, 33, 84, 1, 14, -53, 81, 6, -2, -2, -3, -9, -87, -38, -59, -5, -74, -3, -71], "withholdReward": false, "trial_id": "mdp_trial_18", "block": "test", "trialIndex": 19, "score": -1.1500000000000004, "costs": -2.15, "simulationMode": [null, null, null, null, null], "rewards": [1, 2, -3, -6, 7], "path": ["0", "0", "1", "2", "3", "4", "7"], "rt": [3490, 24, 434, 404, 327], "actions": ["up", "up", "up", "right", "down"], "actionTimes": [4087, 4619, 5574, 6490, 7321], "queries": {"click": {"state": {"target": ["5"], "time": [1243]}, "edge": {"target": [], "time": []}}, "mouseover": {"state": {"target": ["1", "2", "3", "5"], "time": [727, 808, 904, 1176]}, "edge": {"target": [], "time": []}}, "mouseout": {"state": {"target": ["13", "12", "1", "2", "3", "5"], "time": [95, 359, 776, 880, 952, 12456]}, "edge": {"target": [], "time": []}}}, "displayed_time": "14.60", "trialTime": 16122, "trial_type": "mouselab-mdp", "trial_index": 26, "time_elapsed": 561332, "internal_node_id": "0.0-6.0-1.0-17.0"}}, {"uniqueid": "w31309762:a70360378", "current_trial": 27, "dateTime": 1693565430710, "trialdata": {"revealed_states": [], "clicked_states": ["9"], "num_clicks_accrued": [0, 0, 0, 0, 0, 0, 0, 0, 0, 0, 0, 0, 0], "stateRewards": ["", 1, 2, -3, -5, 66, -50, -47, -5, 1, 28, -27, 1, 1, -1, -6, 37, -25, 56, 1, -82, -66, -40, -1, -4, -7, 15, -61, -23, 26, 10, 14, -56, 29], "withholdReward": false, "trial_id": "mdp_trial_19", "block": "test", "trialIndex": 20, "score": 20.85, "costs": -2.15, "simulationMode": [null, null, null, null, null], "rewards": [1, 2, -3, -5, 28], "path": ["0", "0", "1", "2", "3", "8", "10"], "rt": [4437, 198, 12, 136, 26], "actions": ["up", "up", "up", "left", "down"], "actionTimes": [6150, 6856, 7377, 8029, 8565], "queries": {"click": {"state": {"target": ["9"], "time": [2329]}, "edge": {"target": [], "time": []}}, "mouseover": {"state": {"target": ["1", "10", "9"], "time": [1744, 1782, 2215]}, "edge": {"target": [], "time": []}}, "mouseout": {"state": {"target": ["4", "7", "0", "0", "1", "10", "9", "12"], "time": [541, 822, 1085, 1349, 1751, 1799, 16230, 17022]}, "edge": {"target": [], "time": []}}}, "displayed_time": "15.73", "trialTime": 17083, "trial_type": "mouselab-mdp", "trial_index": 27, "time_elapsed": 578646, "internal_node_id": "0.0-6.0-1.0-18.0"}}, {"uniqueid": "w31309762:a70360378", "current_trial": 28, "dateTime": 1693565448547, "trialdata": {"revealed_states": [], "clicked_states": ["5"], "num_clicks_accrued": [0, 0, 0, 0, 0, 0, 0, 0, 0, 0, 0, 0, 0], "stateRewards": ["", -1, 1, 8, -8, -49, 62, -78, 16, 28, -81, 78, -2, -3, -1, -4, 67, 49, -2, -13, -16, -39, 83, 1, -4, 4, -5, -20, 7, 84, 7, -32, -59, 19], "withholdReward": false, "trial_id": "mdp_trial_20", "block": "test", "trialIndex": 21, "score": 49.85, "costs": -2.15, "simulationMode": [null, null, null, null, null], "rewards": [-1, 1, 8, 16, 28], "path": ["0", "0", "1", "2", "3", "8", "9"], "rt": [3878, 257, 343, 45, 47], "actions": ["up", "up", "up", "left", "up"], "actionTimes": [4840, 5605, 6456, 7009, 7567], "queries": {"click": {"state": {"target": ["5"], "time": [1602]}, "edge": {"target": [], "time": []}}, "mouseover": {"state": {"target": ["1", "2", "5"], "time": [1253, 1280, 1352]}, "edge": {"target": [], "time": []}}, "mouseout": {"state": {"target": ["12", "0", "1", "2", "5"], "time": [732, 1120, 1266, 1290, 16028]}, "edge": {"target": [], "time": []}}}, "displayed_time": "14.97", "trialTime": 17578, "trial_type": "mouselab-mdp", "trial_index": 28, "time_elapsed": 596484, "internal_node_id": "0.0-6.0-1.0-19.0"}}, {"uniqueid": "w31309762:a70360378", "current_trial": 29, "dateTime": 1693565466107, "trialdata": {"revealed_states": [], "clicked_states": ["17"], "num_clicks_accrued": [0, 0, 0, 0, 0, 0, 0, 0, 0, 0, 0, 0, 0], "stateRewards": ["", -1, 3, -4, -14, 78, 67, 2, 13, -32, 28, 39, -2, 1, -4, -4, -4, -42, -86, 11, 64, -29, -32, -1, -4, 2, -7, 5, 68, -61, 2, -21, 85, 50], "withholdReward": false, "trial_id": "mdp_trial_21", "block": "test", "trialIndex": 22, "score": 67.85, "costs": -2.15, "simulationMode": [null, null, null, null, null], "rewards": [-2, 1, -4, 11, 64], "path": ["0", "0", "12", "13", "14", "19", "20"], "rt": [7205, 183, 360, 103, 43], "actions": ["right", "right", "right", "down", "right"], "actionTimes": [7934, 8625, 9498, 10106, 10658], "queries": {"click": {"state": {"target": ["17"], "time": [1868]}, "edge": {"target": [], "time": []}}, "mouseover": {"state": {"target": ["12", "13", "15", "17"], "time": [843, 867, 978, 1802]}, "edge": {"target": [], "time": []}}, "mouseout": {"state": {"target": ["0", "12", "13", "15"], "time": [826, 858, 878, 1731]}, "edge": {"target": [], "time": []}}}, "displayed_time": "14.73", "trialTime": 17317, "trial_type": "mouselab-mdp", "trial_index": 29, "time_elapsed": 614043, "internal_node_id": "0.0-6.0-1.0-20.0"}}, {"uniqueid": "w31309762:a70360378", "current_trial": 30, "dateTime": 1693565482120, "trialdata": {"revealed_states": [], "clicked_states": ["11"], "num_clicks_accrued": [0, 0, 0, 0, 0, 0, 0, 0, 0, 0, 0, 0, 0], "stateRewards": ["", 2, -4, 4, 9, 69, 9, -75, 12, -86, 66, 25, -1, 3, 2, -13, -88, -3, 1, 4, -69, 49, -84, 2, -1, 4, 2, -18, -81, -52, -15, -69, -54, 25], "withholdReward": false, "trial_id": "mdp_trial_22", "block": "test", "trialIndex": 23, "score": 36.85, "costs": -2.15, "simulationMode": [null, null, null, null, null], "rewards": [2, -4, 4, 12, 25], "path": ["0", "0", "1", "2", "3", "8", "11"], "rt": [4743, 215, 482, 59, 126], "actions": ["up", "up", "up", "left", "left"], "actionTimes": [5817, 6541, 7533, 8102, 8739], "queries": {"click": {"state": {"target": ["11"], "time": [2154]}, "edge": {"target": [], "time": []}}, "mouseover": {"state": {"target": ["1", "10", "11", "11", "11"], "time": [1262, 1291, 1311, 1581, 1996]}, "edge": {"target": [], "time": []}}, "mouseout": {"state": {"target": ["17", "15", "18", "0", "1", "10", "11", "11"], "time": [410, 472, 513, 1238, 1270, 1298, 1319, 1602]}, "edge": {"target": [], "time": []}}}, "displayed_time": "15.07", "trialTime": 15746, "trial_type": "mouselab-mdp", "trial_index": 30, "time_elapsed": 630056, "internal_node_id": "0.0-6.0-1.0-21.0"}}, {"uniqueid": "w31309762:a70360378", "current_trial": 31, "dateTime": 1693565498579, "trialdata": {"revealed_states": [], "clicked_states": ["32"], "num_clicks_accrued": [0, 0, 0, 0, 0, 0, 0, 0, 0, 0, 0, 0, 0], "stateRewards": ["", 2, -1, 3, -12, -83, 6, -33, 9, 28, 24, -50, -2, -1, -2, -5, -87, 37, 82, 12, 80, -5, 10, -2, -3, -6, 9, 22, -1, 16, 9, 77, -62, 58], "withholdReward": false, "trial_id": "mdp_trial_23", "block": "test", "trialIndex": 24, "score": 17.85, "costs": -2.15, "simulationMode": [null, null, null, null, null], "rewards": [-2, -3, -6, 9, 22], "path": ["0", "0", "23", "24", "25", "26", "27"], "rt": [4287, 224, 33, 410, 76], "actions": ["left", "left", "left", "up", "up"], "actionTimes": [5960, 6690, 7228, 8146, 8731], "queries": {"click": {"state": {"target": ["32"], "time": [2428]}, "edge": {"target": [], "time": []}}, "mouseover": {"state": {"target": ["23", "24", "25", "32"], "time": [1936, 1961, 2023, 2383]}, "edge": {"target": [], "time": []}}, "mouseout": {"state": {"target": ["11", "0", "23", "24", "25", "32"], "time": [1151, 1928, 1951, 1975, 2143, 2434]}, "edge": {"target": [], "time": []}}}, "displayed_time": "15.69", "trialTime": 16242, "trial_type": "mouselab-mdp", "trial_index": 31, "time_elapsed": 646516, "internal_node_id": "0.0-6.0-1.0-22.0"}}, {"uniqueid": "w31309762:a70360378", "current_trial": 32, "dateTime": 1693565516815, "trialdata": {"revealed_states": [], "clicked_states": ["20"], "num_clicks_accrued": [0, 0, 0, 0, 0, 0, 0, 0, 0, 0, 0, 0, 0], "stateRewards": ["", -2, -4, 2, 10, -17, 18, 73, 11, -32, 23, -13, -2, -4, 7, 12, -25, 66, -23, 15, 40, -76, -9, 1, 2, -7, -5, -20, 24, 3, -5, 16, -73, 70], "withholdReward": false, "trial_id": "mdp_trial_24", "block": "test", "trialIndex": 25, "score": 53.85, "costs": -2.15, "simulationMode": [null, null, null, null, null], "rewards": [-2, -4, 7, 15, 40], "path": ["0", "0", "12", "13", "14", "19", "20"], "rt": [4512, 143, 144, 110, 33], "actions": ["right", "right", "right", "down", "right"], "actionTimes": [5959, 6609, 7261, 7880, 8420], "queries": {"click": {"state": {"target": ["20"], "time": [2420]}, "edge": {"target": [], "time": []}}, "mouseover": {"state": {"target": ["12", "13", "14", "20", "13", "12", "0"], "time": [1889, 1913, 2017, 2337, 2656, 2713, 3907]}, "edge": {"target": [], "time": []}}, "mouseout": {"state": {"target": ["31", "0", "12", "13", "14", "20", "13", "12", "0"], "time": [1141, 1865, 1898, 1977, 2089, 2575, 2671, 3773, 3923]}, "edge": {"target": [], "time": []}}}, "displayed_time": "15.45", "trialTime": 18000, "trial_type": "mouselab-mdp", "trial_index": 32, "time_elapsed": 664752, "internal_node_id": "0.0-6.0-1.0-23.0"}}, {"uniqueid": "w31309762:a70360378", "current_trial": 33, "dateTime": 1693565532834, "trialdata": {"revealed_states": [], "clicked_states": [], "num_clicks_accrued": [0, 0, 0, 0, 0, 0, 0, 0, 0, 0, 0, 0, 0], "stateRewards": ["", 1, 3, -2, 15, 51, 15, -19, 11, 67, -45, -73, 2, 4, -2, -13, 36, 9, -28, 10, -30, 31, 16, 1, 2, -1, -16, 14, -22, 36, -1, 88, -5, 45], "withholdReward": false, "trial_id": "mdp_trial_25", "block": "test", "trialIndex": 26, "score": 22, "costs": 0, "simulationMode": [null, null, null, null, null], "rewards": [1, 2, -1, -16, 36], "path": ["0", "0", "23", "24", "25", "26", "29"], "rt": [5023, 28, 56, 248, 275], "actions": ["left", "left", "left", "up", "left"], "actionTimes": [5668, 6204, 6771, 7527, 8310], "queries": {"click": {"state": {"target": [], "time": []}, "edge": {"target": [], "time": []}}, "mouseover": {"state": {"target": ["0", "23", "24", "31", "30", "32", "31", "23", "0"], "time": [954, 2240, 2926, 2981, 3624, 3904, 4245, 4259, 4785]}, "edge": {"target": [], "time": []}}, "mouseout": {"state": {"target": ["0", "0", "23", "24", "31", "30", "32", "31", "23"], "time": [489, 2150, 2892, 2941, 2996, 3849, 4238, 4252, 4279]}, "edge": {"target": [], "time": []}}}, "displayed_time": "14.64", "trialTime": 15762, "trial_type": "mouselab-mdp", "trial_index": 33, "time_elapsed": 680771, "internal_node_id": "0.0-6.0-1.0-24.0"}}, {"uniqueid": "w31309762:a70360378", "current_trial": 34, "dateTime": 1693565547930, "trialdata": {"revealed_states": [], "clicked_states": ["29"], "num_clicks_accrued": [0, 0, 0, 0, 0, 0, 0, 0, 0, 0, 0, 0, 0], "stateRewards": ["", 1, -1, -7, -7, -22, 15, -13, 13, 26, -32, 38, -1, 1, -7, -4, 16, -62, 86, 12, -54, 56, 64, -2, -1, 6, 14, -57, 37, 62, -6, -25, 50, -70], "withholdReward": false, "trial_id": "mdp_trial_26", "block": "test", "trialIndex": 27, "score": 76.85, "costs": -2.15, "simulationMode": [null, null, null, null, null], "rewards": [-2, -1, 6, 14, 62], "path": ["0", "0", "23", "24", "25", "26", "29"], "rt": [6055, 265, 20, 249, 20], "actions": ["left", "left", "left", "up", "left"], "actionTimes": [6433, 7211, 7737, 8500, 9029], "queries": {"click": {"state": {"target": ["29"], "time": [1143]}, "edge": {"target": [], "time": []}}, "mouseover": {"state": {"target": ["26", "29", "26", "28", "23", "0"], "time": [724, 972, 1331, 1347, 1363, 1385]}, "edge": {"target": [], "time": []}}, "mouseout": {"state": {"target": ["0", "26", "29", "26", "28", "23", "0", "23", "24"], "time": [668, 735, 1305, 1339, 1355, 1371, 14672, 14757, 14839]}, "edge": {"target": [], "time": []}}}, "displayed_time": "14.39", "trialTime": 14862, "trial_type": "mouselab-mdp", "trial_index": 34, "time_elapsed": 695867, "internal_node_id": "0.0-6.0-1.0-25.0"}}, {"uniqueid": "w31309762:a70360378", "current_trial": 35, "dateTime": 1693565564467, "trialdata": {"revealed_states": [], "clicked_states": ["29"], "num_clicks_accrued": [0, 0, 0, 0, 0, 0, 0, 0, 0, 0, 0, 0, 0], "stateRewards": ["", -1, 1, -5, -6, -78, 47, -13, 12, 48, -88, 20, 2, -3, -2, 13, -20, 37, -57, 14, -38, 30, 31, -2, -2, 8, 2, -23, 78, 28, 12, -74, -88, 8], "withholdReward": false, "trial_id": "mdp_trial_27", "block": "test", "trialIndex": 28, "score": 31.85, "costs": -2.15, "simulationMode": [null, null, null, null, null], "rewards": [-2, -2, 8, 2, 28], "path": ["0", "0", "23", "24", "25", "26", "29"], "rt": [4829, 14, 303, 66, 67], "actions": ["left", "left", "left", "up", "left"], "actionTimes": [6329, 6850, 7657, 8232, 8809], "queries": {"click": {"state": {"target": ["29"], "time": [2636]}, "edge": {"target": [], "time": []}}, "mouseover": {"state": {"target": ["23", "26", "29", "29", "23"], "time": [1651, 1706, 1721, 2509, 5881]}, "edge": {"target": [], "time": []}}, "mouseout": {"state": {"target": ["29", "26", "28", "23", "26", "29", "29", "23"], "time": [943, 969, 992, 1663, 1720, 1753, 5394, 5895]}, "edge": {"target": [], "time": []}}}, "displayed_time": "15.50", "trialTime": 16302, "trial_type": "mouselab-mdp", "trial_index": 35, "time_elapsed": 712404, "internal_node_id": "0.0-6.0-1.0-26.0"}}, {"uniqueid": "w31309762:a70360378", "current_trial": 36, "dateTime": 1693565581389, "trialdata": {"revealed_states": [], "clicked_states": ["29"], "num_clicks_accrued": [0, 0, 0, 0, 0, 0, 0, 0, 0, 0, 0, 0, 0], "stateRewards": ["", 1, 2, -8, 9, 18, -83, -11, 6, -64, -48, 17, -2, -2, -5, -3, -24, -3, -86, -2, 48, -41, -22, -2, 4, 7, 8, 81, 13, -48, 10, 61, 19, 57], "withholdReward": false, "trial_id": "mdp_trial_28", "block": "test", "trialIndex": 29, "score": 73.85, "costs": -2.15, "simulationMode": [null, null, null, null, null], "rewards": [-2, 4, 7, 10, 57], "path": ["0", "0", "23", "24", "25", "30", "33"], "rt": [5231, 193, 304, 103, 58], "actions": ["left", "left", "left", "down", "left"], "actionTimes": [6246, 6949, 7761, 8372, 8945], "queries": {"click": {"state": {"target": ["29"], "time": [1835]}, "edge": {"target": [], "time": []}}, "mouseover": {"state": {"target": ["23", "29", "22", "12", "0"], "time": [1027, 1594, 2110, 2452, 2795]}, "edge": {"target": [], "time": []}}, "mouseout": {"state": {"target": ["0", "23", "23", "0", "23", "29", "22", "12", "0", "12"], "time": [216, 247, 456, 1023, 1050, 2067, 2316, 2495, 16144, 16200]}, "edge": {"target": [], "time": []}}}, "displayed_time": "15.02", "trialTime": 16621, "trial_type": "mouselab-mdp", "trial_index": 36, "time_elapsed": 729325, "internal_node_id": "0.0-6.0-1.0-27.0"}}, {"uniqueid": "w31309762:a70360378", "current_trial": 37, "dateTime": 1693565596517, "trialdata": {"revealed_states": [], "clicked_states": ["29"], "num_clicks_accrued": [0, 0, 0, 0, 0, 0, 0, 0, 0, 0, 0, 0, 0], "stateRewards": ["", -1, 2, -2, 5, 80, -61, -27, 12, 44, -26, -75, -2, -4, 1, -16, 42, -49, -50, 4, -44, 2, 80, -2, -2, 5, -2, 59, 10, 24, 7, -48, -86, -44], "withholdReward": false, "trial_id": "mdp_trial_29", "block": "test", "trialIndex": 30, "score": 20.85, "costs": -2.15, "simulationMode": [null, null, null, null, null], "rewards": [-2, -2, 5, -2, 24], "path": ["0", "0", "23", "24", "25", "26", "29"], "rt": [4674, 41, 257, 51, 350], "actions": ["left", "left", "left", "up", "left"], "actionTimes": [5161, 5709, 6474, 7032, 7892], "queries": {"click": {"state": {"target": ["29"], "time": [1056]}, "edge": {"target": [], "time": []}}, "mouseover": {"state": {"target": ["23", "24", "25", "29"], "time": [534, 581, 622, 956]}, "edge": {"target": [], "time": []}}, "mouseout": {"state": {"target": ["0", "23", "24", "25"], "time": [511, 564, 604, 853]}, "edge": {"target": [], "time": []}}}, "displayed_time": "14.49", "trialTime": 14817, "trial_type": "mouselab-mdp", "trial_index": 37, "time_elapsed": 744453, "internal_node_id": "0.0-6.0-1.0-28.0"}}, {"uniqueid": "w31309762:a70360378", "current_trial": 38, "dateTime": 1693565612761, "trialdata": {"revealed_states": [], "clicked_states": ["33"], "num_clicks_accrued": [0, 0, 0, 0, 0, 0, 0, 0, 0, 0, 0, 0, 0], "stateRewards": ["", 2, 4, -3, 16, -58, 30, -35, 11, -60, 47, 27, -2, -1, -7, -16, 23, -70, 68, -10, -65, -43, -34, -2, 1, 7, 9, -63, 34, -31, -8, -12, -86, 59], "withholdReward": false, "trial_id": "mdp_trial_30", "block": "test", "trialIndex": 31, "score": 54.85, "costs": -2.15, "simulationMode": [null, null, null, null, null], "rewards": [-2, 1, 7, -8, 59], "path": ["0", "0", "23", "24", "25", "30", "33"], "rt": [3608, 90, 87, 144, 4], "actions": ["left", "left", "left", "down", "left"], "actionTimes": [5263, 5862, 6454, 7109, 7619], "queries": {"click": {"state": {"target": ["33"], "time": [2134]}, "edge": {"target": [], "time": []}}, "mouseover": {"state": {"target": ["23", "24", "25", "33"], "time": [1708, 1724, 1744, 1987]}, "edge": {"target": [], "time": []}}, "mouseout": {"state": {"target": ["29", "26", "24", "0", "23", "24", "25", "33", "23", "0", "0", "1"], "time": [1123, 1163, 1188, 1695, 1723, 1732, 1751, 2841, 8547, 8797, 13867, 14379]}, "edge": {"target": [], "time": []}}}, "displayed_time": "15.66", "trialTime": 16004, "trial_type": "mouselab-mdp", "trial_index": 38, "time_elapsed": 760697, "internal_node_id": "0.0-6.0-1.0-29.0"}}, {"uniqueid": "w31309762:a70360378", "current_trial": 39, "dateTime": 1693565631558, "trialdata": {"revealed_states": [], "clicked_states": ["29"], "num_clicks_accrued": [0, 0, 0, 0, 0, 0, 0, 0, 0, 0, 0, 0, 0], "stateRewards": ["", 1, 1, 6, -14, -40, 37, 16, -13, 33, -68, 49, 2, 4, 3, 6, 55, 27, 32, 10, -65, 20, -87, 2, 1, -6, -5, -42, 12, 29, -8, 16, 76, -33], "withholdReward": false, "trial_id": "mdp_trial_31", "block": "test", "trialIndex": 32, "score": 18.85, "costs": -2.15, "simulationMode": [null, null, null, null, null], "rewards": [2, 1, -6, -5, 29], "path": ["0", "0", "23", "24", "25", "26", "29"], "rt": [4978, 157, 71, 47, 10], "actions": ["left", "left", "left", "up", "left"], "actionTimes": [5368, 6042, 6622, 7173, 7693], "queries": {"click": {"state": {"target": ["29"], "time": [1589]}, "edge": {"target": [], "time": []}}, "mouseover": {"state": {"target": ["23", "24", "30", "33", "29", "26", "24"], "time": [467, 492, 690, 723, 1407, 4286, 4317]}, "edge": {"target": [], "time": []}}, "mouseout": {"state": {"target": ["0", "23", "24", "30", "33", "29", "26", "24"], "time": [458, 486, 506, 706, 1051, 4278, 4294, 4368]}, "edge": {"target": [], "time": []}}}, "displayed_time": "14.39", "trialTime": 18544, "trial_type": "mouselab-mdp", "trial_index": 39, "time_elapsed": 779495, "internal_node_id": "0.0-6.0-1.0-30.0"}}, {"uniqueid": "w31309762:a70360378", "current_trial": 40, "dateTime": 1693565647570, "trialdata": {"revealed_states": [], "clicked_states": [], "num_clicks_accrued": [0, 0, 0, 0, 0, 0, 0, 0, 0, 0, 0, 0, 0], "stateRewards": ["", 1, 4, -8, -5, -15, -7, 21, 13, -30, 40, -65, 1, 1, 5, -14, 35, 27, -38, -11, 36, -58, -47, -2, 4, -3, 13, -16, -49, 22, 15, -56, -44, -10], "withholdReward": false, "trial_id": "mdp_trial_32", "block": "test", "trialIndex": 33, "score": 4, "costs": 0, "simulationMode": [null, null, null, null, null], "rewards": [-2, 4, -3, 15, -10], "path": ["0", "0", "23", "24", "25", "30", "33"], "rt": [3158, 62, 6, 129, 378], "actions": ["left", "left", "left", "down", "left"], "actionTimes": [4042, 4608, 5126, 5764, 6653], "queries": {"click": {"state": {"target": [], "time": []}, "edge": {"target": [], "time": []}}, "mouseover": {"state": {"target": [], "time": []}, "edge": {"target": [], "time": []}}, "mouseout": {"state": {"target": ["0"], "time": [1252]}, "edge": {"target": [], "time": []}}}, "displayed_time": "14.88", "trialTime": 15764, "trial_type": "mouselab-mdp", "trial_index": 40, "time_elapsed": 795506, "internal_node_id": "0.0-6.0-1.0-31.0"}}, {"uniqueid": "w31309762:a70360378", "current_trial": 41, "dateTime": 1693565664097, "trialdata": {"revealed_states": [], "clicked_states": [], "num_clicks_accrued": [0, 0, 0, 0, 0, 0, 0, 0, 0, 0, 0, 0, 0], "stateRewards": ["", 2, 3, -2, -8, -8, -41, 74, 15, -23, -80, 1, 1, 3, 3, -15, -63, -78, 67, 13, 75, -41, 86, 2, -2, 6, -3, -8, -49, 50, -6, 83, 74, 80], "withholdReward": false, "trial_id": "mdp_trial_33", "block": "test", "trialIndex": 34, "score": 53, "costs": 0, "simulationMode": [null, null, null, null, null], "rewards": [2, -2, 6, -3, 50], "path": ["0", "0", "23", "24", "25", "26", "29"], "rt": [170, 48, 151, 458, 46], "actions": ["left", "left", "left", "up", "left"], "actionTimes": [1450, 2004, 2668, 3639, 4201], "queries": {"click": {"state": {"target": [], "time": []}, "edge": {"target": [], "time": []}}, "mouseover": {"state": {"target": [], "time": []}, "edge": {"target": [], "time": []}}, "mouseout": {"state": {"target": ["0"], "time": [820]}, "edge": {"target": [], "time": []}}}, "displayed_time": "15.28", "trialTime": 16270, "trial_type": "mouselab-mdp", "trial_index": 41, "time_elapsed": 812034, "internal_node_id": "0.0-6.0-1.0-32.0"}}, {"uniqueid": "w31309762:a70360378", "current_trial": 42, "dateTime": 1693565679789, "trialdata": {"revealed_states": [], "clicked_states": [], "num_clicks_accrued": [0, 0, 0, 0, 0, 0, 0, 0, 0, 0, 0, 0, 0], "stateRewards": ["", -2, 3, 8, -9, 59, 41, -50, -1, 82, 66, 33, 2, -2, 7, 8, 1, -38, 12, -16, 24, -37, 67, 1, 4, -2, 5, 35, -83, 28, 8, -27, 69, -64], "withholdReward": false, "trial_id": "mdp_trial_34", "block": "test", "trialIndex": 35, "score": 36, "costs": 0, "simulationMode": [null, null, null, null, null], "rewards": [1, 4, -2, 5, 28], "path": ["0", "0", "23", "24", "25", "26", "29"], "rt": [150, 23, 64, 122, 148], "actions": ["left", "left", "left", "up", "left"], "actionTimes": [833, 1366, 1942, 2582, 3240], "queries": {"click": {"state": {"target": [], "time": []}, "edge": {"target": [], "time": []}}, "mouseover": {"state": {"target": [], "time": []}, "edge": {"target": [], "time": []}}, "mouseout": {"state": {"target": [], "time": []}, "edge": {"target": [], "time": []}}}, "displayed_time": "14.69", "trialTime": 15421, "trial_type": "mouselab-mdp", "trial_index": 42, "time_elapsed": 827725, "internal_node_id": "0.0-6.0-1.0-33.0"}}, {"uniqueid": "w31309762:a70360378", "current_trial": 43, "dateTime": 1693565695619, "trialdata": {"revealed_states": [], "clicked_states": [], "num_clicks_accrued": [0, 0, 0, 0, 0, 0, 0, 0, 0, 0, 0, 0, 0], "stateRewards": ["", -2, -3, 1, -7, 39, -67, 16, 5, -20, 73, 66, -1, 4, 5, -3, 23, -68, -87, -8, 3, -3, 17, 1, -4, -2, -13, -32, 34, 61, -5, -11, -18, 12], "withholdReward": false, "trial_id": "mdp_trial_35", "block": "test", "trialIndex": 36, "score": 2, "costs": 0, "simulationMode": [null, null, null, null, null], "rewards": [1, -4, -2, -5, 12], "path": ["0", "0", "23", "24", "25", "30", "33"], "rt": [259, 4, 130, 74, 57], "actions": ["left", "left", "left", "down", "left"], "actionTimes": [785, 1297, 1944, 2529, 3097], "queries": {"click": {"state": {"target": [], "time": []}, "edge": {"target": [], "time": []}}, "mouseover": {"state": {"target": [], "time": []}, "edge": {"target": [], "time": []}}, "mouseout": {"state": {"target": [], "time": []}, "edge": {"target": [], "time": []}}}, "displayed_time": "14.53", "trialTime": 15549, "trial_type": "mouselab-mdp", "trial_index": 43, "time_elapsed": 843555, "internal_node_id": "0.0-6.0-1.0-34.0"}}, {"uniqueid": "w31309762:a70360378", "current_trial": 44, "dateTime": 1693565711522, "trialdata": {"revealed_states": [], "clicked_states": [], "num_clicks_accrued": [0, 0, 0, 0, 0, 0, 0, 0, 0, 0, 0, 0, 0], "stateRewards": ["", 2, 3, 3, 10, 19, -21, 6, 9, 54, 68, 16, 2, 2, -6, -8, 40, -2, -75, -2, -42, 55, 59, -1, 2, 4, -14, 11, -34, -30, -6, 61, -53, 13], "withholdReward": false, "trial_id": "mdp_trial_36", "block": "test", "trialIndex": 37, "score": 12, "costs": 0, "simulationMode": [null, null, null, null, null], "rewards": [-1, 2, 4, -6, 13], "path": ["0", "0", "23", "24", "25", "30", "33"], "rt": [319, 193, 581, 111, 106], "actions": ["left", "left", "left", "down", "left"], "actionTimes": [954, 1653, 2750, 3369, 3981], "queries": {"click": {"state": {"target": [], "time": []}, "edge": {"target": [], "time": []}}, "mouseover": {"state": {"target": [], "time": []}, "edge": {"target": [], "time": []}}, "mouseout": {"state": {"target": [], "time": []}, "edge": {"target": [], "time": []}}}, "displayed_time": "14.64", "trialTime": 15609, "trial_type": "mouselab-mdp", "trial_index": 44, "time_elapsed": 859458, "internal_node_id": "0.0-6.0-1.0-35.0"}}, {"uniqueid": "w31309762:a70360378", "current_trial": 45, "dateTime": 1693565727526, "trialdata": {"revealed_states": [], "clicked_states": [], "num_clicks_accrued": [0, 0, 0, 0, 0, 0, 0, 0, 0, 0, 0, 0, 0], "stateRewards": ["", -2, -1, -3, -1, -78, -6, 2, -1, 22, -88, 32, 2, 2, -7, -8, -51, -17, 54, 2, -44, 54, 75, 2, -2, -8, -15, -29, 12, -67, 15, -1, -47, -47], "withholdReward": false, "trial_id": "mdp_trial_37", "block": "test", "trialIndex": 38, "score": -90, "costs": 0, "simulationMode": [null, null, null, null, null], "rewards": [2, -2, -8, -15, -67], "path": ["0", "0", "23", "24", "25", "26", "29"], "rt": [391, 351, 55, 500, 148], "actions": ["left", "left", "left", "up", "left"], "actionTimes": [931, 1790, 2355, 3362, 4022], "queries": {"click": {"state": {"target": [], "time": []}, "edge": {"target": [], "time": []}}, "mouseover": {"state": {"target": [], "time": []}, "edge": {"target": [], "time": []}}, "mouseout": {"state": {"target": [], "time": []}, "edge": {"target": [], "time": []}}}, "displayed_time": "14.54", "trialTime": 15719, "trial_type": "mouselab-mdp", "trial_index": 45, "time_elapsed": 875463, "internal_node_id": "0.0-6.0-1.0-36.0"}}, {"uniqueid": "w31309762:a70360378", "current_trial": 46, "dateTime": 1693565743027, "trialdata": {"revealed_states": [], "clicked_states": [], "num_clicks_accrued": [0, 0, 0, 0, 0, 0, 0, 0, 0, 0, 0, 0, 0], "stateRewards": ["", -1, -3, -5, -14, -13, -47, 79, 8, -60, -64, 41, -1, 2, 3, 13, -46, 61, -79, -11, -64, -65, 23, 1, -2, 6, -14, 46, 32, 21, 7, 75, -66, 15], "withholdReward": false, "trial_id": "mdp_trial_38", "block": "test", "trialIndex": 39, "score": 27, "costs": 0, "simulationMode": [null, null, null, null, null], "rewards": [1, -2, 6, 7, 15], "path": ["0", "0", "23", "24", "25", "30", "33"], "rt": [249, 462, 91, 53, 530], "actions": ["left", "left", "left", "down", "left"], "actionTimes": [735, 1702, 2307, 2868, 3912], "queries": {"click": {"state": {"target": [], "time": []}, "edge": {"target": [], "time": []}}, "mouseover": {"state": {"target": [], "time": []}, "edge": {"target": [], "time": []}}, "mouseout": {"state": {"target": [], "time": []}, "edge": {"target": [], "time": []}}}, "displayed_time": "14.49", "trialTime": 15220, "trial_type": "mouselab-mdp", "trial_index": 46, "time_elapsed": 890964, "internal_node_id": "0.0-6.0-1.0-37.0"}}, {"uniqueid": "w31309762:a70360378", "current_trial": 47, "dateTime": 1693565758753, "trialdata": {"revealed_states": [], "clicked_states": [], "num_clicks_accrued": [0, 0, 0, 0, 0, 0, 0, 0, 0, 0, 0, 0, 0], "stateRewards": ["", -2, -4, 4, -11, -63, -60, -7, 2, -14, 81, -43, -1, -1, -5, 7, 10, 69, 40, 8, -83, 52, 60, 1, 2, 5, -5, 16, 64, 14, -3, 29, 7, -51], "withholdReward": false, "trial_id": "mdp_trial_39", "block": "test", "trialIndex": 40, "score": 12, "costs": 0, "simulationMode": [null, null, null, null, null], "rewards": [1, 2, 5, -3, 7], "path": ["0", "0", "23", "24", "25", "30", "32"], "rt": [101, 169, 1800, 61, 1454], "actions": ["left", "left", "left", "down", "down"], "actionTimes": [975, 1655, 3962, 4538, 6504], "queries": {"click": {"state": {"target": [], "time": []}, "edge": {"target": [], "time": []}}, "mouseover": {"state": {"target": [], "time": []}, "edge": {"target": [], "time": []}}, "mouseout": {"state": {"target": [], "time": []}, "edge": {"target": [], "time": []}}}, "displayed_time": "14.88", "trialTime": 15457, "trial_type": "mouselab-mdp", "trial_index": 47, "time_elapsed": 906689, "internal_node_id": "0.0-6.0-1.0-38.0"}}, {"uniqueid": "w31309762:a70360378", "current_trial": 48, "dateTime": 1693565774702, "trialdata": {"revealed_states": [], "clicked_states": [], "num_clicks_accrued": [0, 0, 0, 0, 0, 0, 0, 0, 0, 0, 0, 0, 0], "stateRewards": ["", -1, 3, 2, 9, 41, 4, -46, -12, -54, -87, -25, 2, 3, -1, 11, -77, 12, -33, -9, -32, 35, 72, 1, 3, -7, 4, 37, 65, -73, 6, 77, -43, 8], "withholdReward": false, "trial_id": "mdp_trial_40", "block": "test", "trialIndex": 41, "score": -72, "costs": 0, "simulationMode": [null, null, null, null, null], "rewards": [1, 3, -7, 4, -73], "path": ["0", "0", "23", "24", "25", "26", "29"], "rt": [1215, 174, 128, 131, 48], "actions": ["left", "left", "left", "up", "left"], "actionTimes": [1900, 2584, 3216, 3857, 4416], "queries": {"click": {"state": {"target": [], "time": []}, "edge": {"target": [], "time": []}}, "mouseover": {"state": {"target": [], "time": []}, "edge": {"target": [], "time": []}}, "mouseout": {"state": {"target": [], "time": []}, "edge": {"target": [], "time": []}}}, "displayed_time": "14.69", "trialTime": 15672, "trial_type": "mouselab-mdp", "trial_index": 48, "time_elapsed": 922638, "internal_node_id": "0.0-6.0-1.0-39.0"}}, {"uniqueid": "w31309762:a70360378", "current_trial": 49, "dateTime": 1693565818544, "trialdata": {"rt": 43835, "response": {"Q0": "$-2 to $2", "Q1": "$-16 to $16", "Q2": "$-32 to $32", "Q3": "The cost for clicking on nodes varied between nodes.", "Q4": "Slightly motivated"}, "question_order": [0, 1, 2, 3, 4], "trial_id": "final_quiz_control", "trial_type": "survey-multi-choice", "trial_index": 49, "time_elapsed": 966481, "internal_node_id": "0.0-6.0-2.0"}}, {"uniqueid": "w31309762:a70360378", "current_trial": 50, "dateTime": 1693566106959, "trialdata": {"rt": 288405, "response": {"Q0": "I was initially testing to see if there was any correlation between distance from the centre to cash prize availability. Once I did that I then rotated between two or three end nodes as I thought I noticed a pattern where they paid out fairly regularly in proportion to negative payments they put out. Towards the end of the game I started employing this strategy without inspecting so I could maximise the money I would take.", "Q1": "I thought I was developing a strategy based on perceived patterns I thought I was noticing, but in the last few turns I wish I'd reverted to inspecting prior to moving as I don't think the risk-reward ratio was worth it.", "Q2": "I found it difficult as it was hard to judge whether the strategies I tested was based on real results or perceived patterns I noticed that weren't actually there. A trial and error approach, that I was using, was therefore difficult to measure based on the outcomes."}, "trial_id": "self_report_control", "trial_type": "survey-text", "trial_index": 50, "time_elapsed": 1254896, "internal_node_id": "0.0-6.0-3.0"}}, {"uniqueid": "w31309762:a70360378", "current_trial": 51, "dateTime": 1693566138086, "trialdata": {"rt": 31125, "response": {"Q0": "Strongly disagree", "Q1": "Neither disagree nor agree", "Q2": "Neither disagree nor agree", "Q3": "Neither disagree nor agree", "Q4": "Neither disagree nor agree", "Q5": "Agree", "Q6": "Disagree"}, "question_order": [0, 1, 2, 3, 4, 5, 6], "trial_id": "self_report_2", "trial_type": "survey-multi-choice", "trial_index": 51, "time_elapsed": 1286023, "internal_node_id": "0.0-6.0-4.0"}}, {"uniqueid": "w31309762:a70360378", "current_trial": 52, "dateTime": 1693566158151, "trialdata": {"rt": 20060, "response": {"gender": "male", "age": "29", "colorblind": "0", "effort": "1"}, "trial_type": "survey-html-form", "trial_index": 52, "time_elapsed": 1306088, "internal_node_id": "0.0-6.0-5.0"}}, {"uniqueid": "w31309762:a70360378", "current_trial": 53, "dateTime": 1693566222248, "trialdata": {"rt": 64093, "response": {"Q0": "It took me some time to understand the game from reading the rules prior, I think a demonstration video would have been helpful as well. The practice games were useful. ", "Q1": "I have not already participated.", "Q2": ""}, "trial_type": "survey-text", "trial_index": 53, "time_elapsed": 1370185, "internal_node_id": "0.0-6.0-6.0"}}, {"uniqueid": "w31309762:a70360378", "current_trial": 54, "dateTime": 1693566254198, "trialdata": {"rt": 31947, "stimulus": "<h1>Completion Code Instructions (1/2)</h1>\n<br><br><br><br>\nYou have reached the end of the experiment! The completion code consists of two parts: (1) a code with 2 characters (2) a code with 6 characters. On this page, you will receive the second part of the code. The first part of the completion code will be on the next page.\n<br><br>\nThe second part of your completion code is: <b>EWEK22</b>\n<br><br>\nPlease note this down. Then, press 'Finish HIT' in order to find the first part of your completion code. Once the data has been saved, you will receive this code either in this window or in the original browser window where you started the experiment.\n", "response": 0, "trial_type": "html-button-response", "trial_index": 54, "time_elapsed": 1402135, "internal_node_id": "0.0-6.0-7.0"}}, {"uniqueid": "w31309762:a70360378", "current_trial": 55, "dateTime": 1693566255201, "trialdata": {"success": true, "trial_type": "fullscreen", "trial_index": 55, "time_elapsed": 1403138, "internal_node_id": "0.0-7.0"}}], "questiondata": {"params": {"CODE": "C6DMOQA6", "MIN_TIME": 14, "inspectCost": 1, "startTime": "Fri Sep 01 2023 11:40:51 GMT+0100 (British Summer Time)", "bonusRate": 0.002, "variance": "1_2_4_8_44", "branching": "31123"}, "final_score": 857.5}, "eventdata": [{"eventtype": "initialized", "value": null, "timestamp": 1693564850874, "interval": 0}, {"eventtype": "window_resize", "value": [1028, 744], "timestamp": 1693564850874, "interval": 0}, {"eventtype": "window_resize", "value": [1028, 744], "timestamp": 1693564851188, "interval": 314}, {"eventtype": "window_resize", "value": [1536, 864], "timestamp": 1693564854204, "interval": 3016}, {"eventtype": "window_resize", "value": [1028, 744], "timestamp": 1693566254427, "interval": 1400223}], "useragent": "Mozilla/5.0 (Windows NT 10.0; Win64; x64) AppleWebKit/537.36 (KHTML, like Gecko) Chrome/116.0.0.0 Safari/537.36", "mode": "live", "id": "w31309762:a70360378", "status": "user data saved", "Beginhit": "2023-09-01 10:40:49.98231", "Beginexp": "2023-09-01 10:40:55.303482", "Endhit": "2023-09-01 11:04:15.945951", "psiturkStatus": 3, "browser": "<redacted>", "platform": "windows", "language": "en"}