{"condition": 1, "counterbalance": 0, "assignmentId": "a84189791", "workerId": "w56521607", "hitId": "h79839445", "currenttrial": 56, "bonus": 0, "data": [{"uniqueid": "w56521607:a84189791", "current_trial": 0, "dateTime": 1693395965437, "trialdata": {"success": true, "trial_type": "fullscreen", "trial_index": 0, "time_elapsed": 4519, "internal_node_id": "0.0-0.0"}}, {"uniqueid": "w56521607:a84189791", "current_trial": 1, "dateTime": 1693395978330, "trialdata": {"view_history": [{"page_index": 0, "viewing_time": 12890}], "rt": 12891, "trial_id": "exp_instructions_misaligned", "trial_type": "instructions", "trial_index": 1, "time_elapsed": 17412, "internal_node_id": "0.0-1.0"}}, {"uniqueid": "w56521607:a84189791", "current_trial": 2, "dateTime": 1693396100803, "trialdata": {"view_history": [{"page_index": 0, "viewing_time": 46522}, {"page_index": 1, "viewing_time": 43669}, {"page_index": 2, "viewing_time": 17108}, {"page_index": 3, "viewing_time": 15172}], "rt": 122472, "trial_id": "mouselab_instructions_1_misaligned", "trial_type": "instructions", "trial_index": 2, "time_elapsed": 139885, "internal_node_id": "0.0-2.0-1.0"}}, {"uniqueid": "w56521607:a84189791", "current_trial": 3, "dateTime": 1693396117225, "trialdata": {"revealed_states": [], "clicked_states": ["26", "19", "15", "17"], "num_clicks_accrued": [0, 0, 0, 0, 0, 0, 0, 0, 0, 0, 0, 0, 0], "stateRewards": ["", -10, -10, -10, -10, -10, -10, 10, -10, 10, -10, 10, -10, -10, -10, 10, -10, 10, -10, -10, 10, -10, -10, 10, 10, -10, -10, -10, -10, -10, 10, -10, -10, 10], "withholdReward": false, "trial_id": "practice_1", "block": "test", "trialIndex": 0, "score": -8.5, "costs": -2, "simulationMode": [null, null, null, null, null], "rewards": [-10, -10, -10, 10, 10], "path": ["0", "0", "12", "13", "14", "15", "17"], "rt": [8288, 264, 121, 96, 40], "actions": ["right", "right", "right", "up", "right"], "actionTimes": [9981, 10764, 11388, 11980, 12524], "queries": {"click": {"state": {"target": ["26", "19", "15", "17"], "time": [3547, 5240, 6515, 8557]}, "edge": {"target": [], "time": []}}, "mouseover": {"state": {"target": ["26", "28", "25", "30", "31", "22", "19", "15", "18", "14", "17"], "time": [3365, 3916, 4382, 4706, 4816, 4899, 5066, 6349, 7449, 7816, 8332]}, "edge": {"target": [], "time": []}}, "mouseout": {"state": {"target": ["0", "26", "28", "25", "30", "31", "22", "19", "15", "18", "14", "17", "17", "18", "18", "13", "22"], "time": [1565, 3899, 4350, 4416, 4799, 4835, 4916, 5933, 6999, 7782, 8282, 8646, 8833, 13868, 14133, 14183, 14650]}, "edge": {"target": [], "time": []}}}, "displayed_time": "13.02", "trialTime": 16140, "trial_type": "mouselab-mdp", "trial_index": 3, "time_elapsed": 156307, "internal_node_id": "0.0-2.0-2.0-0.0"}}, {"uniqueid": "w56521607:a84189791", "current_trial": 4, "dateTime": 1693396131481, "trialdata": {"revealed_states": [], "clicked_states": ["23", "2", "5", "14"], "num_clicks_accrued": [0, 0, 0, 0, 0, 0, 0, 0, 0, 0, 0, 0, 0], "stateRewards": ["", -10, -10, 10, 10, -10, 10, -10, -10, 10, -10, 10, -10, 10, 10, 10, 10, -10, 10, -10, -10, -10, -10, -10, 10, 10, -10, 10, 10, 10, -10, 10, -10, 10], "withholdReward": false, "trial_id": "practice_2", "block": "test", "trialIndex": 1, "score": -8.5, "costs": -2, "simulationMode": [null, null, null, null, null], "rewards": [-10, 10, 10, -10, -10], "path": ["0", "0", "12", "13", "14", "19", "21"], "rt": [7901, 358, 187, 81, 53], "actions": ["right", "right", "right", "down", "down"], "actionTimes": [9147, 10003, 10682, 11258, 11815], "queries": {"click": {"state": {"target": ["23", "2", "5", "14"], "time": [2026, 3870, 5596, 7801]}, "edge": {"target": [], "time": []}}, "mouseover": {"state": {"target": ["23", "0", "1", "2", "2", "7", "4", "5", "4", "18", "14", "19"], "time": [1900, 2543, 2810, 2944, 3202, 5193, 5344, 5544, 5828, 7326, 7626, 7993]}, "edge": {"target": [], "time": []}}, "mouseout": {"state": {"target": ["0", "23", "0", "1", "2", "2", "2", "7", "4", "5", "4", "18", "14", "19", "13"], "time": [1740, 2310, 2594, 2877, 3100, 3954, 4060, 5276, 5460, 5811, 5877, 7343, 7961, 13493, 13594]}, "edge": {"target": [], "time": []}}}, "displayed_time": "12.29", "trialTime": 14106, "trial_type": "mouselab-mdp", "trial_index": 4, "time_elapsed": 170563, "internal_node_id": "0.0-2.0-2.0-1.0"}}, {"uniqueid": "w56521607:a84189791", "current_trial": 5, "dateTime": 1693396172622, "trialdata": {"view_history": [{"page_index": 0, "viewing_time": 32881}, {"page_index": 1, "viewing_time": 8257}], "rt": 41139, "trial_id": "mouselab_instructions_2_misaligned", "trial_type": "instructions", "trial_index": 5, "time_elapsed": 211704, "internal_node_id": "0.0-2.0-3.0"}}, {"uniqueid": "w56521607:a84189791", "current_trial": 6, "dateTime": 1693396196456, "trialdata": {"rt": 23832, "response": {"Q0": "The cost for clicking on nodes may vary between nodes.", "Q1": "The better I perform the higher my bonus will be.", "Q2": "No, the amount of cash at each node of the web may be different each time.", "Q3": "To get the highest total score.", "Q4": "Only before moving the spider.", "Q5": "3 seconds"}, "question_order": [0, 1, 2, 3, 4, 5], "correct": {"Q0": "The cost for clicking on nodes may vary between nodes.", "Q1": "The better I perform the higher my bonus will be.", "Q2": "No, the amount of cash at each node of the web may be different each time.", "Q3": "To get the highest total score.", "Q4": "Only before moving the spider.", "Q5": "3 seconds"}, "trial_id": "mouselab_quiz_misaligned", "trial_type": "survey-multi-choice", "trial_index": 6, "time_elapsed": 235538, "internal_node_id": "0.0-2.0-4.0"}}, {"uniqueid": "w56521607:a84189791", "current_trial": 7, "dateTime": 1693396204258, "trialdata": {"rt": 7797, "response": {"Q0": "No"}, "question_order": [0], "trial_id": "repeat_check", "trial_type": "survey-multi-choice", "trial_index": 7, "time_elapsed": 243339, "internal_node_id": "0.0-4.0-0.0"}}, {"uniqueid": "w56521607:a84189791", "current_trial": 8, "dateTime": 1693396223407, "trialdata": {"rt": 19147, "stimulus": "\n<h1> Get ready to start the game! </h1>\n\nThank you for reading the instructions. Get ready start with the 40 rounds of this game.\n<br><br>\nIf you need to take a break, feel free to take one after the end of a round, before continuing to the next one.\n<br><br>\nRemember, the more money the spider gets, the bigger your bonus will be!\n<br><br>\n<div style='text-align: center;'>Press <code>space</code> to begin.</div>\n\n<br><br>\n(If, at any point, the <code>space</code> key does not take you to the next page, click once on the text and try again.)", "response": " ", "trial_id": "mdp_ready", "trial_type": "html-keyboard-response", "trial_index": 8, "time_elapsed": 262489, "internal_node_id": "0.0-6.0-0.0"}}, {"uniqueid": "w56521607:a84189791", "current_trial": 9, "dateTime": 1693396245199, "trialdata": {"revealed_states": [], "clicked_states": ["9"], "num_clicks_accrued": [0, 0, 0, 0, 0, 0, 0, 0, 0, 0, 0, 0, 0], "stateRewards": ["", 1, 2, 3, 16, 63, -25, 16, -4, -14, 82, -66, -1, -3, -3, -11, -14, 19, 46, 3, -34, -82, 66, -2, -3, 4, -5, -63, 77, -37, -1, -45, -41, 84], "withholdReward": false, "trial_id": "mdp_trial_1", "block": "test", "trialIndex": 2, "score": -71.15, "costs": -2.15, "simulationMode": [null, null, null, null, null], "rewards": [-2, -3, 4, -5, -63], "path": ["0", "0", "23", "24", "25", "26", "27"], "rt": [5010, 373, 113, 74, 106], "actions": ["left", "left", "left", "up", "up"], "actionTimes": [7629, 8500, 9108, 9685, 10285], "queries": {"click": {"state": {"target": ["9"], "time": [4049]}, "edge": {"target": [], "time": []}}, "mouseover": {"state": {"target": ["1", "2", "9", "3", "2", "7"], "time": [3143, 3359, 3709, 4276, 4693, 4744]}, "edge": {"target": [], "time": []}}, "mouseout": {"state": {"target": ["3", "18", "1", "2", "9", "3", "2", "7", "18", "12", "0", "0", "13", "13"], "time": [326, 1826, 3326, 3393, 4227, 4310, 4710, 11862, 12060, 21011, 21033, 21161, 21211, 21344]}, "edge": {"target": [], "time": []}}}, "displayed_time": "16.62", "trialTime": 21652, "trial_type": "mouselab-mdp", "trial_index": 9, "time_elapsed": 284281, "internal_node_id": "0.0-6.0-1.0-0.0"}}, {"uniqueid": "w56521607:a84189791", "current_trial": 10, "dateTime": 1693396267872, "trialdata": {"revealed_states": [], "clicked_states": ["5"], "num_clicks_accrued": [0, 0, 0, 0, 0, 0, 0, 0, 0, 0, 0, 0, 0], "stateRewards": ["", 1, -2, -8, -3, 31, -84, -55, -14, 15, -58, 17, -2, -3, 7, 7, -12, 48, 67, 4, -44, -68, 46, 2, 3, -5, -7, 76, 27, 5, 11, 57, 52, 59], "withholdReward": false, "trial_id": "mdp_trial_2", "block": "test", "trialIndex": 3, "score": 16.85, "costs": -2.15, "simulationMode": [null, null, null, null, null], "rewards": [1, -2, -8, -3, 31], "path": ["0", "0", "1", "2", "3", "4", "5"], "rt": [5030, 49, 59, 44, 102], "actions": ["up", "up", "up", "right", "up"], "actionTimes": [6648, 7216, 7792, 8360, 8952], "queries": {"click": {"state": {"target": ["5"], "time": [2812]}, "edge": {"target": [], "time": []}}, "mouseover": {"state": {"target": ["7", "4", "5", "4", "7"], "time": [2031, 2398, 2497, 3498, 3548]}, "edge": {"target": [], "time": []}}, "mouseout": {"state": {"target": ["0", "1", "0", "0", "7", "4", "5", "4", "7", "0", "22", "20", "7", "0"], "time": [280, 597, 1231, 1952, 2064, 2448, 3481, 3532, 3565, 10048, 10665, 10676, 21049, 21815]}, "edge": {"target": [], "time": []}}}, "displayed_time": "15.62", "trialTime": 22528, "trial_type": "mouselab-mdp", "trial_index": 10, "time_elapsed": 306953, "internal_node_id": "0.0-6.0-1.0-1.0"}}, {"uniqueid": "w56521607:a84189791", "current_trial": 11, "dateTime": 1693396287655, "trialdata": {"revealed_states": [], "clicked_states": ["5"], "num_clicks_accrued": [0, 0, 0, 0, 0, 0, 0, 0, 0, 0, 0, 0, 0], "stateRewards": ["", 1, -3, -6, -5, 47, 80, -29, 11, -71, 10, -29, -2, 3, -6, 12, 2, -78, -6, 8, 34, -16, -5, -1, 3, 3, -13, 84, -36, -62, -3, -27, 66, 15], "withholdReward": false, "trial_id": "mdp_trial_3", "block": "test", "trialIndex": 4, "score": 31.85, "costs": -2.15, "simulationMode": [null, null, null, null, null], "rewards": [1, -3, -6, -5, 47], "path": ["0", "0", "1", "2", "3", "4", "5"], "rt": [3869, 11, 54, 23, 43], "actions": ["up", "up", "up", "right", "up"], "actionTimes": [5517, 6029, 6589, 7125, 7677], "queries": {"click": {"state": {"target": ["5"], "time": [2351]}, "edge": {"target": [], "time": []}}, "mouseover": {"state": {"target": ["4", "5", "4"], "time": [2015, 2232, 2883]}, "edge": {"target": [], "time": []}}, "mouseout": {"state": {"target": ["0", "4", "5", "4", "17", "18", "12"], "time": [515, 2066, 2865, 2933, 8833, 18901, 19233]}, "edge": {"target": [], "time": []}}}, "displayed_time": "15.65", "trialTime": 19644, "trial_type": "mouselab-mdp", "trial_index": 11, "time_elapsed": 326737, "internal_node_id": "0.0-6.0-1.0-2.0"}}, {"uniqueid": "w56521607:a84189791", "current_trial": 12, "dateTime": 1693396312055, "trialdata": {"revealed_states": [], "clicked_states": ["32", "21"], "num_clicks_accrued": [0, 0, 0, 0, 0, 0, 0, 0, 0, 0, 0, 0, 0], "stateRewards": ["", 2, -3, -2, 14, -4, 85, 46, 15, -28, 41, 31, -1, -1, -1, 5, 62, 79, 57, 12, -73, -64, 86, -1, 1, -3, -5, 68, 11, -32, 8, -80, -21, -56], "withholdReward": false, "trial_id": "mdp_trial_4", "block": "test", "trialIndex": 5, "score": 55.7, "costs": -4.3, "simulationMode": [null, null, null, null, null], "rewards": [-1, 1, -3, -5, 68], "path": ["0", "0", "23", "24", "25", "26", "27"], "rt": [8662, 395, 73, 75, 107], "actions": ["left", "left", "left", "up", "up"], "actionTimes": [9476, 10363, 10938, 11507, 12106], "queries": {"click": {"state": {"target": ["32", "21"], "time": [1563, 5427]}, "edge": {"target": [], "time": []}}, "mouseover": {"state": {"target": ["31", "32", "31", "0", "22", "21", "21", "19", "13", "13", "13", "12", "23"], "time": [1198, 1398, 2481, 2547, 4881, 4948, 5193, 6681, 6781, 8048, 8786, 8831, 8897]}, "edge": {"target": [], "time": []}}, "mouseout": {"state": {"target": ["0", "0", "31", "32", "31", "0", "22", "21", "21", "19", "13", "13", "13", "12", "23", "20", "19"], "time": [346, 1148, 1218, 1641, 2499, 4831, 4914, 5046, 5525, 6714, 6814, 8065, 8814, 8849, 12930, 23949, 23967]}, "edge": {"target": [], "time": []}}}, "displayed_time": "14.82", "trialTime": 24258, "trial_type": "mouselab-mdp", "trial_index": 12, "time_elapsed": 351137, "internal_node_id": "0.0-6.0-1.0-3.0"}}, {"uniqueid": "w56521607:a84189791", "current_trial": 13, "dateTime": 1693396343215, "trialdata": {"revealed_states": [], "clicked_states": ["17", "20"], "num_clicks_accrued": [0, 0, 0, 0, 0, 0, 0, 0, 0, 0, 0, 0, 0], "stateRewards": ["", -2, -1, -4, -15, -14, -67, 32, -3, -59, 63, 31, 2, -1, -7, -15, 71, -66, -27, -3, -54, -39, 72, 2, 1, 1, -13, 77, -40, 35, -9, 35, 75, 57], "withholdReward": false, "trial_id": "mdp_trial_5", "block": "test", "trialIndex": 6, "score": 65.7, "costs": -4.3, "simulationMode": [null, null, null, null, null], "rewards": [2, 1, 1, -9, 75], "path": ["0", "0", "23", "24", "25", "30", "32"], "rt": [8760, 439, 49, 20, 62], "actions": ["left", "left", "left", "down", "down"], "actionTimes": [9727, 10678, 11222, 11759, 12334], "queries": {"click": {"state": {"target": ["17", "20"], "time": [1963, 5832]}, "edge": {"target": [], "time": []}}, "mouseover": {"state": {"target": ["18", "15", "17", "17", "20", "19", "12", "12", "23", "24"], "time": [1436, 1472, 1492, 1875, 5420, 6605, 6937, 7838, 9090, 9112]}, "edge": {"target": [], "time": []}}, "mouseout": {"state": {"target": ["0", "0", "18", "15", "17", "17", "20", "19", "12", "12", "23", "24", "22"], "time": [186, 640, 1454, 1491, 1510, 3520, 6587, 6621, 7588, 9071, 9110, 9128, 13187]}, "edge": {"target": [], "time": []}}}, "displayed_time": "14.97", "trialTime": 31006, "trial_type": "mouselab-mdp", "trial_index": 13, "time_elapsed": 382296, "internal_node_id": "0.0-6.0-1.0-4.0"}}, {"uniqueid": "w56521607:a84189791", "current_trial": 14, "dateTime": 1693396360207, "trialdata": {"revealed_states": [], "clicked_states": ["29"], "num_clicks_accrued": [0, 0, 0, 0, 0, 0, 0, 0, 0, 0, 0, 0, 0], "stateRewards": ["", 1, 2, -3, -5, 66, -50, -47, -5, 1, 28, -27, 1, 1, -1, -6, 37, -25, 56, 1, -82, -66, -40, -1, -4, -7, 15, -61, -23, 26, 10, 14, -56, 29], "withholdReward": false, "trial_id": "mdp_trial_6", "block": "test", "trialIndex": 7, "score": 26.85, "costs": -2.15, "simulationMode": [null, null, null, null, null], "rewards": [-1, -4, -7, 15, 26], "path": ["0", "0", "23", "24", "25", "26", "29"], "rt": [9159, 17, 76, 110, 30], "actions": ["left", "left", "left", "up", "left"], "actionTimes": [10898, 11410, 12002, 12602, 13122], "queries": {"click": {"state": {"target": ["29"], "time": [2307]}, "edge": {"target": [], "time": []}}, "mouseover": {"state": {"target": ["28", "26", "29", "1", "18", "1", "28", "10", "28", "26", "28", "23"], "time": [1874, 1973, 2057, 2574, 4675, 4708, 4758, 4891, 5357, 5407, 5608, 9574]}, "edge": {"target": [], "time": []}}, "mouseout": {"state": {"target": ["22", "19", "20", "19", "22", "0", "28", "26", "29", "1", "18", "1", "28", "10", "28", "26", "28", "23", "21"], "time": [12, 23, 640, 658, 677, 1808, 1892, 2025, 2402, 2591, 4691, 4725, 4858, 5008, 5377, 5590, 9226, 9593, 16274]}, "edge": {"target": [], "time": []}}}, "displayed_time": "15.74", "trialTime": 16850, "trial_type": "mouselab-mdp", "trial_index": 14, "time_elapsed": 399288, "internal_node_id": "0.0-6.0-1.0-5.0"}}, {"uniqueid": "w56521607:a84189791", "current_trial": 15, "dateTime": 1693396382863, "trialdata": {"revealed_states": [], "clicked_states": ["29", "27", "32"], "num_clicks_accrued": [0, 0, 0, 0, 0, 0, 0, 0, 0, 0, 0, 0, 0], "stateRewards": ["", -2, -4, -6, 12, -58, -70, -80, 2, 16, -88, -62, 1, 2, -5, 11, 77, -35, -44, -5, 18, -83, 87, 1, -3, -5, 13, -44, -21, -86, 10, -52, 8, 29], "withholdReward": false, "trial_id": "mdp_trial_7", "block": "test", "trialIndex": 8, "score": 4.550000000000001, "costs": -6.449999999999999, "simulationMode": [null, null, null, null, null], "rewards": [1, -3, -5, 10, 8], "path": ["0", "0", "23", "24", "25", "30", "32"], "rt": [16074, 503, 64, 34, 64], "actions": ["left", "left", "left", "down", "down"], "actionTimes": [17477, 18493, 19053, 19589, 20157], "queries": {"click": {"state": {"target": ["29", "27", "32"], "time": [2079, 5440, 9299]}, "edge": {"target": [], "time": []}}, "mouseover": {"state": {"target": ["1", "27", "29", "26", "28", "14", "13", "27", "27", "7", "2", "0", "31", "32", "20", "21"], "time": [1585, 1753, 1952, 2403, 2420, 3954, 3971, 4703, 4936, 7553, 7572, 8569, 8869, 9003, 14753, 14853]}, "edge": {"target": [], "time": []}}, "mouseout": {"state": {"target": ["0", "1", "27", "29", "29", "26", "28", "14", "13", "27", "27", "7", "2", "0", "31", "32", "20", "21", "21"], "time": [1252, 1635, 1814, 2180, 2402, 2419, 2438, 3970, 3987, 4738, 5603, 7570, 7587, 8603, 8887, 9553, 14794, 15719, 22088]}, "edge": {"target": [], "time": []}}}, "displayed_time": "20.66", "trialTime": 22517, "trial_type": "mouselab-mdp", "trial_index": 15, "time_elapsed": 421944, "internal_node_id": "0.0-6.0-1.0-6.0"}}, {"uniqueid": "w56521607:a84189791", "current_trial": 16, "dateTime": 1693396405567, "trialdata": {"revealed_states": [], "clicked_states": ["9", "5", "6"], "num_clicks_accrued": [0, 0, 0, 0, 0, 0, 0, 0, 0, 0, 0, 0, 0], "stateRewards": ["", 1, 1, 1, 15, -76, 52, -32, 14, -57, 37, 49, 1, -4, -3, 6, 83, -76, 25, 9, 36, -1, -17, -1, 4, 4, -2, -22, -21, 58, -15, -57, 49, -24], "withholdReward": false, "trial_id": "mdp_trial_8", "block": "test", "trialIndex": 9, "score": 63.55, "costs": -6.449999999999999, "simulationMode": [null, null, null, null, null], "rewards": [1, 1, 1, 15, 52], "path": ["0", "0", "1", "2", "3", "4", "6"], "rt": [12831, 555, 1234, 124, 202], "actions": ["up", "up", "up", "right", "right"], "actionTimes": [13920, 14968, 16695, 17336, 18031], "queries": {"click": {"state": {"target": ["9", "5", "6"], "time": [1801, 5097, 8316]}, "edge": {"target": [], "time": []}}, "mouseover": {"state": {"target": ["1", "2", "3", "9", "5", "15", "13", "18", "16", "6", "14", "17", "16", "17", "14", "12"], "time": [1376, 1394, 1476, 1610, 4576, 6795, 7027, 7177, 7210, 7328, 9910, 10743, 10960, 11576, 12993, 13060]}, "edge": {"target": [], "time": []}}, "mouseout": {"state": {"target": ["14", "13", "12", "0", "1", "2", "3", "9", "5", "15", "13", "18", "16", "6", "14", "17", "16", "17", "14", "12", "17", "15", "18", "22", "19", "20", "19", "22"], "time": [443, 459, 542, 1279, 1393, 1442, 1543, 2060, 5426, 6960, 7062, 7193, 7244, 8543, 9927, 10760, 11527, 11594, 13011, 13078, 16144, 16164, 16182, 17811, 17844, 21811, 21927, 21946]}, "edge": {"target": [], "time": []}}}, "displayed_time": "18.53", "trialTime": 22560, "trial_type": "mouselab-mdp", "trial_index": 16, "time_elapsed": 444648, "internal_node_id": "0.0-6.0-1.0-7.0"}}, {"uniqueid": "w56521607:a84189791", "current_trial": 17, "dateTime": 1693396423238, "trialdata": {"revealed_states": [], "clicked_states": ["9", "11"], "num_clicks_accrued": [0, 0, 0, 0, 0, 0, 0, 0, 0, 0, 0, 0, 0], "stateRewards": ["", 2, 4, -3, 16, -58, 30, -35, 11, -60, 47, 27, -2, -1, -7, -16, 23, -70, 68, -10, -65, -43, -34, -2, 1, 7, 9, -63, 34, -31, -8, -12, -86, 59], "withholdReward": false, "trial_id": "mdp_trial_9", "block": "test", "trialIndex": 10, "score": 36.7, "costs": -4.3, "simulationMode": [null, null, null, null, null], "rewards": [2, 4, -3, 11, 27], "path": ["0", "0", "1", "2", "3", "8", "11"], "rt": [9317, 70, 94, 16, 90], "actions": ["up", "up", "up", "left", "left"], "actionTimes": [10751, 11318, 11910, 12414, 13022], "queries": {"click": {"state": {"target": ["9", "11"], "time": [2909, 6768]}, "edge": {"target": [], "time": []}}, "mouseover": {"state": {"target": ["14", "18", "2", "8", "9", "16", "10", "11", "8", "6", "18", "2"], "time": [1747, 2430, 2564, 2631, 2797, 6247, 6283, 6531, 6947, 6965, 9897, 10376]}, "edge": {"target": [], "time": []}}, "mouseout": {"state": {"target": ["22", "19", "19", "20", "19", "22", "0", "14", "18", "2", "8", "9", "16", "10", "11", "8", "6", "18", "2"], "time": [180, 247, 347, 360, 848, 963, 1536, 1781, 2464, 2583, 2649, 3183, 6265, 6464, 6931, 6964, 6981, 9931, 10388]}, "edge": {"target": [], "time": []}}}, "displayed_time": "15.44", "trialTime": 17534, "trial_type": "mouselab-mdp", "trial_index": 17, "time_elapsed": 462320, "internal_node_id": "0.0-6.0-1.0-8.0"}}, {"uniqueid": "w56521607:a84189791", "current_trial": 18, "dateTime": 1693396440063, "trialdata": {"revealed_states": [], "clicked_states": ["9"], "num_clicks_accrued": [0, 0, 0, 0, 0, 0, 0, 0, 0, 0, 0, 0, 0], "stateRewards": ["", -1, -3, -6, 14, 41, 18, 63, -14, 80, 21, 17, -2, -4, -2, -5, 13, 70, 8, -4, -64, -10, -20, 2, -1, 4, -1, -17, -55, 42, -7, 47, 54, 15], "withholdReward": false, "trial_id": "mdp_trial_10", "block": "test", "trialIndex": 11, "score": 53.85, "costs": -2.15, "simulationMode": [null, null, null, null, null], "rewards": [-1, -3, -6, -14, 80], "path": ["0", "0", "1", "2", "3", "8", "9"], "rt": [7704, 114, 48, 985, 94], "actions": ["up", "up", "up", "left", "up"], "actionTimes": [8560, 9168, 9719, 11223, 11831], "queries": {"click": {"state": {"target": ["9"], "time": [2333]}, "edge": {"target": [], "time": []}}, "mouseover": {"state": {"target": ["7", "3", "9", "5", "17", "13", "13", "12"], "time": [1503, 1570, 2218, 3369, 7669, 7752, 7869, 7906]}, "edge": {"target": [], "time": []}}, "mouseout": {"state": {"target": ["0", "7", "3", "9", "5", "17", "13", "13", "12", "18", "15", "17", "17", "18", "20", "22"], "time": [1386, 1536, 1652, 3136, 5519, 7688, 7787, 7887, 7924, 9486, 9521, 9540, 10569, 10786, 16286, 16304]}, "edge": {"target": [], "time": []}}}, "displayed_time": "14.86", "trialTime": 16680, "trial_type": "mouselab-mdp", "trial_index": 18, "time_elapsed": 479144, "internal_node_id": "0.0-6.0-1.0-9.0"}}, {"uniqueid": "w56521607:a84189791", "current_trial": 19, "dateTime": 1693396460069, "trialdata": {"revealed_states": [], "clicked_states": ["29"], "num_clicks_accrued": [0, 0, 0, 0, 0, 0, 0, 0, 0, 0, 0, 0, 0], "stateRewards": ["", -1, 2, -2, 5, 80, -61, -27, 12, 44, -26, -75, -2, -4, 1, -16, 42, -49, -50, 4, -44, 2, 80, -2, -2, 5, -2, 59, 10, 24, 7, -48, -86, -44], "withholdReward": false, "trial_id": "mdp_trial_11", "block": "test", "trialIndex": 12, "score": 20.85, "costs": -2.15, "simulationMode": [null, null, null, null, null], "rewards": [-2, -2, 5, -2, 24], "path": ["0", "0", "23", "24", "25", "26", "29"], "rt": [5223, 32, 26, 61, 54], "actions": ["left", "left", "left", "up", "left"], "actionTimes": [6898, 7425, 7953, 8522, 9082], "queries": {"click": {"state": {"target": ["29"], "time": [2350]}, "edge": {"target": [], "time": []}}, "mouseover": {"state": {"target": ["28", "26", "29", "14", "13", "12", "0", "31", "30", "33", "30", "31"], "time": [1858, 1895, 2124, 3727, 3761, 3792, 3825, 3908, 3943, 4242, 5510, 5529]}, "edge": {"target": [], "time": []}}, "mouseout": {"state": {"target": ["21", "0", "28", "26", "29", "29", "14", "13", "12", "0", "31", "30", "33", "30", "31", "19", "20"], "time": [893, 1777, 1876, 1975, 2436, 2726, 3742, 3776, 3809, 3842, 3942, 3975, 5492, 5528, 5547, 7292, 7309]}, "edge": {"target": [], "time": []}}}, "displayed_time": "15.68", "trialTime": 19825, "trial_type": "mouselab-mdp", "trial_index": 19, "time_elapsed": 499151, "internal_node_id": "0.0-6.0-1.0-10.0"}}, {"uniqueid": "w56521607:a84189791", "current_trial": 20, "dateTime": 1693396476589, "trialdata": {"revealed_states": [], "clicked_states": ["5"], "num_clicks_accrued": [0, 0, 0, 0, 0, 0, 0, 0, 0, 0, 0, 0, 0], "stateRewards": ["", -2, 2, -5, 1, 42, -63, -58, -6, 2, 16, 81, -2, 4, 7, -10, 33, 3, -33, -2, -52, -84, -27, 2, -3, -3, 15, -74, -14, -5, -5, -84, 79, -31], "withholdReward": false, "trial_id": "mdp_trial_12", "block": "test", "trialIndex": 13, "score": 35.85, "costs": -2.15, "simulationMode": [null, null, null, null, null], "rewards": [-2, 2, -5, 1, 42], "path": ["0", "0", "1", "2", "3", "4", "5"], "rt": [4085, 459, 59, 68, 94], "actions": ["up", "up", "up", "right", "up"], "actionTimes": [4835, 5787, 6370, 6962, 7554], "queries": {"click": {"state": {"target": ["5"], "time": [1540]}, "edge": {"target": [], "time": []}}, "mouseover": {"state": {"target": ["1", "2", "3", "5", "16", "12"], "time": [1042, 1094, 1143, 1492, 2109, 3843]}, "edge": {"target": [], "time": []}}, "mouseout": {"state": {"target": ["0", "1", "2", "3", "5", "16", "12", "21"], "time": [1009, 1075, 1126, 1176, 1976, 3577, 3877, 16009]}, "edge": {"target": [], "time": []}}}, "displayed_time": "14.75", "trialTime": 16378, "trial_type": "mouselab-mdp", "trial_index": 20, "time_elapsed": 515671, "internal_node_id": "0.0-6.0-1.0-11.0"}}, {"uniqueid": "w56521607:a84189791", "current_trial": 21, "dateTime": 1693396493517, "trialdata": {"revealed_states": [], "clicked_states": ["17"], "num_clicks_accrued": [0, 0, 0, 0, 0, 0, 0, 0, 0, 0, 0, 0, 0], "stateRewards": ["", 1, 2, 7, 13, 88, -71, 27, 3, 60, 5, -53, -2, 2, -6, -1, -30, 79, 47, -4, -14, 46, 68, 1, 1, 8, 10, -14, 86, 48, -11, -67, -44, 5], "withholdReward": false, "trial_id": "mdp_trial_13", "block": "test", "trialIndex": 14, "score": 69.85, "costs": -2.15, "simulationMode": [null, null, null, null, null], "rewards": [-2, 2, -6, -1, 79], "path": ["0", "0", "12", "13", "14", "15", "17"], "rt": [4330, 38, 25, 60, 61], "actions": ["right", "right", "right", "up", "right"], "actionTimes": [5797, 6325, 6845, 7413, 7981], "queries": {"click": {"state": {"target": ["17"], "time": [2037]}, "edge": {"target": [], "time": []}}, "mouseover": {"state": {"target": ["18", "15", "17", "15", "22"], "time": [1753, 1788, 1886, 4336, 5236]}, "edge": {"target": [], "time": []}}, "mouseout": {"state": {"target": ["0", "18", "15", "17", "17", "15", "22", "21"], "time": [1302, 1770, 1818, 2470, 3902, 5186, 5256, 16203]}, "edge": {"target": [], "time": []}}}, "displayed_time": "15.47", "trialTime": 16782, "trial_type": "mouselab-mdp", "trial_index": 21, "time_elapsed": 532599, "internal_node_id": "0.0-6.0-1.0-12.0"}}, {"uniqueid": "w56521607:a84189791", "current_trial": 22, "dateTime": 1693396511933, "trialdata": {"revealed_states": [], "clicked_states": ["21"], "num_clicks_accrued": [0, 0, 0, 0, 0, 0, 0, 0, 0, 0, 0, 0, 0], "stateRewards": ["", 2, -1, 1, 10, -52, 86, -22, -2, -14, -63, 38, 1, 3, 7, -8, 11, -32, -27, 9, -71, 40, -87, -2, -1, 5, -7, 12, 31, -57, 13, 86, -58, 29], "withholdReward": false, "trial_id": "mdp_trial_14", "block": "test", "trialIndex": 15, "score": 57.85, "costs": -2.15, "simulationMode": [null, null, null, null, null], "rewards": [1, 3, 7, 9, 40], "path": ["0", "0", "12", "13", "14", "19", "21"], "rt": [5422, 417, 60, 38, 48], "actions": ["right", "right", "right", "down", "down"], "actionTimes": [6120, 7048, 7607, 8136, 8680], "queries": {"click": {"state": {"target": ["21"], "time": [1823]}, "edge": {"target": [], "time": []}}, "mouseover": {"state": {"target": ["0", "21", "19", "14", "19", "20"], "time": [935, 1678, 3964, 4088, 4631, 4879]}, "edge": {"target": [], "time": []}}, "mouseout": {"state": {"target": ["0", "21", "19", "14", "19", "20", "20", "19"], "time": [979, 1906, 4047, 4564, 4830, 5012, 17729, 17813]}, "edge": {"target": [], "time": []}}}, "displayed_time": "14.70", "trialTime": 18239, "trial_type": "mouselab-mdp", "trial_index": 22, "time_elapsed": 551015, "internal_node_id": "0.0-6.0-1.0-13.0"}}, {"uniqueid": "w56521607:a84189791", "current_trial": 23, "dateTime": 1693396534925, "trialdata": {"revealed_states": [], "clicked_states": ["16", "17"], "num_clicks_accrued": [0, 0, 0, 0, 0, 0, 0, 0, 0, 0, 0, 0, 0], "stateRewards": ["", -1, -2, 8, -6, -79, -6, 87, 9, -5, -66, -38, 2, 2, 5, -6, -82, 74, 85, -8, 67, -30, -15, 1, -2, -2, -2, 87, 64, 49, 7, 2, -38, -9], "withholdReward": false, "trial_id": "mdp_trial_15", "block": "test", "trialIndex": 16, "score": 72.7, "costs": -4.3, "simulationMode": [null, null, null, null, null], "rewards": [2, 2, 5, -6, 74], "path": ["0", "0", "12", "13", "14", "15", "17"], "rt": [8882, 9, 39, 58, 68], "actions": ["right", "right", "right", "up", "right"], "actionTimes": [9553, 10085, 10634, 11185, 11761], "queries": {"click": {"state": {"target": ["16", "17"], "time": [1458, 5253]}, "edge": {"target": [], "time": []}}, "mouseover": {"state": {"target": ["18", "16", "16", "15", "13", "17", "20", "20", "19", "13"], "time": [924, 1125, 1324, 4492, 4626, 5059, 5575, 7509, 8758, 8875]}, "edge": {"target": [], "time": []}}, "mouseout": {"state": {"target": ["0", "18", "16", "16", "15", "13", "17", "17", "20", "20", "19", "13", "22", "19", "20", "21"], "time": [850, 974, 1175, 4192, 4608, 4658, 5335, 5509, 5742, 8675, 8776, 8991, 10376, 10425, 10460, 22491]}, "edge": {"target": [], "time": []}}}, "displayed_time": "14.67", "trialTime": 22809, "trial_type": "mouselab-mdp", "trial_index": 23, "time_elapsed": 574007, "internal_node_id": "0.0-6.0-1.0-14.0"}}, {"uniqueid": "w56521607:a84189791", "current_trial": 24, "dateTime": 1693396553324, "trialdata": {"revealed_states": [], "clicked_states": ["17", "16"], "num_clicks_accrued": [0, 0, 0, 0, 0, 0, 0, 0, 0, 0, 0, 0, 0], "stateRewards": ["", 1, 1, -6, -2, 7, 77, 3, 16, -16, 66, 31, -1, 3, -8, -6, 33, -50, -48, 7, -60, -66, 36, 2, -3, 3, -7, -12, -61, -79, -4, 8, 74, -70], "withholdReward": false, "trial_id": "mdp_trial_16", "block": "test", "trialIndex": 17, "score": 16.7, "costs": -4.3, "simulationMode": [null, null, null, null, null], "rewards": [-1, 3, -8, -6, 33], "path": ["0", "0", "12", "13", "14", "15", "16"], "rt": [7527, 9, 86, 8, 37], "actions": ["right", "right", "right", "up", "up"], "actionTimes": [8171, 8695, 9291, 9795, 10340], "queries": {"click": {"state": {"target": ["17", "16"], "time": [1257, 4383]}, "edge": {"target": [], "time": []}}, "mouseover": {"state": {"target": ["12", "18", "15", "17", "16", "20", "19", "22"], "time": [853, 918, 953, 1117, 3252, 6202, 7603, 7623]}, "edge": {"target": [], "time": []}}, "mouseout": {"state": {"target": ["0", "12", "18", "15", "17", "16", "16", "20", "19", "22", "20"], "time": [835, 871, 936, 1000, 3152, 4466, 5602, 7585, 7621, 7635, 9603]}, "edge": {"target": [], "time": []}}}, "displayed_time": "14.65", "trialTime": 18251, "trial_type": "mouselab-mdp", "trial_index": 24, "time_elapsed": 592406, "internal_node_id": "0.0-6.0-1.0-15.0"}}, {"uniqueid": "w56521607:a84189791", "current_trial": 25, "dateTime": 1693396569156, "trialdata": {"revealed_states": [], "clicked_states": ["21"], "num_clicks_accrued": [0, 0, 0, 0, 0, 0, 0, 0, 0, 0, 0, 0, 0], "stateRewards": ["", 1, -2, 7, -14, 88, -56, -44, -14, 64, -51, -57, -2, 3, -4, -9, -11, 19, -77, -1, 68, 75, -67, -1, 1, -2, 5, -37, 70, -34, -10, -72, 63, -41], "withholdReward": false, "trial_id": "mdp_trial_17", "block": "test", "trialIndex": 18, "score": 68.85, "costs": -2.15, "simulationMode": [null, null, null, null, null], "rewards": [-2, 3, -4, -1, 75], "path": ["0", "0", "12", "13", "14", "19", "21"], "rt": [4774, 19, 37, 39, 51], "actions": ["right", "right", "right", "down", "down"], "actionTimes": [5404, 5933, 6484, 7020, 7564], "queries": {"click": {"state": {"target": ["21"], "time": [1653]}, "edge": {"target": [], "time": []}}, "mouseover": {"state": {"target": ["0", "22", "19", "21", "21", "20"], "time": [728, 996, 1018, 1112, 1574, 3679]}, "edge": {"target": [], "time": []}}, "mouseout": {"state": {"target": ["0", "0", "22", "19", "21", "21", "20", "19", "14", "22"], "time": [461, 763, 1017, 1079, 1131, 3379, 4766, 10613, 11863, 15462]}, "edge": {"target": [], "time": []}}}, "displayed_time": "14.63", "trialTime": 15676, "trial_type": "mouselab-mdp", "trial_index": 25, "time_elapsed": 608238, "internal_node_id": "0.0-6.0-1.0-16.0"}}, {"uniqueid": "w56521607:a84189791", "current_trial": 26, "dateTime": 1693396589157, "trialdata": {"revealed_states": [], "clicked_states": ["32", "27", "28"], "num_clicks_accrued": [0, 0, 0, 0, 0, 0, 0, 0, 0, 0, 0, 0, 0], "stateRewards": ["", -2, 4, -7, -3, -76, 39, -28, 10, 14, 12, 60, 2, -3, 6, -10, 88, -34, -41, -3, 72, -13, -56, 1, 3, 2, 8, -51, 23, -57, 1, 14, -46, -16], "withholdReward": false, "trial_id": "mdp_trial_18", "block": "test", "trialIndex": 19, "score": 30.55, "costs": -6.449999999999999, "simulationMode": [null, null, null, null, null], "rewards": [1, 3, 2, 8, 23], "path": ["0", "0", "23", "24", "25", "26", "28"], "rt": [12007, 419, 38, 57, 109], "actions": ["left", "left", "left", "up", "right"], "actionTimes": [12664, 13600, 14152, 14712, 15322], "queries": {"click": {"state": {"target": ["32", "27", "28"], "time": [1284, 5136, 8887]}, "edge": {"target": [], "time": []}}, "mouseover": {"state": {"target": ["0", "31", "32", "0", "1", "27", "26", "29", "26", "28", "28"], "time": [795, 945, 1129, 4545, 4581, 4945, 6379, 6562, 8246, 8312, 8774]}, "edge": {"target": [], "time": []}}, "mouseout": {"state": {"target": ["0", "0", "31", "32", "0", "1", "27", "26", "29", "26", "28", "28", "22", "19", "20"], "time": [462, 845, 963, 3779, 4563, 4612, 5812, 6395, 8136, 8279, 8522, 9729, 15262, 15296, 15313]}, "edge": {"target": [], "time": []}}}, "displayed_time": "15.83", "trialTime": 19808, "trial_type": "mouselab-mdp", "trial_index": 26, "time_elapsed": 628239, "internal_node_id": "0.0-6.0-1.0-17.0"}}, {"uniqueid": "w56521607:a84189791", "current_trial": 27, "dateTime": 1693396608820, "trialdata": {"revealed_states": [], "clicked_states": ["9"], "num_clicks_accrued": [0, 0, 0, 0, 0, 0, 0, 0, 0, 0, 0, 0, 0], "stateRewards": ["", 1, 2, 8, -2, 23, -69, -18, -16, 54, -21, 71, -1, -4, 7, 11, 43, -6, 88, 6, -55, 72, 43, 1, -3, -2, -1, 68, -31, -54, 4, -8, 25, -2], "withholdReward": false, "trial_id": "mdp_trial_19", "block": "test", "trialIndex": 20, "score": 46.85, "costs": -2.15, "simulationMode": [null, null, null, null, null], "rewards": [1, 2, 8, -16, 54], "path": ["0", "0", "1", "2", "3", "8", "9"], "rt": [4821, 445, 102, 46, 72], "actions": ["up", "up", "up", "left", "up"], "actionTimes": [9065, 10025, 10633, 11177, 11753], "queries": {"click": {"state": {"target": ["9"], "time": [5011]}, "edge": {"target": [], "time": []}}, "mouseover": {"state": {"target": ["3", "9", "5", "4", "7", "12"], "time": [4645, 4912, 7237, 8148, 8196, 8332]}, "edge": {"target": [], "time": []}}, "mouseout": {"state": {"target": ["20", "19", "22", "0", "3", "9", "5", "4", "7", "12", "22", "19", "14", "13", "0", "23", "0", "19", "19", "22"], "time": [3628, 3645, 3662, 4362, 4728, 6813, 8130, 8166, 8214, 8412, 11579, 11612, 14279, 14297, 14319, 14380, 14697, 15696, 19146, 19164]}, "edge": {"target": [], "time": []}}}, "displayed_time": "18.24", "trialTime": 19520, "trial_type": "mouselab-mdp", "trial_index": 27, "time_elapsed": 647902, "internal_node_id": "0.0-6.0-1.0-18.0"}}, {"uniqueid": "w56521607:a84189791", "current_trial": 28, "dateTime": 1693396628363, "trialdata": {"revealed_states": [], "clicked_states": ["21"], "num_clicks_accrued": [0, 0, 0, 0, 0, 0, 0, 0, 0, 0, 0, 0, 0], "stateRewards": ["", 2, 3, 3, 10, 19, -21, 6, 9, 54, 68, 16, 2, 2, -6, -8, 40, -2, -75, -2, -42, 55, 59, -1, 2, 4, -14, 11, -34, -30, -6, 61, -53, 13], "withholdReward": false, "trial_id": "mdp_trial_20", "block": "test", "trialIndex": 21, "score": 48.85, "costs": -2.15, "simulationMode": [null, null, null, null, null], "rewards": [2, 2, -6, -2, 55], "path": ["0", "0", "12", "13", "14", "19", "21"], "rt": [4458, 63, 64, 465, 107], "actions": ["right", "right", "right", "down", "down"], "actionTimes": [5122, 5674, 6242, 7226, 7835], "queries": {"click": {"state": {"target": ["21"], "time": [1574]}, "edge": {"target": [], "time": []}}, "mouseover": {"state": {"target": ["0", "22", "21", "20"], "time": [778, 1059, 1493, 3628]}, "edge": {"target": [], "time": []}}, "mouseout": {"state": {"target": ["0", "0", "22", "21", "20", "21"], "time": [680, 976, 1077, 1893, 3643, 4710]}, "edge": {"target": [], "time": []}}}, "displayed_time": "14.66", "trialTime": 19394, "trial_type": "mouselab-mdp", "trial_index": 28, "time_elapsed": 667445, "internal_node_id": "0.0-6.0-1.0-19.0"}}, {"uniqueid": "w56521607:a84189791", "current_trial": 29, "dateTime": 1693396653821, "trialdata": {"revealed_states": [], "clicked_states": ["32", "28", "6"], "num_clicks_accrued": [0, 0, 0, 0, 0, 0, 0, 0, 0, 0, 0, 0, 0], "stateRewards": ["", 1, -4, 6, -3, 40, 76, -51, 5, -24, -63, 44, -2, -2, 8, 1, 76, -85, -58, 10, 59, 20, 11, -2, 3, -3, 3, -82, -10, 54, -7, -57, -6, -32], "withholdReward": false, "trial_id": "mdp_trial_21", "block": "test", "trialIndex": 22, "score": 69.55, "costs": -6.449999999999999, "simulationMode": [null, null, null, null, null], "rewards": [1, -4, 6, -3, 76], "path": ["0", "0", "1", "2", "3", "4", "6"], "rt": [12888, 400, 77, 60, 55], "actions": ["up", "up", "up", "right", "right"], "actionTimes": [13860, 14780, 15356, 15908, 16468], "queries": {"click": {"state": {"target": ["32", "28", "6"], "time": [1641, 5385, 10180]}, "edge": {"target": [], "time": []}}, "mouseover": {"state": {"target": ["0", "31", "32", "28", "28", "23", "23", "24", "10", "3", "4", "6", "5", "4"], "time": [1111, 1194, 1561, 5077, 5244, 7511, 8779, 8962, 9094, 9178, 9545, 10082, 12228, 13363]}, "edge": {"target": [], "time": []}}, "mouseout": {"state": {"target": ["22", "0", "0", "31", "32", "28", "28", "23", "23", "24", "10", "3", "4", "6", "5", "4", "20"], "time": [511, 778, 1132, 1294, 3577, 5095, 7211, 7527, 8801, 9027, 9128, 9444, 9612, 12128, 13345, 13381, 24796]}, "edge": {"target": [], "time": []}}}, "displayed_time": "16.98", "trialTime": 25301, "trial_type": "mouselab-mdp", "trial_index": 29, "time_elapsed": 692903, "internal_node_id": "0.0-6.0-1.0-20.0"}}, {"uniqueid": "w56521607:a84189791", "current_trial": 30, "dateTime": 1693396677148, "trialdata": {"revealed_states": [], "clicked_states": ["17"], "num_clicks_accrued": [0, 0, 0, 0, 0, 0, 0, 0, 0, 0, 0, 0, 0], "stateRewards": ["", -2, -2, -7, -13, -10, 49, -68, -1, 84, 70, 88, 1, 4, 4, 12, -57, 25, 30, 8, -1, -77, 57, 2, 3, 2, 3, -18, -80, 23, -15, -41, 70, 11], "withholdReward": false, "trial_id": "mdp_trial_22", "block": "test", "trialIndex": 23, "score": 43.85, "costs": -2.15, "simulationMode": [null, null, null, null, null], "rewards": [1, 4, 4, 12, 25], "path": ["0", "0", "12", "13", "14", "15", "17"], "rt": [4378, 29, 169, 38, 136], "actions": ["right", "right", "right", "up", "right"], "actionTimes": [5011, 5571, 6227, 6763, 7395], "queries": {"click": {"state": {"target": ["17"], "time": [1853]}, "edge": {"target": [], "time": []}}, "mouseover": {"state": {"target": ["0", "12", "13", "14", "17", "14", "19", "22"], "time": [1044, 1124, 1161, 1191, 1647, 3424, 4617, 4926]}, "edge": {"target": [], "time": []}}, "mouseout": {"state": {"target": ["0", "0", "12", "13", "14", "17", "14", "19", "22", "21"], "time": [396, 1091, 1142, 1179, 1357, 3375, 3707, 4908, 4944, 22658]}, "edge": {"target": [], "time": []}}}, "displayed_time": "14.64", "trialTime": 23123, "trial_type": "mouselab-mdp", "trial_index": 30, "time_elapsed": 716230, "internal_node_id": "0.0-6.0-1.0-21.0"}}, {"uniqueid": "w56521607:a84189791", "current_trial": 31, "dateTime": 1693396693284, "trialdata": {"revealed_states": [], "clicked_states": ["21"], "num_clicks_accrued": [0, 0, 0, 0, 0, 0, 0, 0, 0, 0, 0, 0, 0], "stateRewards": ["", -2, 1, 6, -2, -10, -78, -69, 14, -15, 7, -1, 1, -1, -2, 13, 77, 32, 87, 5, -74, 30, -26, 1, 3, 4, 12, 39, 54, -43, 2, 10, 23, 13], "withholdReward": false, "trial_id": "mdp_trial_23", "block": "test", "trialIndex": 24, "score": 30.85, "costs": -2.15, "simulationMode": [null, null, null, null, null], "rewards": [1, -1, -2, 5, 30], "path": ["0", "0", "12", "13", "14", "19", "21"], "rt": [4669, 9, 50, 68, 76], "actions": ["right", "right", "right", "down", "down"], "actionTimes": [5883, 6408, 6965, 7533, 8109], "queries": {"click": {"state": {"target": ["21"], "time": [2045]}, "edge": {"target": [], "time": []}}, "mouseover": {"state": {"target": ["21", "21", "20"], "time": [1681, 1900, 4348]}, "edge": {"target": [], "time": []}}, "mouseout": {"state": {"target": ["0", "21", "21", "20", "21"], "time": [1364, 1731, 2142, 5364, 15316]}, "edge": {"target": [], "time": []}}}, "displayed_time": "15.22", "trialTime": 15981, "trial_type": "mouselab-mdp", "trial_index": 31, "time_elapsed": 732366, "internal_node_id": "0.0-6.0-1.0-22.0"}}, {"uniqueid": "w56521607:a84189791", "current_trial": 32, "dateTime": 1693396709460, "trialdata": {"revealed_states": [], "clicked_states": ["17"], "num_clicks_accrued": [0, 0, 0, 0, 0, 0, 0, 0, 0, 0, 0, 0, 0], "stateRewards": ["", -2, 2, -2, -7, -50, -62, -45, 7, 36, -24, -72, -1, -1, 8, -1, -67, 20, -52, 2, 35, -50, 80, -1, 1, 6, -6, -70, 6, 88, 8, -47, 74, -19], "withholdReward": false, "trial_id": "mdp_trial_24", "block": "test", "trialIndex": 25, "score": 22.85, "costs": -2.15, "simulationMode": [null, null, null, null, null], "rewards": [-1, -1, 8, -1, 20], "path": ["0", "0", "12", "13", "14", "15", "17"], "rt": [3999, 45, 111, 79, 136], "actions": ["right", "right", "right", "up", "right"], "actionTimes": [4564, 5124, 5724, 6292, 6916], "queries": {"click": {"state": {"target": ["17"], "time": [1249]}, "edge": {"target": [], "time": []}}, "mouseover": {"state": {"target": ["14", "17", "15", "16", "15", "14", "19"], "time": [912, 1128, 3947, 4016, 4315, 4362, 4399]}, "edge": {"target": [], "time": []}}, "mouseout": {"state": {"target": ["14", "17", "17", "15", "16", "15", "14", "19", "20", "21"], "time": [1062, 1341, 3245, 3965, 4297, 4345, 4381, 4418, 7828, 15345]}, "edge": {"target": [], "time": []}}}, "displayed_time": "14.57", "trialTime": 16020, "trial_type": "mouselab-mdp", "trial_index": 32, "time_elapsed": 748542, "internal_node_id": "0.0-6.0-1.0-23.0"}}, {"uniqueid": "w56521607:a84189791", "current_trial": 33, "dateTime": 1693396729692, "trialdata": {"revealed_states": [], "clicked_states": ["27", "29"], "num_clicks_accrued": [0, 0, 0, 0, 0, 0, 0, 0, 0, 0, 0, 0, 0], "stateRewards": ["", 2, 3, 6, -12, -29, 12, 87, 4, 35, -30, 67, 2, 3, -5, -9, 44, 69, -8, 1, 45, -8, 28, -2, -1, -8, 11, -12, -5, 81, 9, 87, 82, 88], "withholdReward": false, "trial_id": "mdp_trial_25", "block": "test", "trialIndex": 26, "score": 76.7, "costs": -4.3, "simulationMode": [null, null, null, null, null], "rewards": [-2, -1, -8, 11, 81], "path": ["0", "0", "23", "24", "25", "26", "29"], "rt": [7060, 56, 73, 66, 28], "actions": ["left", "left", "left", "up", "left"], "actionTimes": [7700, 8244, 8828, 9388, 9916], "queries": {"click": {"state": {"target": ["27", "29"], "time": [1264, 4480]}, "edge": {"target": [], "time": []}}, "mouseover": {"state": {"target": ["28", "27", "26", "26", "29", "26", "28"], "time": [920, 1121, 1875, 3337, 3471, 4804, 4936]}, "edge": {"target": [], "time": []}}, "mouseout": {"state": {"target": ["0", "28", "27", "26", "26", "29", "26", "28", "23", "21", "21"], "time": [870, 1004, 1820, 1891, 3420, 4787, 4920, 7754, 7787, 10171, 19520]}, "edge": {"target": [], "time": []}}}, "displayed_time": "14.64", "trialTime": 20076, "trial_type": "mouselab-mdp", "trial_index": 33, "time_elapsed": 768774, "internal_node_id": "0.0-6.0-1.0-24.0"}}, {"uniqueid": "w56521607:a84189791", "current_trial": 34, "dateTime": 1693396745667, "trialdata": {"revealed_states": [], "clicked_states": ["17"], "num_clicks_accrued": [0, 0, 0, 0, 0, 0, 0, 0, 0, 0, 0, 0, 0], "stateRewards": ["", 1, 1, -5, 8, -6, 45, 16, -6, -7, -22, -38, -1, -4, 8, -11, -16, 21, -45, -15, -59, -32, 42, -1, 3, 6, 11, -7, 34, -27, -8, 85, 43, -9], "withholdReward": false, "trial_id": "mdp_trial_26", "block": "test", "trialIndex": 27, "score": 10.85, "costs": -2.15, "simulationMode": [null, null, null, null, null], "rewards": [-1, -4, 8, -11, 21], "path": ["0", "0", "12", "13", "14", "15", "17"], "rt": [4246, 40, 105, 89, 63], "actions": ["right", "right", "right", "up", "right"], "actionTimes": [4830, 5366, 5966, 6550, 7109], "queries": {"click": {"state": {"target": ["17"], "time": [1270]}, "edge": {"target": [], "time": []}}, "mouseover": {"state": {"target": ["12", "13", "17", "16"], "time": [823, 859, 1058, 3641]}, "edge": {"target": [], "time": []}}, "mouseout": {"state": {"target": ["0", "12", "13", "17", "16", "19", "21"], "time": [440, 841, 891, 1352, 4449, 7143, 15374]}, "edge": {"target": [], "time": []}}}, "displayed_time": "14.58", "trialTime": 15821, "trial_type": "mouselab-mdp", "trial_index": 34, "time_elapsed": 784749, "internal_node_id": "0.0-6.0-1.0-25.0"}}, {"uniqueid": "w56521607:a84189791", "current_trial": 35, "dateTime": 1693396764067, "trialdata": {"revealed_states": [], "clicked_states": ["21", "32"], "num_clicks_accrued": [0, 0, 0, 0, 0, 0, 0, 0, 0, 0, 0, 0, 0], "stateRewards": ["", 1, 4, 7, -16, -84, -6, -46, -12, -7, -49, -26, -1, 2, -4, 2, 22, 37, -64, 1, 88, -13, -10, 1, -4, -2, 5, 2, -10, -34, 9, 66, 55, 38], "withholdReward": false, "trial_id": "mdp_trial_27", "block": "test", "trialIndex": 28, "score": 54.7, "costs": -4.3, "simulationMode": [null, null, null, null, null], "rewards": [1, -4, -2, 9, 55], "path": ["0", "0", "23", "24", "25", "30", "32"], "rt": [7497, 48, 58, 28, 46], "actions": ["left", "left", "left", "down", "down"], "actionTimes": [8191, 8743, 9319, 9855, 10407], "queries": {"click": {"state": {"target": ["21", "32"], "time": [1231, 5052]}, "edge": {"target": [], "time": []}}, "mouseover": {"state": {"target": ["0", "21", "30", "32", "32", "24", "28", "26", "25", "30"], "time": [844, 1125, 4609, 4676, 4976, 6294, 6328, 6909, 6960, 7160]}, "edge": {"target": [], "time": []}}, "mouseout": {"state": {"target": ["0", "0", "21", "30", "32", "32", "24", "28", "26", "25", "30", "31"], "time": [509, 875, 3376, 4659, 4758, 6210, 6310, 6363, 6943, 7009, 7177, 8493]}, "edge": {"target": [], "time": []}}}, "displayed_time": "14.70", "trialTime": 18239, "trial_type": "mouselab-mdp", "trial_index": 35, "time_elapsed": 803148, "internal_node_id": "0.0-6.0-1.0-26.0"}}, {"uniqueid": "w56521607:a84189791", "current_trial": 36, "dateTime": 1693396781595, "trialdata": {"revealed_states": [], "clicked_states": ["21"], "num_clicks_accrued": [0, 0, 0, 0, 0, 0, 0, 0, 0, 0, 0, 0, 0], "stateRewards": ["", -1, -1, 4, -16, -75, 81, -51, -7, -84, 73, -30, -2, 1, -3, -16, -77, 33, 14, 1, 45, 87, -66, 2, 2, -5, -7, -19, -17, 79, -3, 8, 49, 47], "withholdReward": false, "trial_id": "mdp_trial_28", "block": "test", "trialIndex": 29, "score": 81.85, "costs": -2.15, "simulationMode": [null, null, null, null, null], "rewards": [-2, 1, -3, 1, 87], "path": ["0", "0", "12", "13", "14", "19", "21"], "rt": [3846, 31, 9, 36, 55], "actions": ["right", "right", "right", "down", "down"], "actionTimes": [4408, 4936, 5464, 6007, 6559], "queries": {"click": {"state": {"target": ["21"], "time": [1266]}, "edge": {"target": [], "time": []}}, "mouseover": {"state": {"target": ["0", "22", "19", "21"], "time": [636, 886, 905, 1109]}, "edge": {"target": [], "time": []}}, "mouseout": {"state": {"target": ["0", "0", "22", "19", "21", "20", "20"], "time": [335, 819, 904, 923, 7042, 7135, 17020]}, "edge": {"target": [], "time": []}}}, "displayed_time": "14.56", "trialTime": 17376, "trial_type": "mouselab-mdp", "trial_index": 36, "time_elapsed": 820677, "internal_node_id": "0.0-6.0-1.0-27.0"}}, {"uniqueid": "w56521607:a84189791", "current_trial": 37, "dateTime": 1693396811923, "trialdata": {"revealed_states": [], "clicked_states": ["29", "9"], "num_clicks_accrued": [0, 0, 0, 0, 0, 0, 0, 0, 0, 0, 0, 0, 0], "stateRewards": ["", 1, 4, 5, -5, 58, -80, 75, 6, 25, -39, 46, 2, -2, 4, 2, 59, 31, -22, -12, -61, 15, 72, 1, -2, -7, 8, 77, 76, -23, -7, 71, -15, -3], "withholdReward": false, "trial_id": "mdp_trial_29", "block": "test", "trialIndex": 30, "score": 36.7, "costs": -4.3, "simulationMode": [null, null, null, null, null], "rewards": [1, 4, 5, 6, 25], "path": ["0", "0", "1", "2", "3", "8", "9"], "rt": [7382, 392, 93, 21, 25], "actions": ["up", "up", "up", "left", "up"], "actionTimes": [8217, 9113, 9697, 10209, 10746], "queries": {"click": {"state": {"target": ["29", "9"], "time": [1872, 5045]}, "edge": {"target": [], "time": []}}, "mouseover": {"state": {"target": ["0", "23", "24", "25", "26", "29", "3", "10", "10", "8", "9", "5"], "time": [952, 1319, 1419, 1525, 1752, 1789, 3136, 3303, 4137, 4187, 4236, 5737]}, "edge": {"target": [], "time": []}}, "mouseout": {"state": {"target": ["0", "23", "24", "25", "26", "29", "3", "10", "10", "8", "9", "5", "4", "18"], "time": [1170, 1337, 1437, 1686, 1771, 3053, 3270, 3353, 4170, 4220, 5470, 8453, 8506, 10520]}, "edge": {"target": [], "time": []}}}, "displayed_time": "14.84", "trialTime": 30170, "trial_type": "mouselab-mdp", "trial_index": 37, "time_elapsed": 851005, "internal_node_id": "0.0-6.0-1.0-28.0"}}, {"uniqueid": "w56521607:a84189791", "current_trial": 38, "dateTime": 1693396835555, "trialdata": {"revealed_states": [], "clicked_states": ["29", "27"], "num_clicks_accrued": [0, 0, 0, 0, 0, 0, 0, 0, 0, 0, 0, 0, 0], "stateRewards": ["", -1, 3, -4, -14, 78, 67, 2, 13, -32, 28, 39, -2, 1, -4, -4, -4, -42, -86, 11, 64, -29, -32, -1, -4, 2, -7, 5, 68, -61, 2, -21, 85, 50], "withholdReward": false, "trial_id": "mdp_trial_30", "block": "test", "trialIndex": 31, "score": -9.3, "costs": -4.3, "simulationMode": [null, null, null, null, null], "rewards": [-1, -4, 2, -7, 5], "path": ["0", "0", "23", "24", "25", "26", "27"], "rt": [7691, 25, 43, 94, 95], "actions": ["left", "left", "left", "up", "up"], "actionTimes": [8209, 8729, 9296, 9881, 10464], "queries": {"click": {"state": {"target": ["29", "27"], "time": [1830, 5020]}, "edge": {"target": [], "time": []}}, "mouseover": {"state": {"target": ["0", "23", "24", "26", "29", "29", "27", "28", "26", "28"], "time": [568, 1019, 1118, 1201, 1419, 1784, 3651, 7036, 7054, 7221]}, "edge": {"target": [], "time": []}}, "mouseout": {"state": {"target": ["0", "23", "24", "26", "29", "29", "27", "28", "26", "28", "14", "13"], "time": [1002, 1051, 1151, 1384, 1437, 3468, 5285, 7052, 7069, 7245, 23052, 23086]}, "edge": {"target": [], "time": []}}}, "displayed_time": "14.52", "trialTime": 23464, "trial_type": "mouselab-mdp", "trial_index": 38, "time_elapsed": 874636, "internal_node_id": "0.0-6.0-1.0-29.0"}}, {"uniqueid": "w56521607:a84189791", "current_trial": 39, "dateTime": 1693396861075, "trialdata": {"revealed_states": [], "clicked_states": ["16", "18", "17"], "num_clicks_accrued": [0, 0, 0, 0, 0, 0, 0, 0, 0, 0, 0, 0, 0], "stateRewards": ["", -2, -4, 2, 10, -17, 18, 73, 11, -32, 23, -13, -2, -4, 7, 12, -25, 66, -23, 15, 40, -76, -9, 1, 2, -7, -5, -20, 24, 3, -5, 16, -73, 70], "withholdReward": false, "trial_id": "mdp_trial_31", "block": "test", "trialIndex": 32, "score": 72.55, "costs": -6.449999999999999, "simulationMode": [null, null, null, null, null], "rewards": [-2, -4, 7, 12, 66], "path": ["0", "0", "12", "13", "14", "15", "17"], "rt": [10357, 51, 59, 79, 97], "actions": ["right", "right", "right", "up", "right"], "actionTimes": [11244, 11795, 12355, 12939, 13540], "queries": {"click": {"state": {"target": ["16", "18", "17"], "time": [1727, 4909, 8073]}, "edge": {"target": [], "time": []}}, "mouseover": {"state": {"target": ["16", "18", "15", "17", "20"], "time": [1619, 3191, 5158, 5591, 8610]}, "edge": {"target": [], "time": []}}, "mouseout": {"state": {"target": ["0", "0", "16", "18", "15", "17", "20", "14", "13", "22"], "time": [374, 941, 2976, 5141, 5308, 8443, 13525, 24725, 24747, 24960]}, "edge": {"target": [], "time": []}}}, "displayed_time": "14.89", "trialTime": 25340, "trial_type": "mouselab-mdp", "trial_index": 39, "time_elapsed": 900157, "internal_node_id": "0.0-6.0-1.0-30.0"}}, {"uniqueid": "w56521607:a84189791", "current_trial": 40, "dateTime": 1693396881665, "trialdata": {"revealed_states": [], "clicked_states": ["9", "5"], "num_clicks_accrued": [0, 0, 0, 0, 0, 0, 0, 0, 0, 0, 0, 0, 0], "stateRewards": ["", -1, -2, 4, 9, 10, -75, 39, 16, -43, 88, -19, -1, 1, 2, 4, -31, 10, 73, 12, 41, -64, -81, -2, 2, -6, 1, -81, -1, -26, 3, -59, -3, -20], "withholdReward": false, "trial_id": "mdp_trial_32", "block": "test", "trialIndex": 33, "score": 15.7, "costs": -4.3, "simulationMode": [null, null, null, null, null], "rewards": [-1, -2, 4, 9, 10], "path": ["0", "0", "1", "2", "3", "4", "5"], "rt": [7363, 26, 341, 116, 83], "actions": ["up", "up", "up", "right", "up"], "actionTimes": [8111, 8640, 9503, 10111, 10695], "queries": {"click": {"state": {"target": ["9", "5"], "time": [1740, 4895]}, "edge": {"target": [], "time": []}}, "mouseover": {"state": {"target": ["1", "2", "3", "9", "5", "5", "6", "6"], "time": [1060, 1361, 1460, 1594, 2044, 3111, 6894, 7328]}, "edge": {"target": [], "time": []}}, "mouseout": {"state": {"target": ["1", "2", "3", "9", "5", "5", "6", "6"], "time": [1260, 1410, 1544, 1995, 2060, 6844, 6927, 10747]}, "edge": {"target": [], "time": []}}}, "displayed_time": "14.75", "trialTime": 20415, "trial_type": "mouselab-mdp", "trial_index": 40, "time_elapsed": 920747, "internal_node_id": "0.0-6.0-1.0-31.0"}}, {"uniqueid": "w56521607:a84189791", "current_trial": 41, "dateTime": 1693396907186, "trialdata": {"revealed_states": [], "clicked_states": ["29"], "num_clicks_accrued": [0, 0, 0, 0, 0, 0, 0, 0, 0, 0, 0, 0, 0], "stateRewards": ["", -2, 2, 2, -6, 9, 37, 50, -13, -7, -18, -75, -2, -4, 4, 7, 23, -57, -66, -7, -81, -48, -76, 1, 1, -8, 1, 51, -2, 70, 14, 59, 71, -37], "withholdReward": false, "trial_id": "mdp_trial_33", "block": "test", "trialIndex": 34, "score": 62.85, "costs": -2.15, "simulationMode": [null, null, null, null, null], "rewards": [1, 1, -8, 1, 70], "path": ["0", "0", "23", "24", "25", "26", "29"], "rt": [3736, 13, 98, 61, 30], "actions": ["left", "left", "left", "up", "left"], "actionTimes": [4289, 4821, 5425, 5985, 6521], "queries": {"click": {"state": {"target": ["29"], "time": [1179]}, "edge": {"target": [], "time": []}}, "mouseover": {"state": {"target": ["0", "26", "29", "27", "28"], "time": [690, 989, 1025, 3257, 3490]}, "edge": {"target": [], "time": []}}, "mouseout": {"state": {"target": ["12", "1", "0", "0", "26", "29", "27", "28", "12", "12", "13", "14", "20", "19", "22"], "time": [88, 305, 572, 756, 1007, 1284, 3407, 3524, 4723, 6124, 6174, 6579, 24874, 24907, 24991]}, "edge": {"target": [], "time": []}}}, "displayed_time": "14.55", "trialTime": 25313, "trial_type": "mouselab-mdp", "trial_index": 41, "time_elapsed": 946268, "internal_node_id": "0.0-6.0-1.0-32.0"}}, {"uniqueid": "w56521607:a84189791", "current_trial": 42, "dateTime": 1693396924650, "trialdata": {"revealed_states": [], "clicked_states": ["5"], "num_clicks_accrued": [0, 0, 0, 0, 0, 0, 0, 0, 0, 0, 0, 0, 0], "stateRewards": ["", -2, -3, 1, -14, 48, -49, 67, -1, -35, -48, 3, -2, 1, -4, -5, 86, -84, 39, 1, 48, 41, -42, -1, -4, 2, -7, 18, -86, 17, 7, -9, 57, -69], "withholdReward": false, "trial_id": "mdp_trial_34", "block": "test", "trialIndex": 35, "score": 27.85, "costs": -2.15, "simulationMode": [null, null, null, null, null], "rewards": [-2, -3, 1, -14, 48], "path": ["0", "0", "1", "2", "3", "4", "5"], "rt": [4370, 57, 75, 76, 30], "actions": ["up", "up", "up", "right", "up"], "actionTimes": [5196, 5748, 6332, 6916, 7437], "queries": {"click": {"state": {"target": ["5"], "time": [2085]}, "edge": {"target": [], "time": []}}, "mouseover": {"state": {"target": ["6", "5", "4", "7", "7"], "time": [1205, 1978, 4306, 4372, 4606]}, "edge": {"target": [], "time": []}}, "mouseout": {"state": {"target": ["0", "6", "5", "4", "7", "7", "12", "22"], "time": [955, 1372, 4272, 4339, 4423, 5456, 7189, 16723]}, "edge": {"target": [], "time": []}}}, "displayed_time": "14.83", "trialTime": 17308, "trial_type": "mouselab-mdp", "trial_index": 42, "time_elapsed": 963732, "internal_node_id": "0.0-6.0-1.0-33.0"}}, {"uniqueid": "w56521607:a84189791", "current_trial": 43, "dateTime": 1693396939722, "trialdata": {"revealed_states": [], "clicked_states": ["32"], "num_clicks_accrued": [0, 0, 0, 0, 0, 0, 0, 0, 0, 0, 0, 0, 0], "stateRewards": ["", 2, -1, 8, -2, -16, 69, -39, -7, -13, -27, -86, 2, -2, 2, 13, -34, -16, -20, -5, 19, 81, 32, -2, -1, 2, -14, 20, 80, 58, 4, 70, 12, 73], "withholdReward": false, "trial_id": "mdp_trial_35", "block": "test", "trialIndex": 36, "score": 12.85, "costs": -2.15, "simulationMode": [null, null, null, null, null], "rewards": [-2, -1, 2, 4, 12], "path": ["0", "0", "23", "24", "25", "30", "32"], "rt": [3818, 33, 69, 69, 110], "actions": ["left", "left", "left", "down", "down"], "actionTimes": [4301, 4829, 5397, 5965, 6589], "queries": {"click": {"state": {"target": ["32"], "time": [1109]}, "edge": {"target": [], "time": []}}, "mouseover": {"state": {"target": ["31", "30", "32", "31", "31"], "time": [827, 862, 1010, 2527, 2910]}, "edge": {"target": [], "time": []}}, "mouseout": {"state": {"target": ["0", "31", "30", "32", "31", "31", "22", "14"], "time": [676, 844, 960, 1188, 2711, 4677, 5927, 13728]}, "edge": {"target": [], "time": []}}}, "displayed_time": "14.48", "trialTime": 14917, "trial_type": "mouselab-mdp", "trial_index": 43, "time_elapsed": 978804, "internal_node_id": "0.0-6.0-1.0-34.0"}}, {"uniqueid": "w56521607:a84189791", "current_trial": 44, "dateTime": 1693396959146, "trialdata": {"revealed_states": [], "clicked_states": ["17"], "num_clicks_accrued": [0, 0, 0, 0, 0, 0, 0, 0, 0, 0, 0, 0, 0], "stateRewards": ["", -2, -4, -2, -13, -15, 87, -19, -6, -80, 30, 12, 1, 1, -8, 2, 55, 56, 15, 11, -68, -7, 55, -2, 3, -3, -3, 48, 62, 4, 1, -3, 69, -33], "withholdReward": false, "trial_id": "mdp_trial_36", "block": "test", "trialIndex": 37, "score": 49.85, "costs": -2.15, "simulationMode": [null, null, null, null, null], "rewards": [1, 1, -8, 2, 56], "path": ["0", "0", "12", "13", "14", "15", "17"], "rt": [4191, 53, 142, 53, 87], "actions": ["right", "right", "right", "up", "right"], "actionTimes": [4709, 5269, 5925, 6469, 7069], "queries": {"click": {"state": {"target": ["17"], "time": [1157]}, "edge": {"target": [], "time": []}}, "mouseover": {"state": {"target": ["0", "0", "17", "16", "15"], "time": [747, 851, 964, 1631, 4515]}, "edge": {"target": [], "time": []}}, "mouseout": {"state": {"target": ["0", "0", "0", "17", "16", "15", "14", "13"], "time": [364, 781, 881, 1465, 4481, 5336, 18865, 18966]}, "edge": {"target": [], "time": []}}}, "displayed_time": "14.52", "trialTime": 19261, "trial_type": "mouselab-mdp", "trial_index": 44, "time_elapsed": 998227, "internal_node_id": "0.0-6.0-1.0-35.0"}}, {"uniqueid": "w56521607:a84189791", "current_trial": 45, "dateTime": 1693396982065, "trialdata": {"revealed_states": [], "clicked_states": ["11", "6", "7", "10"], "num_clicks_accrued": [0, 0, 0, 0, 0, 0, 0, 0, 0, 0, 0, 0, 0], "stateRewards": ["", -2, 2, 3, -7, -31, -33, 29, -8, -57, 50, -83, -1, -1, 5, 13, -23, -62, 25, 5, -66, -85, 14, 1, -2, -1, 16, 71, 33, -19, -14, 5, -43, 79], "withholdReward": false, "trial_id": "mdp_trial_37", "block": "test", "trialIndex": 38, "score": 36.4, "costs": -8.6, "simulationMode": [null, null, null, null, null, null], "rewards": [-2, 2, 3, -8, 50], "path": ["0", "0", "1", "2", "3", "8", "10"], "rt": [10631, 619, 310, 175, 259, 53], "actions": ["up", "up", "up", "up", "left", "down"], "actionTimes": [11370, 11992, 12808, 13490, 14256, 14800], "queries": {"click": {"state": {"target": ["11", "6", "7", "10"], "time": [1614, 4733, 7867, 11015]}, "edge": {"target": [], "time": []}}, "mouseover": {"state": {"target": ["10", "11", "11", "11", "8", "3", "6", "6", "7", "2", "10"], "time": [927, 978, 1128, 1535, 1929, 1946, 2362, 2528, 5062, 8261, 8378]}, "edge": {"target": [], "time": []}}, "mouseout": {"state": {"target": ["0", "10", "11", "11", "11", "8", "3", "6", "6", "7", "2", "10", "1", "18", "20"], "time": [611, 945, 1027, 1228, 1928, 1945, 1961, 2445, 4862, 8228, 8278, 11447, 12941, 15179, 22478]}, "edge": {"target": [], "time": []}}}, "displayed_time": "15.31", "trialTime": 22759, "trial_type": "mouselab-mdp", "trial_index": 45, "time_elapsed": 1021147, "internal_node_id": "0.0-6.0-1.0-36.0"}}, {"uniqueid": "w56521607:a84189791", "current_trial": 46, "dateTime": 1693396997625, "trialdata": {"revealed_states": [], "clicked_states": ["16"], "num_clicks_accrued": [0, 0, 0, 0, 0, 0, 0, 0, 0, 0, 0, 0, 0], "stateRewards": ["", 2, -4, -8, -15, 71, -43, -41, 7, -17, 20, 67, -1, -1, -4, 6, 37, -24, -47, 9, 34, 57, 45, 1, 2, -4, -5, -23, 88, -5, 13, -40, 43, 44], "withholdReward": false, "trial_id": "mdp_trial_38", "block": "test", "trialIndex": 39, "score": 34.85, "costs": -2.15, "simulationMode": [null, null, null, null, null], "rewards": [-1, -1, -4, 6, 37], "path": ["0", "0", "12", "13", "14", "15", "16"], "rt": [3874, 56, 73, 35, 92], "actions": ["right", "right", "right", "up", "up"], "actionTimes": [4415, 4967, 5551, 6095, 6687], "queries": {"click": {"state": {"target": ["16"], "time": [1279]}, "edge": {"target": [], "time": []}}, "mouseover": {"state": {"target": ["18", "16", "16", "15", "17"], "time": [825, 909, 1171, 1942, 3342]}, "edge": {"target": [], "time": []}}, "mouseout": {"state": {"target": ["0", "1", "0", "18", "16", "16", "16", "15", "17", "20", "19", "22"], "time": [91, 298, 775, 859, 1059, 1368, 1893, 2876, 6509, 15010, 15043, 15094]}, "edge": {"target": [], "time": []}}}, "displayed_time": "14.54", "trialTime": 15399, "trial_type": "mouselab-mdp", "trial_index": 46, "time_elapsed": 1036707, "internal_node_id": "0.0-6.0-1.0-37.0"}}, {"uniqueid": "w56521607:a84189791", "current_trial": 47, "dateTime": 1693397019105, "trialdata": {"revealed_states": [], "clicked_states": ["32"], "num_clicks_accrued": [0, 0, 0, 0, 0, 0, 0, 0, 0, 0, 0, 0, 0], "stateRewards": ["", -2, -1, -2, -15, 87, 57, 29, -10, 77, -80, -7, 1, -3, 6, 14, -11, 87, -59, 4, -71, 16, -11, 2, 2, -7, 2, -47, 61, 50, 14, -20, 17, 81], "withholdReward": false, "trial_id": "mdp_trial_39", "block": "test", "trialIndex": 40, "score": 25.85, "costs": -2.15, "simulationMode": [null, null, null, null, null], "rewards": [2, 2, -7, 14, 17], "path": ["0", "0", "23", "24", "25", "30", "32"], "rt": [3778, 61, 64, 36, 18], "actions": ["left", "left", "left", "down", "down"], "actionTimes": [4479, 5039, 5607, 6159, 6695], "queries": {"click": {"state": {"target": ["32"], "time": [1342]}, "edge": {"target": [], "time": []}}, "mouseover": {"state": {"target": ["0", "30", "32"], "time": [992, 1124, 1314]}, "edge": {"target": [], "time": []}}, "mouseout": {"state": {"target": ["12", "0", "30", "32", "32", "22", "19", "19"], "time": [62, 1025, 1175, 1425, 2992, 6792, 6809, 20842]}, "edge": {"target": [], "time": []}}}, "displayed_time": "14.70", "trialTime": 21311, "trial_type": "mouselab-mdp", "trial_index": 47, "time_elapsed": 1058187, "internal_node_id": "0.0-6.0-1.0-38.0"}}, {"uniqueid": "w56521607:a84189791", "current_trial": 48, "dateTime": 1693397047529, "trialdata": {"revealed_states": [], "clicked_states": ["28"], "num_clicks_accrued": [0, 0, 0, 0, 0, 0, 0, 0, 0, 0, 0, 0, 0], "stateRewards": ["", 1, 2, -3, 6, -88, 74, -45, 7, -46, 40, -77, 1, -4, 4, 3, 22, -25, -59, 8, -83, 19, -60, -1, -1, -1, -8, 26, -29, 64, -7, -88, -51, -55], "withholdReward": false, "trial_id": "mdp_trial_40", "block": "test", "trialIndex": 41, "score": 12.85, "costs": -2.15, "simulationMode": [null, null, null, null, null], "rewards": [-1, -1, -1, -8, 26], "path": ["0", "0", "23", "24", "25", "26", "27"], "rt": [4253, 631, 51, 28, 9], "actions": ["left", "left", "left", "up", "up"], "actionTimes": [4728, 5864, 6416, 6960, 7474], "queries": {"click": {"state": {"target": ["28"], "time": [1550]}, "edge": {"target": [], "time": []}}, "mouseover": {"state": {"target": ["0", "23", "24", "28", "28", "23"], "time": [633, 848, 899, 1113, 1444, 4097]}, "edge": {"target": [], "time": []}}, "mouseout": {"state": {"target": ["12", "0", "23", "24", "28", "28", "23", "28", "26", "29", "24", "23", "20", "19"], "time": [213, 680, 881, 947, 1164, 4031, 4864, 4898, 4914, 6081, 8163, 8198, 27914, 27936]}, "edge": {"target": [], "time": []}}}, "displayed_time": "14.48", "trialTime": 28256, "trial_type": "mouselab-mdp", "trial_index": 48, "time_elapsed": 1086611, "internal_node_id": "0.0-6.0-1.0-39.0"}}, {"uniqueid": "w56521607:a84189791", "current_trial": 49, "dateTime": 1693397107209, "trialdata": {"rt": 59676, "response": {"Q0": "$-2 to $2", "Q1": "$-16 to $16", "Q2": "$-88 to $88", "Q3": "The cost for clicking on nodes varied between nodes.", "Q4": "Very motivated"}, "question_order": [0, 1, 2, 3, 4], "trial_id": "final_quiz_control", "trial_type": "survey-multi-choice", "trial_index": 49, "time_elapsed": 1146290, "internal_node_id": "0.0-6.0-2.0"}}, {"uniqueid": "w56521607:a84189791", "current_trial": 50, "dateTime": 1693397215567, "trialdata": {"rt": 108352, "response": {"Q0": "I realised it was more profitable to continue to pay for nodes because the value was usually a lot more than the cost", "Q1": "I don't think I improved, I just got quicker at looking.", "Q2": "I didn't find it difficult to improve."}, "trial_id": "self_report_control", "trial_type": "survey-text", "trial_index": 50, "time_elapsed": 1254649, "internal_node_id": "0.0-6.0-3.0"}}, {"uniqueid": "w56521607:a84189791", "current_trial": 51, "dateTime": 1693397252511, "trialdata": {"rt": 36939, "response": {"Q0": "Disagree", "Q1": "Neither disagree nor agree", "Q2": "Neither disagree nor agree", "Q3": "Agree", "Q4": "Disagree", "Q5": "Agree", "Q6": "Disagree"}, "question_order": [0, 1, 2, 3, 4, 5, 6], "trial_id": "self_report_2", "trial_type": "survey-multi-choice", "trial_index": 51, "time_elapsed": 1291593, "internal_node_id": "0.0-6.0-4.0"}}, {"uniqueid": "w56521607:a84189791", "current_trial": 52, "dateTime": 1693397278602, "trialdata": {"rt": 26087, "response": {"gender": "male", "age": "29", "colorblind": "0", "effort": "0"}, "trial_type": "survey-html-form", "trial_index": 52, "time_elapsed": 1317684, "internal_node_id": "0.0-6.0-5.0"}}, {"uniqueid": "w56521607:a84189791", "current_trial": 53, "dateTime": 1693397318188, "trialdata": {"rt": 39582, "response": {"Q0": "Nothing was confusing or hard to understand", "Q1": "I have never participated in this before", "Q2": "There were no errors during this study"}, "trial_type": "survey-text", "trial_index": 53, "time_elapsed": 1357270, "internal_node_id": "0.0-6.0-6.0"}}, {"uniqueid": "w56521607:a84189791", "current_trial": 54, "dateTime": 1693397343678, "trialdata": {"rt": 25487, "stimulus": "<h1>Completion Code Instructions (1/2)</h1>\n<br><br><br><br>\nYou have reached the end of the experiment! The completion code consists of two parts: (1) a code with 2 characters (2) a code with 6 characters. On this page, you will receive the second part of the code. The first part of the completion code will be on the next page.\n<br><br>\nThe second part of your completion code is: <b>EWEK22</b>\n<br><br>\nPlease note this down. Then, press 'Finish HIT' in order to find the first part of your completion code. Once the data has been saved, you will receive this code either in this window or in the original browser window where you started the experiment.\n", "response": 0, "trial_type": "html-button-response", "trial_index": 54, "time_elapsed": 1382760, "internal_node_id": "0.0-6.0-7.0"}}, {"uniqueid": "w56521607:a84189791", "current_trial": 55, "dateTime": 1693397344681, "trialdata": {"success": true, "trial_type": "fullscreen", "trial_index": 55, "time_elapsed": 1383763, "internal_node_id": "0.0-7.0"}}], "questiondata": {"params": {"CODE": "C6DMOQA6", "MIN_TIME": 14, "inspectCost": 1, "startTime": "Wed Aug 30 2023 12:46:00 GMT+0100 (British Summer Time)", "bonusRate": 0.002, "variance": "1_2_4_8_44", "branching": "31123"}, "final_score": 1523.55}, "eventdata": [{"eventtype": "initialized", "value": null, "timestamp": 1693395959699, "interval": 0}, {"eventtype": "window_resize", "value": [1035, 796], "timestamp": 1693395959699, "interval": 0}, {"eventtype": "window_resize", "value": [1035, 796], "timestamp": 1693395960027, "interval": 328}, {"eventtype": "focus", "value": "on", "timestamp": 1693395964366, "interval": 4339}, {"eventtype": "window_resize", "value": [1035, 796], "timestamp": 1693395964755, "interval": 389}, {"eventtype": "focus", "value": "off", "timestamp": 1693395965633, "interval": 878}, {"eventtype": "focus", "value": "on", "timestamp": 1693395974114, "interval": 8481}, {"eventtype": "focus", "value": "off", "timestamp": 1693395979052, "interval": 4938}, {"eventtype": "focus", "value": "on", "timestamp": 1693396024767, "interval": 45715}, {"eventtype": "focus", "value": "off", "timestamp": 1693396026974, "interval": 2207}, {"eventtype": "focus", "value": "on", "timestamp": 1693396030462, "interval": 3488}, {"eventtype": "focus", "value": "off", "timestamp": 1693396069238, "interval": 38776}, {"eventtype": "focus", "value": "on", "timestamp": 1693396085561, "interval": 16323}, {"eventtype": "focus", "value": "off", "timestamp": 1693396087700, "interval": 2139}, {"eventtype": "focus", "value": "on", "timestamp": 1693396100717, "interval": 13017}, {"eventtype": "focus", "value": "off", "timestamp": 1693396132660, "interval": 31943}, {"eventtype": "focus", "value": "on", "timestamp": 1693396158182, "interval": 25522}, {"eventtype": "focus", "value": "off", "timestamp": 1693396168344, "interval": 10162}, {"eventtype": "focus", "value": "on", "timestamp": 1693396172539, "interval": 4195}, {"eventtype": "focus", "value": "off", "timestamp": 1693396173354, "interval": 815}, {"eventtype": "focus", "value": "on", "timestamp": 1693396176838, "interval": 3484}, {"eventtype": "focus", "value": "off", "timestamp": 1693396177557, "interval": 719}, {"eventtype": "focus", "value": "on", "timestamp": 1693396181787, "interval": 4230}, {"eventtype": "focus", "value": "off", "timestamp": 1693396185042, "interval": 3255}, {"eventtype": "focus", "value": "on", "timestamp": 1693396188944, "interval": 3902}, {"eventtype": "focus", "value": "off", "timestamp": 1693396192896, "interval": 3952}, {"eventtype": "focus", "value": "on", "timestamp": 1693396195581, "interval": 2685}, {"eventtype": "focus", "value": "off", "timestamp": 1693396198784, "interval": 3203}, {"eventtype": "focus", "value": "on", "timestamp": 1693396203491, "interval": 4707}, {"eventtype": "focus", "value": "off", "timestamp": 1693396205251, "interval": 1760}, {"eventtype": "focus", "value": "on", "timestamp": 1693396205892, "interval": 641}, {"eventtype": "window_resize", "value": [787, 796], "timestamp": 1693396212679, "interval": 6787}, {"eventtype": "window_resize", "value": [894, 796], "timestamp": 1693396213294, "interval": 615}, {"eventtype": "focus", "value": "off", "timestamp": 1693396213822, "interval": 528}, {"eventtype": "focus", "value": "on", "timestamp": 1693396216537, "interval": 2715}, {"eventtype": "focus", "value": "off", "timestamp": 1693396224561, "interval": 8024}, {"eventtype": "focus", "value": "on", "timestamp": 1693396226058, "interval": 1497}, {"eventtype": "focus", "value": "off", "timestamp": 1693396235996, "interval": 9938}, {"eventtype": "focus", "value": "on", "timestamp": 1693396244980, "interval": 8984}, {"eventtype": "focus", "value": "off", "timestamp": 1693396257361, "interval": 12381}, {"eventtype": "focus", "value": "on", "timestamp": 1693396267505, "interval": 10144}, {"eventtype": "focus", "value": "off", "timestamp": 1693396277897, "interval": 10392}, {"eventtype": "focus", "value": "on", "timestamp": 1693396287389, "interval": 9492}, {"eventtype": "focus", "value": "off", "timestamp": 1693396301502, "interval": 14113}, {"eventtype": "focus", "value": "on", "timestamp": 1693396311922, "interval": 10420}, {"eventtype": "focus", "value": "off", "timestamp": 1693396325902, "interval": 13980}, {"eventtype": "focus", "value": "on", "timestamp": 1693396343025, "interval": 17123}, {"eventtype": "focus", "value": "off", "timestamp": 1693396343620, "interval": 595}, {"eventtype": "focus", "value": "on", "timestamp": 1693396344967, "interval": 1347}, {"eventtype": "focus", "value": "off", "timestamp": 1693396346458, "interval": 1491}, {"eventtype": "focus", "value": "on", "timestamp": 1693396353585, "interval": 7127}, {"eventtype": "focus", "value": "off", "timestamp": 1693396363426, "interval": 9841}, {"eventtype": "focus", "value": "on", "timestamp": 1693396365778, "interval": 2352}, {"eventtype": "focus", "value": "off", "timestamp": 1693396366692, "interval": 914}, {"eventtype": "focus", "value": "on", "timestamp": 1693396369638, "interval": 2946}, {"eventtype": "focus", "value": "off", "timestamp": 1693396370858, "interval": 1220}, {"eventtype": "focus", "value": "on", "timestamp": 1693396375410, "interval": 4552}, {"eventtype": "focus", "value": "off", "timestamp": 1693396381826, "interval": 6416}, {"eventtype": "focus", "value": "on", "timestamp": 1693396382587, "interval": 761}, {"eventtype": "focus", "value": "off", "timestamp": 1693396385842, "interval": 3255}, {"eventtype": "focus", "value": "on", "timestamp": 1693396388096, "interval": 2254}, {"eventtype": "focus", "value": "off", "timestamp": 1693396389328, "interval": 1232}, {"eventtype": "focus", "value": "on", "timestamp": 1693396391316, "interval": 1988}, {"eventtype": "focus", "value": "off", "timestamp": 1693396392097, "interval": 781}, {"eventtype": "focus", "value": "on", "timestamp": 1693396396393, "interval": 4296}, {"eventtype": "focus", "value": "off", "timestamp": 1693396398797, "interval": 2404}, {"eventtype": "focus", "value": "on", "timestamp": 1693396399588, "interval": 791}, {"eventtype": "focus", "value": "off", "timestamp": 1693396401609, "interval": 2021}, {"eventtype": "focus", "value": "on", "timestamp": 1693396405347, "interval": 3738}, {"eventtype": "focus", "value": "off", "timestamp": 1693396406127, "interval": 780}, {"eventtype": "focus", "value": "on", "timestamp": 1693396407032, "interval": 905}, {"eventtype": "focus", "value": "off", "timestamp": 1693396407819, "interval": 787}, {"eventtype": "focus", "value": "on", "timestamp": 1693396408607, "interval": 788}, {"eventtype": "focus", "value": "off", "timestamp": 1693396413247, "interval": 4640}, {"eventtype": "focus", "value": "on", "timestamp": 1693396416269, "interval": 3022}, {"eventtype": "focus", "value": "off", "timestamp": 1693396419129, "interval": 2860}, {"eventtype": "focus", "value": "on", "timestamp": 1693396423116, "interval": 3987}, {"eventtype": "focus", "value": "off", "timestamp": 1693396429654, "interval": 6538}, {"eventtype": "focus", "value": "on", "timestamp": 1693396431515, "interval": 1861}, {"eventtype": "focus", "value": "off", "timestamp": 1693396433479, "interval": 1964}, {"eventtype": "focus", "value": "on", "timestamp": 1693396434478, "interval": 999}, {"eventtype": "focus", "value": "off", "timestamp": 1693396435880, "interval": 1402}, {"eventtype": "focus", "value": "on", "timestamp": 1693396439914, "interval": 4034}, {"eventtype": "focus", "value": "off", "timestamp": 1693396449797, "interval": 9883}, {"eventtype": "focus", "value": "on", "timestamp": 1693396459935, "interval": 10138}, {"eventtype": "focus", "value": "off", "timestamp": 1693396468300, "interval": 8365}, {"eventtype": "focus", "value": "on", "timestamp": 1693396476457, "interval": 8157}, {"eventtype": "focus", "value": "off", "timestamp": 1693396485458, "interval": 9001}, {"eventtype": "focus", "value": "on", "timestamp": 1693396493375, "interval": 7917}, {"eventtype": "focus", "value": "off", "timestamp": 1693396503656, "interval": 10281}, {"eventtype": "focus", "value": "on", "timestamp": 1693396511792, "interval": 8136}, {"eventtype": "focus", "value": "off", "timestamp": 1693396524336, "interval": 12544}, {"eventtype": "focus", "value": "on", "timestamp": 1693396534758, "interval": 10422}, {"eventtype": "focus", "value": "off", "timestamp": 1693396545928, "interval": 11170}, {"eventtype": "focus", "value": "on", "timestamp": 1693396553228, "interval": 7300}, {"eventtype": "focus", "value": "off", "timestamp": 1693396561650, "interval": 8422}, {"eventtype": "focus", "value": "on", "timestamp": 1693396569080, "interval": 7430}, {"eventtype": "focus", "value": "off", "timestamp": 1693396585264, "interval": 16184}, {"eventtype": "focus", "value": "on", "timestamp": 1693396588992, "interval": 3728}, {"eventtype": "focus", "value": "off", "timestamp": 1693396590092, "interval": 1100}, {"eventtype": "focus", "value": "on", "timestamp": 1693396593444, "interval": 3352}, {"eventtype": "focus", "value": "off", "timestamp": 1693396601570, "interval": 8126}, {"eventtype": "focus", "value": "on", "timestamp": 1693396608704, "interval": 7134}, {"eventtype": "focus", "value": "off", "timestamp": 1693396617495, "interval": 8791}, {"eventtype": "focus", "value": "on", "timestamp": 1693396628152, "interval": 10657}, {"eventtype": "focus", "value": "off", "timestamp": 1693396645537, "interval": 17385}, {"eventtype": "focus", "value": "on", "timestamp": 1693396653670, "interval": 8133}, {"eventtype": "focus", "value": "off", "timestamp": 1693396662171, "interval": 8501}, {"eventtype": "focus", "value": "on", "timestamp": 1693396676993, "interval": 14822}, {"eventtype": "focus", "value": "off", "timestamp": 1693396686169, "interval": 9176}, {"eventtype": "focus", "value": "on", "timestamp": 1693396693105, "interval": 6936}, {"eventtype": "focus", "value": "off", "timestamp": 1693396701884, "interval": 8779}, {"eventtype": "focus", "value": "on", "timestamp": 1693396709331, "interval": 7447}, {"eventtype": "focus", "value": "off", "timestamp": 1693396720138, "interval": 10807}, {"eventtype": "focus", "value": "on", "timestamp": 1693396729411, "interval": 9273}, {"eventtype": "focus", "value": "off", "timestamp": 1693396737602, "interval": 8191}, {"eventtype": "focus", "value": "on", "timestamp": 1693396745548, "interval": 7946}, {"eventtype": "focus", "value": "off", "timestamp": 1693396757053, "interval": 11505}, {"eventtype": "focus", "value": "on", "timestamp": 1693396763982, "interval": 6929}, {"eventtype": "focus", "value": "off", "timestamp": 1693396772595, "interval": 8613}, {"eventtype": "focus", "value": "on", "timestamp": 1693396781490, "interval": 8895}, {"eventtype": "focus", "value": "off", "timestamp": 1693396793028, "interval": 11538}, {"eventtype": "focus", "value": "on", "timestamp": 1693396811694, "interval": 18666}, {"eventtype": "focus", "value": "off", "timestamp": 1693396823422, "interval": 11728}, {"eventtype": "focus", "value": "on", "timestamp": 1693396835392, "interval": 11970}, {"eventtype": "focus", "value": "off", "timestamp": 1693396849769, "interval": 14377}, {"eventtype": "focus", "value": "on", "timestamp": 1693396860888, "interval": 11119}, {"eventtype": "focus", "value": "off", "timestamp": 1693396872439, "interval": 11551}, {"eventtype": "focus", "value": "on", "timestamp": 1693396881547, "interval": 9108}, {"eventtype": "focus", "value": "off", "timestamp": 1693396888891, "interval": 7344}, {"eventtype": "focus", "value": "on", "timestamp": 1693396907074, "interval": 18183}, {"eventtype": "focus", "value": "off", "timestamp": 1693396915242, "interval": 8168}, {"eventtype": "focus", "value": "on", "timestamp": 1693396924509, "interval": 9267}, {"eventtype": "focus", "value": "off", "timestamp": 1693396931897, "interval": 7388}, {"eventtype": "focus", "value": "on", "timestamp": 1693396939560, "interval": 7663}, {"eventtype": "focus", "value": "off", "timestamp": 1693396947817, "interval": 8257}, {"eventtype": "focus", "value": "on", "timestamp": 1693396959036, "interval": 11219}, {"eventtype": "focus", "value": "off", "timestamp": 1693396974871, "interval": 15835}, {"eventtype": "focus", "value": "on", "timestamp": 1693396981950, "interval": 7079}, {"eventtype": "focus", "value": "off", "timestamp": 1693396990304, "interval": 8354}, {"eventtype": "focus", "value": "on", "timestamp": 1693396997491, "interval": 7187}, {"eventtype": "focus", "value": "off", "timestamp": 1693397005224, "interval": 7733}, {"eventtype": "focus", "value": "on", "timestamp": 1693397018956, "interval": 13732}, {"eventtype": "focus", "value": "off", "timestamp": 1693397028671, "interval": 9715}, {"eventtype": "focus", "value": "on", "timestamp": 1693397047394, "interval": 18723}, {"eventtype": "focus", "value": "off", "timestamp": 1693397049057, "interval": 1663}, {"eventtype": "focus", "value": "on", "timestamp": 1693397050737, "interval": 1680}, {"eventtype": "focus", "value": "off", "timestamp": 1693397057117, "interval": 6380}, {"eventtype": "focus", "value": "on", "timestamp": 1693397058446, "interval": 1329}, {"eventtype": "focus", "value": "off", "timestamp": 1693397070780, "interval": 12334}, {"eventtype": "focus", "value": "on", "timestamp": 1693397078822, "interval": 8042}, {"eventtype": "focus", "value": "off", "timestamp": 1693397081778, "interval": 2956}, {"eventtype": "focus", "value": "on", "timestamp": 1693397084046, "interval": 2268}, {"eventtype": "focus", "value": "off", "timestamp": 1693397103687, "interval": 19641}, {"eventtype": "focus", "value": "on", "timestamp": 1693397106019, "interval": 2332}, {"eventtype": "focus", "value": "off", "timestamp": 1693397108399, "interval": 2380}, {"eventtype": "focus", "value": "on", "timestamp": 1693397109034, "interval": 635}, {"eventtype": "focus", "value": "off", "timestamp": 1693397133549, "interval": 24515}, {"eventtype": "focus", "value": "on", "timestamp": 1693397157562, "interval": 24013}, {"eventtype": "focus", "value": "off", "timestamp": 1693397169932, "interval": 12370}, {"eventtype": "focus", "value": "on", "timestamp": 1693397203867, "interval": 33935}, {"eventtype": "focus", "value": "off", "timestamp": 1693397209214, "interval": 5347}, {"eventtype": "focus", "value": "on", "timestamp": 1693397215488, "interval": 6274}, {"eventtype": "focus", "value": "off", "timestamp": 1693397216811, "interval": 1323}, {"eventtype": "focus", "value": "on", "timestamp": 1693397220233, "interval": 3422}, {"eventtype": "focus", "value": "off", "timestamp": 1693397254274, "interval": 34041}, {"eventtype": "focus", "value": "on", "timestamp": 1693397257009, "interval": 2735}, {"eventtype": "focus", "value": "off", "timestamp": 1693397260788, "interval": 3779}, {"eventtype": "focus", "value": "on", "timestamp": 1693397262956, "interval": 2168}, {"eventtype": "focus", "value": "off", "timestamp": 1693397264247, "interval": 1291}, {"eventtype": "focus", "value": "on", "timestamp": 1693397273056, "interval": 8809}, {"eventtype": "focus", "value": "off", "timestamp": 1693397275787, "interval": 2731}, {"eventtype": "focus", "value": "on", "timestamp": 1693397278516, "interval": 2729}, {"eventtype": "focus", "value": "off", "timestamp": 1693397280640, "interval": 2124}, {"eventtype": "focus", "value": "on", "timestamp": 1693397281590, "interval": 950}, {"eventtype": "focus", "value": "off", "timestamp": 1693397287558, "interval": 5968}, {"eventtype": "focus", "value": "on", "timestamp": 1693397289704, "interval": 2146}, {"eventtype": "focus", "value": "off", "timestamp": 1693397300870, "interval": 11166}, {"eventtype": "focus", "value": "on", "timestamp": 1693397310496, "interval": 9626}, {"eventtype": "focus", "value": "off", "timestamp": 1693397315940, "interval": 5444}, {"eventtype": "focus", "value": "on", "timestamp": 1693397318098, "interval": 2158}, {"eventtype": "focus", "value": "off", "timestamp": 1693397331345, "interval": 13247}, {"eventtype": "focus", "value": "on", "timestamp": 1693397333796, "interval": 2451}], "useragent": "Mozilla/5.0 (Windows NT 10.0; Win64; x64) AppleWebKit/537.36 (KHTML, like Gecko) Chrome/116.0.0.0 Safari/537.36", "mode": "live", "id": "w56521607:a84189791", "status": "user data saved", "Beginhit": "2023-08-30 11:45:59.36746", "Beginexp": "2023-08-30 11:46:06.269864", "Endhit": "2023-08-30 12:09:05.909794", "psiturkStatus": 3, "browser": "<redacted>", "platform": "windows", "language": "en-US"}