{"condition": 0, "counterbalance": 0, "assignmentId": "a17405757", "workerId": "w91613593", "hitId": "h75851227", "currenttrial": 61, "bonus": 0, "data": [{"uniqueid": "w91613593:a17405757", "current_trial": 0, "dateTime": 1691142230423, "trialdata": {"success": true, "trial_type": "fullscreen", "trial_index": 0, "time_elapsed": 27176, "internal_node_id": "0.0-0.0"}}, {"uniqueid": "w91613593:a17405757", "current_trial": 1, "dateTime": 1691143577875, "trialdata": {"view_history": [{"page_index": 0, "viewing_time": 1347430}], "rt": 1347431, "trial_id": "exp_instructions_control", "trial_type": "instructions", "trial_index": 1, "time_elapsed": 1374628, "internal_node_id": "0.0-1.0"}}, {"uniqueid": "w91613593:a17405757", "current_trial": 2, "dateTime": 1691143582940, "trialdata": {"success": true, "trial_type": "fullscreen", "trial_index": 2, "time_elapsed": 1379693, "internal_node_id": "0.0-2.0-0.0"}}, {"uniqueid": "w91613593:a17405757", "current_trial": 3, "dateTime": 1691144020071, "trialdata": {"view_history": [{"page_index": 0, "viewing_time": 207836}, {"page_index": 1, "viewing_time": 110896}, {"page_index": 2, "viewing_time": 76624}, {"page_index": 3, "viewing_time": 41768}], "rt": 437124, "trial_id": "mouselab_instructions_1_control", "trial_type": "instructions", "trial_index": 3, "time_elapsed": 1816824, "internal_node_id": "0.0-2.0-1.0"}}, {"uniqueid": "w91613593:a17405757", "current_trial": 4, "dateTime": 1691144069015, "trialdata": {"revealed_states": [], "clicked_states": ["1", "23", "12"], "num_clicks_accrued": [0, 0, 0, 0, 0, 0, 0, 0, 0, 0, 0, 0, 0], "stateRewards": ["", -10, -10, -10, 10, 10, 10, 10, -10, -10, 10, -10, 10, 10, 10, 10, 10, -10, -10, 10, 10, 10, 10, -10, -10, -10, 10, -10, 10, -10, 10, 10, 10, -10], "withholdReward": false, "trial_id": "practice_1", "block": "test", "trialIndex": 0, "score": 52, "costs": -1.5, "simulationMode": [null, null, null, null, null], "rewards": [10, 10, 10, 10, 10], "path": ["0", "0", "12", "13", "14", "15", "16"], "rt": [21796, 3289, 2977, 611, 790], "actions": ["right", "right", "right", "up", "up"], "actionTimes": [25753, 29557, 33046, 34181, 35494], "queries": {"click": {"state": {"target": ["1", "23", "12"], "time": [11422, 14925, 19109]}, "edge": {"target": [], "time": []}}, "mouseover": {"state": {"target": ["1", "23", "23", "1", "23", "0", "12", "12"], "time": [6895, 9092, 10011, 11109, 12676, 15177, 18178, 23433]}, "edge": {"target": [], "time": []}}, "mouseout": {"state": {"target": ["0", "1", "1", "23", "23", "1", "23", "0", "12", "12", "12"], "time": [842, 2622, 8774, 9762, 10792, 12009, 15144, 17998, 19412, 21866, 36500]}, "edge": {"target": [], "time": []}}}, "displayed_time": "36.00", "trialTime": 47575, "trial_type": "mouselab-mdp", "trial_index": 4, "time_elapsed": 1865766, "internal_node_id": "0.0-2.0-2.0-0.0"}}, {"uniqueid": "w91613593:a17405757", "current_trial": 5, "dateTime": 1691144095093, "trialdata": {"revealed_states": [], "clicked_states": ["1", "23", "12"], "num_clicks_accrued": [0, 0, 0, 0, 0, 0, 0, 0, 0, 0, 0, 0, 0], "stateRewards": ["", -10, -10, 10, 10, 10, -10, -10, 10, -10, -10, -10, 10, 10, 10, -10, 10, 10, -10, -10, 10, 10, 10, 10, 10, 10, -10, 10, 10, -10, -10, -10, 10, 10], "withholdReward": false, "trial_id": "practice_2", "block": "test", "trialIndex": 1, "score": 32, "costs": -1.5, "simulationMode": [null, null, null, null, null], "rewards": [10, 10, 10, -10, 10], "path": ["0", "0", "23", "24", "25", "26", "27"], "rt": [10600, 984, 2379, 1271, 367], "actions": ["left", "left", "left", "up", "up"], "actionTimes": [14338, 15839, 18735, 20527, 21407], "queries": {"click": {"state": {"target": ["1", "23", "12"], "time": [5399, 8766, 10343]}, "edge": {"target": [], "time": []}}, "mouseover": {"state": {"target": ["1", "23", "12"], "time": [5119, 6265, 9683]}, "edge": {"target": [], "time": []}}, "mouseout": {"state": {"target": ["12", "0", "1", "23", "12", "12"], "time": [2966, 4893, 6082, 9433, 10474, 12984]}, "edge": {"target": [], "time": []}}}, "displayed_time": "21.93", "trialTime": 25680, "trial_type": "mouselab-mdp", "trial_index": 5, "time_elapsed": 1891845, "internal_node_id": "0.0-2.0-2.0-1.0"}}, {"uniqueid": "w91613593:a17405757", "current_trial": 6, "dateTime": 1691145732746, "trialdata": {"view_history": [{"page_index": 0, "viewing_time": 55790}, {"page_index": 1, "viewing_time": 1581839}], "rt": 1637629, "trial_id": "mouselab_instructions_2_control", "trial_type": "instructions", "trial_index": 6, "time_elapsed": 3529499, "internal_node_id": "0.0-2.0-3.0"}}, {"uniqueid": "w91613593:a17405757", "current_trial": 7, "dateTime": 1691145781835, "trialdata": {"rt": 49081, "response": {"Q0": "The cost for clicking on nodes may vary between nodes.", "Q1": "The better I perform the higher my bonus will be.", "Q2": "No, the amount of cash at each node of the web may be different each time.", "Q3": "To click on the least number of nodes.", "Q4": "Only before moving the spider.", "Q5": "3 seconds"}, "question_order": [0, 1, 2, 3, 4, 5], "correct": {"Q0": "The cost for clicking on nodes may vary between nodes.", "Q1": "The better I perform the higher my bonus will be.", "Q2": "No, the amount of cash at each node of the web may be different each time.", "Q3": "To get the highest total score.", "Q4": "Only before moving the spider.", "Q5": "3 seconds"}, "trial_id": "mouselab_quiz_control", "trial_type": "survey-multi-choice", "trial_index": 7, "time_elapsed": 3578588, "internal_node_id": "0.0-2.0-4.0"}}, {"uniqueid": "w91613593:a17405757", "current_trial": 8, "dateTime": 1691145788884, "trialdata": {"success": true, "trial_type": "fullscreen", "trial_index": 8, "time_elapsed": 3585637, "internal_node_id": "0.0-2.1-0.1"}}, {"uniqueid": "w91613593:a17405757", "current_trial": 9, "dateTime": 1691145827666, "trialdata": {"view_history": [{"page_index": 0, "viewing_time": 33483}, {"page_index": 1, "viewing_time": 2544}, {"page_index": 2, "viewing_time": 1672}, {"page_index": 3, "viewing_time": 1080}], "rt": 38779, "trial_id": "mouselab_instructions_1_control", "trial_type": "instructions", "trial_index": 9, "time_elapsed": 3624419, "internal_node_id": "0.0-2.1-1.1"}}, {"uniqueid": "w91613593:a17405757", "current_trial": 10, "dateTime": 1691145843784, "trialdata": {"revealed_states": [], "clicked_states": ["12", "23", "1"], "num_clicks_accrued": [0, 0, 0, 0, 0, 0, 0, 0, 0, 0, 0, 0, 0], "stateRewards": ["", -10, -10, -10, 10, 10, 10, 10, -10, -10, 10, -10, 10, 10, 10, 10, 10, -10, -10, 10, 10, 10, 10, -10, -10, -10, 10, -10, 10, -10, 10, 10, 10, -10], "withholdReward": false, "trial_id": "practice_1", "block": "test", "trialIndex": 2, "score": 52, "costs": -1.5, "simulationMode": [null, null, null, null, null], "rewards": [10, 10, 10, 10, 10], "path": ["0", "0", "12", "13", "14", "15", "16"], "rt": [6570, 779, 584, 683, 811], "actions": ["right", "right", "right", "up", "up"], "actionTimes": [8312, 9589, 10678, 11877, 13189], "queries": {"click": {"state": {"target": ["12", "23", "1"], "time": [4590, 5765, 7044]}, "edge": {"target": [], "time": []}}, "mouseover": {"state": {"target": ["0", "12", "12", "0", "23", "1"], "time": [2388, 2521, 4375, 5223, 5538, 6089]}, "edge": {"target": [], "time": []}}, "mouseout": {"state": {"target": ["0", "0", "12", "12", "0", "23", "1", "0"], "time": [2131, 2421, 2888, 5122, 5305, 5863, 11941, 14245]}, "edge": {"target": [], "time": []}}}, "displayed_time": "13.71", "trialTime": 15718, "trial_type": "mouselab-mdp", "trial_index": 10, "time_elapsed": 3640536, "internal_node_id": "0.0-2.1-2.1-0.1"}}, {"uniqueid": "w91613593:a17405757", "current_trial": 11, "dateTime": 1691145860312, "trialdata": {"revealed_states": [], "clicked_states": ["1", "23", "12"], "num_clicks_accrued": [0, 0, 0, 0, 0, 0, 0, 0, 0, 0, 0, 0, 0], "stateRewards": ["", -10, -10, 10, 10, 10, -10, -10, 10, -10, -10, -10, 10, 10, 10, -10, 10, 10, -10, -10, 10, 10, 10, 10, 10, 10, -10, 10, 10, -10, -10, -10, 10, 10], "withholdReward": false, "trial_id": "practice_2", "block": "test", "trialIndex": 3, "score": 32, "costs": -1.5, "simulationMode": [null, null, null, null, null], "rewards": [10, 10, 10, -10, 10], "path": ["0", "0", "23", "24", "25", "26", "27"], "rt": [7056, 288, 864, 649, 330], "actions": ["left", "left", "left", "up", "up"], "actionTimes": [9536, 10335, 11694, 12863, 13711], "queries": {"click": {"state": {"target": ["1", "23", "12"], "time": [3359, 5671, 6782]}, "edge": {"target": [], "time": []}}, "mouseover": {"state": {"target": ["1", "23", "23", "23", "0", "12"], "time": [3127, 3975, 5207, 5458, 6175, 6241]}, "edge": {"target": [], "time": []}}, "mouseout": {"state": {"target": ["0", "1", "23", "23", "23", "0", "12"], "time": [2943, 3824, 4893, 5241, 6142, 6208, 14311]}, "edge": {"target": [], "time": []}}}, "displayed_time": "14.21", "trialTime": 16127, "trial_type": "mouselab-mdp", "trial_index": 11, "time_elapsed": 3657064, "internal_node_id": "0.0-2.1-2.1-1.1"}}, {"uniqueid": "w91613593:a17405757", "current_trial": 12, "dateTime": 1691145864578, "trialdata": {"view_history": [{"page_index": 0, "viewing_time": 2790}, {"page_index": 1, "viewing_time": 1472}], "rt": 4262, "trial_id": "mouselab_instructions_2_control", "trial_type": "instructions", "trial_index": 12, "time_elapsed": 3661331, "internal_node_id": "0.0-2.1-3.1"}}, {"uniqueid": "w91613593:a17405757", "current_trial": 13, "dateTime": 1691146052357, "trialdata": {"rt": 187774, "response": {"Q0": "The cost for clicking on nodes may vary between nodes.", "Q1": "The better I perform the higher my bonus will be.", "Q2": "No, the amount of cash at each node of the web may be different each time.", "Q3": "To get the highest total score.", "Q4": "Only before moving the spider.", "Q5": "3 seconds"}, "question_order": [0, 1, 2, 3, 4, 5], "correct": {"Q0": "The cost for clicking on nodes may vary between nodes.", "Q1": "The better I perform the higher my bonus will be.", "Q2": "No, the amount of cash at each node of the web may be different each time.", "Q3": "To get the highest total score.", "Q4": "Only before moving the spider.", "Q5": "3 seconds"}, "trial_id": "mouselab_quiz_control", "trial_type": "survey-multi-choice", "trial_index": 13, "time_elapsed": 3849110, "internal_node_id": "0.0-2.1-4.1"}}, {"uniqueid": "w91613593:a17405757", "current_trial": 14, "dateTime": 1691146072921, "trialdata": {"rt": 20554, "stimulus": "\n<h1> Get ready to start the game! </h1>\n\nThank you for reading the instructions. Get ready start with the 40 rounds of this game.\n<br><br>\nIf you need to take a break, feel free to take one after the end of a round, before continuing to the next one.\n<br><br>\nRemember, the more money the spider gets, the bigger your bonus will be!\n<br><br>\n<div style='text-align: center;'>Press <code>space</code> to begin.</div>\n\n<br><br>\n(If, at any point, the <code>space</code> key does not take you to the next page, click once on the text and try again.)", "response": " ", "trial_id": "mdp_ready", "trial_type": "html-keyboard-response", "trial_index": 14, "time_elapsed": 3869673, "internal_node_id": "0.0-4.0-0.0"}}, {"uniqueid": "w91613593:a17405757", "current_trial": 15, "dateTime": 1691146098794, "trialdata": {"revealed_states": [], "clicked_states": ["12", "23", "1"], "num_clicks_accrued": [0, 0, 0, 0, 0, 0, 0, 0, 0, 0, 0, 0, 0], "stateRewards": ["", 1, 2, 3, 16, 63, -25, 16, -4, -14, 82, -66, -1, -3, -3, -11, -14, 19, 46, 3, -34, -82, 66, -2, -3, 4, -5, -63, 77, -37, -1, -45, -41, 84], "withholdReward": false, "trial_id": "mdp_trial_1", "block": "test", "trialIndex": 4, "score": -16.2, "costs": -4.199999999999999, "simulationMode": [null, null, null, null, null], "rewards": [1, 2, 3, -4, -14], "path": ["0", "0", "1", "2", "3", "8", "9"], "rt": [9047, 778, 7110, 580, 727], "actions": ["up", "up", "up", "left", "up"], "actionTimes": [11212, 12506, 20138, 21226, 22474], "queries": {"click": {"state": {"target": ["12", "23", "1"], "time": [3635, 5833, 7522]}, "edge": {"target": [], "time": []}}, "mouseover": {"state": {"target": ["12", "23", "1", "0", "12"], "time": [3353, 4522, 6856, 9023, 9156]}, "edge": {"target": [], "time": []}}, "mouseout": {"state": {"target": ["21", "20", "21", "22", "0", "0", "12", "23", "1", "0", "12"], "time": [369, 587, 670, 787, 1155, 3007, 4138, 6656, 8607, 9106, 24378]}, "edge": {"target": [], "time": []}}}, "displayed_time": "23.00", "trialTime": 25450, "trial_type": "mouselab-mdp", "trial_index": 15, "time_elapsed": 3895546, "internal_node_id": "0.0-4.0-1.0-0.0"}}, {"uniqueid": "w91613593:a17405757", "current_trial": 16, "dateTime": 1691146118072, "trialdata": {"revealed_states": [], "clicked_states": ["12", "23", "1"], "num_clicks_accrued": [0, 0, 0, 0, 0, 0, 0, 0, 0, 0, 0, 0, 0], "stateRewards": ["", 2, 3, -2, -8, -8, -41, 74, 15, -23, -80, 1, 1, 3, 3, -15, -63, -78, 67, 13, 75, -41, 86, 2, -2, 6, -3, -8, -49, 50, -6, 83, 74, 80], "withholdReward": false, "trial_id": "mdp_trial_2", "block": "test", "trialIndex": 5, "score": -9.2, "costs": -4.199999999999999, "simulationMode": [null, null, null, null, null], "rewards": [2, -2, 6, -3, -8], "path": ["0", "0", "23", "24", "25", "26", "27"], "rt": [8703, 492, 435, 764, 377], "actions": ["left", "left", "left", "up", "up"], "actionTimes": [11115, 12121, 13081, 14360, 15257], "queries": {"click": {"state": {"target": ["12", "23", "1"], "time": [3520, 6177, 8233]}, "edge": {"target": [], "time": []}}, "mouseover": {"state": {"target": ["12", "23", "1", "12"], "time": [3290, 4391, 6941, 10258]}, "edge": {"target": [], "time": []}}, "mouseout": {"state": {"target": ["12", "23", "1"], "time": [4173, 6724, 10025]}, "edge": {"target": [], "time": []}}}, "displayed_time": "16.41", "trialTime": 18857, "trial_type": "mouselab-mdp", "trial_index": 16, "time_elapsed": 3914825, "internal_node_id": "0.0-4.0-1.0-1.0"}}, {"uniqueid": "w91613593:a17405757", "current_trial": 17, "dateTime": 1691146143433, "trialdata": {"revealed_states": [], "clicked_states": ["12", "23", "1"], "num_clicks_accrued": [0, 0, 0, 0, 0, 0, 0, 0, 0, 0, 0, 0, 0], "stateRewards": ["", -2, 2, -5, -6, 10, -66, -58, -10, -11, -63, -70, -1, -4, -5, 7, 66, -64, -43, -3, 45, -37, 4, -2, -2, -6, -4, -30, 33, 43, 15, -32, -65, -59], "withholdReward": false, "trial_id": "mdp_trial_3", "block": "test", "trialIndex": 6, "score": 58.8, "costs": -4.199999999999999, "simulationMode": [null, null, null, null, null], "rewards": [-1, -4, -5, 7, 66], "path": ["0", "0", "12", "13", "14", "15", "16"], "rt": [11780, 501, 573, 1103, 401], "actions": ["right", "right", "right", "up", "up"], "actionTimes": [15399, 16404, 17492, 19109, 20006], "queries": {"click": {"state": {"target": ["12", "23", "1"], "time": [5973, 9405, 11918]}, "edge": {"target": [], "time": []}}, "mouseover": {"state": {"target": ["12", "0", "23", "1", "13"], "time": [5783, 6597, 6764, 11182, 14232]}, "edge": {"target": [], "time": []}}, "mouseout": {"state": {"target": ["22", "12", "0", "12", "0", "23", "1", "13"], "time": [2714, 2979, 5382, 6580, 6614, 10802, 14102, 14265]}, "edge": {"target": [], "time": []}}}, "displayed_time": "20.52", "trialTime": 24917, "trial_type": "mouselab-mdp", "trial_index": 17, "time_elapsed": 3940185, "internal_node_id": "0.0-4.0-1.0-2.0"}}, {"uniqueid": "w91613593:a17405757", "current_trial": 18, "dateTime": 1691146163945, "trialdata": {"revealed_states": [], "clicked_states": ["12", "23", "1"], "num_clicks_accrued": [0, 0, 0, 0, 0, 0, 0, 0, 0, 0, 0, 0, 0], "stateRewards": ["", 1, 1, 1, 15, -76, 52, -32, 14, -57, 37, 49, 1, -4, -3, 6, 83, -76, 25, 9, 36, -1, -17, -1, 4, 4, -2, -22, -21, 58, -15, -57, 49, -24], "withholdReward": false, "trial_id": "mdp_trial_4", "block": "test", "trialIndex": 7, "score": 78.8, "costs": -4.199999999999999, "simulationMode": [null, null, null, null, null], "rewards": [1, -4, -3, 6, 83], "path": ["0", "0", "12", "13", "14", "15", "16"], "rt": [8127, 1209, 516, 507, 338], "actions": ["right", "right", "right", "up", "up"], "actionTimes": [11724, 13452, 14476, 15484, 16332], "queries": {"click": {"state": {"target": ["12", "23", "1"], "time": [4827, 6659, 8611]}, "edge": {"target": [], "time": []}}, "mouseover": {"state": {"target": ["12", "23", "1"], "time": [4540, 6341, 8308]}, "edge": {"target": [], "time": []}}, "mouseout": {"state": {"target": ["20", "0", "12", "23"], "time": [419, 3135, 6122, 6829]}, "edge": {"target": [], "time": []}}}, "displayed_time": "17.60", "trialTime": 20011, "trial_type": "mouselab-mdp", "trial_index": 18, "time_elapsed": 3960697, "internal_node_id": "0.0-4.0-1.0-3.0"}}, {"uniqueid": "w91613593:a17405757", "current_trial": 19, "dateTime": 1691146190059, "trialdata": {"revealed_states": [], "clicked_states": ["1", "12", "23", "24"], "num_clicks_accrued": [0, 0, 0, 0, 0, 0, 0, 0, 0, 0, 0, 0, 0], "stateRewards": ["", -1, -4, -1, -11, 43, 69, 39, 4, 17, -20, -82, -2, -1, 4, 8, -79, 24, -79, 11, 36, 64, 41, 2, 4, -1, 11, -79, -47, 75, -3, 63, -36, -19], "withholdReward": false, "trial_id": "mdp_trial_5", "block": "test", "trialIndex": 8, "score": -68.6, "costs": -5.6, "simulationMode": [null, null, null, null, null], "rewards": [2, 4, -1, 11, -79], "path": ["0", "0", "23", "24", "25", "26", "27"], "rt": [13283, 592, 677, 899, 1115], "actions": ["left", "left", "left", "up", "up"], "actionTimes": [17141, 18261, 19461, 20885, 22517], "queries": {"click": {"state": {"target": ["1", "12", "23", "24"], "time": [5293, 7388, 10420, 13444]}, "edge": {"target": [], "time": []}}, "mouseover": {"state": {"target": ["1", "12", "0", "23", "24", "23"], "time": [4976, 6577, 8228, 8495, 12765, 15796]}, "edge": {"target": [], "time": []}}, "mouseout": {"state": {"target": ["1", "0", "1", "12", "0", "23", "24", "23"], "time": [2777, 4662, 6427, 8128, 8361, 12750, 15647, 19881]}, "edge": {"target": [], "time": []}}}, "displayed_time": "23.04", "trialTime": 25557, "trial_type": "mouselab-mdp", "trial_index": 19, "time_elapsed": 3986811, "internal_node_id": "0.0-4.0-1.0-4.0"}}, {"uniqueid": "w91613593:a17405757", "current_trial": 20, "dateTime": 1691146217611, "trialdata": {"revealed_states": [], "clicked_states": ["12", "1", "23", "13", "14"], "num_clicks_accrued": [0, 0, 0, 0, 0, 0, 0, 0, 0, 0, 0, 0, 0], "stateRewards": ["", 1, -1, 8, -3, 38, 85, -20, -4, 8, 23, 73, 2, -4, 6, -13, 44, 7, -28, -11, -77, 45, -69, 1, -1, -7, -11, 75, -51, -87, 7, 36, -53, -26], "withholdReward": false, "trial_id": "mdp_trial_6", "block": "test", "trialIndex": 9, "score": 28, "costs": -7, "simulationMode": [null, null, null, null, null], "rewards": [2, -4, 6, -13, 44], "path": ["0", "0", "12", "13", "14", "15", "16"], "rt": [14997, 337, 640, 545, 375], "actions": ["right", "right", "right", "up", "up"], "actionTimes": [18162, 19010, 20162, 21217, 22114], "queries": {"click": {"state": {"target": ["12", "1", "23", "13", "14"], "time": [4123, 6483, 9209, 11778, 14876]}, "edge": {"target": [], "time": []}}, "mouseover": {"state": {"target": ["12", "1", "23", "0", "12", "13", "14", "12", "12"], "time": [3900, 5867, 8902, 11319, 11386, 11501, 14517, 15501, 17774]}, "edge": {"target": [], "time": []}}, "mouseout": {"state": {"target": ["0", "12", "1", "23", "0", "12", "13", "14", "13", "12"], "time": [2161, 5148, 8535, 11303, 11353, 11451, 13916, 15137, 15251, 15517]}, "edge": {"target": [], "time": []}}}, "displayed_time": "22.62", "trialTime": 27122, "trial_type": "mouselab-mdp", "trial_index": 20, "time_elapsed": 4014363, "internal_node_id": "0.0-4.0-1.0-5.0"}}, {"uniqueid": "w91613593:a17405757", "current_trial": 21, "dateTime": 1691146322156, "trialdata": {"revealed_states": [], "clicked_states": ["23", "24", "12", "13", "1", "25", "26"], "num_clicks_accrued": [0, 0, 0, 0, 0, 0, 0, 0, 0, 0, 0, 0, 0], "stateRewards": ["", -1, 4, -3, 3, 57, -61, 5, -11, 23, -1, 34, -2, -4, -1, -13, 27, 38, -36, 4, -45, 21, 88, 1, -2, -1, 1, -69, -5, -78, -12, -9, 38, -54], "withholdReward": false, "trial_id": "mdp_trial_7", "block": "test", "trialIndex": 10, "score": 50.2, "costs": -9.8, "simulationMode": [null, null, null, null, null], "rewards": [-1, 4, -3, 3, 57], "path": ["0", "0", "1", "2", "3", "4", "5"], "rt": [25089, 3387, 1309, 787, 351], "actions": ["up", "up", "up", "right", "up"], "actionTimes": [31355, 35243, 37065, 38361, 39225], "queries": {"click": {"state": {"target": ["23", "24", "12", "13", "1", "25", "26"], "time": [7778, 10371, 14123, 17083, 19769, 24178, 27264]}, "edge": {"target": [], "time": []}}, "mouseover": {"state": {"target": ["23", "24", "23", "0", "12", "12", "12", "13", "12", "1", "23", "2", "31", "25", "24", "26", "28", "2", "1"], "time": [7547, 10146, 12629, 12680, 12829, 13114, 13816, 16232, 19165, 19485, 22699, 23099, 23716, 23919, 26370, 27000, 29134, 29404, 30188]}, "edge": {"target": [], "time": []}}, "mouseout": {"state": {"target": ["12", "0", "23", "24", "23", "0", "12", "12", "12", "13", "13", "12", "1", "1", "1", "23", "2", "31", "25", "24", "26", "28", "2", "1"], "time": [4962, 7415, 10096, 12596, 12662, 12729, 12946, 13646, 16131, 17172, 19149, 19199, 21870, 22202, 22469, 22833, 23650, 23808, 26343, 26503, 28884, 29184, 29971, 30305]}, "edge": {"target": [], "time": []}}}, "displayed_time": "39.73", "trialTime": 104156, "trial_type": "mouselab-mdp", "trial_index": 21, "time_elapsed": 4118908, "internal_node_id": "0.0-4.0-1.0-6.0"}}, {"uniqueid": "w91613593:a17405757", "current_trial": 22, "dateTime": 1691146344574, "trialdata": {"revealed_states": [], "clicked_states": ["1", "2", "3", "8"], "num_clicks_accrued": [0, 0, 0, 0, 0, 0, 0, 0, 0, 0, 0, 0, 0], "stateRewards": ["", 2, 3, -6, -5, -3, 55, 40, 11, 61, 11, 51, 2, -4, -6, 9, -25, 29, -15, -6, 7, -77, -2, -2, -4, 1, 14, -43, -1, 56, -12, -54, 41, -74], "withholdReward": false, "trial_id": "mdp_trial_8", "block": "test", "trialIndex": 11, "score": 65.4, "costs": -5.6, "simulationMode": [null, null, null, null, null], "rewards": [2, 3, -6, 11, 61], "path": ["0", "0", "1", "2", "3", "8", "9"], "rt": [12554, 208, 116, 1546, 342], "actions": ["up", "up", "up", "left", "up"], "actionTimes": [14738, 15456, 16096, 18144, 19007], "queries": {"click": {"state": {"target": ["1", "2", "3", "8"], "time": [3231, 5672, 8887, 11615]}, "edge": {"target": [], "time": []}}, "mouseover": {"state": {"target": ["1", "2", "3", "8", "7", "18"], "time": [3010, 4257, 8241, 11293, 11893, 13779]}, "edge": {"target": [], "time": []}}, "mouseout": {"state": {"target": ["12", "0", "1", "2", "3", "8", "7", "18"], "time": [811, 1640, 4041, 7857, 11142, 11793, 11943, 13813]}, "edge": {"target": [], "time": []}}}, "displayed_time": "19.53", "trialTime": 21968, "trial_type": "mouselab-mdp", "trial_index": 22, "time_elapsed": 4141326, "internal_node_id": "0.0-4.0-1.0-7.0"}}, {"uniqueid": "w91613593:a17405757", "current_trial": 23, "dateTime": 1691146388590, "trialdata": {"revealed_states": [], "clicked_states": ["23", "24", "25"], "num_clicks_accrued": [0, 0, 0, 0, 0, 0, 0, 0, 0, 0, 0, 0, 0], "stateRewards": ["", -1, -2, 8, -6, -79, -6, 87, 9, -5, -66, -38, 2, 2, 5, -6, -82, 74, 85, -8, 67, -30, -15, 1, -2, -2, -2, 87, 64, 49, 7, 2, -38, -9], "withholdReward": false, "trial_id": "mdp_trial_9", "block": "test", "trialIndex": 12, "score": 4.800000000000001, "costs": -4.199999999999999, "simulationMode": [null, null, null, null, null], "rewards": [-1, -2, 8, 9, -5], "path": ["0", "0", "1", "2", "3", "8", "9"], "rt": [21841, 309, 308, 532, 281], "actions": ["up", "up", "up", "left", "up"], "actionTimes": [35079, 35911, 36742, 37768, 38567], "queries": {"click": {"state": {"target": ["23", "24", "25"], "time": [14528, 16431, 18853]}, "edge": {"target": [], "time": []}}, "mouseover": {"state": {"target": ["23", "24", "25", "3", "16", "15", "14", "13", "12", "0"], "time": [14091, 16108, 18513, 29729, 30047, 30096, 30431, 32264, 33950, 34150]}, "edge": {"target": [], "time": []}}, "mouseout": {"state": {"target": ["18", "7", "25", "23", "24", "25", "3", "16", "15", "14", "13", "12", "0"], "time": [669, 686, 12358, 15425, 18479, 29667, 29746, 30079, 30230, 32147, 33850, 34017, 34534]}, "edge": {"target": [], "time": []}}}, "displayed_time": "39.09", "trialTime": 43577, "trial_type": "mouselab-mdp", "trial_index": 23, "time_elapsed": 4185343, "internal_node_id": "0.0-4.0-1.0-8.0"}}, {"uniqueid": "w91613593:a17405757", "current_trial": 24, "dateTime": 1691146490861, "trialdata": {"revealed_states": [], "clicked_states": ["12"], "num_clicks_accrued": [0, 0, 0, 0, 0, 0, 0, 0, 0, 0, 0, 0, 0], "stateRewards": ["", -2, -3, -5, 8, 27, 11, 43, -6, -24, -87, 69, -2, 1, 1, 9, 19, 48, -37, 9, -14, 45, 62, 1, 2, 1, 16, -81, -41, 22, 4, -6, -63, 47], "withholdReward": false, "trial_id": "mdp_trial_10", "block": "test", "trialIndex": 13, "score": -41.4, "costs": -1.4, "simulationMode": [null, null, null, null, null], "rewards": [-2, -3, -5, -6, -24], "path": ["0", "0", "1", "2", "3", "8", "9"], "rt": [11780, 9049, 387, 367, 571], "actions": ["up", "up", "up", "left", "up"], "actionTimes": [63352, 72937, 73849, 74712, 75801], "queries": {"click": {"state": {"target": ["12"], "time": [52761]}, "edge": {"target": [], "time": []}}, "mouseover": {"state": {"target": ["12", "0", "6", "7", "1", "0", "0", "1"], "time": [52405, 56720, 60038, 60090, 60271, 61771, 61921, 62888]}, "edge": {"target": [], "time": []}}, "mouseout": {"state": {"target": ["0", "0", "12", "0", "6", "7", "1", "0", "0", "1", "1", "8", "3", "2", "2", "3", "2", "3", "8", "11", "28", "26", "1", "12", "0"], "time": [50616, 52271, 56540, 56737, 60057, 60121, 61655, 61806, 62304, 66642, 67226, 68323, 68357, 68423, 87106, 87550, 87580, 95019, 95035, 95052, 97420, 97534, 97666, 97700, 100953]}, "edge": {"target": [], "time": []}}}, "displayed_time": "76.31", "trialTime": 101832, "trial_type": "mouselab-mdp", "trial_index": 24, "time_elapsed": 4287613, "internal_node_id": "0.0-4.0-1.0-9.0"}}, {"uniqueid": "w91613593:a17405757", "current_trial": 25, "dateTime": 1691146521583, "trialdata": {"revealed_states": [], "clicked_states": ["12", "23", "1", "13", "14", "2"], "num_clicks_accrued": [0, 0, 0, 0, 0, 0, 0, 0, 0, 0, 0, 0, 0], "stateRewards": ["", -2, 2, 8, -6, -25, 3, 87, 2, -62, -2, 74, -2, -1, 2, -1, 79, 49, -37, -14, 5, 67, -9, -1, 2, -2, 5, 15, 38, 32, -14, -38, -38, 30], "withholdReward": false, "trial_id": "mdp_trial_11", "block": "test", "trialIndex": 14, "score": -31.4, "costs": -8.4, "simulationMode": [null, null, null, null, null], "rewards": [-2, 2, 8, -6, -25], "path": ["0", "0", "1", "2", "3", "4", "5"], "rt": [17473, 321, 672, 655, 562], "actions": ["up", "up", "up", "right", "up"], "actionTimes": [19058, 19905, 21089, 22257, 23330], "queries": {"click": {"state": {"target": ["12", "23", "1", "13", "14", "2"], "time": [2784, 4801, 7009, 9945, 12841, 15995]}, "edge": {"target": [], "time": []}}, "mouseover": {"state": {"target": ["0", "12", "12", "0", "23", "1", "2", "12", "13", "12", "14", "2"], "time": [2162, 2211, 2478, 3675, 4042, 6726, 9097, 9327, 9646, 12198, 12511, 15730]}, "edge": {"target": [], "time": []}}, "mouseout": {"state": {"target": ["12", "1", "0", "12", "12", "0", "23", "1", "1", "2", "1", "12", "13", "12", "14"], "time": [792, 975, 2194, 2228, 3625, 3874, 6662, 7107, 8963, 9246, 9293, 9343, 12181, 12347, 15565]}, "edge": {"target": [], "time": []}}}, "displayed_time": "23.85", "trialTime": 30226, "trial_type": "mouselab-mdp", "trial_index": 25, "time_elapsed": 4318335, "internal_node_id": "0.0-4.0-1.0-10.0"}}, {"uniqueid": "w91613593:a17405757", "current_trial": 26, "dateTime": 1691146560783, "trialdata": {"revealed_states": [], "clicked_states": ["23", "24", "25", "13", "12", "14", "2", "3"], "num_clicks_accrued": [0, 0, 0, 0, 0, 0, 0, 0, 0, 0, 0, 0, 0], "stateRewards": ["", -1, -3, -3, 1, -38, 2, -53, -2, -1, -81, 70, -1, 1, -5, -9, 46, 15, 35, -1, -22, 38, 59, -2, 4, -8, 13, 1, -83, -43, 4, 76, 13, 48], "withholdReward": false, "trial_id": "mdp_trial_12", "block": "test", "trialIndex": 15, "score": -3.200000000000003, "costs": -11.200000000000001, "simulationMode": [null, null, null, null, null], "rewards": [-2, 4, -8, 13, 1], "path": ["0", "0", "23", "24", "25", "26", "27"], "rt": [23078, 420, 224, 337, 193], "actions": ["left", "left", "left", "up", "up"], "actionTimes": [26859, 27785, 28506, 29354, 30041], "queries": {"click": {"state": {"target": ["23", "24", "25", "13", "12", "14", "2", "3"], "time": [4817, 6592, 9539, 12080, 14450, 17135, 20234, 23064]}, "edge": {"target": [], "time": []}}, "mouseover": {"state": {"target": ["23", "24", "25", "24", "23", "0", "12", "13", "12", "14", "2", "2", "1", "3", "23"], "time": [4438, 6322, 9139, 11578, 11607, 11673, 11723, 11874, 14025, 16742, 19642, 19912, 22380, 22794, 25684]}, "edge": {"target": [], "time": []}}, "mouseout": {"state": {"target": ["2", "0", "23", "24", "25", "24", "23", "0", "12", "13", "12", "13", "14", "2", "2", "1", "2", "3", "23"], "time": [2772, 3801, 6272, 9005, 11543, 11595, 11640, 11706, 11823, 13992, 16345, 16528, 19276, 19692, 22263, 22530, 22594, 25281, 26131]}, "edge": {"target": [], "time": []}}}, "displayed_time": "30.55", "trialTime": 38746, "trial_type": "mouselab-mdp", "trial_index": 26, "time_elapsed": 4357535, "internal_node_id": "0.0-4.0-1.0-11.0"}}, {"uniqueid": "w91613593:a17405757", "current_trial": 27, "dateTime": 1691146619842, "trialdata": {"revealed_states": [], "clicked_states": [], "num_clicks_accrued": [0, 0, 0, 0, 0, 0, 0, 0, 0, 0, 0, 0, 0], "stateRewards": ["", 2, -1, -2, -5, -47, -57, -33, -11, 31, -18, -72, -2, 1, -4, -8, -46, -53, -50, 15, -85, -9, 39, -2, -2, 1, 14, -1, -8, 53, -12, -41, -74, 62], "withholdReward": false, "trial_id": "mdp_trial_13", "block": "test", "trialIndex": 16, "score": -59, "costs": 0, "simulationMode": [null, null, null, null, null], "rewards": [-2, 1, -4, -8, -46], "path": ["0", "0", "12", "13", "14", "15", "16"], "rt": [8328, 461, 356, 850, 252], "actions": ["right", "right", "right", "up", "up"], "actionTimes": [13215, 14188, 15068, 16413, 17181], "queries": {"click": {"state": {"target": [], "time": []}, "edge": {"target": [], "time": []}}, "mouseover": {"state": {"target": ["23", "28", "26", "10", "2", "18", "1", "12", "12", "1", "1", "12", "13", "13"], "time": [4909, 4954, 4988, 6758, 6782, 6871, 7092, 9222, 9607, 10661, 11007, 11744, 12457, 13078]}, "edge": {"target": [], "time": []}}, "mouseout": {"state": {"target": ["12", "0", "0", "23", "28", "26", "10", "2", "18", "1", "12", "12", "1", "1", "12", "13", "13", "14", "20", "21", "12"], "time": [3786, 3939, 4906, 4922, 4971, 5022, 6776, 6800, 7025, 7142, 9256, 10576, 10760, 11527, 12423, 12594, 14224, 14297, 18245, 18459, 55290]}, "edge": {"target": [], "time": []}}}, "displayed_time": "18.89", "trialTime": 58592, "trial_type": "mouselab-mdp", "trial_index": 27, "time_elapsed": 4416594, "internal_node_id": "0.0-4.0-1.0-12.0"}}, {"uniqueid": "w91613593:a17405757", "current_trial": 28, "dateTime": 1691146651345, "trialdata": {"revealed_states": [], "clicked_states": ["12"], "num_clicks_accrued": [0, 0, 0, 0, 0, 0, 0, 0, 0, 0, 0, 0, 0], "stateRewards": ["", -1, -3, 1, 13, -64, -29, 12, -4, -33, 50, 56, 2, -3, 4, 11, -64, -58, -55, 12, 47, 38, -25, -2, 2, 5, -15, 85, 7, 84, 10, 8, 57, 26], "withholdReward": false, "trial_id": "mdp_trial_14", "block": "test", "trialIndex": 17, "score": -41.4, "costs": -1.4, "simulationMode": [null, null, null, null, null], "rewards": [-1, -3, 1, -4, -33], "path": ["0", "0", "1", "2", "3", "8", "9"], "rt": [13289, 149, 428, 741, 546], "actions": ["up", "up", "up", "left", "up"], "actionTimes": [24564, 25218, 26148, 27412, 28468], "queries": {"click": {"state": {"target": ["12"], "time": [12694]}, "edge": {"target": [], "time": []}}, "mouseover": {"state": {"target": ["12", "0", "10", "1", "0", "22"], "time": [12245, 13696, 22066, 22449, 23853, 23951]}, "edge": {"target": [], "time": []}}, "mouseout": {"state": {"target": ["0", "12", "0", "10", "1", "0", "22"], "time": [12216, 13680, 13730, 22082, 23316, 23871, 29718]}, "edge": {"target": [], "time": []}}}, "displayed_time": "29.28", "trialTime": 30964, "trial_type": "mouselab-mdp", "trial_index": 28, "time_elapsed": 4448097, "internal_node_id": "0.0-4.0-1.0-13.0"}}, {"uniqueid": "w91613593:a17405757", "current_trial": 29, "dateTime": 1691146670991, "trialdata": {"revealed_states": [], "clicked_states": ["12", "13"], "num_clicks_accrued": [0, 0, 0, 0, 0, 0, 0, 0, 0, 0, 0, 0, 0], "stateRewards": ["", 1, -3, -1, 9, -34, -40, 22, -7, 45, 53, -11, 2, 4, 5, 15, 21, 37, -49, -3, 80, -28, -34, 1, -3, 1, 1, -40, -6, -5, -16, -85, -86, 59], "withholdReward": false, "trial_id": "mdp_trial_15", "block": "test", "trialIndex": 18, "score": 44.2, "costs": -2.8, "simulationMode": [null, null, null, null, null], "rewards": [2, 4, 5, 15, 21], "path": ["0", "0", "12", "13", "14", "15", "16"], "rt": [6822, 306, 818, 428, 645], "actions": ["right", "right", "right", "up", "up"], "actionTimes": [9085, 9916, 11244, 12188, 13338], "queries": {"click": {"state": {"target": ["12", "13"], "time": [3511, 5834]}, "edge": {"target": [], "time": []}}, "mouseover": {"state": {"target": ["12", "13", "12", "13", "12"], "time": [2737, 3096, 3223, 5541, 8192]}, "edge": {"target": [], "time": []}}, "mouseout": {"state": {"target": ["22", "12", "0", "12", "13", "12", "13", "13", "12"], "time": [1204, 1421, 1768, 2887, 3173, 5374, 7838, 8175, 8225]}, "edge": {"target": [], "time": []}}}, "displayed_time": "16.27", "trialTime": 19179, "trial_type": "mouselab-mdp", "trial_index": 29, "time_elapsed": 4467743, "internal_node_id": "0.0-4.0-1.0-14.0"}}, {"uniqueid": "w91613593:a17405757", "current_trial": 30, "dateTime": 1691146696353, "trialdata": {"revealed_states": [], "clicked_states": [], "num_clicks_accrued": [0, 0, 0, 0, 0, 0, 0, 0, 0, 0, 0, 0, 0], "stateRewards": ["", -2, 3, 3, -14, 62, 36, 49, 16, 11, 17, -84, 2, -1, 6, 2, -82, -73, 49, -6, -87, 48, 50, -1, -2, -1, -16, -11, 37, -44, 4, 55, 73, -10], "withholdReward": false, "trial_id": "mdp_trial_16", "block": "test", "trialIndex": 19, "score": 52, "costs": 0, "simulationMode": [null, null, null, null, null], "rewards": [-2, 3, 3, -14, 62], "path": ["0", "0", "1", "2", "3", "4", "5"], "rt": [4519, 329, 379, 760, 501], "actions": ["up", "up", "up", "right", "up"], "actionTimes": [10191, 11039, 11935, 13198, 14222], "queries": {"click": {"state": {"target": [], "time": []}, "edge": {"target": [], "time": []}}, "mouseover": {"state": {"target": ["0"], "time": [9355]}, "edge": {"target": [], "time": []}}, "mouseout": {"state": {"target": ["0", "12", "14"], "time": [12589, 12609, 12635]}, "edge": {"target": [], "time": []}}}, "displayed_time": "19.68", "trialTime": 24879, "trial_type": "mouselab-mdp", "trial_index": 30, "time_elapsed": 4493105, "internal_node_id": "0.0-4.0-1.0-15.0"}}, {"uniqueid": "w91613593:a17405757", "current_trial": 31, "dateTime": 1691146720481, "trialdata": {"revealed_states": [], "clicked_states": ["23", "24", "1", "12", "13"], "num_clicks_accrued": [0, 0, 0, 0, 0, 0, 0, 0, 0, 0, 0, 0, 0], "stateRewards": ["", -2, -3, -7, 7, -54, -69, -4, -14, -77, 22, 40, -2, -1, 5, 6, -35, 50, -60, 10, -28, 75, 57, 1, -4, -2, 2, 68, 34, -18, 12, 3, -21, -43], "withholdReward": false, "trial_id": "mdp_trial_17", "block": "test", "trialIndex": 20, "score": 58, "costs": -7, "simulationMode": [null, null, null, null, null], "rewards": [1, -4, -2, 2, 68], "path": ["0", "0", "23", "24", "25", "26", "27"], "rt": [16293, 161, 390, 399, 188], "actions": ["left", "left", "left", "up", "up"], "actionTimes": [18469, 19155, 20051, 20963, 21668], "queries": {"click": {"state": {"target": ["23", "24", "1", "12", "13"], "time": [3140, 5540, 9211, 11891, 14715]}, "edge": {"target": [], "time": []}}, "mouseover": {"state": {"target": ["23", "24", "25", "1", "12", "13", "14", "13", "13", "14", "24", "23"], "time": [2852, 5057, 7845, 8944, 11442, 13939, 14006, 14156, 14459, 15573, 17060, 17774]}, "edge": {"target": [], "time": []}}, "mouseout": {"state": {"target": ["21", "0", "23", "24", "24", "25", "1", "12", "12", "13", "14", "13", "13", "14", "13", "24", "23"], "time": [853, 1718, 5007, 5645, 7741, 8591, 11209, 11999, 13906, 13972, 14108, 14173, 15440, 16601, 16640, 17210, 17824]}, "edge": {"target": [], "time": []}}}, "displayed_time": "22.16", "trialTime": 23620, "trial_type": "mouselab-mdp", "trial_index": 31, "time_elapsed": 4517233, "internal_node_id": "0.0-4.0-1.0-16.0"}}, {"uniqueid": "w91613593:a17405757", "current_trial": 32, "dateTime": 1691146750128, "trialdata": {"revealed_states": [], "clicked_states": ["1", "12", "13", "23", "24"], "num_clicks_accrued": [0, 0, 0, 0, 0, 0, 0, 0, 0, 0, 0, 0, 0], "stateRewards": ["", -2, -1, -5, 10, -36, -70, 68, -9, 86, 71, -10, 2, -4, 7, -7, 66, 44, -66, -13, -69, 43, 15, -2, 2, 6, -13, 62, 57, 50, -10, -69, 42, -72], "withholdReward": false, "trial_id": "mdp_trial_18", "block": "test", "trialIndex": 21, "score": 48, "costs": -7, "simulationMode": [null, null, null, null, null], "rewards": [-2, 2, 6, -13, 62], "path": ["0", "0", "23", "24", "25", "26", "27"], "rt": [14268, 212, 391, 196, 86], "actions": ["left", "left", "left", "up", "up"], "actionTimes": [24062, 24780, 25675, 26380, 26972], "queries": {"click": {"state": {"target": ["1", "12", "13", "23", "24"], "time": [10743, 13084, 15884, 18836, 21028]}, "edge": {"target": [], "time": []}}, "mouseover": {"state": {"target": ["1", "12", "13", "12", "0", "23", "23", "24"], "time": [10580, 12694, 15349, 18012, 18062, 18317, 18662, 20800]}, "edge": {"target": [], "time": []}}, "mouseout": {"state": {"target": ["0", "1", "12", "12", "13", "12", "0", "23", "23"], "time": [9411, 12480, 13174, 15331, 17979, 18046, 18162, 18396, 20729]}, "edge": {"target": [], "time": []}}}, "displayed_time": "27.47", "trialTime": 29148, "trial_type": "mouselab-mdp", "trial_index": 32, "time_elapsed": 4546880, "internal_node_id": "0.0-4.0-1.0-17.0"}}, {"uniqueid": "w91613593:a17405757", "current_trial": 33, "dateTime": 1691146770545, "trialdata": {"revealed_states": [], "clicked_states": ["12", "23", "1"], "num_clicks_accrued": [0, 0, 0, 0, 0, 0, 0, 0, 0, 0, 0, 0, 0], "stateRewards": ["", 1, 1, -7, -9, -44, 24, -83, -15, 44, -24, 72, -2, -3, 4, -5, 57, 55, 29, -11, 22, 12, -25, -1, 2, 7, 12, 33, -8, 47, -4, 8, 50, -4], "withholdReward": false, "trial_id": "mdp_trial_19", "block": "test", "trialIndex": 22, "score": -62.2, "costs": -4.199999999999999, "simulationMode": [null, null, null, null, null], "rewards": [1, 1, -7, -9, -44], "path": ["0", "0", "1", "2", "3", "4", "5"], "rt": [10887, 118, 893, 772, 337], "actions": ["up", "up", "up", "right", "up"], "actionTimes": [13411, 14047, 15439, 16735, 17583], "queries": {"click": {"state": {"target": ["12", "23", "1"], "time": [5375, 7886, 10406]}, "edge": {"target": [], "time": []}}, "mouseover": {"state": {"target": ["0", "12", "13", "0", "23", "1"], "time": [4710, 5209, 6590, 7244, 7610, 10177]}, "edge": {"target": [], "time": []}}, "mouseout": {"state": {"target": ["24", "23", "0", "12", "13", "0", "23"], "time": [1753, 1853, 4859, 6328, 7210, 7276, 8000]}, "edge": {"target": [], "time": []}}}, "displayed_time": "18.08", "trialTime": 19919, "trial_type": "mouselab-mdp", "trial_index": 33, "time_elapsed": 4567297, "internal_node_id": "0.0-4.0-1.0-18.0"}}, {"uniqueid": "w91613593:a17405757", "current_trial": 34, "dateTime": 1691146794401, "trialdata": {"revealed_states": [], "clicked_states": ["1", "2"], "num_clicks_accrued": [0, 0, 0, 0, 0, 0, 0, 0, 0, 0, 0, 0, 0], "stateRewards": ["", -1, 3, 2, 9, 41, 4, -46, -12, -54, -87, -25, 2, 3, -1, 11, -77, 12, -33, -9, -32, 35, 72, 1, 3, -7, 4, 37, 65, -73, 6, 77, -43, 8], "withholdReward": false, "trial_id": "mdp_trial_20", "block": "test", "trialIndex": 23, "score": -64.8, "costs": -2.8, "simulationMode": [null, null, null, null, null], "rewards": [-1, 3, 2, -12, -54], "path": ["0", "0", "1", "2", "3", "8", "9"], "rt": [6520, 216, 620, 590, 722], "actions": ["up", "up", "up", "left", "up"], "actionTimes": [13956, 14691, 15811, 16915, 18147], "queries": {"click": {"state": {"target": ["1", "2"], "time": [8391, 10626]}, "edge": {"target": [], "time": []}}, "mouseover": {"state": {"target": ["1", "2", "12"], "time": [7972, 10423, 11471]}, "edge": {"target": [], "time": []}}, "mouseout": {"state": {"target": ["1", "1", "2"], "time": [6553, 10273, 11338]}, "edge": {"target": [], "time": []}}}, "displayed_time": "21.44", "trialTime": 23331, "trial_type": "mouselab-mdp", "trial_index": 34, "time_elapsed": 4591153, "internal_node_id": "0.0-4.0-1.0-19.0"}}, {"uniqueid": "w91613593:a17405757", "current_trial": 35, "dateTime": 1691146821587, "trialdata": {"revealed_states": [], "clicked_states": ["1", "12", "13", "24"], "num_clicks_accrued": [0, 0, 0, 0, 0, 0, 0, 0, 0, 0, 0, 0, 0], "stateRewards": ["", -1, -1, 7, -15, -43, -21, -84, -9, -45, -66, 2, 1, -2, 2, 8, -27, 44, -52, -5, -84, 11, 53, 1, 4, -4, 16, 83, -82, -15, -16, 68, -43, 81], "withholdReward": false, "trial_id": "mdp_trial_21", "block": "test", "trialIndex": 24, "score": 94.4, "costs": -5.6, "simulationMode": [null, null, null, null, null], "rewards": [1, 4, -4, 16, 83], "path": ["0", "0", "23", "24", "25", "26", "27"], "rt": [11470, 338, 415, 1034, 283], "actions": ["left", "left", "left", "up", "up"], "actionTimes": [19640, 20503, 21431, 22983, 23783], "queries": {"click": {"state": {"target": ["1", "12", "13", "24"], "time": [8872, 10943, 13310, 16415]}, "edge": {"target": [], "time": []}}, "mouseover": {"state": {"target": ["1", "12", "13", "0", "23", "24", "24", "24", "23", "0", "13", "14"], "time": [8624, 10040, 12711, 15342, 15392, 15465, 15775, 16104, 18611, 18961, 19010, 19032]}, "edge": {"target": [], "time": []}}, "mouseout": {"state": {"target": ["12", "1", "12", "13", "12", "0", "23", "24", "24", "24", "24", "23", "0", "13", "14"], "time": [7504, 9757, 10964, 15295, 15326, 15376, 15443, 15526, 15842, 18377, 18593, 18944, 18977, 19028, 19051]}, "edge": {"target": [], "time": []}}}, "displayed_time": "24.30", "trialTime": 26679, "trial_type": "mouselab-mdp", "trial_index": 35, "time_elapsed": 4618339, "internal_node_id": "0.0-4.0-1.0-20.0"}}, {"uniqueid": "w91613593:a17405757", "current_trial": 36, "dateTime": 1691146851443, "trialdata": {"revealed_states": [], "clicked_states": ["12", "13"], "num_clicks_accrued": [0, 0, 0, 0, 0, 0, 0, 0, 0, 0, 0, 0, 0], "stateRewards": ["", 2, -2, -3, 10, -4, -1, -11, -8, -9, -36, -78, 2, 1, 7, -7, 44, -1, -31, -1, 26, 47, 83, 2, -4, -4, -6, -52, -76, -81, -1, -59, 45, 67], "withholdReward": false, "trial_id": "mdp_trial_22", "block": "test", "trialIndex": 25, "score": 44.2, "costs": -2.8, "simulationMode": [null, null, null, null, null], "rewards": [2, 1, 7, -7, 44], "path": ["0", "0", "12", "13", "14", "15", "16"], "rt": [6841, 182, 427, 339, 274], "actions": ["right", "right", "right", "up", "up"], "actionTimes": [15404, 16106, 17034, 17898, 18666], "queries": {"click": {"state": {"target": ["12", "13"], "time": [9699, 12355]}, "edge": {"target": [], "time": []}}, "mouseover": {"state": {"target": ["0", "12", "13"], "time": [9322, 9419, 12072]}, "edge": {"target": [], "time": []}}, "mouseout": {"state": {"target": ["17", "14", "0", "0", "12"], "time": [7500, 7616, 8033, 9352, 11872]}, "edge": {"target": [], "time": []}}}, "displayed_time": "22.57", "trialTime": 29355, "trial_type": "mouselab-mdp", "trial_index": 36, "time_elapsed": 4648195, "internal_node_id": "0.0-4.0-1.0-21.0"}}, {"uniqueid": "w91613593:a17405757", "current_trial": 37, "dateTime": 1691146869776, "trialdata": {"revealed_states": [], "clicked_states": ["1", "2", "3"], "num_clicks_accrued": [0, 0, 0, 0, 0, 0, 0, 0, 0, 0, 0, 0, 0], "stateRewards": ["", -2, 2, 2, -6, 9, 37, 50, -13, -7, -18, -75, -2, -4, 4, 7, 23, -57, -66, -7, -81, -48, -76, 1, 1, -8, 1, 51, -2, 70, 14, 59, 71, -37], "withholdReward": false, "trial_id": "mdp_trial_23", "block": "test", "trialIndex": 26, "score": -22.2, "costs": -4.199999999999999, "simulationMode": [null, null, null, null, null], "rewards": [-2, 2, 2, -13, -7], "path": ["0", "0", "1", "2", "3", "8", "9"], "rt": [9211, 38, 161, 519, 621], "actions": ["up", "up", "up", "left", "up"], "actionTimes": [11320, 11877, 12534, 13558, 14678], "queries": {"click": {"state": {"target": ["1", "2", "3"], "time": [2926, 4845, 7822]}, "edge": {"target": [], "time": []}}, "mouseover": {"state": {"target": ["1", "2", "10", "3", "7"], "time": [2734, 4167, 7168, 7554, 10587]}, "edge": {"target": [], "time": []}}, "mouseout": {"state": {"target": ["13", "23", "1", "2", "10", "3", "7"], "time": [801, 1248, 4034, 7118, 7404, 10355, 10606]}, "edge": {"target": [], "time": []}}}, "displayed_time": "16.11", "trialTime": 17797, "trial_type": "mouselab-mdp", "trial_index": 37, "time_elapsed": 4666528, "internal_node_id": "0.0-4.0-1.0-22.0"}}, {"uniqueid": "w91613593:a17405757", "current_trial": 38, "dateTime": 1691146900450, "trialdata": {"revealed_states": [], "clicked_states": ["12", "13", "23", "24", "1"], "num_clicks_accrued": [0, 0, 0, 0, 0, 0, 0, 0, 0, 0, 0, 0, 0], "stateRewards": ["", 2, -3, 5, -14, -63, -9, -24, -11, -54, -43, 68, 2, -2, -4, 7, -64, 30, 47, 12, -74, 11, 86, 1, -3, 3, 10, -71, -42, -52, -1, -29, -16, 69], "withholdReward": false, "trial_id": "mdp_trial_24", "block": "test", "trialIndex": 27, "score": -80, "costs": -7, "simulationMode": [null, null, null, null, null], "rewards": [2, -3, 5, -14, -63], "path": ["0", "0", "1", "2", "3", "4", "5"], "rt": [13580, 210, 469, 654, 413], "actions": ["up", "up", "up", "right", "up"], "actionTimes": [24059, 24792, 25768, 26920, 27848], "queries": {"click": {"state": {"target": ["12", "13", "23", "24", "1"], "time": [11432, 13609, 16601, 18832, 21160]}, "edge": {"target": [], "time": []}}, "mouseover": {"state": {"target": ["12", "13", "0", "23", "24", "1"], "time": [11207, 13243, 16059, 16109, 18526, 20943]}, "edge": {"target": [], "time": []}}, "mouseout": {"state": {"target": ["16", "2", "10", "13", "12", "0", "12", "13", "0", "23", "24", "1", "1"], "time": [9207, 9241, 9275, 9608, 9656, 11074, 13195, 15792, 16092, 18326, 20796, 21259, 23378]}, "edge": {"target": [], "time": []}}}, "displayed_time": "28.36", "trialTime": 30152, "trial_type": "mouselab-mdp", "trial_index": 38, "time_elapsed": 4697202, "internal_node_id": "0.0-4.0-1.0-23.0"}}, {"uniqueid": "w91613593:a17405757", "current_trial": 39, "dateTime": 1691146939011, "trialdata": {"revealed_states": [], "clicked_states": ["1", "2", "4", "11", "26", "15"], "num_clicks_accrued": [0, 0, 0, 0, 0, 0, 0, 0, 0, 0, 0, 0, 0], "stateRewards": ["", 2, 2, 3, -15, 23, -14, 73, -7, -32, -20, -6, 1, 1, -5, -12, 73, 6, -84, 11, -81, -57, 13, -2, -1, -4, -8, -52, -58, 49, 13, 5, -41, -41], "withholdReward": false, "trial_id": "mdp_trial_25", "block": "test", "trialIndex": 28, "score": -40.4, "costs": -8.4, "simulationMode": [null, null, null, null, null], "rewards": [2, 2, 3, -7, -32], "path": ["0", "0", "1", "2", "3", "8", "9"], "rt": [18029, 133, 360, 408, 548], "actions": ["up", "up", "up", "left", "up"], "actionTimes": [31443, 32096, 32960, 33887, 34944], "queries": {"click": {"state": {"target": ["1", "2", "4", "11", "26", "15"], "time": [14259, 16167, 18656, 21210, 24496, 27289]}, "edge": {"target": [], "time": []}}, "mouseover": {"state": {"target": ["1", "2", "4", "3", "8", "11", "28", "24", "25", "26", "18", "15", "13", "12", "13", "14"], "time": [14090, 15688, 18407, 20522, 20672, 20888, 23576, 23689, 23756, 24076, 26724, 27027, 30391, 30591, 30695, 30712]}, "edge": {"target": [], "time": []}}, "mouseout": {"state": {"target": ["14", "0", "1", "2", "4", "3", "8", "11", "28", "24", "25", "26", "18", "15", "15", "13", "12", "13", "14"], "time": [12387, 13951, 15504, 18308, 20488, 20539, 20738, 23459, 23626, 23723, 24043, 26410, 26873, 27385, 29878, 30441, 30691, 30708, 30725]}, "edge": {"target": [], "time": []}}}, "displayed_time": "35.46", "trialTime": 38049, "trial_type": "mouselab-mdp", "trial_index": 39, "time_elapsed": 4735763, "internal_node_id": "0.0-4.0-1.0-24.0"}}, {"uniqueid": "w91613593:a17405757", "current_trial": 40, "dateTime": 1691146972211, "trialdata": {"revealed_states": [], "clicked_states": ["12", "13", "15"], "num_clicks_accrued": [0, 0, 0, 0, 0, 0, 0, 0, 0, 0, 0, 0, 0], "stateRewards": ["", 1, -1, 4, -2, -75, -75, 84, -9, -60, -79, 59, 2, -4, 8, 9, -17, -82, 80, 14, -4, 49, 49, -1, 3, 6, -11, -33, 34, 55, 9, -57, 5, 59], "withholdReward": false, "trial_id": "mdp_trial_26", "block": "test", "trialIndex": 29, "score": -6.199999999999999, "costs": -4.199999999999999, "simulationMode": [null, null, null, null, null], "rewards": [2, -4, 8, 9, -17], "path": ["0", "0", "12", "13", "14", "15", "16"], "rt": [9141, 201, 337, 395, 213], "actions": ["right", "right", "right", "up", "up"], "actionTimes": [25343, 26062, 26898, 27790, 28526], "queries": {"click": {"state": {"target": ["12", "13", "15"], "time": [17374, 19471, 22375]}, "edge": {"target": [], "time": []}}, "mouseover": {"state": {"target": ["12", "13", "14", "15"], "time": [16890, 19122, 21731, 21976]}, "edge": {"target": [], "time": []}}, "mouseout": {"state": {"target": ["6", "12", "0", "12", "13", "14", "15"], "time": [15153, 15454, 16844, 18923, 21626, 21943, 24494]}, "edge": {"target": [], "time": []}}}, "displayed_time": "30.20", "trialTime": 32670, "trial_type": "mouselab-mdp", "trial_index": 40, "time_elapsed": 4768963, "internal_node_id": "0.0-4.0-1.0-25.0"}}, {"uniqueid": "w91613593:a17405757", "current_trial": 41, "dateTime": 1691147001268, "trialdata": {"revealed_states": [], "clicked_states": ["1", "23", "12", "13", "15", "16"], "num_clicks_accrued": [0, 0, 0, 0, 0, 0, 0, 0, 0, 0, 0, 0, 0], "stateRewards": ["", -2, 1, -7, 9, 8, 25, 61, -7, -17, 69, -81, 1, 4, -4, -11, 16, 67, 44, 3, 6, -45, -54, -2, 3, 6, -11, -15, 32, -47, 3, -39, -6, -88], "withholdReward": false, "trial_id": "mdp_trial_27", "block": "test", "trialIndex": 30, "score": -2.3999999999999986, "costs": -8.4, "simulationMode": [null, null, null, null, null], "rewards": [1, 4, -4, -11, 16], "path": ["0", "0", "12", "13", "14", "15", "16"], "rt": [15143, 114, 182, 349, 202], "actions": ["right", "right", "right", "up", "up"], "actionTimes": [23327, 23949, 24652, 25501, 26204], "queries": {"click": {"state": {"target": ["1", "23", "12", "13", "15", "16"], "time": [8839, 10906, 13292, 15702, 17885, 20710]}, "edge": {"target": [], "time": []}}, "mouseover": {"state": {"target": ["1", "23", "24", "0", "12", "13", "14", "15", "14", "16", "16"], "time": [8630, 9927, 11828, 12712, 12777, 15515, 17395, 17500, 19096, 20100, 20483]}, "edge": {"target": [], "time": []}}, "mouseout": {"state": {"target": ["0", "1", "23", "24", "23", "0", "12", "13", "14", "15", "14", "15", "16", "16"], "time": [8587, 9727, 11678, 12581, 12681, 12761, 15282, 17329, 17412, 19014, 19130, 20050, 20164, 22181]}, "edge": {"target": [], "time": []}}}, "displayed_time": "26.70", "trialTime": 28558, "trial_type": "mouselab-mdp", "trial_index": 41, "time_elapsed": 4798020, "internal_node_id": "0.0-4.0-1.0-26.0"}}, {"uniqueid": "w91613593:a17405757", "current_trial": 42, "dateTime": 1691147033682, "trialdata": {"revealed_states": [], "clicked_states": ["1", "23", "12", "13", "15", "26", "3", "4", "8"], "num_clicks_accrued": [0, 0, 0, 0, 0, 0, 0, 0, 0, 0, 0, 0, 0], "stateRewards": ["", -2, -3, 1, -14, 48, -49, 67, -1, -35, -48, 3, -2, 1, -4, -5, 86, -84, 39, 1, 48, 41, -42, -1, -4, 2, -7, 18, -86, 17, 7, -9, 57, -69], "withholdReward": false, "trial_id": "mdp_trial_28", "block": "test", "trialIndex": 31, "score": 17.4, "costs": -12.600000000000001, "simulationMode": [null, null, null, null, null], "rewards": [-2, -3, 1, -14, 48], "path": ["0", "0", "1", "2", "3", "4", "5"], "rt": [24319, 320, 366, 619, 412], "actions": ["up", "up", "up", "right", "up"], "actionTimes": [26049, 26879, 27759, 28895, 29823], "queries": {"click": {"state": {"target": ["1", "23", "12", "13", "15", "26", "3", "4", "8"], "time": [3055, 5968, 8432, 10776, 13063, 15736, 18311, 20991, 23998]}, "edge": {"target": [], "time": []}}, "mouseover": {"state": {"target": ["1", "2", "23", "23", "0", "12", "13", "14", "15", "28", "26", "28", "10", "3", "4", "3", "8", "3", "16"], "time": [2902, 5000, 5403, 5753, 7868, 8184, 10504, 12502, 12818, 15139, 15353, 17740, 17870, 18053, 19654, 23422, 23655, 24406, 24840]}, "edge": {"target": [], "time": []}}, "mouseout": {"state": {"target": ["15", "13", "0", "23", "0", "1", "2", "23", "23", "0", "12", "13", "14", "15", "15", "28", "26", "28", "10", "3", "4", "3", "8", "3", "16"], "time": [599, 799, 847, 1116, 2614, 4923, 5353, 5436, 7850, 7909, 10388, 12336, 12702, 13162, 14703, 15257, 17423, 17804, 17920, 19521, 23372, 23522, 24373, 24423, 24859]}, "edge": {"target": [], "time": []}}}, "displayed_time": "30.34", "trialTime": 31871, "trial_type": "mouselab-mdp", "trial_index": 42, "time_elapsed": 4830434, "internal_node_id": "0.0-4.0-1.0-27.0"}}, {"uniqueid": "w91613593:a17405757", "current_trial": 43, "dateTime": 1691147051956, "trialdata": {"revealed_states": [], "clicked_states": ["12"], "num_clicks_accrued": [0, 0, 0, 0, 0, 0, 0, 0, 0, 0, 0, 0, 0], "stateRewards": ["", -1, 3, 1, -7, 56, 76, 57, 3, 11, -9, 14, 1, -2, 2, 8, -77, -3, 79, -5, 88, 24, -66, -2, -1, 7, -7, -30, 14, -76, 11, -36, 28, -6], "withholdReward": false, "trial_id": "mdp_trial_29", "block": "test", "trialIndex": 32, "score": -69.4, "costs": -1.4, "simulationMode": [null, null, null, null, null], "rewards": [1, -2, 2, 8, -77], "path": ["0", "0", "12", "13", "14", "15", "16"], "rt": [3907, 337, 127, 310, 134], "actions": ["right", "right", "right", "up", "up"], "actionTimes": [5588, 6419, 7043, 7859, 8499], "queries": {"click": {"state": {"target": ["12"], "time": [2957]}, "edge": {"target": [], "time": []}}, "mouseover": {"state": {"target": ["12", "13"], "time": [2677, 5111]}, "edge": {"target": [], "time": []}}, "mouseout": {"state": {"target": ["19", "22", "0", "12", "13"], "time": [676, 743, 2578, 4395, 5145]}, "edge": {"target": [], "time": []}}}, "displayed_time": "15.68", "trialTime": 17796, "trial_type": "mouselab-mdp", "trial_index": 43, "time_elapsed": 4848708, "internal_node_id": "0.0-4.0-1.0-28.0"}}, {"uniqueid": "w91613593:a17405757", "current_trial": 44, "dateTime": 1691147071572, "trialdata": {"revealed_states": [], "clicked_states": ["1", "25", "14"], "num_clicks_accrued": [0, 0, 0, 0, 0, 0, 0, 0, 0, 0, 0, 0, 0], "stateRewards": ["", -2, -4, 2, 10, -17, 18, 73, 11, -32, 23, -13, -2, -4, 7, 12, -25, 66, -23, 15, 40, -76, -9, 1, 2, -7, -5, -20, 24, 3, -5, 16, -73, 70], "withholdReward": false, "trial_id": "mdp_trial_30", "block": "test", "trialIndex": 33, "score": -16.2, "costs": -4.199999999999999, "simulationMode": [null, null, null, null, null], "rewards": [-2, -4, 7, 12, -25], "path": ["0", "0", "12", "13", "14", "15", "16"], "rt": [10705, 31, 156, 673, 130], "actions": ["right", "right", "right", "up", "up"], "actionTimes": [13844, 14402, 15058, 16226, 16866], "queries": {"click": {"state": {"target": ["1", "25", "14"], "time": [4001, 7755, 10994]}, "edge": {"target": [], "time": []}}, "mouseover": {"state": {"target": ["0", "1", "23", "23", "24", "25", "24", "12", "14", "14"], "time": [3412, 3765, 6096, 6313, 6664, 7284, 9669, 9702, 10401, 10735]}, "edge": {"target": [], "time": []}}, "mouseout": {"state": {"target": ["0", "0", "1", "23", "23", "24", "25", "24", "12", "14", "14"], "time": [2410, 3680, 5963, 6113, 6450, 7067, 9665, 9698, 9732, 10518, 11432]}, "edge": {"target": [], "time": []}}}, "displayed_time": "17.37", "trialTime": 19074, "trial_type": "mouselab-mdp", "trial_index": 44, "time_elapsed": 4868324, "internal_node_id": "0.0-4.0-1.0-29.0"}}, {"uniqueid": "w91613593:a17405757", "current_trial": 45, "dateTime": 1691147093397, "trialdata": {"revealed_states": [], "clicked_states": [], "num_clicks_accrued": [0, 0, 0, 0, 0, 0, 0, 0, 0, 0, 0, 0, 0], "stateRewards": ["", 1, 4, 5, -5, 58, -80, 75, 6, 25, -39, 46, 2, -2, 4, 2, 59, 31, -22, -12, -61, 15, 72, 1, -2, -7, 8, 77, 76, -23, -7, 71, -15, -3], "withholdReward": false, "trial_id": "mdp_trial_31", "block": "test", "trialIndex": 34, "score": 63, "costs": 0, "simulationMode": [null, null, null, null, null], "rewards": [1, 4, 5, -5, 58], "path": ["0", "0", "1", "2", "3", "4", "5"], "rt": [1694, 223, 480, 728, 245], "actions": ["up", "up", "up", "right", "up"], "actionTimes": [4648, 5384, 6375, 7623, 8391], "queries": {"click": {"state": {"target": [], "time": []}, "edge": {"target": [], "time": []}}, "mouseover": {"state": {"target": [], "time": []}, "edge": {"target": [], "time": []}}, "mouseout": {"state": {"target": ["14", "13", "0"], "time": [589, 1039, 3794]}, "edge": {"target": [], "time": []}}}, "displayed_time": "16.96", "trialTime": 21305, "trial_type": "mouselab-mdp", "trial_index": 45, "time_elapsed": 4890149, "internal_node_id": "0.0-4.0-1.0-30.0"}}, {"uniqueid": "w91613593:a17405757", "current_trial": 46, "dateTime": 1691147114707, "trialdata": {"revealed_states": [], "clicked_states": [], "num_clicks_accrued": [0, 0, 0, 0, 0, 0, 0, 0, 0, 0, 0, 0, 0], "stateRewards": ["", -1, -2, 4, 9, 10, -75, 39, 16, -43, 88, -19, -1, 1, 2, 4, -31, 10, 73, 12, 41, -64, -81, -2, 2, -6, 1, -81, -1, -26, 3, -59, -3, -20], "withholdReward": false, "trial_id": "mdp_trial_32", "block": "test", "trialIndex": 35, "score": -86, "costs": 0, "simulationMode": [null, null, null, null, null], "rewards": [-2, 2, -6, 1, -81], "path": ["0", "0", "23", "24", "25", "26", "27"], "rt": [1946, 162, 215, 538, 223], "actions": ["left", "left", "left", "up", "up"], "actionTimes": [6485, 7172, 7908, 8948, 9684], "queries": {"click": {"state": {"target": [], "time": []}, "edge": {"target": [], "time": []}}, "mouseover": {"state": {"target": [], "time": []}, "edge": {"target": [], "time": []}}, "mouseout": {"state": {"target": ["9", "3", "4", "6", "12", "0"], "time": [1737, 1820, 1887, 2670, 3356, 4558]}, "edge": {"target": [], "time": []}}}, "displayed_time": "18.54", "trialTime": 20740, "trial_type": "mouselab-mdp", "trial_index": 46, "time_elapsed": 4911460, "internal_node_id": "0.0-4.0-1.0-31.0"}}, {"uniqueid": "w91613593:a17405757", "current_trial": 47, "dateTime": 1691147139764, "trialdata": {"revealed_states": [], "clicked_states": ["1", "12"], "num_clicks_accrued": [0, 0, 0, 0, 0, 0, 0, 0, 0, 0, 0, 0, 0], "stateRewards": ["", -1, -3, -7, -7, -76, 30, -49, 11, -70, 56, 2, 1, 4, -3, -14, -59, -83, -25, -9, -21, -67, -73, -2, 4, 4, -9, -11, -32, 60, 9, -87, 22, -64], "withholdReward": false, "trial_id": "mdp_trial_33", "block": "test", "trialIndex": 36, "score": -73.8, "costs": -2.8, "simulationMode": [null, null, null, null, null], "rewards": [1, 4, -3, -14, -59], "path": ["0", "0", "12", "13", "14", "15", "16"], "rt": [7140, 125, 179, 455, 96], "actions": ["right", "right", "right", "up", "up"], "actionTimes": [15901, 16541, 17228, 18188, 18796], "queries": {"click": {"state": {"target": ["1", "12"], "time": [9872, 12901]}, "edge": {"target": [], "time": []}}, "mouseover": {"state": {"target": ["1", "12", "13", "14"], "time": [9680, 12178, 15184, 15216]}, "edge": {"target": [], "time": []}}, "mouseout": {"state": {"target": ["1", "12", "13", "14"], "time": [12030, 15165, 15212, 15262]}, "edge": {"target": [], "time": []}}}, "displayed_time": "22.76", "trialTime": 24508, "trial_type": "mouselab-mdp", "trial_index": 47, "time_elapsed": 4936517, "internal_node_id": "0.0-4.0-1.0-32.0"}}, {"uniqueid": "w91613593:a17405757", "current_trial": 48, "dateTime": 1691147167446, "trialdata": {"revealed_states": [], "clicked_states": [], "num_clicks_accrued": [0, 0, 0, 0, 0, 0, 0, 0, 0, 0, 0, 0, 0], "stateRewards": ["", 1, -1, 8, 4, 76, -33, -17, -3, -1, -54, -74, -2, 2, -5, 13, -51, 63, 83, 1, 84, 29, -36, 2, -1, 7, -12, -10, -44, -43, -14, 8, -69, 19], "withholdReward": false, "trial_id": "mdp_trial_34", "block": "test", "trialIndex": 37, "score": 4, "costs": 0, "simulationMode": [null, null, null, null, null], "rewards": [1, -1, 8, -3, -1], "path": ["0", "0", "1", "2", "3", "8", "9"], "rt": [2085, 130, 136, 1119, 45], "actions": ["up", "up", "up", "left", "up"], "actionTimes": [9396, 10021, 10660, 12277, 12836], "queries": {"click": {"state": {"target": [], "time": []}, "edge": {"target": [], "time": []}}, "mouseover": {"state": {"target": ["12"], "time": [8089]}, "edge": {"target": [], "time": []}}, "mouseout": {"state": {"target": ["17", "15", "14", "13", "12", "0", "12"], "time": [6170, 6236, 6303, 6451, 6534, 8086, 8119]}, "edge": {"target": [], "time": []}}}, "displayed_time": "21.31", "trialTime": 27125, "trial_type": "mouselab-mdp", "trial_index": 48, "time_elapsed": 4964198, "internal_node_id": "0.0-4.0-1.0-33.0"}}, {"uniqueid": "w91613593:a17405757", "current_trial": 49, "dateTime": 1691147186055, "trialdata": {"revealed_states": [], "clicked_states": ["12", "1"], "num_clicks_accrued": [0, 0, 0, 0, 0, 0, 0, 0, 0, 0, 0, 0, 0], "stateRewards": ["", 2, -4, 4, 9, 69, 9, -75, 12, -86, 66, 25, -1, 3, 2, -13, -88, -3, 1, 4, -69, 49, -84, 2, -1, 4, 2, -18, -81, -52, -15, -69, -54, 25], "withholdReward": false, "trial_id": "mdp_trial_35", "block": "test", "trialIndex": 38, "score": 77.2, "costs": -2.8, "simulationMode": [null, null, null, null, null], "rewards": [2, -4, 4, 9, 69], "path": ["0", "0", "1", "2", "3", "4", "5"], "rt": [7597, 271, 382, 506, 307], "actions": ["up", "up", "up", "right", "up"], "actionTimes": [10000, 10766, 11661, 12686, 13487], "queries": {"click": {"state": {"target": ["12", "1"], "time": [4917, 7222]}, "edge": {"target": [], "time": []}}, "mouseover": {"state": {"target": ["12", "12", "13", "1"], "time": [4110, 4657, 5458, 6707]}, "edge": {"target": [], "time": []}}, "mouseout": {"state": {"target": ["13", "12", "0", "12", "12", "13", "12", "1"], "time": [1374, 1590, 4106, 4360, 5209, 6475, 6624, 7858]}, "edge": {"target": [], "time": []}}}, "displayed_time": "16.41", "trialTime": 18063, "trial_type": "mouselab-mdp", "trial_index": 49, "time_elapsed": 4982807, "internal_node_id": "0.0-4.0-1.0-34.0"}}, {"uniqueid": "w91613593:a17405757", "current_trial": 50, "dateTime": 1691147210261, "trialdata": {"revealed_states": [], "clicked_states": [], "num_clicks_accrued": [0, 0, 0, 0, 0, 0, 0, 0, 0, 0, 0, 0, 0], "stateRewards": ["", 1, -3, -6, -5, 47, 80, -29, 11, -71, 10, -29, -2, 3, -6, 12, 2, -78, -6, 8, 34, -16, -5, -1, 3, 3, -13, 84, -36, -62, -3, -27, 66, 15], "withholdReward": false, "trial_id": "mdp_trial_36", "block": "test", "trialIndex": 39, "score": 34, "costs": 0, "simulationMode": [null, null, null, null, null], "rewards": [1, -3, -6, -5, 47], "path": ["0", "0", "1", "2", "3", "4", "5"], "rt": [3178, 227, 251, 1084, 236], "actions": ["up", "up", "up", "right", "up"], "actionTimes": [7007, 7758, 8509, 10093, 10845], "queries": {"click": {"state": {"target": [], "time": []}, "edge": {"target": [], "time": []}}, "mouseover": {"state": {"target": [], "time": []}, "edge": {"target": [], "time": []}}, "mouseout": {"state": {"target": ["12"], "time": [2568]}, "edge": {"target": [], "time": []}}}, "displayed_time": "17.83", "trialTime": 23662, "trial_type": "mouselab-mdp", "trial_index": 50, "time_elapsed": 5007014, "internal_node_id": "0.0-4.0-1.0-35.0"}}, {"uniqueid": "w91613593:a17405757", "current_trial": 51, "dateTime": 1691147250359, "trialdata": {"revealed_states": [], "clicked_states": [], "num_clicks_accrued": [0, 0, 0, 0, 0, 0, 0, 0, 0, 0, 0, 0, 0], "stateRewards": ["", 2, 1, -3, 7, 46, 11, -36, 16, 71, 5, 1, 2, -2, -8, -3, -4, 6, 55, 7, 68, -54, 2, 1, 1, 6, -6, 42, -4, -84, -11, -65, 63, 25], "withholdReward": false, "trial_id": "mdp_trial_37", "block": "test", "trialIndex": 40, "score": 44, "costs": 0, "simulationMode": [null, null, null, null, null], "rewards": [1, 1, 6, -6, 42], "path": ["0", "0", "23", "24", "25", "26", "27"], "rt": [1788, 75, 756, 395, 187], "actions": ["left", "left", "left", "up", "up"], "actionTimes": [6523, 7114, 8362, 9290, 9994], "queries": {"click": {"state": {"target": [], "time": []}, "edge": {"target": [], "time": []}}, "mouseover": {"state": {"target": ["1", "23", "12"], "time": [5222, 5655, 5868]}, "edge": {"target": [], "time": []}}, "mouseout": {"state": {"target": ["0", "12", "0", "1", "23", "12", "25", "33", "32", "18", "2", "6", "12"], "time": [3484, 4014, 5152, 5439, 5719, 5902, 13204, 28327, 28414, 32147, 34449, 35895, 36029]}, "edge": {"target": [], "time": []}}}, "displayed_time": "18.74", "trialTime": 39501, "trial_type": "mouselab-mdp", "trial_index": 51, "time_elapsed": 5047112, "internal_node_id": "0.0-4.0-1.0-36.0"}}, {"uniqueid": "w91613593:a17405757", "current_trial": 52, "dateTime": 1691147268007, "trialdata": {"revealed_states": [], "clicked_states": ["1"], "num_clicks_accrued": [0, 0, 0, 0, 0, 0, 0, 0, 0, 0, 0, 0, 0], "stateRewards": ["", -1, 2, -6, 6, -82, -19, -39, -16, -83, 11, -33, -2, -2, 4, -6, -82, -1, -19, -6, -10, -67, -41, -2, 1, -7, 16, -23, -78, -52, 14, 31, -71, 74], "withholdReward": false, "trial_id": "mdp_trial_38", "block": "test", "trialIndex": 41, "score": -89.4, "costs": -1.4, "simulationMode": [null, null, null, null, null], "rewards": [-2, -2, 4, -6, -82], "path": ["0", "0", "12", "13", "14", "15", "16"], "rt": [3527, 129, 280, 407, 100], "actions": ["right", "right", "right", "up", "up"], "actionTimes": [5516, 6139, 6923, 7851, 8444], "queries": {"click": {"state": {"target": ["1"], "time": [2763]}, "edge": {"target": [], "time": []}}, "mouseover": {"state": {"target": ["1"], "time": [2572]}, "edge": {"target": [], "time": []}}, "mouseout": {"state": {"target": ["0", "1"], "time": [1557, 3778]}, "edge": {"target": [], "time": []}}}, "displayed_time": "15.99", "trialTime": 16971, "trial_type": "mouselab-mdp", "trial_index": 52, "time_elapsed": 5064759, "internal_node_id": "0.0-4.0-1.0-37.0"}}, {"uniqueid": "w91613593:a17405757", "current_trial": 53, "dateTime": 1691147287207, "trialdata": {"revealed_states": [], "clicked_states": [], "num_clicks_accrued": [0, 0, 0, 0, 0, 0, 0, 0, 0, 0, 0, 0, 0], "stateRewards": ["", 1, -1, 4, 5, -32, 18, 20, 6, -88, -74, 9, -2, 1, -2, -14, 34, -77, -38, -1, 80, -36, 73, 2, 3, -8, 10, -48, -73, -71, -11, -22, 20, 54], "withholdReward": false, "trial_id": "mdp_trial_39", "block": "test", "trialIndex": 42, "score": -78, "costs": 0, "simulationMode": [null, null, null, null, null], "rewards": [1, -1, 4, 6, -88], "path": ["0", "0", "1", "2", "3", "8", "9"], "rt": [1612, 259, 260, 533, 218], "actions": ["up", "up", "up", "left", "up"], "actionTimes": [3432, 4215, 4983, 6039, 6775], "queries": {"click": {"state": {"target": [], "time": []}, "edge": {"target": [], "time": []}}, "mouseover": {"state": {"target": [], "time": []}, "edge": {"target": [], "time": []}}, "mouseout": {"state": {"target": ["0"], "time": [2755]}, "edge": {"target": [], "time": []}}}, "displayed_time": "15.82", "trialTime": 18663, "trial_type": "mouselab-mdp", "trial_index": 53, "time_elapsed": 5083959, "internal_node_id": "0.0-4.0-1.0-38.0"}}, {"uniqueid": "w91613593:a17405757", "current_trial": 54, "dateTime": 1691147331399, "trialdata": {"revealed_states": [], "clicked_states": [], "num_clicks_accrued": [0, 0, 0, 0, 0, 0, 0, 0, 0, 0, 0, 0, 0], "stateRewards": ["", 2, 3, -3, 12, -43, 81, -82, -15, 58, -7, -75, -1, -1, 3, -5, 50, -25, -8, 4, 66, 65, -66, 2, -4, 2, -1, -10, 10, 37, 11, 88, -37, 8], "withholdReward": false, "trial_id": "mdp_trial_40", "block": "test", "trialIndex": 43, "score": 70, "costs": 0, "simulationMode": [null, null, null, null, null], "rewards": [-1, -1, 3, 4, 65], "path": ["0", "0", "12", "13", "14", "19", "21"], "rt": [2526, 1092, 5501, 1095, 630], "actions": ["right", "right", "right", "down", "down"], "actionTimes": [4239, 13272, 35573, 37237, 38393], "queries": {"click": {"state": {"target": [], "time": []}, "edge": {"target": [], "time": []}}, "mouseover": {"state": {"target": [], "time": []}, "edge": {"target": [], "time": []}}, "mouseout": {"state": {"target": ["0"], "time": [13282]}, "edge": {"target": [], "time": []}}}, "displayed_time": "40.58", "trialTime": 43590, "trial_type": "mouselab-mdp", "trial_index": 54, "time_elapsed": 5128151, "internal_node_id": "0.0-4.0-1.0-39.0"}}, {"uniqueid": "w91613593:a17405757", "current_trial": 55, "dateTime": 1691147388644, "trialdata": {"rt": 57238, "response": {"Q0": "$-2 to $2", "Q1": "$-4 to $4", "Q2": "$-88 to $88", "Q3": "The cost for clicking on nodes varied between nodes.", "Q4": "Very motivated"}, "question_order": [0, 1, 2, 3, 4], "trial_id": "final_quiz_control", "trial_type": "survey-multi-choice", "trial_index": 55, "time_elapsed": 5185397, "internal_node_id": "0.0-4.0-2.0"}}, {"uniqueid": "w91613593:a17405757", "current_trial": 56, "dateTime": 1691147594414, "trialdata": {"rt": 205698, "response": {"Q0": "I would check the first level of each path to see which one would be taking away the most money and chose the one that subtracted the least or would add to my balance", "Q1": "I sort of did. I tried to check which 4th level node was adding or subtracting from my balance then I would follow the one that added the most or took away the least amount", "Q2": "It was quite difficult because the game varies and is unpredicatable"}, "trial_id": "self_report_control", "trial_type": "survey-text", "trial_index": 56, "time_elapsed": 5391167, "internal_node_id": "0.0-4.0-3.0"}}, {"uniqueid": "w91613593:a17405757", "current_trial": 57, "dateTime": 1691147627926, "trialdata": {"rt": 33491, "response": {"gender": "female", "age": "32", "colorblind": "0", "effort": "0"}, "trial_type": "survey-html-form", "trial_index": 57, "time_elapsed": 5424679, "internal_node_id": "0.0-4.0-4.0"}}, {"uniqueid": "w91613593:a17405757", "current_trial": 58, "dateTime": 1691147660342, "trialdata": {"rt": 32408, "response": {"Q0": "No", "Q1": "No", "Q2": ""}, "trial_type": "survey-text", "trial_index": 58, "time_elapsed": 5457094, "internal_node_id": "0.0-4.0-5.0"}}, {"uniqueid": "w91613593:a17405757", "current_trial": 59, "dateTime": 1691147662366, "trialdata": {"rt": 1907, "stimulus": "Press 'Finish HIT' in order to reach the completion code. Once the data has been saved, you will receive the code either in this window or in the original browser window where you started the experiment.\n", "response": 0, "trial_type": "html-button-response", "trial_index": 59, "time_elapsed": 5459119, "internal_node_id": "0.0-5.0"}}, {"uniqueid": "w91613593:a17405757", "current_trial": 60, "dateTime": 1691147663371, "trialdata": {"success": true, "trial_type": "fullscreen", "trial_index": 60, "time_elapsed": 5460123, "internal_node_id": "0.0-6.0"}}], "questiondata": {"params": {"CODE": "C6DMOQA6", "MIN_TIME": 14, "inspectCost": 1, "startTime": "Fri Aug 04 2023 11:43:20 GMT+0200 (South Africa Standard Time)", "bonusRate": 0.002, "variance": "1_2_4_8_44", "branching": "31123"}, "final_score": -25}, "eventdata": [{"eventtype": "initialized", "value": null, "timestamp": 1691142200055, "interval": 0}, {"eventtype": "window_resize", "value": [1600, 1102], "timestamp": 1691142200056, "interval": 1}, {"eventtype": "window_resize", "value": [1600, 1102], "timestamp": 1691142200540, "interval": 484}, {"eventtype": "focus", "value": "off", "timestamp": 1691142212240, "interval": 11700}, {"eventtype": "focus", "value": "on", "timestamp": 1691142227514, "interval": 15274}, {"eventtype": "window_resize", "value": [1600, 1200], "timestamp": 1691142229633, "interval": 2119}, {"eventtype": "focus", "value": "off", "timestamp": 1691142259776, "interval": 30143}, {"eventtype": "focus", "value": "on", "timestamp": 1691142264800, "interval": 5024}, {"eventtype": "focus", "value": "off", "timestamp": 1691142626083, "interval": 361283}, {"eventtype": "focus", "value": "on", "timestamp": 1691143577785, "interval": 951702}, {"eventtype": "focus", "value": "off", "timestamp": 1691143603023, "interval": 25238}, {"eventtype": "focus", "value": "on", "timestamp": 1691143604451, "interval": 1428}, {"eventtype": "window_resize", "value": [1600, 1102], "timestamp": 1691143632546, "interval": 28095}, {"eventtype": "focus", "value": "off", "timestamp": 1691143634470, "interval": 1924}, {"eventtype": "focus", "value": "on", "timestamp": 1691143674102, "interval": 39632}, {"eventtype": "window_resize", "value": [1600, 1200], "timestamp": 1691143676280, "interval": 2178}, {"eventtype": "focus", "value": "off", "timestamp": 1691144215741, "interval": 539461}, {"eventtype": "focus", "value": "on", "timestamp": 1691144215811, "interval": 70}, {"eventtype": "focus", "value": "off", "timestamp": 1691144217253, "interval": 1442}, {"eventtype": "focus", "value": "on", "timestamp": 1691145732675, "interval": 1515422}, {"eventtype": "focus", "value": "off", "timestamp": 1691145784740, "interval": 52065}, {"eventtype": "focus", "value": "on", "timestamp": 1691145784740, "interval": 0}, {"eventtype": "window_resize", "value": [1600, 1102], "timestamp": 1691145793905, "interval": 9165}, {"eventtype": "focus", "value": "off", "timestamp": 1691145795470, "interval": 1565}, {"eventtype": "focus", "value": "on", "timestamp": 1691145799655, "interval": 4185}, {"eventtype": "focus", "value": "off", "timestamp": 1691145800652, "interval": 997}, {"eventtype": "focus", "value": "on", "timestamp": 1691145811520, "interval": 10868}, {"eventtype": "window_resize", "value": [1600, 1200], "timestamp": 1691145813750, "interval": 2230}, {"eventtype": "focus", "value": "off", "timestamp": 1691145902406, "interval": 88656}, {"eventtype": "focus", "value": "on", "timestamp": 1691145953580, "interval": 51174}, {"eventtype": "focus", "value": "off", "timestamp": 1691146346876, "interval": 393296}, {"eventtype": "focus", "value": "on", "timestamp": 1691146357870, "interval": 10994}, {"eventtype": "focus", "value": "off", "timestamp": 1691146447366, "interval": 89496}, {"eventtype": "focus", "value": "on", "timestamp": 1691146449596, "interval": 2230}, {"eventtype": "focus", "value": "off", "timestamp": 1691146452679, "interval": 3083}, {"eventtype": "focus", "value": "on", "timestamp": 1691146457761, "interval": 5082}, {"eventtype": "focus", "value": "off", "timestamp": 1691146478578, "interval": 20817}, {"eventtype": "focus", "value": "on", "timestamp": 1691146487360, "interval": 8782}, {"eventtype": "focus", "value": "off", "timestamp": 1691146567167, "interval": 79807}, {"eventtype": "focus", "value": "on", "timestamp": 1691146567277, "interval": 110}, {"eventtype": "focus", "value": "off", "timestamp": 1691146569333, "interval": 2056}, {"eventtype": "focus", "value": "on", "timestamp": 1691146569530, "interval": 197}, {"eventtype": "window_resize", "value": [1600, 1102], "timestamp": 1691146614828, "interval": 45298}, {"eventtype": "window_resize", "value": [1600, 1200], "timestamp": 1691146617622, "interval": 2794}, {"eventtype": "focus", "value": "off", "timestamp": 1691146635359, "interval": 17737}, {"eventtype": "focus", "value": "on", "timestamp": 1691146643082, "interval": 7723}, {"eventtype": "focus", "value": "off", "timestamp": 1691147225709, "interval": 582627}, {"eventtype": "focus", "value": "on", "timestamp": 1691147234907, "interval": 9198}, {"eventtype": "focus", "value": "off", "timestamp": 1691147238549, "interval": 3642}, {"eventtype": "focus", "value": "on", "timestamp": 1691147239638, "interval": 1089}, {"eventtype": "window_resize", "value": [1600, 1102], "timestamp": 1691147244659, "interval": 5021}, {"eventtype": "window_resize", "value": [1600, 1200], "timestamp": 1691147246551, "interval": 1892}, {"eventtype": "focus", "value": "off", "timestamp": 1691147317868, "interval": 71317}, {"eventtype": "focus", "value": "on", "timestamp": 1691147317944, "interval": 76}, {"eventtype": "window_resize", "value": [1600, 1102], "timestamp": 1691147318145, "interval": 201}, {"eventtype": "window_resize", "value": [1600, 1200], "timestamp": 1691147322138, "interval": 3993}, {"eventtype": "focus", "value": "off", "timestamp": 1691147649346, "interval": 327208}, {"eventtype": "focus", "value": "on", "timestamp": 1691147651540, "interval": 2194}, {"eventtype": "focus", "value": "off", "timestamp": 1691147654482, "interval": 2942}, {"eventtype": "focus", "value": "on", "timestamp": 1691147654511, "interval": 29}], "useragent": "Mozilla/5.0 (Windows NT 10.0; Win64; x64) AppleWebKit/537.36 (KHTML, like Gecko) Chrome/115.0.0.0 Safari/537.36", "mode": "live", "id": "w91613593:a17405757", "status": "user data saved", "Beginhit": "2023-08-04 09:43:15.688097", "Beginexp": "2023-08-04 09:43:51.530117", "Endhit": "2023-08-04 11:14:26.313957", "psiturkStatus": 3, "browser": "<redacted>", "platform": "windows", "language": "en-ZA", "excludeReason": "exceededTime"}