{"condition": 0, "counterbalance": 0, "assignmentId": "a50806306", "workerId": "w89243441", "hitId": "h94512742", "currenttrial": 55, "bonus": 0, "data": [{"uniqueid": "w89243441:a50806306", "current_trial": 0, "dateTime": 1691148655909, "trialdata": {"success": true, "trial_type": "fullscreen", "trial_index": 0, "time_elapsed": 3125, "internal_node_id": "0.0-0.0"}}, {"uniqueid": "w89243441:a50806306", "current_trial": 1, "dateTime": 1691148661434, "trialdata": {"view_history": [{"page_index": 0, "viewing_time": 5519}], "rt": 5519, "trial_id": "exp_instructions_control", "trial_type": "instructions", "trial_index": 1, "time_elapsed": 8651, "internal_node_id": "0.0-1.0"}}, {"uniqueid": "w89243441:a50806306", "current_trial": 2, "dateTime": 1691148664140, "trialdata": {"success": true, "trial_type": "fullscreen", "trial_index": 2, "time_elapsed": 11357, "internal_node_id": "0.0-2.0-0.0"}}, {"uniqueid": "w89243441:a50806306", "current_trial": 3, "dateTime": 1691148727645, "trialdata": {"view_history": [{"page_index": 0, "viewing_time": 25596}, {"page_index": 1, "viewing_time": 22737}, {"page_index": 2, "viewing_time": 7615}, {"page_index": 3, "viewing_time": 7553}], "rt": 63502, "trial_id": "mouselab_instructions_1_control", "trial_type": "instructions", "trial_index": 3, "time_elapsed": 74861, "internal_node_id": "0.0-2.0-1.0"}}, {"uniqueid": "w89243441:a50806306", "current_trial": 4, "dateTime": 1691148765333, "trialdata": {"revealed_states": [], "clicked_states": ["1", "2", "3", "8", "9", "13", "19"], "num_clicks_accrued": [0, 0, 0, 0, 0, 0, 0, 0, 0, 0, 0, 0, 0], "stateRewards": ["", -10, -10, -10, 10, 10, 10, 10, 10, -10, 10, 10, 10, 10, 10, 10, 10, -10, 10, 10, -10, -10, 10, -10, -10, 10, -10, 10, -10, -10, -10, 10, -10, 10], "withholdReward": false, "trial_id": "practice_1", "block": "test", "trialIndex": 0, "score": 30, "costs": -3.5, "simulationMode": [null, null, null, null, null], "rewards": [10, 10, 10, 10, -10], "path": ["0", "0", "12", "13", "14", "19", "21"], "rt": [25620, 495, 665, 286, 175], "actions": ["right", "right", "right", "down", "down"], "actionTimes": [28355, 29348, 30515, 31308, 32002], "queries": {"click": {"state": {"target": ["1", "2", "3", "8", "9", "13", "19"], "time": [4297, 6532, 8993, 13762, 15971, 21475, 25188]}, "edge": {"target": [], "time": []}}, "mouseover": {"state": {"target": ["1", "2", "3", "4", "3", "4", "5", "4", "8", "9", "4", "4", "7", "18", "13", "13", "13", "22", "19", "21"], "time": [3878, 5333, 7621, 7812, 8581, 9579, 10611, 12494, 13212, 15309, 18564, 19080, 20015, 20063, 20117, 20579, 21032, 22862, 24606, 26528]}, "edge": {"target": [], "time": []}}, "mouseout": {"state": {"target": ["0", "1", "2", "3", "4", "3", "4", "5", "4", "3", "8", "8", "9", "4", "4", "7", "18", "13", "13", "13", "22", "19", "19", "21"], "time": [3681, 4465, 7515, 7794, 8563, 9480, 10411, 12432, 12829, 12917, 14861, 15179, 18511, 18672, 20011, 20047, 20113, 20146, 20717, 22846, 23029, 25281, 26307, 28480]}, "edge": {"target": [], "time": []}}}, "displayed_time": "32.51", "trialTime": 36426, "trial_type": "mouselab-mdp", "trial_index": 4, "time_elapsed": 112549, "internal_node_id": "0.0-2.0-2.0-0.0"}}, {"uniqueid": "w89243441:a50806306", "current_trial": 5, "dateTime": 1691148785233, "trialdata": {"revealed_states": [], "clicked_states": ["13", "2", "25"], "num_clicks_accrued": [0, 0, 0, 0, 0, 0, 0, 0, 0, 0, 0, 0, 0], "stateRewards": ["", -10, -10, 10, -10, 10, -10, 10, 10, 10, 10, 10, 10, 10, 10, -10, -10, 10, 10, -10, 10, 10, 10, 10, 10, 10, -10, -10, 10, 10, 10, 10, 10, 10], "withholdReward": false, "trial_id": "practice_2", "block": "test", "trialIndex": 1, "score": 32, "costs": -1.5, "simulationMode": [null, null, null, null, null], "rewards": [10, 10, 10, -10, 10], "path": ["0", "0", "12", "13", "14", "19", "21"], "rt": [8468, 123, 406, 146, 35], "actions": ["right", "right", "right", "down", "down"], "actionTimes": [10834, 11459, 12358, 12999, 13539], "queries": {"click": {"state": {"target": ["13", "2", "25"], "time": [6085, 7590, 9238]}, "edge": {"target": [], "time": []}}, "mouseover": {"state": {"target": ["1", "1", "12", "12", "13", "1", "2", "28", "25", "24", "0"], "time": [3457, 4224, 4288, 4584, 5727, 7152, 7364, 8780, 8936, 10066, 10331]}, "edge": {"target": [], "time": []}}, "mouseout": {"state": {"target": ["12", "0", "1", "1", "12", "12", "13", "1", "2", "28", "25", "24", "0", "13", "13", "12"], "time": [1168, 3288, 4157, 4240, 4303, 5614, 7067, 7224, 7665, 8805, 10055, 10283, 10398, 15730, 16364, 17131]}, "edge": {"target": [], "time": []}}}, "displayed_time": "14.05", "trialTime": 19278, "trial_type": "mouselab-mdp", "trial_index": 5, "time_elapsed": 132450, "internal_node_id": "0.0-2.0-2.0-1.0"}}, {"uniqueid": "w89243441:a50806306", "current_trial": 6, "dateTime": 1691148796711, "trialdata": {"view_history": [{"page_index": 0, "viewing_time": 6266}, {"page_index": 1, "viewing_time": 5208}], "rt": 11475, "trial_id": "mouselab_instructions_2_control", "trial_type": "instructions", "trial_index": 6, "time_elapsed": 143928, "internal_node_id": "0.0-2.0-3.0"}}, {"uniqueid": "w89243441:a50806306", "current_trial": 7, "dateTime": 1691148829167, "trialdata": {"rt": 32450, "response": {"Q0": "The cost for clicking on nodes may vary between nodes.", "Q1": "The better I perform the higher my bonus will be.", "Q2": "No, the amount of cash at each node of the web may be different each time.", "Q3": "To get the highest total score.", "Q4": "Only before moving the spider.", "Q5": "3 seconds"}, "question_order": [0, 1, 2, 3, 4, 5], "correct": {"Q0": "The cost for clicking on nodes may vary between nodes.", "Q1": "The better I perform the higher my bonus will be.", "Q2": "No, the amount of cash at each node of the web may be different each time.", "Q3": "To get the highest total score.", "Q4": "Only before moving the spider.", "Q5": "3 seconds"}, "trial_id": "mouselab_quiz_control", "trial_type": "survey-multi-choice", "trial_index": 7, "time_elapsed": 176384, "internal_node_id": "0.0-2.0-4.0"}}, {"uniqueid": "w89243441:a50806306", "current_trial": 8, "dateTime": 1691148831639, "trialdata": {"rt": 2465, "stimulus": "\n<h1> Get ready to start the game! </h1>\n\nThank you for reading the instructions. Get ready start with the 40 rounds of this game.\n<br><br>\nIf you need to take a break, feel free to take one after the end of a round, before continuing to the next one.\n<br><br>\nRemember, the more money the spider gets, the bigger your bonus will be!\n<br><br>\n<div style='text-align: center;'>Press <code>space</code> to begin.</div>\n\n<br><br>\n(If, at any point, the <code>space</code> key does not take you to the next page, click once on the text and try again.)", "response": " ", "trial_id": "mdp_ready", "trial_type": "html-keyboard-response", "trial_index": 8, "time_elapsed": 178856, "internal_node_id": "0.0-4.0-0.0"}}, {"uniqueid": "w89243441:a50806306", "current_trial": 9, "dateTime": 1691148849673, "trialdata": {"revealed_states": [], "clicked_states": ["13", "2", "24"], "num_clicks_accrued": [0, 0, 0, 0, 0, 0, 0, 0, 0, 0, 0, 0, 0], "stateRewards": ["", 2, -3, -8, 14, -7, -51, 73, 2, 36, 36, -43, -1, 3, -4, 1, 6, 87, -65, 15, 61, -42, -83, -1, 3, -2, -7, 30, -48, 35, 13, 26, 60, 78], "withholdReward": false, "trial_id": "mdp_trial_1", "block": "test", "trialIndex": 2, "score": 68.8, "costs": -4.199999999999999, "simulationMode": [null, null, null, null, null], "rewards": [-1, 3, -2, 13, 60], "path": ["0", "0", "23", "24", "25", "30", "32"], "rt": [8030, 126, 1170, 87, 158], "actions": ["left", "left", "left", "down", "down"], "actionTimes": [10028, 10711, 12382, 12996, 13657], "queries": {"click": {"state": {"target": ["13", "2", "24"], "time": [3193, 6112, 7867]}, "edge": {"target": [], "time": []}}, "mouseover": {"state": {"target": ["12", "13", "12", "1", "2", "25", "24"], "time": [2118, 2974, 3642, 3710, 4026, 7267, 7560]}, "edge": {"target": [], "time": []}}, "mouseout": {"state": {"target": ["12", "0", "12", "13", "12", "1", "2", "25", "24", "23", "0"], "time": [539, 2020, 2790, 3592, 3694, 3775, 6994, 7476, 9473, 10356, 14926]}, "edge": {"target": [], "time": []}}}, "displayed_time": "16.00", "trialTime": 17527, "trial_type": "mouselab-mdp", "trial_index": 9, "time_elapsed": 196890, "internal_node_id": "0.0-4.0-1.0-0.0"}}, {"uniqueid": "w89243441:a50806306", "current_trial": 10, "dateTime": 1691148868541, "trialdata": {"revealed_states": [], "clicked_states": ["2", "24", "13"], "num_clicks_accrued": [0, 0, 0, 0, 0, 0, 0, 0, 0, 0, 0, 0, 0], "stateRewards": ["", -1, -4, -1, -5, -28, -23, -15, -15, -38, 59, -87, 2, 2, -5, 9, -55, -39, -71, -6, 85, -85, -11, -1, -2, 5, -10, 1, 25, 41, -4, 69, -35, 86], "withholdReward": false, "trial_id": "mdp_trial_2", "block": "test", "trialIndex": 3, "score": -35.2, "costs": -4.199999999999999, "simulationMode": [null, null, null, null, null], "rewards": [2, 2, -5, 9, -39], "path": ["0", "0", "12", "13", "14", "15", "17"], "rt": [9439, 326, 785, 379, 26], "actions": ["right", "right", "right", "up", "right"], "actionTimes": [11518, 12363, 13671, 14550, 15082], "queries": {"click": {"state": {"target": ["2", "24", "13"], "time": [3401, 6700, 8513]}, "edge": {"target": [], "time": []}}, "mouseover": {"state": {"target": ["1", "2", "28", "24", "23", "0", "13", "12", "0", "23", "24", "23", "12", "13", "22", "22"], "time": [2832, 3100, 3811, 4036, 4970, 5004, 5383, 5969, 6001, 6181, 6481, 7485, 7653, 8072, 10283, 10642]}, "edge": {"target": [], "time": []}}, "mouseout": {"state": {"target": ["12", "1", "0", "1", "2", "28", "24", "23", "0", "13", "12", "0", "23", "24", "23", "12", "13", "22", "22"], "time": [331, 681, 2767, 3033, 3685, 3924, 4966, 5000, 5019, 5949, 5984, 6149, 6282, 6793, 7576, 8055, 10251, 10316, 16515]}, "edge": {"target": [], "time": []}}}, "displayed_time": "16.08", "trialTime": 18221, "trial_type": "mouselab-mdp", "trial_index": 10, "time_elapsed": 215757, "internal_node_id": "0.0-4.0-1.0-1.0"}}, {"uniqueid": "w89243441:a50806306", "current_trial": 11, "dateTime": 1691148888662, "trialdata": {"revealed_states": [], "clicked_states": ["13"], "num_clicks_accrued": [0, 0, 0, 0, 0, 0, 0, 0, 0, 0, 0, 0, 0], "stateRewards": ["", 2, 3, 3, 10, 19, -21, 6, 9, 54, 68, 16, 2, 2, -6, -8, 40, -2, -75, -2, -42, 55, 59, -1, 2, 4, -14, 11, -34, -30, -6, 61, -53, 13], "withholdReward": false, "trial_id": "mdp_trial_3", "block": "test", "trialIndex": 4, "score": 28.6, "costs": -1.4, "simulationMode": [null, null, null, null, null], "rewards": [2, 2, -6, -8, 40], "path": ["0", "0", "12", "13", "14", "15", "16"], "rt": [3373, 850, 135, 972, 214], "actions": ["right", "right", "right", "up", "up"], "actionTimes": [6789, 8143, 8779, 10255, 10977], "queries": {"click": {"state": {"target": ["13"], "time": [4472]}, "edge": {"target": [], "time": []}}, "mouseover": {"state": {"target": ["12", "13", "14", "15", "15"], "time": [3616, 4137, 4995, 5359, 5675]}, "edge": {"target": [], "time": []}}, "mouseout": {"state": {"target": ["0", "0", "12", "13", "12", "12", "0", "12", "13", "14", "15", "15", "15"], "time": [336, 855, 952, 1752, 1853, 2457, 2887, 3672, 4924, 5307, 5527, 10473, 12208]}, "edge": {"target": [], "time": []}}}, "displayed_time": "17.42", "trialTime": 19596, "trial_type": "mouselab-mdp", "trial_index": 11, "time_elapsed": 235879, "internal_node_id": "0.0-4.0-1.0-2.0"}}, {"uniqueid": "w89243441:a50806306", "current_trial": 12, "dateTime": 1691148907275, "trialdata": {"revealed_states": [], "clicked_states": ["23", "13"], "num_clicks_accrued": [0, 0, 0, 0, 0, 0, 0, 0, 0, 0, 0, 0, 0], "stateRewards": ["", -1, 4, 3, 12, -27, 34, -33, 3, -63, 1, 6, 2, 2, -6, -11, -77, -85, 68, -6, 51, 81, -60, -2, -2, 1, 15, 20, 15, 68, -10, -14, 6, -4], "withholdReward": false, "trial_id": "mdp_trial_4", "block": "test", "trialIndex": 5, "score": 70.2, "costs": -2.8, "simulationMode": [null, null, null, null, null, null], "rewards": [2, 2, -6, -6, 81], "path": ["0", "0", "12", "13", "14", "19", "21"], "rt": [5529, 584, 233, 951, 973, 3554], "actions": ["right", "right", "right", "right", "down", "down"], "actionTimes": [7255, 7845, 8582, 10039, 11580, 15651], "queries": {"click": {"state": {"target": ["23", "13"], "time": [2599, 6248]}, "edge": {"target": [], "time": []}}, "mouseover": {"state": {"target": ["23", "23", "24", "0", "13", "13"], "time": [2260, 2418, 2934, 3128, 3429, 5960]}, "edge": {"target": [], "time": []}}, "mouseout": {"state": {"target": ["0", "23", "23", "24", "0", "13", "13", "19", "20", "19"], "time": [2115, 2294, 2930, 3079, 3162, 5376, 7213, 12079, 15677, 17188]}, "edge": {"target": [], "time": []}}}, "displayed_time": "16.18", "trialTime": 18014, "trial_type": "mouselab-mdp", "trial_index": 12, "time_elapsed": 254492, "internal_node_id": "0.0-4.0-1.0-3.0"}}, {"uniqueid": "w89243441:a50806306", "current_trial": 13, "dateTime": 1691148924833, "trialdata": {"revealed_states": [], "clicked_states": ["2"], "num_clicks_accrued": [0, 0, 0, 0, 0, 0, 0, 0, 0, 0, 0, 0, 0], "stateRewards": ["", -1, -4, -3, 1, -45, -67, -24, 14, 32, 22, 22, -1, 1, -5, -7, 72, 84, -79, -5, 19, -40, -2, -1, -2, 8, -3, 84, -25, -28, 11, 64, -66, 77], "withholdReward": false, "trial_id": "mdp_trial_5", "block": "test", "trialIndex": 6, "score": -75.4, "costs": -1.4, "simulationMode": [null, null, null, null, null, null], "rewards": [-1, -4, -3, 1, -67], "path": ["0", "0", "1", "2", "3", "4", "6"], "rt": [1699, 582, 2089, 1892, 2135, 85], "actions": ["up", "up", "up", "up", "right", "right"], "actionTimes": [3247, 3834, 6435, 8851, 11509, 12092], "queries": {"click": {"state": {"target": ["2"], "time": [2615]}, "edge": {"target": [], "time": []}}, "mouseover": {"state": {"target": ["1", "2"], "time": [2120, 2473]}, "edge": {"target": [], "time": []}}, "mouseout": {"state": {"target": ["0", "1", "2", "12", "0", "1", "2", "8", "11", "8", "3", "4", "7"], "time": [983, 2453, 3421, 5866, 6400, 6518, 6737, 6886, 7050, 7905, 8389, 13275, 13517]}, "edge": {"target": [], "time": []}}}, "displayed_time": "15.55", "trialTime": 16929, "trial_type": "mouselab-mdp", "trial_index": 13, "time_elapsed": 272050, "internal_node_id": "0.0-4.0-1.0-4.0"}}, {"uniqueid": "w89243441:a50806306", "current_trial": 14, "dateTime": 1691148945192, "trialdata": {"revealed_states": [], "clicked_states": ["13"], "num_clicks_accrued": [0, 0, 0, 0, 0, 0, 0, 0, 0, 0, 0, 0, 0], "stateRewards": ["", -1, 2, 7, 8, 75, 67, -11, 6, 52, -17, 38, -1, 4, -8, 14, 74, -37, -17, -12, 52, 55, 71, -2, -1, -5, 2, 21, 6, -88, -14, 64, -61, -47], "withholdReward": false, "trial_id": "mdp_trial_6", "block": "test", "trialIndex": 7, "score": 81.6, "costs": -1.4, "simulationMode": [null, null, null, null, null], "rewards": [-1, 4, -8, 14, 74], "path": ["0", "0", "12", "13", "14", "15", "16"], "rt": [3936, 15, 4301, 139, 176], "actions": ["right", "right", "right", "up", "up"], "actionTimes": [6197, 6721, 11543, 12176, 12860], "queries": {"click": {"state": {"target": ["13"], "time": [3321]}, "edge": {"target": [], "time": []}}, "mouseover": {"state": {"target": ["12", "13", "13", "18", "1", "23", "24"], "time": [2582, 2697, 3175, 4982, 5049, 5516, 5933]}, "edge": {"target": [], "time": []}}, "mouseout": {"state": {"target": ["0", "12", "13", "13", "18", "1", "23", "24", "23", "0", "12", "13", "14", "15", "13", "0", "1", "0"], "time": [1731, 2632, 3065, 4471, 4999, 5082, 5658, 6165, 6337, 6367, 6501, 6634, 6883, 14969, 15015, 17732, 18349, 18433]}, "edge": {"target": [], "time": []}}}, "displayed_time": "16.26", "trialTime": 19735, "trial_type": "mouselab-mdp", "trial_index": 14, "time_elapsed": 292408, "internal_node_id": "0.0-4.0-1.0-5.0"}}, {"uniqueid": "w89243441:a50806306", "current_trial": 15, "dateTime": 1691148967090, "trialdata": {"revealed_states": [], "clicked_states": ["2", "14", "24", "4", "8"], "num_clicks_accrued": [0, 0, 0, 0, 0, 0, 0, 0, 0, 0, 0, 0, 0], "stateRewards": ["", 1, -2, -8, -13, 4, 34, -84, -4, -49, 88, -70, -1, 3, -4, 10, -77, 13, -34, 15, -21, -16, 27, 1, -2, 8, -8, -6, 38, -26, 6, -15, 66, -3], "withholdReward": false, "trial_id": "mdp_trial_7", "block": "test", "trialIndex": 8, "score": -69, "costs": -7, "simulationMode": [null, null, null, null, null], "rewards": [1, -2, -8, -4, -49], "path": ["0", "0", "1", "2", "3", "8", "9"], "rt": [15368, 212, 473, 15, 18], "actions": ["up", "up", "up", "left", "up"], "actionTimes": [17016, 17755, 18723, 19236, 19783], "queries": {"click": {"state": {"target": ["2", "14", "24", "4", "8"], "time": [3293, 6332, 8350, 12245, 14427]}, "edge": {"target": [], "time": []}}, "mouseover": {"state": {"target": ["1", "2", "13", "14", "0", "23", "24", "23", "2", "3", "4", "6", "4", "3", "8", "8", "10", "1"], "time": [2512, 2777, 3747, 4181, 7131, 7190, 7452, 10678, 10811, 10944, 11227, 11463, 11912, 13134, 13220, 13296, 15672, 16699]}, "edge": {"target": [], "time": []}}, "mouseout": {"state": {"target": ["0", "1", "2", "2", "13", "14", "0", "23", "24", "24", "23", "2", "3", "4", "6", "4", "3", "8", "8", "8", "10", "1", "0"], "time": [993, 2611, 3380, 3610, 3996, 6827, 7147, 7231, 10044, 10657, 10711, 10862, 11011, 11411, 11879, 13130, 13216, 13252, 14514, 15666, 15732, 16873, 20561]}, "edge": {"target": [], "time": []}}}, "displayed_time": "20.31", "trialTime": 21062, "trial_type": "mouselab-mdp", "trial_index": 15, "time_elapsed": 314307, "internal_node_id": "0.0-4.0-1.0-6.0"}}, {"uniqueid": "w89243441:a50806306", "current_trial": 16, "dateTime": 1691148986353, "trialdata": {"revealed_states": [], "clicked_states": ["13", "24", "2", "26"], "num_clicks_accrued": [0, 0, 0, 0, 0, 0, 0, 0, 0, 0, 0, 0, 0], "stateRewards": ["", -1, -2, -1, -10, -57, 73, -72, -16, 75, -14, -46, -2, -3, -7, -1, -61, -60, 76, -4, 50, 4, 14, 2, 2, -7, 12, -65, -32, 15, -8, -76, -25, -61], "withholdReward": false, "trial_id": "mdp_trial_8", "block": "test", "trialIndex": 9, "score": -61.6, "costs": -5.6, "simulationMode": [null, null, null, null, null], "rewards": [2, 2, -7, 12, -65], "path": ["0", "0", "23", "24", "25", "26", "27"], "rt": [9428, 350, 1270, 18, 10], "actions": ["left", "left", "left", "up", "up"], "actionTimes": [12002, 12860, 14642, 15158, 15682], "queries": {"click": {"state": {"target": ["13", "24", "2", "26"], "time": [3738, 6653, 8293, 9875]}, "edge": {"target": [], "time": []}}, "mouseover": {"state": {"target": ["12", "13", "12", "23", "24", "24", "2", "28", "26", "25"], "time": [3267, 3466, 4039, 4153, 4350, 6432, 7273, 9135, 9668, 11649]}, "edge": {"target": [], "time": []}}, "mouseout": {"state": {"target": ["0", "12", "13", "12", "23", "24", "24", "2", "28", "26", "25", "24"], "time": [1881, 3442, 4035, 4061, 4285, 6134, 7075, 9117, 9188, 11560, 16932, 17138]}, "edge": {"target": [], "time": []}}}, "displayed_time": "16.60", "trialTime": 18280, "trial_type": "mouselab-mdp", "trial_index": 16, "time_elapsed": 333569, "internal_node_id": "0.0-4.0-1.0-7.0"}}, {"uniqueid": "w89243441:a50806306", "current_trial": 17, "dateTime": 1691149007254, "trialdata": {"revealed_states": [], "clicked_states": ["13", "24", "2", "4"], "num_clicks_accrued": [0, 0, 0, 0, 0, 0, 0, 0, 0, 0, 0, 0, 0], "stateRewards": ["", -2, 3, 3, -14, 62, 36, 49, 16, 11, 17, -84, 2, -1, 6, 2, -82, -73, 49, -6, -87, 48, 50, -1, -2, -1, -16, -11, 37, -44, 4, 55, 73, -10], "withholdReward": false, "trial_id": "mdp_trial_9", "block": "test", "trialIndex": 10, "score": 25.4, "costs": -5.6, "simulationMode": [null, null, null, null, null], "rewards": [-2, 3, 3, 16, 11], "path": ["0", "0", "1", "2", "3", "8", "9"], "rt": [11283, 71, 1095, 203, 157], "actions": ["up", "up", "up", "left", "up"], "actionTimes": [15213, 15790, 17396, 18106, 18768], "queries": {"click": {"state": {"target": ["13", "24", "2", "4"], "time": [4790, 7575, 9506, 13095]}, "edge": {"target": [], "time": []}}, "mouseover": {"state": {"target": ["13", "12", "23", "24", "2", "18", "18", "7", "4"], "time": [3951, 5317, 5377, 5615, 8282, 11237, 11946, 12080, 12752]}, "edge": {"target": [], "time": []}}, "mouseout": {"state": {"target": ["12", "13", "12", "13", "14", "13", "13", "12", "13", "12", "23", "24", "2", "2", "18", "18", "7", "4"], "time": [961, 1194, 1485, 1725, 2111, 2445, 3161, 3183, 5281, 5372, 5499, 7814, 9612, 10149, 11263, 11980, 12148, 14401]}, "edge": {"target": [], "time": []}}}, "displayed_time": "19.27", "trialTime": 20329, "trial_type": "mouselab-mdp", "trial_index": 17, "time_elapsed": 354471, "internal_node_id": "0.0-4.0-1.0-8.0"}}, {"uniqueid": "w89243441:a50806306", "current_trial": 18, "dateTime": 1691149028351, "trialdata": {"revealed_states": [], "clicked_states": ["24", "2", "14", "4"], "num_clicks_accrued": [0, 0, 0, 0, 0, 0, 0, 0, 0, 0, 0, 0, 0], "stateRewards": ["", 2, 3, 8, 14, 69, -27, 17, 2, -71, -65, -10, 2, -3, 7, 8, 65, -10, 65, -12, 73, -12, 13, -2, -2, 6, 10, -79, -69, -18, 10, -85, 67, 74], "withholdReward": false, "trial_id": "mdp_trial_10", "block": "test", "trialIndex": 11, "score": 90.4, "costs": -5.6, "simulationMode": [null, null, null, null, null], "rewards": [2, 3, 8, 14, 69], "path": ["0", "0", "1", "2", "3", "4", "5"], "rt": [13310, 407, 379, 97, 455], "actions": ["up", "up", "up", "right", "up"], "actionTimes": [14785, 15694, 16584, 17183, 18159], "queries": {"click": {"state": {"target": ["24", "2", "14", "4"], "time": [2910, 6241, 9779, 11653]}, "edge": {"target": [], "time": []}}, "mouseover": {"state": {"target": ["0", "23", "24", "13", "14", "13", "7", "2", "14", "7", "4", "7", "13", "22", "19", "22"], "time": [2347, 2399, 2660, 3583, 3799, 5363, 5563, 5751, 6948, 10383, 10589, 13201, 13398, 13462, 13629, 13980]}, "edge": {"target": [], "time": []}}, "mouseout": {"state": {"target": ["0", "0", "0", "23", "24", "13", "14", "13", "7", "2", "14", "7", "4", "7", "13", "22", "19", "22"], "time": [35, 929, 2396, 2521, 3291, 3615, 5330, 5396, 5713, 6665, 10098, 10449, 13198, 13279, 13415, 13535, 13917, 19381]}, "edge": {"target": [], "time": []}}}, "displayed_time": "18.67", "trialTime": 20392, "trial_type": "mouselab-mdp", "trial_index": 18, "time_elapsed": 375568, "internal_node_id": "0.0-4.0-1.0-9.0"}}, {"uniqueid": "w89243441:a50806306", "current_trial": 19, "dateTime": 1691149045888, "trialdata": {"revealed_states": [], "clicked_states": ["13", "24", "2", "26"], "num_clicks_accrued": [0, 0, 0, 0, 0, 0, 0, 0, 0, 0, 0, 0, 0], "stateRewards": ["", -2, 1, 6, -2, -10, -78, -69, 14, -15, 7, -1, 1, -1, -2, 13, 77, 32, 87, 5, -74, 30, -26, 1, 3, 4, 12, 39, 54, -43, 2, 10, 23, 13], "withholdReward": false, "trial_id": "mdp_trial_11", "block": "test", "trialIndex": 12, "score": 53.4, "costs": -5.6, "simulationMode": [null, null, null, null, null, null], "rewards": [1, 3, 4, 12, 39], "path": ["0", "0", "23", "24", "25", "26", "27"], "rt": [8563, 295, 179, 1568, 201, 3], "actions": ["left", "left", "left", "left", "up", "up"], "actionTimes": [10514, 10868, 11568, 13670, 14375, 14911], "queries": {"click": {"state": {"target": ["13", "24", "2", "26"], "time": [3376, 5181, 6876, 9055]}, "edge": {"target": [], "time": []}}, "mouseover": {"state": {"target": ["12", "13", "14", "13", "24", "1", "2", "25", "26"], "time": [2681, 2783, 2897, 3115, 4635, 6217, 6534, 8167, 8666]}, "edge": {"target": [], "time": []}}, "mouseout": {"state": {"target": ["0", "12", "13", "14", "13", "24", "1", "2", "25", "26", "23"], "time": [1431, 2765, 2805, 3081, 4236, 6100, 6433, 7884, 8400, 9976, 16465]}, "edge": {"target": [], "time": []}}}, "displayed_time": "15.95", "trialTime": 16864, "trial_type": "mouselab-mdp", "trial_index": 19, "time_elapsed": 393104, "internal_node_id": "0.0-4.0-1.0-10.0"}}, {"uniqueid": "w89243441:a50806306", "current_trial": 20, "dateTime": 1691149063399, "trialdata": {"revealed_states": [], "clicked_states": ["24", "2", "14", "4", "15"], "num_clicks_accrued": [0, 0, 0, 0, 0, 0, 0, 0, 0, 0, 0, 0, 0], "stateRewards": ["", -2, 4, -7, -3, -76, 39, -28, 10, 14, 12, 60, 2, -3, 6, -10, 88, -34, -41, -3, 72, -13, -56, 1, 3, 2, 8, -51, 23, -57, 1, 14, -46, -16], "withholdReward": false, "trial_id": "mdp_trial_12", "block": "test", "trialIndex": 13, "score": 67, "costs": -7, "simulationMode": [null, null, null, null, null, null], "rewards": [2, -3, 6, -3, 72], "path": ["0", "0", "12", "13", "14", "19", "20"], "rt": [10219, 242, 108, 690, 211, 92], "actions": ["right", "right", "right", "right", "down", "right"], "actionTimes": [11865, 12115, 12764, 13974, 14694, 15291], "queries": {"click": {"state": {"target": ["24", "2", "14", "4", "15"], "time": [2971, 5228, 6841, 9499, 11239]}, "edge": {"target": [], "time": []}}, "mouseover": {"state": {"target": ["23", "24", "10", "2", "14", "7", "4", "15"], "time": [2297, 2360, 3404, 3663, 6279, 8736, 8876, 10563]}, "edge": {"target": [], "time": []}}, "mouseout": {"state": {"target": ["0", "23", "24", "10", "2", "14", "7", "4", "15", "14", "22"], "time": [2280, 2327, 3065, 3546, 5695, 7962, 8764, 10433, 12713, 16227, 16299]}, "edge": {"target": [], "time": []}}}, "displayed_time": "15.80", "trialTime": 16669, "trial_type": "mouselab-mdp", "trial_index": 20, "time_elapsed": 410616, "internal_node_id": "0.0-4.0-1.0-11.0"}}, {"uniqueid": "w89243441:a50806306", "current_trial": 21, "dateTime": 1691149079724, "trialdata": {"revealed_states": [], "clicked_states": ["24", "2", "13", "26"], "num_clicks_accrued": [0, 0, 0, 0, 0, 0, 0, 0, 0, 0, 0, 0, 0], "stateRewards": ["", -2, -4, 2, 10, -17, 18, 73, 11, -32, 23, -13, -2, -4, 7, 12, -25, 66, -23, 15, 40, -76, -9, 1, 2, -7, -5, -20, 24, 3, -5, 16, -73, 70], "withholdReward": false, "trial_id": "mdp_trial_13", "block": "test", "trialIndex": 14, "score": -87.6, "costs": -5.6, "simulationMode": [null, null, null, null, null, null], "rewards": [1, 2, -7, -5, -73], "path": ["0", "0", "23", "24", "25", "30", "32"], "rt": [9273, 248, 58, 591, 49, 124], "actions": ["left", "left", "left", "left", "down", "down"], "actionTimes": [10678, 10932, 11531, 12629, 13187, 13831], "queries": {"click": {"state": {"target": ["24", "2", "13", "26"], "time": [2495, 4619, 6538, 9417]}, "edge": {"target": [], "time": []}}, "mouseover": {"state": {"target": ["23", "24", "1", "2", "18", "13", "2", "13", "13", "14", "15", "0", "23", "24", "26"], "time": [1652, 2271, 2802, 3069, 3707, 4183, 4490, 5169, 6168, 7669, 8020, 8767, 8787, 8866, 9167]}, "edge": {"target": [], "time": []}}, "mouseout": {"state": {"target": ["0", "23", "24", "1", "2", "18", "13", "2", "13", "13", "14", "15", "0", "23", "24", "26"], "time": [807, 1699, 2752, 2820, 3660, 3733, 4203, 5020, 5953, 7535, 7968, 8702, 8784, 8849, 8902, 10237]}, "edge": {"target": [], "time": []}}}, "displayed_time": "15.41", "trialTime": 15652, "trial_type": "mouselab-mdp", "trial_index": 21, "time_elapsed": 426941, "internal_node_id": "0.0-4.0-1.0-12.0"}}, {"uniqueid": "w89243441:a50806306", "current_trial": 22, "dateTime": 1691149097229, "trialdata": {"revealed_states": [], "clicked_states": ["24", "2", "14", "26"], "num_clicks_accrued": [0, 0, 0, 0, 0, 0, 0, 0, 0, 0, 0, 0, 0], "stateRewards": ["", 1, -2, -2, 10, -31, -77, 35, 9, -47, 8, 48, -2, 1, -4, -3, -26, -50, 43, -11, 76, -38, 17, 1, -1, 6, 10, 15, -9, 12, -8, 85, 11, -55], "withholdReward": false, "trial_id": "mdp_trial_14", "block": "test", "trialIndex": 15, "score": 25.4, "costs": -5.6, "simulationMode": [null, null, null, null, null, null], "rewards": [1, -1, 6, 10, 15], "path": ["0", "0", "23", "24", "25", "26", "27"], "rt": [8725, 293, 289, 1560, 120, 20], "actions": ["left", "left", "left", "left", "up", "up"], "actionTimes": [10544, 10846, 11633, 13701, 14332, 14867], "queries": {"click": {"state": {"target": ["24", "2", "14", "26"], "time": [3342, 4880, 7748, 9888]}, "edge": {"target": [], "time": []}}, "mouseover": {"state": {"target": ["23", "24", "2", "18", "14", "12", "23", "24", "25", "26", "28"], "time": [2053, 3205, 3954, 7105, 7436, 8680, 8704, 8759, 9005, 9289, 10636]}, "edge": {"target": [], "time": []}}, "mouseout": {"state": {"target": ["0", "23", "24", "2", "18", "14", "12", "23", "24", "25", "26", "28", "23"], "time": [1243, 2087, 3671, 6969, 7253, 8667, 8699, 8756, 8926, 9047, 10630, 10760, 16159]}, "edge": {"target": [], "time": []}}}, "displayed_time": "15.82", "trialTime": 16725, "trial_type": "mouselab-mdp", "trial_index": 22, "time_elapsed": 444445, "internal_node_id": "0.0-4.0-1.0-13.0"}}, {"uniqueid": "w89243441:a50806306", "current_trial": 23, "dateTime": 1691149115744, "trialdata": {"revealed_states": [], "clicked_states": ["24", "2", "14"], "num_clicks_accrued": [0, 0, 0, 0, 0, 0, 0, 0, 0, 0, 0, 0, 0], "stateRewards": ["", 1, -3, -6, -5, 47, 80, -29, 11, -71, 10, -29, -2, 3, -6, 12, 2, -78, -6, 8, 34, -16, -5, -1, 3, 3, -13, 84, -36, -62, -3, -27, 66, 15], "withholdReward": false, "trial_id": "mdp_trial_15", "block": "test", "trialIndex": 16, "score": -74.2, "costs": -4.199999999999999, "simulationMode": [null, null, null, null, null], "rewards": [-1, 3, 3, -13, -62], "path": ["0", "0", "23", "24", "25", "26", "29"], "rt": [9498, 503, 49, 232, 331], "actions": ["left", "left", "left", "up", "left"], "actionTimes": [12145, 13164, 13749, 14500, 15347], "queries": {"click": {"state": {"target": ["24", "2", "14"], "time": [3711, 6299, 8720]}, "edge": {"target": [], "time": []}}, "mouseover": {"state": {"target": ["0", "23", "24", "2", "13", "14", "26"], "time": [3266, 3331, 3510, 4496, 6897, 7062, 9413]}, "edge": {"target": [], "time": []}}, "mouseout": {"state": {"target": ["0", "0", "23", "24", "2", "13", "14", "26", "24", "23"], "time": [1993, 3311, 3428, 4046, 6747, 7013, 9046, 13762, 16582, 16710]}, "edge": {"target": [], "time": []}}}, "displayed_time": "16.65", "trialTime": 17815, "trial_type": "mouselab-mdp", "trial_index": 23, "time_elapsed": 462960, "internal_node_id": "0.0-4.0-1.0-14.0"}}, {"uniqueid": "w89243441:a50806306", "current_trial": 24, "dateTime": 1691149133023, "trialdata": {"revealed_states": [], "clicked_states": ["24", "2", "13", "4"], "num_clicks_accrued": [0, 0, 0, 0, 0, 0, 0, 0, 0, 0, 0, 0, 0], "stateRewards": ["", -1, 2, -6, 6, -82, -19, -39, -16, -83, 11, -33, -2, -2, 4, -6, -82, -1, -19, -6, -10, -67, -41, -2, 1, -7, 16, -23, -78, -52, 14, 31, -71, 74], "withholdReward": false, "trial_id": "mdp_trial_16", "block": "test", "trialIndex": 17, "score": -23.6, "costs": -5.6, "simulationMode": [null, null, null, null, null, null], "rewards": [-1, 2, -6, 6, -19], "path": ["0", "0", "1", "2", "3", "4", "6"], "rt": [8633, 408, 67, 37, 435, 12], "actions": ["up", "up", "up", "up", "right", "right"], "actionTimes": [10293, 10709, 11396, 11910, 12857, 13368], "queries": {"click": {"state": {"target": ["24", "2", "13", "4"], "time": [2890, 5578, 7664, 9810]}, "edge": {"target": [], "time": []}}, "mouseover": {"state": {"target": ["0", "24", "2", "12", "13", "4"], "time": [1965, 2631, 3666, 6383, 6664, 9016]}, "edge": {"target": [], "time": []}}, "mouseout": {"state": {"target": ["0", "0", "24", "2", "12", "13", "4", "7"], "time": [1096, 2316, 3184, 6235, 6527, 8126, 10734, 14681]}, "edge": {"target": [], "time": []}}}, "displayed_time": "15.66", "trialTime": 16547, "trial_type": "mouselab-mdp", "trial_index": 24, "time_elapsed": 480240, "internal_node_id": "0.0-4.0-1.0-15.0"}}, {"uniqueid": "w89243441:a50806306", "current_trial": 25, "dateTime": 1691149149431, "trialdata": {"revealed_states": [], "clicked_states": ["25", "14", "3", "15"], "num_clicks_accrued": [0, 0, 0, 0, 0, 0, 0, 0, 0, 0, 0, 0, 0], "stateRewards": ["", 1, 4, -8, -5, -15, -7, 21, 13, -30, 40, -65, 1, 1, 5, -14, 35, 27, -38, -11, 36, -58, -47, -2, 4, -3, 13, -16, -49, 22, 15, -56, -44, -10], "withholdReward": false, "trial_id": "mdp_trial_17", "block": "test", "trialIndex": 18, "score": 26.4, "costs": -5.6, "simulationMode": [null, null, null, null, null, null], "rewards": [1, 1, 5, -11, 36], "path": ["0", "0", "12", "13", "14", "19", "20"], "rt": [9091, 374, 58, 895, 209, 207], "actions": ["right", "right", "right", "right", "down", "right"], "actionTimes": [10456, 10838, 11427, 12827, 13555, 14261], "queries": {"click": {"state": {"target": ["25", "14", "3", "15"], "time": [2769, 6217, 7902, 9846]}, "edge": {"target": [], "time": []}}, "mouseover": {"state": {"target": ["28", "26", "25", "2", "3", "14", "3", "15"], "time": [2077, 2345, 2599, 3484, 3781, 5127, 7732, 9301]}, "edge": {"target": [], "time": []}}, "mouseout": {"state": {"target": ["0", "28", "26", "25", "2", "3", "14", "3", "14", "14", "15", "15"], "time": [843, 2098, 2461, 2886, 3730, 4627, 6438, 8782, 9131, 9260, 9951, 10802]}, "edge": {"target": [], "time": []}}}, "displayed_time": "15.37", "trialTime": 15735, "trial_type": "mouselab-mdp", "trial_index": 25, "time_elapsed": 496647, "internal_node_id": "0.0-4.0-1.0-16.0"}}, {"uniqueid": "w89243441:a50806306", "current_trial": 26, "dateTime": 1691149166775, "trialdata": {"revealed_states": [], "clicked_states": ["24", "3", "26"], "num_clicks_accrued": [0, 0, 0, 0, 0, 0, 0, 0, 0, 0, 0, 0, 0], "stateRewards": ["", -1, 1, 3, -8, -23, -15, -14, -11, -23, 58, 68, 1, 3, 5, 12, -17, -41, -7, -10, -4, 82, 10, 1, 4, -4, 11, 73, 55, -55, -1, -86, -86, 54], "withholdReward": false, "trial_id": "mdp_trial_18", "block": "test", "trialIndex": 19, "score": 80.8, "costs": -4.199999999999999, "simulationMode": [null, null, null, null, null, null], "rewards": [1, 4, -4, 11, 73], "path": ["0", "0", "23", "24", "25", "26", "27"], "rt": [6905, 253, 22, 98, 443, 249], "actions": ["left", "left", "left", "left", "up", "up"], "actionTimes": [8387, 8647, 9206, 9816, 10803, 11548], "queries": {"click": {"state": {"target": ["24", "3", "26"], "time": [2910, 5141, 7257]}, "edge": {"target": [], "time": []}}, "mouseover": {"state": {"target": ["23", "24", "24", "2", "3", "7", "18", "23", "29", "26"], "time": [2176, 2359, 2636, 3561, 3829, 5685, 5772, 6194, 6776, 6944]}, "edge": {"target": [], "time": []}}, "mouseout": {"state": {"target": ["0", "23", "24", "24", "2", "3", "7", "18", "23", "29", "26", "28", "23"], "time": [2127, 2293, 2409, 3012, 3745, 5658, 5746, 5796, 6246, 6797, 8763, 9050, 12228]}, "edge": {"target": [], "time": []}}}, "displayed_time": "15.48", "trialTime": 16644, "trial_type": "mouselab-mdp", "trial_index": 26, "time_elapsed": 513992, "internal_node_id": "0.0-4.0-1.0-17.0"}}, {"uniqueid": "w89243441:a50806306", "current_trial": 27, "dateTime": 1691149184410, "trialdata": {"revealed_states": [], "clicked_states": ["25", "26"], "num_clicks_accrued": [0, 0, 0, 0, 0, 0, 0, 0, 0, 0, 0, 0, 0], "stateRewards": ["", 1, 1, -6, -2, 7, 77, 3, 16, -16, 66, 31, -1, 3, -8, -6, 33, -50, -48, 7, -60, -66, 36, 2, -3, 3, -7, -12, -61, -79, -4, 8, 74, -70], "withholdReward": false, "trial_id": "mdp_trial_19", "block": "test", "trialIndex": 20, "score": 69.2, "costs": -2.8, "simulationMode": [null, null, null, null, null, null], "rewards": [2, -3, 3, -4, 74], "path": ["0", "0", "23", "24", "25", "30", "32"], "rt": [4555, 274, 57, 296, 185, 283], "actions": ["left", "left", "left", "left", "down", "down"], "actionTimes": [5976, 6255, 6852, 7663, 8351, 9133], "queries": {"click": {"state": {"target": ["25", "26"], "time": [2775, 5485]}, "edge": {"target": [], "time": []}}, "mouseover": {"state": {"target": ["23", "24", "25", "26", "27", "26"], "time": [1979, 2176, 2293, 3517, 3680, 5244]}, "edge": {"target": [], "time": []}}, "mouseout": {"state": {"target": ["0", "23", "24", "25", "26", "27", "26", "28", "23", "0"], "time": [1941, 2076, 2263, 2885, 3579, 5176, 6537, 6783, 9926, 9979]}, "edge": {"target": [], "time": []}}}, "displayed_time": "15.42", "trialTime": 16829, "trial_type": "mouselab-mdp", "trial_index": 27, "time_elapsed": 531626, "internal_node_id": "0.0-4.0-1.0-18.0"}}, {"uniqueid": "w89243441:a50806306", "current_trial": 28, "dateTime": 1691149204494, "trialdata": {"revealed_states": [], "clicked_states": ["24", "14"], "num_clicks_accrued": [0, 0, 0, 0, 0, 0, 0, 0, 0, 0, 0, 0, 0], "stateRewards": ["", -2, -3, 8, -4, -30, 31, 69, 9, 66, 87, 64, -2, 2, 8, 5, 47, 16, -39, -8, -54, 51, -19, 1, -2, -2, -11, -25, -26, 43, -9, 19, -84, 86], "withholdReward": false, "trial_id": "mdp_trial_20", "block": "test", "trialIndex": 21, "score": 26.2, "costs": -2.8, "simulationMode": [null, null, null, null, null], "rewards": [-2, 2, 8, 5, 16], "path": ["0", "0", "12", "13", "14", "15", "17"], "rt": [10927, 115, 2434, 369, 62], "actions": ["right", "right", "right", "up", "right"], "actionTimes": [12713, 13341, 16303, 17221, 17797], "queries": {"click": {"state": {"target": ["24", "14"], "time": [2828, 5182]}, "edge": {"target": [], "time": []}}, "mouseover": {"state": {"target": ["23", "24", "14", "13", "2", "7", "15"], "time": [2182, 2673, 3477, 5535, 5983, 10301, 10561]}, "edge": {"target": [], "time": []}}, "mouseout": {"state": {"target": ["23", "0", "0", "23", "24", "14", "13", "2", "7", "15", "19", "14"], "time": [160, 220, 2044, 2511, 2947, 5530, 5582, 10294, 10329, 12932, 13067, 18546]}, "edge": {"target": [], "time": []}}}, "displayed_time": "18.30", "trialTime": 19131, "trial_type": "mouselab-mdp", "trial_index": 28, "time_elapsed": 551710, "internal_node_id": "0.0-4.0-1.0-19.0"}}, {"uniqueid": "w89243441:a50806306", "current_trial": 29, "dateTime": 1691149222563, "trialdata": {"revealed_states": [], "clicked_states": ["14", "25", "3", "26"], "num_clicks_accrued": [0, 0, 0, 0, 0, 0, 0, 0, 0, 0, 0, 0, 0], "stateRewards": ["", -2, 1, -8, 12, -65, -79, 16, 7, -80, -17, -45, -2, 2, -5, -2, -85, 23, -4, -7, 48, 27, -76, 2, 3, 5, 2, 43, 71, -13, 7, -49, 59, -31], "withholdReward": false, "trial_id": "mdp_trial_21", "block": "test", "trialIndex": 22, "score": 49.4, "costs": -5.6, "simulationMode": [null, null, null, null, null, null], "rewards": [2, 3, 5, 2, 43], "path": ["0", "0", "23", "24", "25", "26", "27"], "rt": [9789, 214, 164, 22, 403, 4], "actions": ["left", "left", "left", "left", "up", "up"], "actionTimes": [11653, 11872, 12541, 13073, 14010, 14538], "queries": {"click": {"state": {"target": ["14", "25", "3", "26"], "time": [3363, 6451, 8462, 10563]}, "edge": {"target": [], "time": []}}, "mouseover": {"state": {"target": ["12", "13", "14", "0", "23", "24", "25", "3", "10", "26", "28"], "time": [2643, 2703, 3162, 3923, 4014, 4217, 4630, 7316, 9252, 9798, 11453]}, "edge": {"target": [], "time": []}}, "mouseout": {"state": {"target": ["0", "12", "13", "14", "0", "23", "24", "25", "3", "10", "26", "28", "0"], "time": [1194, 2677, 3046, 3919, 3965, 4112, 4489, 6846, 9153, 9269, 11450, 11536, 16978]}, "edge": {"target": [], "time": []}}}, "displayed_time": "15.87", "trialTime": 17315, "trial_type": "mouselab-mdp", "trial_index": 29, "time_elapsed": 569779, "internal_node_id": "0.0-4.0-1.0-20.0"}}, {"uniqueid": "w89243441:a50806306", "current_trial": 30, "dateTime": 1691149241340, "trialdata": {"revealed_states": [], "clicked_states": ["25", "14", "3", "15"], "num_clicks_accrued": [0, 0, 0, 0, 0, 0, 0, 0, 0, 0, 0, 0, 0], "stateRewards": ["", -1, 2, 6, 11, 21, -21, -21, -6, 48, -71, 88, -1, -3, 3, 7, 64, 2, 9, -4, 37, -67, 72, 2, 2, -8, -8, -10, 71, -40, -3, 73, 80, 47], "withholdReward": false, "trial_id": "mdp_trial_22", "block": "test", "trialIndex": 23, "score": 33.4, "costs": -5.6, "simulationMode": [null, null, null, null, null], "rewards": [-1, 2, 6, 11, 21], "path": ["0", "0", "1", "2", "3", "4", "5"], "rt": [10863, 17, 1046, 216, 107], "actions": ["up", "up", "up", "right", "up"], "actionTimes": [12700, 13259, 14847, 15566, 16172], "queries": {"click": {"state": {"target": ["25", "14", "3", "15"], "time": [2504, 6574, 8697, 10912]}, "edge": {"target": [], "time": []}}, "mouseover": {"state": {"target": ["23", "24", "25", "14", "14", "14", "18", "7", "3", "15", "15", "4"], "time": [1926, 1992, 2229, 2967, 3263, 3480, 7034, 7087, 7529, 9446, 9744, 11684]}, "edge": {"target": [], "time": []}}, "mouseout": {"state": {"target": ["0", "23", "24", "25", "14", "14", "14", "18", "7", "3", "15", "15", "4", "7", "7", "12"], "time": [1357, 1943, 2113, 2661, 3031, 3329, 7030, 7082, 7145, 9129, 9562, 11262, 12649, 13161, 17642, 17921]}, "edge": {"target": [], "time": []}}}, "displayed_time": "16.68", "trialTime": 18040, "trial_type": "mouselab-mdp", "trial_index": 30, "time_elapsed": 588556, "internal_node_id": "0.0-4.0-1.0-21.0"}}, {"uniqueid": "w89243441:a50806306", "current_trial": 31, "dateTime": 1691149260204, "trialdata": {"revealed_states": [], "clicked_states": ["25", "3", "14"], "num_clicks_accrued": [0, 0, 0, 0, 0, 0, 0, 0, 0, 0, 0, 0, 0], "stateRewards": ["", -2, 3, -1, 2, -72, 63, 20, -1, 62, -66, 39, -2, 3, -6, 14, 22, 47, 1, 8, -49, -1, -41, 2, 2, -6, -16, -64, -60, -34, 16, 54, 22, -7], "withholdReward": false, "trial_id": "mdp_trial_23", "block": "test", "trialIndex": 24, "score": 60.8, "costs": -4.199999999999999, "simulationMode": [null, null, null, null, null], "rewards": [-2, 3, -1, 2, 63], "path": ["0", "0", "1", "2", "3", "4", "6"], "rt": [8615, 21, 733, 990, 42], "actions": ["up", "up", "up", "right", "right"], "actionTimes": [10386, 10924, 12184, 13675, 14267], "queries": {"click": {"state": {"target": ["25", "3", "14"], "time": [3042, 5593, 8014]}, "edge": {"target": [], "time": []}}, "mouseover": {"state": {"target": ["23", "24", "25", "24", "3", "15", "14", "12"], "time": [2332, 2567, 2762, 3409, 3781, 6871, 7019, 9713]}, "edge": {"target": [], "time": []}}, "mouseout": {"state": {"target": ["0", "23", "24", "25", "24", "3", "15", "14", "12", "12"], "time": [2279, 2431, 2693, 3400, 3433, 6358, 6937, 9134, 9746, 15395]}, "edge": {"target": [], "time": []}}}, "displayed_time": "15.77", "trialTime": 18041, "trial_type": "mouselab-mdp", "trial_index": 31, "time_elapsed": 607421, "internal_node_id": "0.0-4.0-1.0-22.0"}}, {"uniqueid": "w89243441:a50806306", "current_trial": 32, "dateTime": 1691149277391, "trialdata": {"revealed_states": [], "clicked_states": ["25", "3", "26"], "num_clicks_accrued": [0, 0, 0, 0, 0, 0, 0, 0, 0, 0, 0, 0, 0], "stateRewards": ["", -1, -3, 1, 13, -64, -29, 12, -4, -33, 50, 56, 2, -3, 4, 11, -64, -58, -55, 12, 47, 38, -25, -2, 2, 5, -15, 85, 7, 84, 10, 8, 57, 26], "withholdReward": false, "trial_id": "mdp_trial_24", "block": "test", "trialIndex": 25, "score": 67.8, "costs": -4.199999999999999, "simulationMode": [null, null, null, null, null, null], "rewards": [-2, 2, 5, 10, 57], "path": ["0", "0", "23", "24", "25", "30", "32"], "rt": [5865, 217, 137, 146, 472, 60], "actions": ["left", "left", "left", "left", "down", "down"], "actionTimes": [7278, 7500, 8166, 8870, 9854, 10445], "queries": {"click": {"state": {"target": ["25", "3", "26"], "time": [2593, 4960, 6644]}, "edge": {"target": [], "time": []}}, "mouseover": {"state": {"target": ["0", "23", "24", "25", "2", "3", "24", "26"], "time": [1536, 2122, 2239, 2373, 3063, 3219, 5824, 6455]}, "edge": {"target": [], "time": []}}, "mouseout": {"state": {"target": ["0", "0", "23", "24", "25", "2", "3", "24", "26", "28"], "time": [1424, 2056, 2167, 2321, 2752, 3195, 5608, 5887, 7797, 7838]}, "edge": {"target": [], "time": []}}}, "displayed_time": "15.41", "trialTime": 16371, "trial_type": "mouselab-mdp", "trial_index": 32, "time_elapsed": 624608, "internal_node_id": "0.0-4.0-1.0-23.0"}}, {"uniqueid": "w89243441:a50806306", "current_trial": 33, "dateTime": 1691149294483, "trialdata": {"revealed_states": [], "clicked_states": ["25", "14", "26"], "num_clicks_accrued": [0, 0, 0, 0, 0, 0, 0, 0, 0, 0, 0, 0, 0], "stateRewards": ["", -1, 4, -6, -5, -22, -38, -38, -2, -56, 88, 14, -1, -1, -7, -6, 61, -60, 21, 11, 57, 31, -30, -2, -2, 6, -9, -44, -70, -44, -15, 34, 16, -78], "withholdReward": false, "trial_id": "mdp_trial_25", "block": "test", "trialIndex": 26, "score": 16.8, "costs": -4.199999999999999, "simulationMode": [null, null, null, null, null, null], "rewards": [-2, -2, 6, -15, 34], "path": ["0", "0", "23", "24", "25", "30", "31"], "rt": [6327, 215, 17, 5, 519, 130], "actions": ["left", "left", "left", "left", "down", "right"], "actionTimes": [7826, 8046, 8570, 9110, 10160, 10799], "queries": {"click": {"state": {"target": ["25", "14", "26"], "time": [2554, 4531, 6485]}, "edge": {"target": [], "time": []}}, "mouseover": {"state": {"target": ["23", "25", "13", "14", "28", "26"], "time": [1694, 2329, 2962, 3115, 5733, 6213]}, "edge": {"target": [], "time": []}}, "mouseout": {"state": {"target": ["23", "25", "13", "14", "28", "26", "0"], "time": [1727, 2665, 2989, 5482, 5913, 6589, 11987]}, "edge": {"target": [], "time": []}}}, "displayed_time": "15.50", "trialTime": 16269, "trial_type": "mouselab-mdp", "trial_index": 33, "time_elapsed": 641699, "internal_node_id": "0.0-4.0-1.0-24.0"}}, {"uniqueid": "w89243441:a50806306", "current_trial": 34, "dateTime": 1691149311202, "trialdata": {"revealed_states": [], "clicked_states": ["25", "3", "14"], "num_clicks_accrued": [0, 0, 0, 0, 0, 0, 0, 0, 0, 0, 0, 0, 0], "stateRewards": ["", 2, -1, 3, -12, -83, 6, -33, 9, 28, 24, -50, -2, -1, -2, -5, -87, 37, 82, 12, 80, -5, 10, -2, -3, -6, 9, 22, -1, 16, 9, 77, -62, 58], "withholdReward": false, "trial_id": "mdp_trial_26", "block": "test", "trialIndex": 27, "score": 36.8, "costs": -4.199999999999999, "simulationMode": [null, null, null, null, null], "rewards": [2, -1, 3, 9, 28], "path": ["0", "0", "1", "2", "3", "8", "9"], "rt": [7778, 19, 95, 167, 180], "actions": ["up", "up", "up", "left", "up"], "actionTimes": [9175, 9695, 10308, 10978, 11655], "queries": {"click": {"state": {"target": ["25", "3", "14"], "time": [2388, 4182, 6256]}, "edge": {"target": [], "time": []}}, "mouseover": {"state": {"target": ["25", "24", "3", "18", "14", "14", "13", "11"], "time": [2151, 2653, 3010, 4853, 4922, 5205, 6793, 7118]}, "edge": {"target": [], "time": []}}, "mouseout": {"state": {"target": ["1", "25", "24", "3", "18", "14", "14", "13", "11", "8", "3", "7", "7", "0"], "time": [667, 2603, 2686, 4787, 4874, 4938, 6788, 6833, 9296, 9316, 9341, 9727, 10056, 13501]}, "edge": {"target": [], "time": []}}}, "displayed_time": "15.40", "trialTime": 16077, "trial_type": "mouselab-mdp", "trial_index": 34, "time_elapsed": 658418, "internal_node_id": "0.0-4.0-1.0-25.0"}}, {"uniqueid": "w89243441:a50806306", "current_trial": 35, "dateTime": 1691149328480, "trialdata": {"revealed_states": [], "clicked_states": ["25", "3", "17"], "num_clicks_accrued": [0, 0, 0, 0, 0, 0, 0, 0, 0, 0, 0, 0, 0], "stateRewards": ["", -1, -4, -1, -11, 43, 69, 39, 4, 17, -20, -82, -2, -1, 4, 8, -79, 24, -79, 11, 36, 64, 41, 2, 4, -1, 11, -79, -47, 75, -3, 63, -36, -19], "withholdReward": false, "trial_id": "mdp_trial_27", "block": "test", "trialIndex": 28, "score": 28.8, "costs": -4.199999999999999, "simulationMode": [null, null, null, null, null], "rewards": [-2, -1, 4, 8, 24], "path": ["0", "0", "12", "13", "14", "15", "17"], "rt": [8332, 41, 169, 326, 73], "actions": ["right", "right", "right", "up", "right"], "actionTimes": [10108, 10652, 11340, 12165, 12761], "queries": {"click": {"state": {"target": ["25", "3", "17"], "time": [3287, 4958, 7281]}, "edge": {"target": [], "time": []}}, "mouseover": {"state": {"target": ["28", "26", "25", "10", "3", "17", "16", "6"], "time": [2331, 2587, 2755, 3670, 3985, 6402, 7824, 8189]}, "edge": {"target": [], "time": []}}, "mouseout": {"state": {"target": ["28", "26", "25", "10", "3", "17", "16", "6", "18", "12"], "time": [2453, 2631, 3600, 3800, 5954, 7792, 7891, 9681, 14293, 14355]}, "edge": {"target": [], "time": []}}}, "displayed_time": "15.78", "trialTime": 16468, "trial_type": "mouselab-mdp", "trial_index": 35, "time_elapsed": 675696, "internal_node_id": "0.0-4.0-1.0-26.0"}}, {"uniqueid": "w89243441:a50806306", "current_trial": 36, "dateTime": 1691149346127, "trialdata": {"revealed_states": [], "clicked_states": ["25", "3", "27"], "num_clicks_accrued": [0, 0, 0, 0, 0, 0, 0, 0, 0, 0, 0, 0, 0], "stateRewards": ["", 2, -1, 5, 6, 10, 86, 55, 10, -45, 63, -71, 1, -2, 5, -8, -50, -72, 36, 15, 61, 12, 33, -1, -4, 6, 5, 79, -56, -21, -16, -87, 60, -81], "withholdReward": false, "trial_id": "mdp_trial_28", "block": "test", "trialIndex": 29, "score": 80.8, "costs": -4.199999999999999, "simulationMode": [null, null, null, null, null, null], "rewards": [-1, -4, 6, 5, 79], "path": ["0", "0", "23", "24", "25", "26", "27"], "rt": [8046, 198, 26, 506, 206, 1726], "actions": ["left", "left", "left", "left", "up", "up"], "actionTimes": [9567, 9775, 10337, 11421, 12131, 14371], "queries": {"click": {"state": {"target": ["25", "3", "27"], "time": [2701, 5723, 9006]}, "edge": {"target": [], "time": []}}, "mouseover": {"state": {"target": ["26", "25", "12", "14", "2", "3", "18", "14", "13", "12", "0", "23", "24", "26", "27"], "time": [2319, 2520, 3036, 3354, 5169, 5223, 6860, 7270, 8086, 8252, 8335, 8402, 8438, 8554, 8802]}, "edge": {"target": [], "time": []}}, "mouseout": {"state": {"target": ["0", "26", "25", "12", "14", "2", "3", "18", "14", "13", "12", "0", "23", "24", "26", "27"], "time": [1539, 2418, 2837, 3088, 4435, 5219, 6743, 6954, 8062, 8136, 8302, 8369, 8435, 8457, 8586, 10864]}, "edge": {"target": [], "time": []}}}, "displayed_time": "15.52", "trialTime": 16719, "trial_type": "mouselab-mdp", "trial_index": 36, "time_elapsed": 693343, "internal_node_id": "0.0-4.0-1.0-27.0"}}, {"uniqueid": "w89243441:a50806306", "current_trial": 37, "dateTime": 1691149364586, "trialdata": {"revealed_states": [], "clicked_states": ["25", "3", "14"], "num_clicks_accrued": [0, 0, 0, 0, 0, 0, 0, 0, 0, 0, 0, 0, 0], "stateRewards": ["", -2, 2, 8, -6, -25, 3, 87, 2, -62, -2, 74, -2, -1, 2, -1, 79, 49, -37, -14, 5, 67, -9, -1, 2, -2, 5, 15, 38, 32, -14, -38, -38, 30], "withholdReward": false, "trial_id": "mdp_trial_29", "block": "test", "trialIndex": 30, "score": -27.2, "costs": -4.199999999999999, "simulationMode": [null, null, null, null, null], "rewards": [-2, 2, 8, -6, -25], "path": ["0", "0", "1", "2", "3", "4", "5"], "rt": [7293, 86, 924, 410, 156], "actions": ["up", "up", "up", "right", "up"], "actionTimes": [9162, 9773, 11193, 12123, 12781], "queries": {"click": {"state": {"target": ["25", "3", "14"], "time": [2679, 4818, 7002]}, "edge": {"target": [], "time": []}}, "mouseover": {"state": {"target": ["25", "24", "2", "3", "14", "4", "5", "4"], "time": [2030, 2991, 3072, 3366, 5633, 7518, 7751, 9051]}, "edge": {"target": [], "time": []}}, "mouseout": {"state": {"target": ["0", "0", "25", "24", "2", "3", "14", "4", "5", "4", "12"], "time": [345, 771, 2937, 3022, 3150, 5332, 7425, 7748, 8997, 9096, 14363]}, "edge": {"target": [], "time": []}}}, "displayed_time": "15.89", "trialTime": 17472, "trial_type": "mouselab-mdp", "trial_index": 37, "time_elapsed": 711802, "internal_node_id": "0.0-4.0-1.0-28.0"}}, {"uniqueid": "w89243441:a50806306", "current_trial": 38, "dateTime": 1691149381961, "trialdata": {"revealed_states": [], "clicked_states": ["25", "3", "14"], "num_clicks_accrued": [0, 0, 0, 0, 0, 0, 0, 0, 0, 0, 0, 0, 0], "stateRewards": ["", -1, 1, 6, -6, 70, 66, 67, -16, -75, -35, 37, -1, 4, 4, -6, 47, -9, 63, 15, 21, -63, 13, 1, 3, -6, 10, 79, -29, 18, -15, 9, -67, -19], "withholdReward": false, "trial_id": "mdp_trial_30", "block": "test", "trialIndex": 31, "score": 65.8, "costs": -4.199999999999999, "simulationMode": [null, null, null, null, null], "rewards": [-1, 1, 6, -6, 70], "path": ["0", "0", "1", "2", "3", "4", "5"], "rt": [8667, 421, 282, 544, 28], "actions": ["up", "up", "up", "right", "up"], "actionTimes": [10029, 10956, 11771, 12843, 13373], "queries": {"click": {"state": {"target": ["25", "3", "14"], "time": [2257, 4526, 6676]}, "edge": {"target": [], "time": []}}, "mouseover": {"state": {"target": ["23", "24", "25", "3", "15", "14", "18", "4", "6", "5"], "time": [1445, 1483, 1834, 2691, 5146, 5642, 7126, 7191, 7560, 7863]}, "edge": {"target": [], "time": []}}, "mouseout": {"state": {"target": ["0", "23", "24", "25", "3", "15", "14", "18", "4", "6", "5", "4", "0"], "time": [855, 1474, 1566, 2546, 5058, 5215, 7091, 7144, 7492, 7730, 14791, 14856, 14989]}, "edge": {"target": [], "time": []}}}, "displayed_time": "15.36", "trialTime": 16390, "trial_type": "mouselab-mdp", "trial_index": 38, "time_elapsed": 729177, "internal_node_id": "0.0-4.0-1.0-29.0"}}, {"uniqueid": "w89243441:a50806306", "current_trial": 39, "dateTime": 1691149400589, "trialdata": {"revealed_states": [], "clicked_states": ["25", "3", "27"], "num_clicks_accrued": [0, 0, 0, 0, 0, 0, 0, 0, 0, 0, 0, 0, 0], "stateRewards": ["", 1, 1, -7, -9, -44, 24, -83, -15, 44, -24, 72, -2, -3, 4, -5, 57, 55, 29, -11, 22, 12, -25, -1, 2, 7, 12, 33, -8, 47, -4, 8, 50, -4], "withholdReward": false, "trial_id": "mdp_trial_31", "block": "test", "trialIndex": 32, "score": 48.8, "costs": -4.199999999999999, "simulationMode": [null, null, null, null, null], "rewards": [-1, 2, 7, 12, 33], "path": ["0", "0", "23", "24", "25", "26", "27"], "rt": [8995, 173, 1347, 160, 204], "actions": ["left", "left", "left", "up", "up"], "actionTimes": [10655, 11334, 13188, 13853, 14580], "queries": {"click": {"state": {"target": ["25", "3", "27"], "time": [2684, 5002, 8572]}, "edge": {"target": [], "time": []}}, "mouseover": {"state": {"target": ["24", "25", "10", "3", "28", "26", "27"], "time": [2395, 2471, 3543, 3777, 8087, 8232, 8471]}, "edge": {"target": [], "time": []}}, "mouseout": {"state": {"target": ["24", "25", "10", "3", "28", "26", "27", "28", "23"], "time": [2421, 2843, 3593, 7479, 8117, 8325, 9814, 15554, 15689]}, "edge": {"target": [], "time": []}}}, "displayed_time": "15.66", "trialTime": 17848, "trial_type": "mouselab-mdp", "trial_index": 39, "time_elapsed": 747805, "internal_node_id": "0.0-4.0-1.0-30.0"}}, {"uniqueid": "w89243441:a50806306", "current_trial": 40, "dateTime": 1691149418503, "trialdata": {"revealed_states": [], "clicked_states": ["3", "14", "25", "11"], "num_clicks_accrued": [0, 0, 0, 0, 0, 0, 0, 0, 0, 0, 0, 0, 0], "stateRewards": ["", 1, -1, 4, 5, -32, 18, 20, 6, -88, -74, 9, -2, 1, -2, -14, 34, -77, -38, -1, 80, -36, 73, 2, 3, -8, 10, -48, -73, -71, -11, -22, 20, 54], "withholdReward": false, "trial_id": "mdp_trial_32", "block": "test", "trialIndex": 33, "score": 13.4, "costs": -5.6, "simulationMode": [null, null, null, null, null], "rewards": [1, -1, 4, 6, 9], "path": ["0", "0", "1", "2", "3", "8", "11"], "rt": [11344, 22, 20, 321, 49], "actions": ["up", "up", "up", "left", "left"], "actionTimes": [12893, 13417, 13963, 14812, 15357], "queries": {"click": {"state": {"target": ["3", "14", "25", "11"], "time": [3025, 5263, 7645, 10728]}, "edge": {"target": [], "time": []}}, "mouseover": {"state": {"target": ["1", "2", "3", "2", "12", "13", "14", "13", "24", "25", "26", "27", "8", "11"], "time": [2352, 2451, 2630, 3557, 3837, 3940, 4386, 5557, 5671, 5988, 8239, 8454, 10168, 10455]}, "edge": {"target": [], "time": []}}, "mouseout": {"state": {"target": ["0", "1", "2", "3", "2", "12", "13", "14", "13", "24", "25", "26", "27", "8", "11", "2", "1"], "time": [816, 2388, 2550, 3553, 3622, 3935, 4020, 5552, 5620, 5706, 8154, 8262, 10043, 10435, 12058, 16707, 16819]}, "edge": {"target": [], "time": []}}}, "displayed_time": "15.90", "trialTime": 16910, "trial_type": "mouselab-mdp", "trial_index": 40, "time_elapsed": 765719, "internal_node_id": "0.0-4.0-1.0-31.0"}}, {"uniqueid": "w89243441:a50806306", "current_trial": 41, "dateTime": 1691149440802, "trialdata": {"revealed_states": [], "clicked_states": ["3", "14", "9", "5", "25", "29"], "num_clicks_accrued": [0, 0, 0, 0, 0, 0, 0, 0, 0, 0, 0, 0, 0], "stateRewards": ["", -1, -1, 7, -15, -43, -21, -84, -9, -45, -66, 2, 1, -2, 2, 8, -27, 44, -52, -5, -84, 11, 53, 1, 4, -4, 16, 83, -82, -15, -16, 68, -43, 81], "withholdReward": false, "trial_id": "mdp_trial_33", "block": "test", "trialIndex": 34, "score": 91.6, "costs": -8.4, "simulationMode": [null, null, null, null, null, null], "rewards": [1, 4, -4, 16, 83], "path": ["0", "0", "23", "24", "25", "26", "27"], "rt": [14836, 237, 7, 960, 364, 16], "actions": ["left", "left", "left", "left", "up", "up"], "actionTimes": [16283, 16527, 17057, 18561, 19425, 19965], "queries": {"click": {"state": {"target": ["3", "14", "9", "5", "25", "29"], "time": [2246, 4402, 6563, 9816, 13130, 15308]}, "edge": {"target": [], "time": []}}, "mouseover": {"state": {"target": ["2", "3", "15", "14", "0", "24", "28", "10", "8", "9", "8", "6", "5", "4", "7", "2", "26", "29", "25", "29"], "time": [1611, 1838, 3142, 3358, 4798, 4823, 4950, 4976, 4999, 5441, 8222, 9246, 9593, 11400, 12072, 12206, 12256, 12355, 12922, 14008]}, "edge": {"target": [], "time": []}}, "mouseout": {"state": {"target": ["0", "2", "3", "15", "14", "0", "24", "28", "10", "8", "9", "9", "8", "6", "5", "4", "7", "2", "26", "29", "25", "29", "0", "0"], "time": [870, 1689, 3074, 3257, 4773, 4817, 4844, 4970, 4993, 5109, 6686, 7908, 8522, 9339, 11371, 11915, 12172, 12226, 12277, 12389, 13275, 16193, 18883, 21125]}, "edge": {"target": [], "time": []}}}, "displayed_time": "20.48", "trialTime": 21346, "trial_type": "mouselab-mdp", "trial_index": 41, "time_elapsed": 788018, "internal_node_id": "0.0-4.0-1.0-32.0"}}, {"uniqueid": "w89243441:a50806306", "current_trial": 42, "dateTime": 1691149458295, "trialdata": {"revealed_states": [], "clicked_states": ["3", "14", "25", "5"], "num_clicks_accrued": [0, 0, 0, 0, 0, 0, 0, 0, 0, 0, 0, 0, 0], "stateRewards": ["", 1, 4, 5, -5, 58, -80, 75, 6, 25, -39, 46, 2, -2, 4, 2, 59, 31, -22, -12, -61, 15, 72, 1, -2, -7, 8, 77, 76, -23, -7, 71, -15, -3], "withholdReward": false, "trial_id": "mdp_trial_34", "block": "test", "trialIndex": 35, "score": 57.4, "costs": -5.6, "simulationMode": [null, null, null, null, null, null], "rewards": [1, 4, 5, -5, 58], "path": ["0", "0", "1", "2", "3", "4", "5"], "rt": [9406, 254, 148, 7, 628, 64], "actions": ["up", "up", "up", "up", "right", "up"], "actionTimes": [11294, 11590, 12243, 12759, 13908, 14499], "queries": {"click": {"state": {"target": ["3", "14", "25", "5"], "time": [3297, 5729, 8098, 9810]}, "edge": {"target": [], "time": []}}, "mouseover": {"state": {"target": ["0", "1", "3", "3", "7", "18", "14", "23", "24", "25", "2", "4", "6", "5", "4", "7"], "time": [2320, 2729, 2805, 3119, 3775, 3842, 4309, 6046, 6106, 6313, 8490, 8725, 9283, 9452, 11046, 11109]}, "edge": {"target": [], "time": []}}, "mouseout": {"state": {"target": ["0", "0", "1", "3", "3", "7", "18", "14", "23", "24", "25", "2", "4", "6", "5", "4", "7", "7", "0"], "time": [1184, 2669, 2741, 2852, 3771, 3809, 4055, 5805, 6101, 6192, 8420, 8568, 8862, 9406, 11027, 11087, 11832, 16081, 16404]}, "edge": {"target": [], "time": []}}}, "displayed_time": "15.89", "trialTime": 16636, "trial_type": "mouselab-mdp", "trial_index": 42, "time_elapsed": 805511, "internal_node_id": "0.0-4.0-1.0-33.0"}}, {"uniqueid": "w89243441:a50806306", "current_trial": 43, "dateTime": 1691149476319, "trialdata": {"revealed_states": [], "clicked_states": ["3", "14", "25", "16"], "num_clicks_accrued": [0, 0, 0, 0, 0, 0, 0, 0, 0, 0, 0, 0, 0], "stateRewards": ["", -2, 4, -3, -13, 63, -36, 62, 11, 78, 34, -51, 2, -2, 8, -6, -40, -18, 31, 9, 64, 39, 79, 1, 4, -4, 15, -12, 76, 73, -10, -77, 86, -4], "withholdReward": false, "trial_id": "mdp_trial_35", "block": "test", "trialIndex": 36, "score": 75.4, "costs": -5.6, "simulationMode": [null, null, null, null, null, null], "rewards": [2, -2, 8, 9, 64], "path": ["0", "0", "12", "13", "14", "19", "20"], "rt": [8992, 219, 149, 868, 613, 332], "actions": ["right", "right", "right", "right", "down", "right"], "actionTimes": [10967, 11192, 11856, 13280, 14395, 15240], "queries": {"click": {"state": {"target": ["3", "14", "25", "16"], "time": [3368, 5534, 7828, 9589]}, "edge": {"target": [], "time": []}}, "mouseover": {"state": {"target": ["2", "3", "3", "7", "14", "25", "24", "23", "18", "16", "15"], "time": [2006, 2878, 3142, 3828, 4362, 6194, 8283, 8322, 8597, 8915, 10460]}, "edge": {"target": [], "time": []}}, "mouseout": {"state": {"target": ["1", "23", "0", "0", "2", "3", "3", "7", "14", "25", "24", "23", "18", "16", "15", "13", "12"], "time": [262, 953, 991, 1993, 2848, 2893, 3523, 3878, 5805, 8279, 8318, 8386, 8730, 10427, 10494, 15860, 15899]}, "edge": {"target": [], "time": []}}}, "displayed_time": "15.98", "trialTime": 16983, "trial_type": "mouselab-mdp", "trial_index": 43, "time_elapsed": 823535, "internal_node_id": "0.0-4.0-1.0-34.0"}}, {"uniqueid": "w89243441:a50806306", "current_trial": 44, "dateTime": 1691149494357, "trialdata": {"revealed_states": [], "clicked_states": ["14", "25", "3", "27"], "num_clicks_accrued": [0, 0, 0, 0, 0, 0, 0, 0, 0, 0, 0, 0, 0], "stateRewards": ["", 1, -4, -4, 8, 1, -79, 68, -10, -79, 8, -74, -1, -3, -6, 14, 43, 23, 9, 5, -51, 63, 61, -2, 4, 6, -10, 69, -32, 57, 15, -80, -80, -77], "withholdReward": false, "trial_id": "mdp_trial_36", "block": "test", "trialIndex": 37, "score": 61.4, "costs": -5.6, "simulationMode": [null, null, null, null, null], "rewards": [-2, 4, 6, -10, 69], "path": ["0", "0", "23", "24", "25", "26", "27"], "rt": [10215, 121, 388, 173, 12], "actions": ["left", "left", "left", "up", "up"], "actionTimes": [11901, 12518, 13401, 14096, 14642], "queries": {"click": {"state": {"target": ["14", "25", "3", "27"], "time": [2591, 4787, 6842, 10010]}, "edge": {"target": [], "time": []}}, "mouseover": {"state": {"target": ["12", "13", "14", "14", "0", "23", "24", "25", "10", "3", "10", "27", "25"], "time": [1742, 1825, 2124, 2394, 3333, 3493, 3579, 3681, 5148, 5470, 7273, 7624, 11178]}, "edge": {"target": [], "time": []}}, "mouseout": {"state": {"target": ["0", "12", "13", "14", "14", "0", "23", "24", "25", "10", "3", "10", "27", "25", "31"], "time": [1073, 1792, 1991, 2177, 3226, 3463, 3574, 3597, 5048, 5281, 7267, 7319, 10963, 11712, 15791]}, "edge": {"target": [], "time": []}}}, "displayed_time": "15.69", "trialTime": 16703, "trial_type": "mouselab-mdp", "trial_index": 44, "time_elapsed": 841574, "internal_node_id": "0.0-4.0-1.0-35.0"}}, {"uniqueid": "w89243441:a50806306", "current_trial": 45, "dateTime": 1691149511636, "trialdata": {"revealed_states": [], "clicked_states": ["25", "3", "14", "27"], "num_clicks_accrued": [0, 0, 0, 0, 0, 0, 0, 0, 0, 0, 0, 0, 0], "stateRewards": ["", 1, -2, -3, 14, -42, -87, -37, -11, -50, 33, -44, -2, 4, -7, 13, 48, -75, -66, 12, 23, -2, 82, 1, -4, 3, 12, 51, -15, -26, -11, -52, -29, 82], "withholdReward": false, "trial_id": "mdp_trial_37", "block": "test", "trialIndex": 38, "score": 57.4, "costs": -5.6, "simulationMode": [null, null, null, null, null], "rewards": [1, -4, 3, 12, 51], "path": ["0", "0", "23", "24", "25", "26", "27"], "rt": [10313, 142, 365, 14, 218], "actions": ["left", "left", "left", "up", "up"], "actionTimes": [11584, 12235, 13127, 13640, 14393], "queries": {"click": {"state": {"target": ["25", "3", "14", "27"], "time": [2442, 4909, 7184, 9921]}, "edge": {"target": [], "time": []}}, "mouseover": {"state": {"target": ["24", "25", "25", "2", "4", "3", "18", "15", "14", "29", "27", "26"], "time": [1300, 1406, 2294, 2822, 2890, 3168, 5372, 5506, 5795, 8936, 9336, 11189]}, "edge": {"target": [], "time": []}}, "mouseout": {"state": {"target": ["0", "24", "25", "25", "2", "4", "3", "18", "15", "14", "29", "27", "27", "26", "25", "31"], "time": [1292, 1387, 1523, 2599, 2886, 2954, 5270, 5394, 5791, 7721, 8962, 10106, 11155, 11303, 15740, 15820]}, "edge": {"target": [], "time": []}}}, "displayed_time": "15.27", "trialTime": 16327, "trial_type": "mouselab-mdp", "trial_index": 45, "time_elapsed": 858852, "internal_node_id": "0.0-4.0-1.0-36.0"}}, {"uniqueid": "w89243441:a50806306", "current_trial": 46, "dateTime": 1691149530868, "trialdata": {"revealed_states": [], "clicked_states": ["25", "3", "27", "14", "16"], "num_clicks_accrued": [0, 0, 0, 0, 0, 0, 0, 0, 0, 0, 0, 0, 0], "stateRewards": ["", 2, 3, -3, 12, -43, 81, -82, -15, 58, -7, -75, -1, -1, 3, -5, 50, -25, -8, 4, 66, 65, -66, 2, -4, 2, -1, -10, 10, 37, 11, 88, -37, 8], "withholdReward": false, "trial_id": "mdp_trial_38", "block": "test", "trialIndex": 39, "score": 39, "costs": -7, "simulationMode": [null, null, null, null, null, null], "rewards": [-1, -1, 3, -5, 50], "path": ["0", "0", "12", "13", "14", "15", "16"], "rt": [12022, 65, 124, 145, 25, 16], "actions": ["right", "right", "right", "right", "up", "up"], "actionTimes": [13795, 13871, 14523, 15173, 15738, 16286], "queries": {"click": {"state": {"target": ["25", "3", "27", "14", "16"], "time": [2605, 4752, 6488, 10202, 12425]}, "edge": {"target": [], "time": []}}, "mouseover": {"state": {"target": ["25", "2", "3", "27", "10", "2", "24", "31", "32", "22", "14", "15", "16"], "time": [2001, 2996, 3048, 6276, 8425, 9094, 9192, 9294, 9406, 9627, 10053, 10508, 10608]}, "edge": {"target": [], "time": []}}, "mouseout": {"state": {"target": ["31", "12", "0", "25", "2", "3", "27", "10", "3", "2", "24", "31", "32", "22", "14", "15", "16", "15"], "time": [786, 919, 1185, 2707, 3044, 5893, 8411, 8489, 8924, 9121, 9206, 9308, 9539, 9672, 10448, 10573, 13430, 17820]}, "edge": {"target": [], "time": []}}}, "displayed_time": "16.81", "trialTime": 18393, "trial_type": "mouselab-mdp", "trial_index": 46, "time_elapsed": 878085, "internal_node_id": "0.0-4.0-1.0-37.0"}}, {"uniqueid": "w89243441:a50806306", "current_trial": 47, "dateTime": 1691149548185, "trialdata": {"revealed_states": [], "clicked_states": ["25", "3", "14", "5"], "num_clicks_accrued": [0, 0, 0, 0, 0, 0, 0, 0, 0, 0, 0, 0, 0], "stateRewards": ["", 2, 2, 3, -15, 23, -14, 73, -7, -32, -20, -6, 1, 1, -5, -12, 73, 6, -84, 11, -81, -57, 13, -2, -1, -4, -8, -52, -58, 49, 13, 5, -41, -41], "withholdReward": false, "trial_id": "mdp_trial_39", "block": "test", "trialIndex": 40, "score": 9.4, "costs": -5.6, "simulationMode": [null, null, null, null, null], "rewards": [2, 2, 3, -15, 23], "path": ["0", "0", "1", "2", "3", "4", "5"], "rt": [8732, 257, 1066, 533, 213], "actions": ["up", "up", "up", "right", "up"], "actionTimes": [10278, 11031, 12608, 13642, 14357], "queries": {"click": {"state": {"target": ["25", "3", "14", "5"], "time": [2365, 4555, 6375, 7943]}, "edge": {"target": [], "time": []}}, "mouseover": {"state": {"target": ["23", "24", "25", "10", "3", "7", "15", "14", "18", "5", "4"], "time": [1580, 1816, 2188, 2792, 3050, 4874, 4941, 5278, 7210, 7653, 9033]}, "edge": {"target": [], "time": []}}, "mouseout": {"state": {"target": ["0", "23", "24", "25", "10", "3", "7", "15", "14", "18", "5", "4", "7", "0"], "time": [1576, 1610, 2032, 2474, 2905, 4838, 4936, 4983, 7191, 7266, 9028, 9244, 15476, 15587]}, "edge": {"target": [], "time": []}}}, "displayed_time": "15.55", "trialTime": 16373, "trial_type": "mouselab-mdp", "trial_index": 47, "time_elapsed": 895401, "internal_node_id": "0.0-4.0-1.0-38.0"}}, {"uniqueid": "w89243441:a50806306", "current_trial": 48, "dateTime": 1691149569154, "trialdata": {"revealed_states": [], "clicked_states": ["25", "3", "14", "5"], "num_clicks_accrued": [0, 0, 0, 0, 0, 0, 0, 0, 0, 0, 0, 0, 0], "stateRewards": ["", -2, -4, -2, 10, -8, -15, -47, 7, -84, 53, 5, -1, 2, -7, 3, 83, 31, 47, -1, 30, -8, 69, 2, -4, -1, 8, -7, 12, -8, -8, -13, 30, -84], "withholdReward": false, "trial_id": "mdp_trial_40", "block": "test", "trialIndex": 41, "score": -50.6, "costs": -5.6, "simulationMode": [null, null, null, null, null, null], "rewards": [-2, -4, -2, 10, -47], "path": ["0", "0", "1", "2", "3", "4", "7"], "rt": [9363, 241, 19, 379, 603, 890], "actions": ["up", "up", "up", "up", "right", "down"], "actionTimes": [10686, 10936, 11482, 12396, 13500, 14911], "queries": {"click": {"state": {"target": ["25", "3", "14", "5"], "time": [2303, 4451, 6124, 9706]}, "edge": {"target": [], "time": []}}, "mouseover": {"state": {"target": ["24", "25", "3", "18", "14", "15", "18", "4", "5", "4"], "time": [1346, 2125, 3160, 4970, 5374, 9058, 9158, 9408, 9475, 10418]}, "edge": {"target": [], "time": []}}, "mouseout": {"state": {"target": ["0", "24", "25", "3", "18", "14", "15", "18", "4", "5", "4", "7", "7"], "time": [1342, 2100, 2779, 4863, 5183, 8799, 9109, 9177, 9441, 10345, 11283, 14133, 15742]}, "edge": {"target": [], "time": []}}}, "displayed_time": "15.43", "trialTime": 20250, "trial_type": "mouselab-mdp", "trial_index": 48, "time_elapsed": 916370, "internal_node_id": "0.0-4.0-1.0-39.0"}}, {"uniqueid": "w89243441:a50806306", "current_trial": 49, "dateTime": 1691149610050, "trialdata": {"rt": 40888, "response": {"Q0": "$-2 to $2", "Q1": "$-16 to $16", "Q2": "$-88 to $88", "Q3": "The cost was always $1.4.", "Q4": "Very motivated"}, "question_order": [0, 1, 2, 3, 4], "trial_id": "final_quiz_control", "trial_type": "survey-multi-choice", "trial_index": 49, "time_elapsed": 957266, "internal_node_id": "0.0-4.0-2.0"}}, {"uniqueid": "w89243441:a50806306", "current_trial": 50, "dateTime": 1691149684047, "trialdata": {"rt": 73976, "response": {"Q0": "TRIED TO FIND THE AMOUNTS FOR KEY NODES AND SOMETIMES TOOK A CHANCE FOR THE REST.", "Q1": "i AIMED TO SEE WHAT IS THE VALUES OF LAST NODES", "Q2": "Slightly difficult. The randomised values made it harder"}, "trial_id": "self_report_control", "trial_type": "survey-text", "trial_index": 50, "time_elapsed": 1031264, "internal_node_id": "0.0-4.0-3.0"}}, {"uniqueid": "w89243441:a50806306", "current_trial": 51, "dateTime": 1691149702860, "trialdata": {"rt": 18806, "response": {"gender": "male", "age": "43", "colorblind": "0", "effort": "0"}, "trial_type": "survey-html-form", "trial_index": 51, "time_elapsed": 1050076, "internal_node_id": "0.0-4.0-4.0"}}, {"uniqueid": "w89243441:a50806306", "current_trial": 52, "dateTime": 1691149731186, "trialdata": {"rt": 28311, "response": {"Q0": "no", "Q1": "yes, I did", "Q2": "no"}, "trial_type": "survey-text", "trial_index": 52, "time_elapsed": 1078402, "internal_node_id": "0.0-4.0-5.0"}}, {"uniqueid": "w89243441:a50806306", "current_trial": 53, "dateTime": 1691149732956, "trialdata": {"rt": 1758, "stimulus": "Press 'Finish HIT' in order to reach the completion code. Once the data has been saved, you will receive the code either in this window or in the original browser window where you started the experiment.\n", "response": 0, "trial_type": "html-button-response", "trial_index": 53, "time_elapsed": 1080173, "internal_node_id": "0.0-5.0"}}, {"uniqueid": "w89243441:a50806306", "current_trial": 54, "dateTime": 1691149733962, "trialdata": {"success": true, "trial_type": "fullscreen", "trial_index": 54, "time_elapsed": 1081179, "internal_node_id": "0.0-6.0"}}], "questiondata": {"params": {"CODE": "C6DMOQA6", "MIN_TIME": 14, "inspectCost": 1, "startTime": "Fri Aug 04 2023 12:30:51 GMT+0100 (British Summer Time)", "bonusRate": 0.002, "variance": "1_2_4_8_44", "branching": "31123"}, "final_score": 1103.2}, "eventdata": [{"eventtype": "initialized", "value": null, "timestamp": 1691148651342, "interval": 0}, {"eventtype": "window_resize", "value": [1024, 664], "timestamp": 1691148651342, "interval": 0}, {"eventtype": "window_resize", "value": [1024, 664], "timestamp": 1691148651679, "interval": 337}, {"eventtype": "window_resize", "value": [1366, 768], "timestamp": 1691148655110, "interval": 3431}, {"eventtype": "window_resize", "value": [1024, 664], "timestamp": 1691149733225, "interval": 1078115}], "useragent": "Mozilla/5.0 (Windows NT 10.0; Win64; x64) AppleWebKit/537.36 (KHTML, like Gecko) Chrome/115.0.0.0 Safari/537.36", "mode": "live", "id": "w89243441:a50806306", "status": "user data saved", "Beginhit": "2023-08-04 11:30:49.922336", "Beginexp": "2023-08-04 11:30:56.071552", "Endhit": "2023-08-04 11:48:54.582933", "psiturkStatus": 3, "browser": "<redacted>", "platform": "windows", "language": "en-GB", "excludeReason": "alreadyparticipated"}