{"condition": 1, "counterbalance": 0, "assignmentId": "a13275391", "workerId": "w60237886", "hitId": "h54614236", "currenttrial": 19, "bonus": 0, "data": [{"uniqueid": "w60237886:a13275391", "current_trial": 0, "dateTime": 1693580405425, "trialdata": {"success": true, "trial_type": "fullscreen", "trial_index": 0, "time_elapsed": 20571, "internal_node_id": "0.0-0.0"}}, {"uniqueid": "w60237886:a13275391", "current_trial": 1, "dateTime": 1693580410554, "trialdata": {"view_history": [{"page_index": 0, "viewing_time": 5098}], "rt": 5100, "trial_id": "exp_instructions_misaligned", "trial_type": "instructions", "trial_index": 1, "time_elapsed": 25701, "internal_node_id": "0.0-1.0"}}, {"uniqueid": "w60237886:a13275391", "current_trial": 2, "dateTime": 1693580588023, "trialdata": {"view_history": [{"page_index": 0, "viewing_time": 69783}, {"page_index": 1, "viewing_time": 76660}, {"page_index": 2, "viewing_time": 13085}, {"page_index": 3, "viewing_time": 17931}], "rt": 177460, "trial_id": "mouselab_instructions_1_misaligned", "trial_type": "instructions", "trial_index": 2, "time_elapsed": 203170, "internal_node_id": "0.0-2.0-1.0"}}, {"uniqueid": "w60237886:a13275391", "current_trial": 3, "dateTime": 1693580616230, "trialdata": {"revealed_states": [], "clicked_states": [], "num_clicks_accrued": [0, 0, 0, 0, 0, 0, 0, 0, 0, 0, 0, 0, 0], "stateRewards": ["", 10, -10, -10, -10, -10, -10, -10, -10, 10, -10, 10, -10, 10, -10, -10, -10, -10, -10, 10, -10, 10, 10, -10, -10, -10, -10, -10, -10, -10, 10, -10, -10, -10], "withholdReward": false, "trial_id": "practice_1", "block": "test", "trialIndex": 0, "score": -26.5, "costs": 0, "simulationMode": [null, null, null, null, null], "rewards": [10, -10, -10, -10, -10], "path": ["0", "0", "1", "2", "3", "4", "6"], "rt": [2269, 979, 1053, 800, 917], "actions": ["up", "up", "up", "right", "right"], "actionTimes": [12668, 14166, 15813, 17155, 18613], "queries": {"click": {"state": {"target": [], "time": []}, "edge": {"target": [], "time": []}}, "mouseover": {"state": {"target": ["0", "0"], "time": [10822, 11473]}, "edge": {"target": [], "time": []}}, "mouseout": {"state": {"target": ["0", "0", "0", "0", "17"], "time": [8787, 11289, 11537, 23987, 24037]}, "edge": {"target": [], "time": []}}}, "displayed_time": "19.18", "trialTime": 26098, "trial_type": "mouselab-mdp", "trial_index": 3, "time_elapsed": 231376, "internal_node_id": "0.0-2.0-2.0-0.0"}}, {"uniqueid": "w60237886:a13275391", "current_trial": 4, "dateTime": 1693580631279, "trialdata": {"revealed_states": [], "clicked_states": [], "num_clicks_accrued": [0, 0, 0, 0, 0, 0, 0, 0, 0, 0, 0, 0, 0], "stateRewards": ["", -10, 10, 10, 10, 10, -10, -10, -10, 10, -10, -10, 10, 10, 10, -10, 10, 10, 10, 10, 10, -10, 10, -10, 10, -10, -10, -10, -10, -10, -10, 10, -10, -10], "withholdReward": false, "trial_id": "practice_2", "block": "test", "trialIndex": 1, "score": -26.5, "costs": 0, "simulationMode": [null, null, null, null, null], "rewards": [-10, 10, -10, -10, -10], "path": ["0", "0", "23", "24", "25", "26", "27"], "rt": [1503, 215, 196, 848, 375], "actions": ["left", "left", "left", "up", "up"], "actionTimes": [5806, 6534, 7303, 8677, 9584], "queries": {"click": {"state": {"target": [], "time": []}, "edge": {"target": [], "time": []}}, "mouseover": {"state": {"target": [], "time": []}, "edge": {"target": [], "time": []}}, "mouseout": {"state": {"target": ["0"], "time": [11305]}, "edge": {"target": [], "time": []}}}, "displayed_time": "10.14", "trialTime": 13741, "trial_type": "mouselab-mdp", "trial_index": 4, "time_elapsed": 246425, "internal_node_id": "0.0-2.0-2.0-1.0"}}, {"uniqueid": "w60237886:a13275391", "current_trial": 5, "dateTime": 1693580655847, "trialdata": {"view_history": [{"page_index": 0, "viewing_time": 18509}, {"page_index": 1, "viewing_time": 6051}], "rt": 24561, "trial_id": "mouselab_instructions_2_misaligned", "trial_type": "instructions", "trial_index": 5, "time_elapsed": 270994, "internal_node_id": "0.0-2.0-3.0"}}, {"uniqueid": "w60237886:a13275391", "current_trial": 6, "dateTime": 1693580716143, "trialdata": {"rt": 60281, "response": {"Q0": "The cost for clicking on nodes may vary between nodes.", "Q1": "The better I perform the higher my bonus will be.", "Q2": "Yes.", "Q3": "To get the highest total score.", "Q4": "Only before moving the spider.", "Q5": "3 seconds"}, "question_order": [0, 1, 2, 3, 4, 5], "correct": {"Q0": "The cost for clicking on nodes may vary between nodes.", "Q1": "The better I perform the higher my bonus will be.", "Q2": "No, the amount of cash at each node of the web may be different each time.", "Q3": "To get the highest total score.", "Q4": "Only before moving the spider.", "Q5": "3 seconds"}, "trial_id": "mouselab_quiz_misaligned", "trial_type": "survey-multi-choice", "trial_index": 6, "time_elapsed": 331290, "internal_node_id": "0.0-2.0-4.0"}}, {"uniqueid": "w60237886:a13275391", "current_trial": 7, "dateTime": 1693580728019, "trialdata": {"success": true, "trial_type": "fullscreen", "trial_index": 7, "time_elapsed": 343166, "internal_node_id": "0.0-2.1-0.1-0.1"}}, {"uniqueid": "w60237886:a13275391", "current_trial": 8, "dateTime": 1693580862139, "trialdata": {"view_history": [{"page_index": 0, "viewing_time": 32232}, {"page_index": 1, "viewing_time": 43600}, {"page_index": 2, "viewing_time": 25341}, {"page_index": 3, "viewing_time": 32925}], "rt": 134098, "trial_id": "mouselab_instructions_1_misaligned", "trial_type": "instructions", "trial_index": 8, "time_elapsed": 477284, "internal_node_id": "0.0-2.1-1.1"}}, {"uniqueid": "w60237886:a13275391", "current_trial": 9, "dateTime": 1693580877861, "trialdata": {"revealed_states": [], "clicked_states": [], "num_clicks_accrued": [0, 0, 0, 0, 0, 0, 0, 0, 0, 0, 0, 0, 0], "stateRewards": ["", 10, -10, -10, -10, -10, -10, -10, -10, 10, -10, 10, -10, 10, -10, -10, -10, -10, -10, 10, -10, 10, 10, -10, -10, -10, -10, -10, -10, -10, 10, -10, -10, -10], "withholdReward": false, "trial_id": "practice_1", "block": "test", "trialIndex": 2, "score": -26.5, "costs": 0, "simulationMode": [null, null, null, null, null], "rewards": [-10, -10, -10, 10, -10], "path": ["0", "0", "23", "24", "25", "30", "32"], "rt": [2133, 422, 633, 271, 284], "actions": ["left", "left", "left", "down", "down"], "actionTimes": [6550, 7526, 8691, 9488, 10301], "queries": {"click": {"state": {"target": [], "time": []}, "edge": {"target": [], "time": []}}, "mouseover": {"state": {"target": [], "time": []}, "edge": {"target": [], "time": []}}, "mouseout": {"state": {"target": ["0", "0", "17", "14"], "time": [2372, 11958, 13479, 13529]}, "edge": {"target": [], "time": []}}}, "displayed_time": "10.82", "trialTime": 14078, "trial_type": "mouselab-mdp", "trial_index": 9, "time_elapsed": 493006, "internal_node_id": "0.0-2.1-2.1-0.1"}}, {"uniqueid": "w60237886:a13275391", "current_trial": 10, "dateTime": 1693580895731, "trialdata": {"revealed_states": [], "clicked_states": [], "num_clicks_accrued": [0, 0, 0, 0, 0, 0, 0, 0, 0, 0, 0, 0, 0], "stateRewards": ["", -10, 10, 10, 10, 10, -10, -10, -10, 10, -10, -10, 10, 10, 10, -10, 10, 10, 10, 10, 10, -10, 10, -10, 10, -10, -10, -10, -10, -10, -10, 10, -10, -10], "withholdReward": false, "trial_id": "practice_2", "block": "test", "trialIndex": 3, "score": 33.5, "costs": 0, "simulationMode": [null, null, null, null, null], "rewards": [10, 10, 10, -10, 10], "path": ["0", "0", "12", "13", "14", "15", "17"], "rt": [1345, 249, 523, 127, 141], "actions": ["right", "right", "right", "up", "right"], "actionTimes": [7574, 8337, 9395, 10054, 10725], "queries": {"click": {"state": {"target": [], "time": []}, "edge": {"target": [], "time": []}}, "mouseover": {"state": {"target": [], "time": []}, "edge": {"target": [], "time": []}}, "mouseout": {"state": {"target": ["0"], "time": [13742]}, "edge": {"target": [], "time": []}}}, "displayed_time": "11.26", "trialTime": 16094, "trial_type": "mouselab-mdp", "trial_index": 10, "time_elapsed": 510876, "internal_node_id": "0.0-2.1-2.1-1.1"}}, {"uniqueid": "w60237886:a13275391", "current_trial": 11, "dateTime": 1693580939620, "trialdata": {"view_history": [{"page_index": 0, "viewing_time": 41593}, {"page_index": 1, "viewing_time": 2285}], "rt": 43879, "trial_id": "mouselab_instructions_2_misaligned", "trial_type": "instructions", "trial_index": 11, "time_elapsed": 554767, "internal_node_id": "0.0-2.1-3.1"}}, {"uniqueid": "w60237886:a13275391", "current_trial": 12, "dateTime": 1693580993380, "trialdata": {"rt": 53749, "response": {"Q0": "There is no cost for clicking on nodes.", "Q1": "The better I perform the higher my bonus will be.", "Q2": "No, the amount of cash at each node of the web may be different each time.", "Q3": "To get the highest total score.", "Q4": "Only before moving the spider.", "Q5": "3 seconds"}, "question_order": [0, 1, 2, 3, 4, 5], "correct": {"Q0": "The cost for clicking on nodes may vary between nodes.", "Q1": "The better I perform the higher my bonus will be.", "Q2": "No, the amount of cash at each node of the web may be different each time.", "Q3": "To get the highest total score.", "Q4": "Only before moving the spider.", "Q5": "3 seconds"}, "trial_id": "mouselab_quiz_misaligned", "trial_type": "survey-multi-choice", "trial_index": 12, "time_elapsed": 608527, "internal_node_id": "0.0-2.1-4.1"}}, {"uniqueid": "w60237886:a13275391", "current_trial": 13, "dateTime": 1693581007063, "trialdata": {"success": true, "trial_type": "fullscreen", "trial_index": 13, "time_elapsed": 622210, "internal_node_id": "0.0-2.2-0.2-0.2"}}, {"uniqueid": "w60237886:a13275391", "current_trial": 14, "dateTime": 1693581051434, "trialdata": {"view_history": [{"page_index": 0, "viewing_time": 11054}, {"page_index": 1, "viewing_time": 21889}, {"page_index": 2, "viewing_time": 6133}, {"page_index": 3, "viewing_time": 5279}], "rt": 44356, "trial_id": "mouselab_instructions_1_misaligned", "trial_type": "instructions", "trial_index": 14, "time_elapsed": 666581, "internal_node_id": "0.0-2.2-1.2"}}, {"uniqueid": "w60237886:a13275391", "current_trial": 15, "dateTime": 1693581067044, "trialdata": {"revealed_states": [], "clicked_states": [], "num_clicks_accrued": [0, 0, 0, 0, 0, 0, 0, 0, 0, 0, 0, 0, 0], "stateRewards": ["", 10, -10, -10, -10, -10, -10, -10, -10, 10, -10, 10, -10, 10, -10, -10, -10, -10, -10, 10, -10, 10, 10, -10, -10, -10, -10, -10, -10, -10, 10, -10, -10, -10], "withholdReward": false, "trial_id": "practice_1", "block": "test", "trialIndex": 4, "score": -6.5, "costs": 0, "simulationMode": [null, null, null, null, null], "rewards": [-10, 10, -10, 10, -10], "path": ["0", "0", "12", "13", "14", "19", "20"], "rt": [1323, 388, 796, 714, 391], "actions": ["right", "right", "right", "down", "right"], "actionTimes": [6176, 7074, 8395, 9640, 10542], "queries": {"click": {"state": {"target": [], "time": []}, "edge": {"target": [], "time": []}}, "mouseover": {"state": {"target": [], "time": []}, "edge": {"target": [], "time": []}}, "mouseout": {"state": {"target": ["0", "0", "22"], "time": [2388, 11814, 13454]}, "edge": {"target": [], "time": []}}}, "displayed_time": "11.07", "trialTime": 13795, "trial_type": "mouselab-mdp", "trial_index": 15, "time_elapsed": 682189, "internal_node_id": "0.0-2.2-2.2-0.2"}}, {"uniqueid": "w60237886:a13275391", "current_trial": 16, "dateTime": 1693581099258, "trialdata": {"revealed_states": [], "clicked_states": ["23", "12"], "num_clicks_accrued": [0, 0, 0, 0, 0, 0, 0, 0, 0, 0, 0, 0, 0], "stateRewards": ["", -10, 10, 10, 10, 10, -10, -10, -10, 10, -10, -10, 10, 10, 10, -10, 10, 10, 10, 10, 10, -10, 10, -10, 10, -10, -10, -10, -10, -10, -10, 10, -10, -10], "withholdReward": false, "trial_id": "practice_2", "block": "test", "trialIndex": 5, "score": 12.5, "costs": -1, "simulationMode": [null, null, null, null, null, null], "rewards": [-10, 10, 10, 10, -10], "path": ["0", "0", "1", "2", "3", "4", "6"], "rt": [10698, 374, 1401, 369, 468, 209], "actions": ["up", "up", "up", "up", "right", "right"], "actionTimes": [20571, 20955, 22903, 23788, 24791, 25525], "queries": {"click": {"state": {"target": ["23", "12"], "time": [14878, 19640]}, "edge": {"target": [], "time": []}}, "mouseover": {"state": {"target": ["0", "0", "23", "0", "24", "0", "12", "12"], "time": [9919, 14081, 14480, 15964, 16806, 17282, 17329, 17630]}, "edge": {"target": [], "time": []}}, "mouseout": {"state": {"target": ["9", "8", "28", "24", "24", "0", "1", "2", "3", "5", "17", "0", "23", "23", "0", "0", "23", "0", "23", "24", "0", "12", "12", "19"], "time": [2039, 2062, 2124, 2160, 2311, 3479, 3521, 3551, 6294, 6326, 7443, 7494, 7544, 7763, 10530, 14310, 15929, 16508, 16715, 17240, 17318, 17362, 27909, 28049]}, "edge": {"target": [], "time": []}}}, "displayed_time": "26.07", "trialTime": 30437, "trial_type": "mouselab-mdp", "trial_index": 16, "time_elapsed": 714404, "internal_node_id": "0.0-2.2-2.2-1.2"}}, {"uniqueid": "w60237886:a13275391", "current_trial": 17, "dateTime": 1693581137004, "trialdata": {"view_history": [{"page_index": 0, "viewing_time": 34438}, {"page_index": 1, "viewing_time": 3294}], "rt": 37733, "trial_id": "mouselab_instructions_2_misaligned", "trial_type": "instructions", "trial_index": 17, "time_elapsed": 752150, "internal_node_id": "0.0-2.2-3.2"}}, {"uniqueid": "w60237886:a13275391", "current_trial": 18, "dateTime": 1693581182429, "trialdata": {"rt": 45407, "response": {"Q0": "The cost for clicking on nodes may vary between nodes.", "Q1": "The better I perform the higher my bonus will be.", "Q2": "No, the amount of cash at each node of the web may be different each time.", "Q3": "To get the highest total score.", "Q4": "Any time during the round.", "Q5": "3 seconds"}, "question_order": [0, 1, 2, 3, 4, 5], "correct": {"Q0": "The cost for clicking on nodes may vary between nodes.", "Q1": "The better I perform the higher my bonus will be.", "Q2": "No, the amount of cash at each node of the web may be different each time.", "Q3": "To get the highest total score.", "Q4": "Only before moving the spider.", "Q5": "3 seconds"}, "trial_id": "mouselab_quiz_misaligned", "trial_type": "survey-multi-choice", "trial_index": 18, "time_elapsed": 797576, "internal_node_id": "0.0-2.2-4.2"}}], "questiondata": {"params": {"CODE": "C6DMOQA6", "MIN_TIME": 14, "inspectCost": 1, "startTime": "Fri Sep 01 2023 16:59:38 GMT+0200 (South Africa Standard Time)", "bonusRate": 0.002, "variance": "1_2_4_8_44", "branching": "31123"}}, "eventdata": [{"eventtype": "initialized", "value": null, "timestamp": 1693580377116, "interval": 0}, {"eventtype": "window_resize", "value": [1366, 670], "timestamp": 1693580377116, "interval": 0}, {"eventtype": "window_resize", "value": [1366, 670], "timestamp": 1693580378030, "interval": 914}, {"eventtype": "window_resize", "value": [1366, 768], "timestamp": 1693580404800, "interval": 26770}, {"eventtype": "focus", "value": "off", "timestamp": 1693580724363, "interval": 319563}, {"eventtype": "focus", "value": "on", "timestamp": 1693580724364, "interval": 1}, {"eventtype": "window_resize", "value": [1366, 670], "timestamp": 1693580724618, "interval": 254}, {"eventtype": "window_resize", "value": [1366, 768], "timestamp": 1693580727325, "interval": 2707}, {"eventtype": "focus", "value": "off", "timestamp": 1693581003888, "interval": 276563}, {"eventtype": "focus", "value": "on", "timestamp": 1693581003890, "interval": 2}, {"eventtype": "window_resize", "value": [1366, 670], "timestamp": 1693581004146, "interval": 256}, {"eventtype": "window_resize", "value": [1366, 768], "timestamp": 1693581006405, "interval": 2259}, {"eventtype": "focus", "value": "off", "timestamp": 1693581186726, "interval": 180321}, {"eventtype": "focus", "value": "on", "timestamp": 1693581186727, "interval": 1}, {"eventtype": "window_resize", "value": [1366, 670], "timestamp": 1693581187000, "interval": 273}], "useragent": "Mozilla/5.0 (Windows NT 10.0; Win64; x64) AppleWebKit/537.36 (KHTML, like Gecko) Chrome/116.0.0.0 Safari/537.36", "mode": "live", "id": "w60237886:a13275391", "status": "user data saved", "Beginhit": "2023-09-01 14:58:09.814968", "Beginexp": "2023-09-01 15:00:06.634144", "Endhit": null, "psiturkStatus": 6, "browser": "<redacted>", "platform": "windows", "language": "en-US", "excludeReason": "quizfail"}