{"condition": 1, "counterbalance": 0, "assignmentId": "a11124115", "workerId": "w36990997", "hitId": "h38352652", "currenttrial": 62, "bonus": 0, "data": [{"uniqueid": "w36990997:a11124115", "current_trial": 0, "dateTime": 1693564809439, "trialdata": {"success": true, "trial_type": "fullscreen", "trial_index": 0, "time_elapsed": 22753, "internal_node_id": "0.0-0.0"}}, {"uniqueid": "w36990997:a11124115", "current_trial": 1, "dateTime": 1693564876286, "trialdata": {"view_history": [{"page_index": 0, "viewing_time": 66844}], "rt": 66845, "trial_id": "exp_instructions_misaligned", "trial_type": "instructions", "trial_index": 1, "time_elapsed": 89601, "internal_node_id": "0.0-1.0"}}, {"uniqueid": "w36990997:a11124115", "current_trial": 2, "dateTime": 1693565800643, "trialdata": {"view_history": [{"page_index": 0, "viewing_time": 248542}, {"page_index": 1, "viewing_time": 105575}, {"page_index": 2, "viewing_time": 33240}, {"page_index": 3, "viewing_time": 536999}], "rt": 924356, "trial_id": "mouselab_instructions_1_misaligned", "trial_type": "instructions", "trial_index": 2, "time_elapsed": 1013958, "internal_node_id": "0.0-2.0-1.0"}}, {"uniqueid": "w36990997:a11124115", "current_trial": 3, "dateTime": 1693565827894, "trialdata": {"revealed_states": [], "clicked_states": [], "num_clicks_accrued": [0, 0, 0, 0, 0, 0, 0, 0, 0, 0, 0, 0, 0], "stateRewards": ["", 10, 10, -10, 10, 10, -10, -10, -10, 10, -10, -10, 10, 10, -10, 10, 10, 10, 10, 10, -10, 10, -10, 10, -10, -10, -10, 10, 10, -10, 10, -10, -10, -10], "withholdReward": false, "trial_id": "practice_1", "block": "test", "trialIndex": 0, "score": -6.5, "costs": 0, "simulationMode": [null, null, null, null, null], "rewards": [10, 10, -10, -10, -10], "path": ["0", "0", "1", "2", "3", "8", "10"], "rt": [2053, 774, 7615, 636, 2559], "actions": ["up", "up", "up", "left", "down"], "actionTimes": [7979, 9262, 17384, 18515, 21586], "queries": {"click": {"state": {"target": [], "time": []}, "edge": {"target": [], "time": []}}, "mouseover": {"state": {"target": ["18", "15", "18"], "time": [6886, 6936, 7319]}, "edge": {"target": [], "time": []}}, "mouseout": {"state": {"target": ["0", "1", "10", "11", "8", "3", "2", "1", "0", "18", "15", "18"], "time": [null, 141, 191, 1141, 1191, 1442, 1524, 5320, 6406, 6903, 7303, 7336]}, "edge": {"target": [], "time": []}}}, "displayed_time": "22.08", "trialTime": 26093, "trial_type": "mouselab-mdp", "trial_index": 3, "time_elapsed": 1041208, "internal_node_id": "0.0-2.0-2.0-0.0"}}, {"uniqueid": "w36990997:a11124115", "current_trial": 4, "dateTime": 1693565849931, "trialdata": {"revealed_states": [], "clicked_states": [], "num_clicks_accrued": [0, 0, 0, 0, 0, 0, 0, 0, 0, 0, 0, 0, 0], "stateRewards": ["", -10, 10, 10, 10, -10, -10, 10, 10, -10, -10, -10, 10, -10, 10, -10, 10, 10, 10, -10, -10, 10, -10, 10, 10, -10, 10, 10, 10, 10, 10, 10, -10, 10], "withholdReward": false, "trial_id": "practice_2", "block": "test", "trialIndex": 1, "score": 13.5, "costs": 0, "simulationMode": [null, null, null, null, null], "rewards": [-10, 10, 10, 10, -10], "path": ["0", "0", "1", "2", "3", "4", "5"], "rt": [8198, 337, 99, 1038, 1060], "actions": ["up", "up", "up", "right", "up"], "actionTimes": [10846, 11690, 12299, 13854, 15426], "queries": {"click": {"state": {"target": [], "time": []}, "edge": {"target": [], "time": []}}, "mouseover": {"state": {"target": [], "time": []}, "edge": {"target": [], "time": []}}, "mouseout": {"state": {"target": [], "time": []}, "edge": {"target": [], "time": []}}}, "displayed_time": "15.93", "trialTime": 21934, "trial_type": "mouselab-mdp", "trial_index": 4, "time_elapsed": 1063245, "internal_node_id": "0.0-2.0-2.0-1.0"}}, {"uniqueid": "w36990997:a11124115", "current_trial": 5, "dateTime": 1693565941171, "trialdata": {"view_history": [{"page_index": 0, "viewing_time": 77585}, {"page_index": 1, "viewing_time": 13655}], "rt": 91240, "trial_id": "mouselab_instructions_2_misaligned", "trial_type": "instructions", "trial_index": 5, "time_elapsed": 1154486, "internal_node_id": "0.0-2.0-3.0"}}, {"uniqueid": "w36990997:a11124115", "current_trial": 6, "dateTime": 1693566556899, "trialdata": {"rt": 615724, "response": {"Q0": "The cost for clicking on nodes may vary between nodes.", "Q1": "The better I perform the higher my bonus will be.", "Q2": "No, the structure of the web will be different each time.", "Q3": "To get the highest total score.", "Q4": "Only before moving the spider.", "Q5": "3 seconds"}, "question_order": [0, 1, 2, 3, 4, 5], "correct": {"Q0": "The cost for clicking on nodes may vary between nodes.", "Q1": "The better I perform the higher my bonus will be.", "Q2": "No, the amount of cash at each node of the web may be different each time.", "Q3": "To get the highest total score.", "Q4": "Only before moving the spider.", "Q5": "3 seconds"}, "trial_id": "mouselab_quiz_misaligned", "trial_type": "survey-multi-choice", "trial_index": 6, "time_elapsed": 1770214, "internal_node_id": "0.0-2.0-4.0"}}, {"uniqueid": "w36990997:a11124115", "current_trial": 7, "dateTime": 1693566567098, "trialdata": {"success": true, "trial_type": "fullscreen", "trial_index": 7, "time_elapsed": 1780413, "internal_node_id": "0.0-2.1-0.1-0.1"}}, {"uniqueid": "w36990997:a11124115", "current_trial": 8, "dateTime": 1693566619953, "trialdata": {"view_history": [{"page_index": 0, "viewing_time": 15703}, {"page_index": 1, "viewing_time": 22256}, {"page_index": 2, "viewing_time": 12232}, {"page_index": 3, "viewing_time": 2664}], "rt": 52854, "trial_id": "mouselab_instructions_1_misaligned", "trial_type": "instructions", "trial_index": 8, "time_elapsed": 1833268, "internal_node_id": "0.0-2.1-1.1"}}, {"uniqueid": "w36990997:a11124115", "current_trial": 9, "dateTime": 1693566635157, "trialdata": {"revealed_states": [], "clicked_states": [], "num_clicks_accrued": [0, 0, 0, 0, 0, 0, 0, 0, 0, 0, 0, 0, 0], "stateRewards": ["", 10, 10, -10, 10, 10, -10, -10, -10, 10, -10, -10, 10, 10, -10, 10, 10, 10, 10, 10, -10, 10, -10, 10, -10, -10, -10, 10, 10, -10, 10, -10, -10, -10], "withholdReward": false, "trial_id": "practice_1", "block": "test", "trialIndex": 2, "score": 33.5, "costs": 0, "simulationMode": [null, null, null, null, null], "rewards": [10, 10, -10, 10, 10], "path": ["0", "0", "1", "2", "3", "4", "5"], "rt": [3235, 300, 225, 774, 1523], "actions": ["up", "up", "up", "right", "up"], "actionTimes": [7015, 7835, 8574, 9857, 11887], "queries": {"click": {"state": {"target": [], "time": []}, "edge": {"target": [], "time": []}}, "mouseover": {"state": {"target": ["12"], "time": [5668]}, "edge": {"target": [], "time": []}}, "mouseout": {"state": {"target": ["0", "0", "12"], "time": [1337, 5634, 5701]}, "edge": {"target": [], "time": []}}}, "displayed_time": "12.40", "trialTime": 15094, "trial_type": "mouselab-mdp", "trial_index": 9, "time_elapsed": 1848472, "internal_node_id": "0.0-2.1-2.1-0.1"}}, {"uniqueid": "w36990997:a11124115", "current_trial": 10, "dateTime": 1693566645655, "trialdata": {"revealed_states": [], "clicked_states": [], "num_clicks_accrued": [0, 0, 0, 0, 0, 0, 0, 0, 0, 0, 0, 0, 0], "stateRewards": ["", -10, 10, 10, 10, -10, -10, 10, 10, -10, -10, -10, 10, -10, 10, -10, 10, 10, 10, -10, -10, 10, -10, 10, 10, -10, 10, 10, 10, 10, 10, 10, -10, 10], "withholdReward": false, "trial_id": "practice_2", "block": "test", "trialIndex": 3, "score": 13.5, "costs": 0, "simulationMode": [null, null, null, null, null], "rewards": [10, -10, 10, -10, 10], "path": ["0", "0", "12", "13", "14", "15", "16"], "rt": [1978, 527, 413, 712, 325], "actions": ["right", "right", "right", "up", "up"], "actionTimes": [3688, 4731, 5652, 6882, 7726], "queries": {"click": {"state": {"target": [], "time": []}, "edge": {"target": [], "time": []}}, "mouseover": {"state": {"target": [], "time": []}, "edge": {"target": [], "time": []}}, "mouseout": {"state": {"target": ["0", "0", "28"], "time": [690, 9015, 9100]}, "edge": {"target": [], "time": []}}}, "displayed_time": "8.23", "trialTime": 10389, "trial_type": "mouselab-mdp", "trial_index": 10, "time_elapsed": 1858969, "internal_node_id": "0.0-2.1-2.1-1.1"}}, {"uniqueid": "w36990997:a11124115", "current_trial": 11, "dateTime": 1693566655185, "trialdata": {"view_history": [{"page_index": 0, "viewing_time": 7610}, {"page_index": 1, "viewing_time": 1919}], "rt": 9529, "trial_id": "mouselab_instructions_2_misaligned", "trial_type": "instructions", "trial_index": 11, "time_elapsed": 1868500, "internal_node_id": "0.0-2.1-3.1"}}, {"uniqueid": "w36990997:a11124115", "current_trial": 12, "dateTime": 1693566704002, "trialdata": {"rt": 48815, "response": {"Q0": "The cost for clicking on nodes may vary between nodes.", "Q1": "The better I perform the higher my bonus will be.", "Q2": "No, the amount of cash at each node of the web may be different each time.", "Q3": "To get the highest total score.", "Q4": "Only before moving the spider.", "Q5": "3 seconds"}, "question_order": [0, 1, 2, 3, 4, 5], "correct": {"Q0": "The cost for clicking on nodes may vary between nodes.", "Q1": "The better I perform the higher my bonus will be.", "Q2": "No, the amount of cash at each node of the web may be different each time.", "Q3": "To get the highest total score.", "Q4": "Only before moving the spider.", "Q5": "3 seconds"}, "trial_id": "mouselab_quiz_misaligned", "trial_type": "survey-multi-choice", "trial_index": 12, "time_elapsed": 1917317, "internal_node_id": "0.0-2.1-4.1"}}, {"uniqueid": "w36990997:a11124115", "current_trial": 13, "dateTime": 1693566716338, "trialdata": {"rt": 12332, "response": {"Q0": "No"}, "question_order": [0], "trial_id": "repeat_check", "trial_type": "survey-multi-choice", "trial_index": 13, "time_elapsed": 1929653, "internal_node_id": "0.0-4.0-0.0"}}, {"uniqueid": "w36990997:a11124115", "current_trial": 14, "dateTime": 1693566725831, "trialdata": {"rt": 9490, "stimulus": "\n<h1> Get ready to start the game! </h1>\n\nThank you for reading the instructions. Get ready start with the 40 rounds of this game.\n<br><br>\nIf you need to take a break, feel free to take one after the end of a round, before continuing to the next one.\n<br><br>\nRemember, the more money the spider gets, the bigger your bonus will be!\n<br><br>\n<div style='text-align: center;'>Press <code>space</code> to begin.</div>\n\n<br><br>\n(If, at any point, the <code>space</code> key does not take you to the next page, click once on the text and try again.)", "response": " ", "trial_id": "mdp_ready", "trial_type": "html-keyboard-response", "trial_index": 14, "time_elapsed": 1939146, "internal_node_id": "0.0-6.0-0.0"}}, {"uniqueid": "w36990997:a11124115", "current_trial": 15, "dateTime": 1693566749569, "trialdata": {"revealed_states": [], "clicked_states": [], "num_clicks_accrued": [0, 0, 0, 0, 0, 0, 0, 0, 0, 0, 0, 0, 0], "stateRewards": ["", -2, 2, 5, -14, -56, 64, 84, -5, 52, 39, 85, -2, 1, 7, 8, 21, 29, -78, -9, -10, -69, 10, -2, -1, -7, 15, 72, 20, 41, -2, 52, 80, 22], "withholdReward": false, "trial_id": "mdp_trial_1", "block": "test", "trialIndex": 4, "score": -65, "costs": 0, "simulationMode": [null, null, null, null, null], "rewards": [-2, 2, 5, -14, -56], "path": ["0", "0", "1", "2", "3", "4", "5"], "rt": [12512, 316, 294, 347, 694], "actions": ["up", "up", "up", "right", "up"], "actionTimes": [16501, 17335, 18145, 19000, 20211], "queries": {"click": {"state": {"target": [], "time": []}, "edge": {"target": [], "time": []}}, "mouseover": {"state": {"target": ["0", "0", "2", "0"], "time": [5229, 7708, 9609, 9927]}, "edge": {"target": [], "time": []}}, "mouseout": {"state": {"target": ["7", "12", "1", "0", "0", "2", "0", "2", "1", "0"], "time": [1347, 1679, 3596, 5294, 7991, 9927, 22127, 22263, 22313, 22364]}, "edge": {"target": [], "time": []}}}, "displayed_time": "20.72", "trialTime": 23620, "trial_type": "mouselab-mdp", "trial_index": 15, "time_elapsed": 1962883, "internal_node_id": "0.0-6.0-1.0-0.0"}}, {"uniqueid": "w36990997:a11124115", "current_trial": 16, "dateTime": 1693566784570, "trialdata": {"revealed_states": [], "clicked_states": ["1", "8", "4", "15", "14", "19", "25", "26", "32", "30"], "num_clicks_accrued": [0, 0, 0, 0, 0, 0, 0, 0, 0, 0, 0, 0, 0], "stateRewards": ["", -2, 4, 3, 5, -61, 4, 30, 1, -47, 83, 10, 1, 4, 7, -14, 19, -74, -83, 6, -2, -2, -65, -1, -2, 4, -11, 12, -1, -68, 11, -38, -28, 66], "withholdReward": false, "trial_id": "mdp_trial_2", "block": "test", "trialIndex": 5, "score": 75.9, "costs": -13.100000000000001, "simulationMode": [null, null, null, null, null], "rewards": [-2, 4, 3, 1, 83], "path": ["0", "0", "1", "2", "3", "8", "10"], "rt": [24970, 356, 439, 727, 630], "actions": ["up", "up", "up", "left", "down"], "actionTimes": [26762, 27632, 28580, 29817, 30955], "queries": {"click": {"state": {"target": ["1", "8", "4", "15", "14", "19", "25", "26", "32", "30"], "time": [4343, 5505, 6548, 8095, 9162, 9573, 10584, 11150, 11867, 16053]}, "edge": {"target": [], "time": []}}, "mouseover": {"state": {"target": ["0", "1", "10", "8", "10", "4", "15", "14", "19", "22", "25", "26", "30", "32", "30", "31", "10", "8", "9", "9", "9", "8", "10", "23"], "time": [2827, 4029, 4594, 5408, 6076, 6393, 7973, 8922, 9472, 9989, 10188, 11104, 11587, 11688, 12036, 16866, 19380, 19580, 19964, 20363, 20496, 21679, 21795, 22011]}, "edge": {"target": [], "time": []}}, "mouseout": {"state": {"target": ["1", "0", "0", "1", "10", "8", "10", "4", "4", "15", "14", "19", "22", "25", "26", "25", "30", "32", "30", "31", "10", "8", "9", "9", "9", "8", "10", "23"], "time": [896, 1982, 3162, 4494, 4611, 6043, 6109, 6657, 6891, 8856, 9389, 9888, 10005, 10937, 11470, 11553, 11603, 11964, 16849, 19181, 19430, 19914, 20059, 20481, 21480, 21745, 21878, 22063]}, "edge": {"target": [], "time": []}}}, "displayed_time": "31.47", "trialTime": 34872, "trial_type": "mouselab-mdp", "trial_index": 16, "time_elapsed": 1997885, "internal_node_id": "0.0-6.0-1.0-1.0"}}, {"uniqueid": "w36990997:a11124115", "current_trial": 17, "dateTime": 1693566823409, "trialdata": {"revealed_states": [], "clicked_states": ["26", "30", "32", "19", "14", "11", "5", "16", "21"], "num_clicks_accrued": [0, 0, 0, 0, 0, 0, 0, 0, 0, 0, 0, 0, 0], "stateRewards": ["", 2, 3, 6, -5, -74, -53, 17, -12, 46, 44, 18, -2, 4, 1, -8, 22, -23, -49, 9, -45, 55, 81, 1, -1, -7, -16, -83, -71, -45, 2, 51, 82, 61], "withholdReward": false, "trial_id": "mdp_trial_3", "block": "test", "trialIndex": 6, "score": -84.35, "costs": -16.35, "simulationMode": [null, null, null, null, null], "rewards": [2, 3, 6, -5, -74], "path": ["0", "0", "1", "2", "3", "4", "5"], "rt": [29434, 562, 276, 688, 304], "actions": ["up", "up", "up", "right", "up"], "actionTimes": [31149, 32212, 33008, 34204, 35016], "queries": {"click": {"state": {"target": ["26", "30", "32", "19", "14", "11", "5", "16", "21"], "time": [3597, 4584, 5216, 8201, 8772, 9676, 12490, 15289, 18408]}, "edge": {"target": [], "time": []}}, "mouseover": {"state": {"target": ["23", "26", "25", "30", "32", "22", "21", "21", "19", "21", "19", "14", "13", "1", "10", "11", "8", "10", "10", "3", "5", "6", "16", "15", "19", "19", "21", "19", "19", "22", "12", "0", "23", "24", "25", "30", "32"], "time": [2887, 3504, 3873, 4341, 4855, 6104, 6188, 6422, 6870, 7703, 8003, 8567, 9066, 9133, 9283, 9532, 9982, 10416, 10748, 12030, 12363, 14178, 14595, 15744, 16894, 17160, 17592, 19194, 20426, 23754, 23805, 24103, 24386, 24636, 25019, 25786, 26202]}, "edge": {"target": [], "time": []}}, "mouseout": {"state": {"target": ["23", "12", "13", "12", "0", "23", "26", "25", "30", "32", "22", "21", "21", "19", "21", "19", "14", "13", "1", "10", "11", "8", "10", "10", "3", "5", "6", "16", "15", "19", "19", "21", "19", "19", "21", "22", "12", "0", "23", "24", "25", "30", "32", "18", "18"], "time": [872, 924, 1089, 1206, 1816, 2904, 3789, 4022, 4704, 5803, 6120, 6195, 6820, 7371, 7969, 8311, 9049, 9083, 9233, 9316, 9786, 10415, 10432, 11897, 12064, 12979, 14445, 15710, 16677, 16927, 17442, 19126, 19292, 22604, 23670, 23770, 23886, 24336, 24603, 25003, 25620, 26119, 26552, 36826, 37177]}, "edge": {"target": [], "time": []}}}, "displayed_time": "35.53", "trialTime": 38715, "trial_type": "mouselab-mdp", "trial_index": 17, "time_elapsed": 2036723, "internal_node_id": "0.0-6.0-1.0-2.0"}}, {"uniqueid": "w36990997:a11124115", "current_trial": 18, "dateTime": 1693566885639, "trialdata": {"revealed_states": [], "clicked_states": ["32", "27", "5", "6", "17", "20", "21", "22", "33", "29", "11", "9"], "num_clicks_accrued": [0, 0, 0, 0, 0, 0, 0, 0, 0, 0, 0, 0, 0], "stateRewards": ["", -1, -4, -1, -11, 43, 69, 39, 4, 17, -20, -82, -2, -1, 4, 8, -79, 24, -79, 11, 36, 64, 41, 2, 4, -1, 11, -79, -47, 75, -3, 63, -36, -19], "withholdReward": false, "trial_id": "mdp_trial_4", "block": "test", "trialIndex": 7, "score": -3.799999999999997, "costs": -25.799999999999994, "simulationMode": [null, null, null, null, null], "rewards": [-1, -4, -1, -11, 39], "path": ["0", "0", "1", "2", "3", "4", "7"], "rt": [50217, 3629, 722, 1219, 508], "actions": ["up", "up", "up", "right", "down"], "actionTimes": [51336, 55477, 56699, 58428, 59449], "queries": {"click": {"state": {"target": ["32", "27", "5", "6", "17", "20", "21", "22", "33", "29", "11", "9"], "time": [3799, 7075, 10523, 13421, 16298, 19405, 22826, 25871, 29150, 32035, 37422, 40767]}, "edge": {"target": [], "time": []}}, "mouseover": {"state": {"target": ["23", "24", "25", "30", "32", "30", "25", "26", "27", "9", "9", "3", "5", "9", "2", "6", "16", "16", "17", "20", "21", "22", "24", "25", "30", "33", "30", "25", "26", "29", "24", "10", "23", "10", "11", "9", "9", "5", "9", "8", "27", "27", "26", "28", "23"], "time": [2436, 2453, 2486, 2520, 3618, 4186, 4353, 4519, 4719, 8431, 8781, 9513, 10299, 10799, 11797, 12013, 14179, 14714, 15362, 16957, 20772, 23469, 27150, 27283, 27783, 28981, 29914, 30081, 30197, 30347, 33311, 34677, 35759, 35909, 37044, 38192, 38410, 39641, 39926, 42372, 42555, 45884, 47964, 48383, 48766]}, "edge": {"target": [], "time": []}}, "mouseout": {"state": {"target": ["23", "24", "25", "30", "32", "30", "25", "26", "27", "9", "9", "3", "5", "9", "2", "6", "16", "16", "17", "20", "21", "22", "24", "25", "30", "33", "30", "25", "26", "29", "24", "10", "23", "10", "11", "9", "9", "5", "9", "9", "8", "11", "27", "27", "26", "28", "23"], "time": [2452, 2469, 2503, 2668, 3988, 4319, 4421, 4585, 8048, 8578, 9413, 9747, 10748, 11282, 11980, 14046, 14498, 15045, 16874, 20206, 23403, 26500, 27166, 27749, 28682, 29831, 30014, 30164, 30264, 33262, 33328, 34727, 35793, 35926, 38143, 38216, 39391, 39692, 41540, 42323, 42388, 42439, 45651, 47534, 48348, 48415, 48982]}, "edge": {"target": [], "time": []}}}, "displayed_time": "59.96", "trialTime": 62110, "trial_type": "mouselab-mdp", "trial_index": 18, "time_elapsed": 2098953, "internal_node_id": "0.0-6.0-1.0-3.0"}}, {"uniqueid": "w36990997:a11124115", "current_trial": 19, "dateTime": 1693566934279, "trialdata": {"revealed_states": [], "clicked_states": ["9", "21", "32", "6", "17", "20", "29", "27", "28"], "num_clicks_accrued": [0, 0, 0, 0, 0, 0, 0, 0, 0, 0, 0, 0, 0], "stateRewards": ["", 2, 3, -2, -8, -8, -41, 74, 15, -23, -80, 1, 1, 3, 3, -15, -63, -78, 67, 13, 75, -41, 86, 2, -2, 6, -3, -8, -49, 50, -6, 83, 74, 80], "withholdReward": false, "trial_id": "mdp_trial_5", "block": "test", "trialIndex": 8, "score": 54.650000000000006, "costs": -19.349999999999998, "simulationMode": [null, null, null, null, null], "rewards": [2, -2, 6, -6, 74], "path": ["0", "0", "23", "24", "25", "30", "32"], "rt": [40251, 691, 356, 576, 438], "actions": ["left", "left", "left", "down", "down"], "actionTimes": [41649, 42850, 43714, 44801, 45746], "queries": {"click": {"state": {"target": ["9", "21", "32", "6", "17", "20", "29", "27", "28"], "time": [3307, 8105, 11239, 14524, 19711, 22511, 25680, 28669, 31944]}, "edge": {"target": [], "time": []}}, "mouseover": {"state": {"target": ["9", "28", "26", "27", "26", "24", "21", "27", "26", "25", "30", "32", "31", "23", "6", "6", "6", "16", "17", "14", "14", "13", "12", "12", "17", "20", "19", "13", "12", "28", "29", "29", "27", "28", "10", "11", "24", "30", "32"], "time": [2823, 5090, 5123, 5523, 6804, 7021, 7869, 9086, 9435, 9568, 9635, 9869, 12116, 12183, 12283, 12715, 14266, 14948, 15230, 17015, 18345, 18479, 18527, 19259, 19476, 20542, 23606, 23689, 23707, 23756, 24172, 25571, 26737, 29106, 33666, 33733, 35546, 35746, 36062]}, "edge": {"target": [], "time": []}}, "mouseout": {"state": {"target": ["18", "12", "0", "9", "28", "26", "27", "26", "24", "21", "27", "26", "25", "30", "32", "31", "23", "6", "6", "6", "16", "17", "14", "14", "13", "12", "12", "17", "17", "20", "19", "13", "12", "28", "29", "29", "27", "28", "10", "11", "28", "24", "30", "32"], "time": [791, 991, 1775, 3808, 5106, 5140, 5973, 6853, 7071, 8190, 9368, 9518, 9618, 9685, 12049, 12166, 12199, 12499, 13981, 14914, 14964, 16679, 18027, 18443, 18511, 19111, 19277, 19942, 20126, 23540, 23656, 23706, 23723, 23773, 25354, 26520, 28937, 33532, 33716, 35346, 35479, 35615, 35962, 38942]}, "edge": {"target": [], "time": []}}}, "displayed_time": "46.26", "trialTime": 48522, "trial_type": "mouselab-mdp", "trial_index": 19, "time_elapsed": 2147594, "internal_node_id": "0.0-6.0-1.0-4.0"}}, {"uniqueid": "w36990997:a11124115", "current_trial": 20, "dateTime": 1693566998301, "trialdata": {"revealed_states": [], "clicked_states": ["21", "20", "16", "33", "29", "27", "31", "32", "9", "5", "17"], "num_clicks_accrued": [0, 0, 0, 0, 0, 0, 0, 0, 0, 0, 0, 0, 0], "stateRewards": ["", -1, 1, 8, -8, -49, 62, -78, 16, 28, -81, 78, -2, -3, -1, -4, 67, 49, -2, -13, -16, -39, 83, 1, -4, 4, -5, -20, 7, 84, 7, -32, -59, 19], "withholdReward": false, "trial_id": "mdp_trial_6", "block": "test", "trialIndex": 9, "score": -47.64999999999999, "costs": -23.649999999999995, "simulationMode": [null, null, null, null, null], "rewards": [1, -4, 4, -5, -20], "path": ["0", "0", "23", "24", "25", "26", "27"], "rt": [52994, 504, 223, 453, 210], "actions": ["left", "left", "left", "up", "up"], "actionTimes": [54755, 55769, 56502, 57465, 58189], "queries": {"click": {"state": {"target": ["21", "20", "16", "33", "29", "27", "31", "32", "9", "5", "17"], "time": [4436, 7863, 12468, 15779, 18997, 21998, 26488, 31131, 35891, 41483, 46451]}, "edge": {"target": [], "time": []}}, "mouseover": {"state": {"target": ["1", "1", "0", "12", "19", "20", "21", "20", "19", "17", "15", "16", "16", "15", "14", "13", "24", "25", "30", "32", "33", "29", "25", "26", "27", "24", "23", "23", "24", "32", "31", "28", "32", "0", "10", "8", "9", "2", "1", "12", "22", "12", "1", "3", "5", "15", "17", "17", "15", "0"], "time": [2190, 2639, 3390, 3589, 3622, 3655, 4191, 4939, 8753, 9618, 9703, 9802, 12298, 13083, 13149, 13364, 13497, 13564, 13647, 13864, 15462, 16513, 20108, 20358, 20491, 23673, 23805, 24571, 24638, 25870, 26271, 29387, 30483, 34679, 34796, 34996, 35730, 39692, 39742, 40208, 40408, 40758, 40907, 41174, 41242, 45339, 45621, 45904, 49801, 52381]}, "edge": {"target": [], "time": []}}, "mouseout": {"state": {"target": ["10", "1", "1", "1", "0", "12", "19", "20", "21", "20", "19", "17", "15", "16", "16", "16", "15", "14", "13", "24", "25", "30", "32", "33", "29", "25", "26", "27", "24", "23", "23", "24", "27", "32", "31", "28", "31", "32", "0", "10", "8", "9", "2", "1", "12", "22", "12", "1", "3", "5", "15", "17", "17", "15", "0", "0"], "time": [974, 1190, 2291, 3004, 3572, 3605, 3639, 3672, 4739, 8537, 9352, 9669, 9718, 11502, 12698, 13082, 13148, 13347, 13380, 13514, 13614, 13730, 15179, 16296, 19859, 20225, 20375, 23456, 23689, 23822, 24621, 24655, 25404, 26053, 28836, 29468, 30467, 31225, 34696, 34830, 35146, 39426, 39727, 39775, 40241, 40658, 40792, 40958, 41191, 45237, 45354, 45654, 49785, 49818, 52415, 61492]}, "edge": {"target": [], "time": []}}}, "displayed_time": "58.71", "trialTime": 63900, "trial_type": "mouselab-mdp", "trial_index": 20, "time_elapsed": 2211616, "internal_node_id": "0.0-6.0-1.0-5.0"}}, {"uniqueid": "w36990997:a11124115", "current_trial": 21, "dateTime": 1693567024362, "trialdata": {"revealed_states": [], "clicked_states": ["5", "17", "20"], "num_clicks_accrued": [0, 0, 0, 0, 0, 0, 0, 0, 0, 0, 0, 0, 0], "stateRewards": ["", -1, 4, -8, 12, 14, 69, -8, 5, -72, -14, 56, -1, -1, -1, 9, 67, 19, 11, -9, -88, -58, 3, 2, -4, -8, 4, 62, 77, -74, 5, -31, 65, 88], "withholdReward": false, "trial_id": "mdp_trial_7", "block": "test", "trialIndex": 10, "score": 18.55, "costs": -6.449999999999999, "simulationMode": [null, null, null, null, null], "rewards": [-1, -1, -1, 9, 19], "path": ["0", "0", "12", "13", "14", "15", "17"], "rt": [17676, 433, 223, 875, 219], "actions": ["right", "right", "right", "up", "right"], "actionTimes": [19405, 20351, 21090, 22477, 23186], "queries": {"click": {"state": {"target": ["5", "17", "20"], "time": [3928, 8223, 12260]}, "edge": {"target": [], "time": []}}, "mouseover": {"state": {"target": ["0", "6", "5", "6", "18", "15", "17", "12", "19", "20", "19", "22", "22"], "time": [1734, 3130, 3431, 4530, 4648, 7593, 7893, 9593, 11673, 11940, 13055, 13221, 18601]}, "edge": {"target": [], "time": []}}, "mouseout": {"state": {"target": ["0", "6", "5", "6", "18", "15", "17", "12", "19", "20", "19", "22", "22"], "time": [2334, 3163, 4264, 4580, 4697, 7643, 9543, 9611, 11739, 12972, 13155, 13372, 18767]}, "edge": {"target": [], "time": []}}}, "displayed_time": "23.70", "trialTime": 25937, "trial_type": "mouselab-mdp", "trial_index": 21, "time_elapsed": 2237677, "internal_node_id": "0.0-6.0-1.0-6.0"}}, {"uniqueid": "w36990997:a11124115", "current_trial": 22, "dateTime": 1693567041556, "trialdata": {"revealed_states": [], "clicked_states": ["29"], "num_clicks_accrued": [0, 0, 0, 0, 0, 0, 0, 0, 0, 0, 0, 0, 0], "stateRewards": ["", -2, -3, 8, 14, -73, 73, 84, -12, -2, -50, -17, 2, 1, -2, -9, -44, -27, -33, 16, -63, -47, -66, -2, 1, 4, -5, -33, -11, 50, 9, 38, -79, 31], "withholdReward": false, "trial_id": "mdp_trial_8", "block": "test", "trialIndex": 11, "score": 45.85, "costs": -2.15, "simulationMode": [null, null, null, null, null], "rewards": [-2, 1, 4, -5, 50], "path": ["0", "0", "23", "24", "25", "26", "29"], "rt": [8396, 210, 95, 584, 187], "actions": ["left", "left", "left", "up", "left"], "actionTimes": [9872, 10599, 11202, 12307, 13008], "queries": {"click": {"state": {"target": ["29"], "time": [2699]}, "edge": {"target": [], "time": []}}, "mouseover": {"state": {"target": ["29", "26", "28", "22", "15", "7", "18"], "time": [2445, 2894, 2994, 5258, 6091, 6274, 8356]}, "edge": {"target": [], "time": []}}, "mouseout": {"state": {"target": ["29", "26", "28", "22", "15", "7", "18"], "time": [2877, 2927, 3027, 5275, 6124, 6375, 8473]}, "edge": {"target": [], "time": []}}}, "displayed_time": "15.48", "trialTime": 17067, "trial_type": "mouselab-mdp", "trial_index": 22, "time_elapsed": 2254871, "internal_node_id": "0.0-6.0-1.0-7.0"}}, {"uniqueid": "w36990997:a11124115", "current_trial": 23, "dateTime": 1693567073266, "trialdata": {"revealed_states": [], "clicked_states": ["6", "27", "9", "5", "20"], "num_clicks_accrued": [0, 0, 0, 0, 0, 0, 0, 0, 0, 0, 0, 0, 0], "stateRewards": ["", 1, 1, 5, 6, -29, -7, 3, -16, 9, -46, 65, -1, 4, -1, -16, -63, -77, -87, 8, 80, -50, 43, -1, -1, -5, 5, -38, -71, -62, 9, 81, -50, -52], "withholdReward": false, "trial_id": "mdp_trial_9", "block": "test", "trialIndex": 12, "score": 79.25, "costs": -10.75, "simulationMode": [null, null, null, null, null], "rewards": [-1, 4, -1, 8, 80], "path": ["0", "0", "12", "13", "14", "19", "20"], "rt": [24014, 249, 188, 683, 366], "actions": ["right", "right", "right", "down", "right"], "actionTimes": [25498, 26266, 26971, 28165, 29047], "queries": {"click": {"state": {"target": ["6", "27", "9", "5", "20"], "time": [2883, 7403, 11229, 14870, 18239]}, "edge": {"target": [], "time": []}}, "mouseover": {"state": {"target": ["6", "18", "1", "28", "26", "29", "27", "28", "8", "9", "2", "4", "5", "4", "7", "13", "14", "20", "20"], "time": [2672, 6248, 6315, 6450, 6515, 6714, 7230, 10630, 10777, 10946, 14358, 14424, 14657, 16159, 16225, 16458, 16699, 17175, 17838]}, "edge": {"target": [], "time": []}}, "mouseout": {"state": {"target": ["6", "18", "1", "28", "26", "29", "27", "28", "8", "9", "9", "2", "4", "5", "4", "7", "13", "14", "20", "20"], "time": [3351, 6265, 6348, 6500, 6531, 7047, 7631, 10678, 10911, 11357, 12126, 14375, 14508, 15992, 16191, 16241, 16508, 16908, 17208, 21652]}, "edge": {"target": [], "time": []}}}, "displayed_time": "29.56", "trialTime": 31563, "trial_type": "mouselab-mdp", "trial_index": 23, "time_elapsed": 2286580, "internal_node_id": "0.0-6.0-1.0-8.0"}}, {"uniqueid": "w36990997:a11124115", "current_trial": 24, "dateTime": 1693567092167, "trialdata": {"revealed_states": [], "clicked_states": ["29"], "num_clicks_accrued": [0, 0, 0, 0, 0, 0, 0, 0, 0, 0, 0, 0, 0], "stateRewards": ["", -2, -4, 4, -11, -63, -60, -7, 2, -14, 81, -43, -1, -1, -5, 7, 10, 69, 40, 8, -83, 52, 60, 1, 2, 5, -5, 16, 64, 14, -3, 29, 7, -51], "withholdReward": false, "trial_id": "mdp_trial_10", "block": "test", "trialIndex": 13, "score": 14.85, "costs": -2.15, "simulationMode": [null, null, null, null, null], "rewards": [1, 2, 5, -5, 14], "path": ["0", "0", "23", "24", "25", "26", "29"], "rt": [9276, 248, 41, 751, 167], "actions": ["left", "left", "left", "up", "left"], "actionTimes": [11547, 12315, 12874, 14150, 14831], "queries": {"click": {"state": {"target": ["29"], "time": [4573]}, "edge": {"target": [], "time": []}}, "mouseover": {"state": {"target": ["31", "30", "33", "29", "30", "31", "14"], "time": [3588, 3606, 3638, 4454, 8034, 8367, 8633]}, "edge": {"target": [], "time": []}}, "mouseout": {"state": {"target": ["15", "14", "13", "12", "0", "0", "31", "30", "33", "29", "30", "31", "14"], "time": [992, 1041, 1139, 1306, 1356, 1588, 3604, 3622, 4153, 5355, 8351, 8384, 8650]}, "edge": {"target": [], "time": []}}}, "displayed_time": "16.27", "trialTime": 18763, "trial_type": "mouselab-mdp", "trial_index": 24, "time_elapsed": 2305481, "internal_node_id": "0.0-6.0-1.0-9.0"}}, {"uniqueid": "w36990997:a11124115", "current_trial": 25, "dateTime": 1693567119131, "trialdata": {"revealed_states": [], "clicked_states": [], "num_clicks_accrued": [0, 0, 0, 0, 0, 0, 0, 0, 0, 0, 0, 0, 0], "stateRewards": ["", 2, 4, 4, -8, -36, -33, 38, 16, -51, 57, 57, 1, 3, 4, -6, 45, 68, 87, 1, 63, 24, -55, -2, 2, -6, -13, -63, -50, 8, 2, 80, 6, 60], "withholdReward": false, "trial_id": "mdp_trial_11", "block": "test", "trialIndex": 14, "score": 40, "costs": 0, "simulationMode": [null, null, null, null, null], "rewards": [2, 4, 4, -8, 38], "path": ["0", "0", "1", "2", "3", "4", "7"], "rt": [18838, 235, 551, 222, 242], "actions": ["up", "up", "up", "right", "down"], "actionTimes": [21160, 21901, 22965, 23700, 24453], "queries": {"click": {"state": {"target": [], "time": []}, "edge": {"target": [], "time": []}}, "mouseover": {"state": {"target": ["1", "16", "0", "17", "13", "12", "0"], "time": [2861, 7390, 17715, 18331, 19513, 19564, 20647]}, "edge": {"target": [], "time": []}}, "mouseout": {"state": {"target": ["1", "23", "1", "16", "0", "17", "13", "12"], "time": [1362, 1511, 4143, 7623, 17732, 19447, 19547, 19614]}, "edge": {"target": [], "time": []}}}, "displayed_time": "24.96", "trialTime": 26831, "trial_type": "mouselab-mdp", "trial_index": 25, "time_elapsed": 2332446, "internal_node_id": "0.0-6.0-1.0-10.0"}}, {"uniqueid": "w36990997:a11124115", "current_trial": 26, "dateTime": 1693567151099, "trialdata": {"revealed_states": [], "clicked_states": ["17", "20", "29", "9"], "num_clicks_accrued": [0, 0, 0, 0, 0, 0, 0, 0, 0, 0, 0, 0, 0], "stateRewards": ["", 2, -4, -4, 13, -80, 62, 13, -11, 57, -13, -44, 1, 4, 3, -4, -29, -88, 15, 16, -58, 68, -45, -1, -3, -1, -9, -44, -86, -19, -7, -36, 59, 66], "withholdReward": false, "trial_id": "mdp_trial_12", "block": "test", "trialIndex": 15, "score": 31.4, "costs": -8.6, "simulationMode": [null, null, null, null, null], "rewards": [2, -4, -4, -11, 57], "path": ["0", "0", "1", "2", "3", "8", "9"], "rt": [21118, 253, 161, 458, 650], "actions": ["up", "up", "up", "left", "up"], "actionTimes": [25935, 26700, 27368, 28332, 29490], "queries": {"click": {"state": {"target": ["17", "20", "29", "9"], "time": [6388, 10019, 13952, 18022]}, "edge": {"target": [], "time": []}}, "mouseover": {"state": {"target": ["0", "19", "20", "17", "20", "12", "0", "23", "24", "25", "26", "29", "26", "8", "9", "8", "1", "1", "1"], "time": [5323, 5674, 5690, 5972, 9837, 13283, 13301, 13318, 13334, 13383, 13666, 13784, 17196, 17580, 17779, 18546, 21909, 24708, 25157]}, "edge": {"target": [], "time": []}}, "mouseout": {"state": {"target": ["2", "0", "1", "0", "19", "20", "17", "20", "12", "0", "23", "24", "25", "26", "29", "26", "8", "9", "8", "1", "1"], "time": [394, 1359, 4408, 5573, 5689, 5706, 7423, 10553, 13300, 13317, 13333, 13366, 13533, 13733, 17163, 17213, 17597, 18446, 18634, 23725, 24882]}, "edge": {"target": [], "time": []}}}, "displayed_time": "30.00", "trialTime": 31819, "trial_type": "mouselab-mdp", "trial_index": 26, "time_elapsed": 2364413, "internal_node_id": "0.0-6.0-1.0-11.0"}}, {"uniqueid": "w36990997:a11124115", "current_trial": 27, "dateTime": 1693567168427, "trialdata": {"revealed_states": [], "clicked_states": [], "num_clicks_accrued": [0, 0, 0, 0, 0, 0, 0, 0, 0, 0, 0, 0, 0], "stateRewards": ["", -1, -3, 1, -4, -48, -63, -49, -2, -84, -19, 65, 2, -2, -2, -12, -4, 59, 9, 6, 75, 69, -13, -1, -3, -3, -2, -37, -68, -36, 13, 32, 18, -14], "withholdReward": false, "trial_id": "mdp_trial_13", "block": "test", "trialIndex": 16, "score": -5, "costs": 0, "simulationMode": [null, null, null, null, null], "rewards": [2, -2, -2, -12, 9], "path": ["0", "0", "12", "13", "14", "15", "18"], "rt": [6380, 295, 207, 529, 219], "actions": ["right", "right", "right", "up", "left"], "actionTimes": [7910, 8718, 9443, 10481, 11206], "queries": {"click": {"state": {"target": [], "time": []}, "edge": {"target": [], "time": []}}, "mouseover": {"state": {"target": ["1", "22", "14", "17", "13"], "time": [3092, 5155, 5172, 5387, 6520]}, "edge": {"target": [], "time": []}}, "mouseout": {"state": {"target": ["18", "1", "22", "14", "17", "13", "12"], "time": [824, 3492, 5171, 5188, 6421, 6621, 16347]}, "edge": {"target": [], "time": []}}}, "displayed_time": "15.53", "trialTime": 17172, "trial_type": "mouselab-mdp", "trial_index": 27, "time_elapsed": 2381742, "internal_node_id": "0.0-6.0-1.0-12.0"}}, {"uniqueid": "w36990997:a11124115", "current_trial": 28, "dateTime": 1693567198967, "trialdata": {"revealed_states": [], "clicked_states": ["25", "29", "27"], "num_clicks_accrued": [0, 0, 0, 0, 0, 0, 0, 0, 0, 0, 0, 0, 0], "stateRewards": ["", -2, -1, -5, 10, -36, -70, 68, -9, 86, 71, -10, 2, -4, 7, -7, 66, 44, -66, -13, -69, 43, 15, -2, 2, 6, -13, 62, 57, 50, -10, -69, 42, -72], "withholdReward": false, "trial_id": "mdp_trial_14", "block": "test", "trialIndex": 17, "score": 49.75, "costs": -5.25, "simulationMode": [null, null, null, null, null], "rewards": [-2, 2, 6, -13, 62], "path": ["0", "0", "23", "24", "25", "26", "27"], "rt": [12386, 1015, 216, 554, 615], "actions": ["left", "left", "left", "up", "up"], "actionTimes": [21100, 22625, 23359, 24429, 25556], "queries": {"click": {"state": {"target": ["25", "29", "27"], "time": [10859, 11713, 14661]}, "edge": {"target": [], "time": []}}, "mouseover": {"state": {"target": ["0", "24", "25", "29", "27", "24"], "time": [9136, 10451, 10618, 11467, 12466, 15532]}, "edge": {"target": [], "time": []}}, "mouseout": {"state": {"target": ["2", "2", "1", "0", "0", "24", "25", "29", "27", "24", "28"], "time": [1509, 8054, 8152, 8469, 9170, 10535, 11150, 12366, 15382, 15733, 28753]}, "edge": {"target": [], "time": []}}}, "displayed_time": "26.07", "trialTime": 30377, "trial_type": "mouselab-mdp", "trial_index": 28, "time_elapsed": 2412282, "internal_node_id": "0.0-6.0-1.0-13.0"}}, {"uniqueid": "w36990997:a11124115", "current_trial": 29, "dateTime": 1693567233394, "trialdata": {"revealed_states": [], "clicked_states": ["9", "5", "6", "17", "20", "21", "22"], "num_clicks_accrued": [0, 0, 0, 0, 0, 0, 0, 0, 0, 0, 0, 0, 0], "stateRewards": ["", -1, 1, 3, -8, -23, -15, -14, -11, -23, 58, 68, 1, 3, 5, 12, -17, -41, -7, -10, -4, 82, 10, 1, 4, -4, 11, 73, 55, -55, -1, -86, -86, 54], "withholdReward": false, "trial_id": "mdp_trial_15", "block": "test", "trialIndex": 18, "score": 65.95, "costs": -15.05, "simulationMode": [null, null, null, null, null], "rewards": [1, 3, 5, -10, 82], "path": ["0", "0", "12", "13", "14", "19", "21"], "rt": [26120, 394, 9, 726, 284], "actions": ["right", "right", "right", "down", "down"], "actionTimes": [27959, 28869, 29385, 30636, 31440], "queries": {"click": {"state": {"target": ["9", "5", "6", "17", "20", "21", "22"], "time": [3800, 7421, 10738, 13777, 16886, 20014, 23149]}, "edge": {"target": [], "time": []}}, "mouseover": {"state": {"target": ["3", "9", "5", "6", "6", "16", "17", "20", "20", "21", "22"], "time": [3393, 3577, 7125, 7940, 8274, 11189, 11357, 14397, 15451, 17865, 20398]}, "edge": {"target": [], "time": []}}, "mouseout": {"state": {"target": ["23", "3", "9", "5", "6", "6", "16", "17", "20", "20", "20", "21", "22"], "time": [1113, 3460, 7050, 7841, 7974, 11040, 11290, 14268, 14419, 16986, 17333, 20122, 23827]}, "edge": {"target": [], "time": []}}}, "displayed_time": "31.95", "trialTime": 34266, "trial_type": "mouselab-mdp", "trial_index": 29, "time_elapsed": 2446709, "internal_node_id": "0.0-6.0-1.0-14.0"}}, {"uniqueid": "w36990997:a11124115", "current_trial": 30, "dateTime": 1693567254049, "trialdata": {"revealed_states": [], "clicked_states": [], "num_clicks_accrued": [0, 0, 0, 0, 0, 0, 0, 0, 0, 0, 0, 0, 0], "stateRewards": ["", -1, 3, 2, 9, 41, 4, -46, -12, -54, -87, -25, 2, 3, -1, 11, -77, 12, -33, -9, -32, 35, 72, 1, 3, -7, 4, 37, 65, -73, 6, 77, -43, 8], "withholdReward": false, "trial_id": "mdp_trial_16", "block": "test", "trialIndex": 19, "score": -33, "costs": 0, "simulationMode": [null, null, null, null, null], "rewards": [-1, 3, 2, -12, -25], "path": ["0", "0", "1", "2", "3", "8", "11"], "rt": [11028, 1257, 370, 226, 159], "actions": ["up", "up", "up", "left", "left"], "actionTimes": [12972, 14740, 15620, 16357, 17025], "queries": {"click": {"state": {"target": [], "time": []}, "edge": {"target": [], "time": []}}, "mouseover": {"state": {"target": ["1", "11", "9", "8", "10", "10"], "time": [5156, 5904, 6257, 10085, 10135, 12102]}, "edge": {"target": [], "time": []}}, "mouseout": {"state": {"target": ["1", "11", "9", "8", "10", "10", "8", "2", "1", "0"], "time": [5172, 5938, 10051, 10119, 10203, 12167, 18695, 19011, 19061, 19161]}, "edge": {"target": [], "time": []}}}, "displayed_time": "17.54", "trialTime": 20478, "trial_type": "mouselab-mdp", "trial_index": 30, "time_elapsed": 2467364, "internal_node_id": "0.0-6.0-1.0-15.0"}}, {"uniqueid": "w36990997:a11124115", "current_trial": 31, "dateTime": 1693567287499, "trialdata": {"revealed_states": [], "clicked_states": ["33", "29", "27", "28", "18"], "num_clicks_accrued": [0, 0, 0, 0, 0, 0, 0, 0, 0, 0, 0, 0, 0], "stateRewards": ["", 2, 4, 7, 7, -79, -2, -21, -5, -53, 47, -21, 1, -3, -1, 7, 83, 7, 84, -7, 80, -37, 69, 2, -4, 5, 2, 4, -20, -30, 7, 71, 44, -81], "withholdReward": false, "trial_id": "mdp_trial_17", "block": "test", "trialIndex": 20, "score": 77.25, "costs": -10.75, "simulationMode": [null, null, null, null, null], "rewards": [1, -3, -1, 7, 84], "path": ["0", "0", "12", "13", "14", "15", "18"], "rt": [22387, 795, 166, 708, 870], "actions": ["right", "right", "right", "up", "left"], "actionTimes": [25456, 26769, 27453, 28680, 30058], "queries": {"click": {"state": {"target": ["33", "29", "27", "28", "18"], "time": [5839, 9992, 14005, 17545, 21394]}, "edge": {"target": [], "time": []}}, "mouseover": {"state": {"target": ["1", "32", "30", "33", "32", "12", "23", "24", "26", "29", "27", "28", "28", "1", "18", "15", "18"], "time": [3539, 5321, 5472, 5653, 6805, 7471, 9234, 9284, 9484, 9618, 13814, 15712, 16562, 20858, 20908, 20958, 21257]}, "edge": {"target": [], "time": []}}, "mouseout": {"state": {"target": ["1", "32", "30", "33", "32", "12", "23", "24", "26", "29", "27", "28", "28", "1", "18", "15", "18", "13"], "time": [3739, 5421, 5570, 6470, 7286, 7490, 9251, 9369, 9517, 10350, 15662, 15729, 20808, 20875, 20942, 21208, 32499, 32567]}, "edge": {"target": [], "time": []}}}, "displayed_time": "30.57", "trialTime": 33276, "trial_type": "mouselab-mdp", "trial_index": 31, "time_elapsed": 2500813, "internal_node_id": "0.0-6.0-1.0-16.0"}}, {"uniqueid": "w36990997:a11124115", "current_trial": 32, "dateTime": 1693567305398, "trialdata": {"revealed_states": [], "clicked_states": [], "num_clicks_accrued": [0, 0, 0, 0, 0, 0, 0, 0, 0, 0, 0, 0, 0], "stateRewards": ["", 1, -2, -2, 10, -31, -77, 35, 9, -47, 8, 48, -2, 1, -4, -3, -26, -50, 43, -11, 76, -38, 17, 1, -1, 6, 10, 15, -9, 12, -8, 85, 11, -55], "withholdReward": false, "trial_id": "mdp_trial_18", "block": "test", "trialIndex": 21, "score": -70, "costs": 0, "simulationMode": [null, null, null, null, null], "rewards": [1, -2, -2, 10, -77], "path": ["0", "0", "1", "2", "3", "4", "6"], "rt": [4666, 287, 108, 504, 349], "actions": ["up", "up", "up", "right", "right"], "actionTimes": [7013, 7836, 8458, 9473, 10340], "queries": {"click": {"state": {"target": [], "time": []}, "edge": {"target": [], "time": []}}, "mouseover": {"state": {"target": [], "time": []}, "edge": {"target": [], "time": []}}, "mouseout": {"state": {"target": ["0"], "time": [3068]}, "edge": {"target": [], "time": []}}}, "displayed_time": "16.35", "trialTime": 17748, "trial_type": "mouselab-mdp", "trial_index": 32, "time_elapsed": 2518712, "internal_node_id": "0.0-6.0-1.0-17.0"}}, {"uniqueid": "w36990997:a11124115", "current_trial": 33, "dateTime": 1693567322226, "trialdata": {"revealed_states": [], "clicked_states": [], "num_clicks_accrued": [0, 0, 0, 0, 0, 0, 0, 0, 0, 0, 0, 0, 0], "stateRewards": ["", -2, -1, -3, -1, -78, -6, 2, -1, 22, -88, 32, 2, 2, -7, -8, -51, -17, 54, 2, -44, 54, 75, 2, -2, -8, -15, -29, 12, -67, 15, -1, -47, -47], "withholdReward": false, "trial_id": "mdp_trial_19", "block": "test", "trialIndex": 22, "score": -28, "costs": 0, "simulationMode": [null, null, null, null, null], "rewards": [2, 2, -7, -8, -17], "path": ["0", "0", "12", "13", "14", "15", "17"], "rt": [1878, 27, 433, 583, 126], "actions": ["right", "right", "right", "up", "right"], "actionTimes": [2831, 3365, 4319, 5418, 6060], "queries": {"click": {"state": {"target": [], "time": []}, "edge": {"target": [], "time": []}}, "mouseover": {"state": {"target": ["12", "15", "17", "13", "12", "13", "14"], "time": [1336, 1403, 1670, 2003, 2202, 2337, 2385]}, "edge": {"target": [], "time": []}}, "mouseout": {"state": {"target": ["0", "12", "15", "17", "13", "12", "13", "14"], "time": [691, 1371, 1420, 1888, 2036, 2288, 2352, 2435]}, "edge": {"target": [], "time": []}}}, "displayed_time": "14.95", "trialTime": 16643, "trial_type": "mouselab-mdp", "trial_index": 33, "time_elapsed": 2535541, "internal_node_id": "0.0-6.0-1.0-18.0"}}, {"uniqueid": "w36990997:a11124115", "current_trial": 34, "dateTime": 1693567339411, "trialdata": {"revealed_states": [], "clicked_states": ["33"], "num_clicks_accrued": [0, 0, 0, 0, 0, 0, 0, 0, 0, 0, 0, 0, 0], "stateRewards": ["", 1, 4, 7, -16, -84, -6, -46, -12, -7, -49, -26, -1, 2, -4, 2, 22, 37, -64, 1, 88, -13, -10, 1, -4, -2, 5, 2, -10, -34, 9, 66, 55, 38], "withholdReward": false, "trial_id": "mdp_trial_20", "block": "test", "trialIndex": 23, "score": 39.85, "costs": -2.15, "simulationMode": [null, null, null, null, null], "rewards": [1, -4, -2, 9, 38], "path": ["0", "0", "23", "24", "25", "30", "33"], "rt": [6370, 1374, 289, 669, 1098], "actions": ["left", "left", "left", "down", "left"], "actionTimes": [7261, 9144, 9947, 11142, 12748], "queries": {"click": {"state": {"target": ["33"], "time": [2631]}, "edge": {"target": [], "time": []}}, "mouseover": {"state": {"target": ["32", "33"], "time": [2022, 2423]}, "edge": {"target": [], "time": []}}, "mouseout": {"state": {"target": ["12", "0", "32", "33"], "time": [540, 1390, 2122, 16339]}, "edge": {"target": [], "time": []}}}, "displayed_time": "14.89", "trialTime": 17012, "trial_type": "mouselab-mdp", "trial_index": 34, "time_elapsed": 2552726, "internal_node_id": "0.0-6.0-1.0-19.0"}}, {"uniqueid": "w36990997:a11124115", "current_trial": 35, "dateTime": 1693567360817, "trialdata": {"revealed_states": [], "clicked_states": [], "num_clicks_accrued": [0, 0, 0, 0, 0, 0, 0, 0, 0, 0, 0, 0, 0], "stateRewards": ["", 2, -4, 4, 9, 69, 9, -75, 12, -86, 66, 25, -1, 3, 2, -13, -88, -3, 1, 4, -69, 49, -84, 2, -1, 4, 2, -18, -81, -52, -15, -69, -54, 25], "withholdReward": false, "trial_id": "mdp_trial_21", "block": "test", "trialIndex": 24, "score": -45, "costs": 0, "simulationMode": [null, null, null, null, null], "rewards": [2, -1, 4, 2, -52], "path": ["0", "0", "23", "24", "25", "26", "29"], "rt": [7539, 383, 118, 508, 142], "actions": ["left", "left", "left", "up", "left"], "actionTimes": [10469, 11370, 12006, 13026, 13677], "queries": {"click": {"state": {"target": [], "time": []}, "edge": {"target": [], "time": []}}, "mouseover": {"state": {"target": ["28", "27", "30"], "time": [5890, 6323, 9952]}, "edge": {"target": [], "time": []}}, "mouseout": {"state": {"target": ["28", "27", "30", "30", "31"], "time": [5906, 9886, 10569, 18562, 18813]}, "edge": {"target": [], "time": []}}}, "displayed_time": "16.93", "trialTime": 21236, "trial_type": "mouselab-mdp", "trial_index": 35, "time_elapsed": 2574132, "internal_node_id": "0.0-6.0-1.0-20.0"}}, {"uniqueid": "w36990997:a11124115", "current_trial": 36, "dateTime": 1693567384153, "trialdata": {"revealed_states": [], "clicked_states": [], "num_clicks_accrued": [0, 0, 0, 0, 0, 0, 0, 0, 0, 0, 0, 0, 0], "stateRewards": ["", -2, -1, -2, -15, 87, 57, 29, -10, 77, -80, -7, 1, -3, 6, 14, -11, 87, -59, 4, -71, 16, -11, 2, 2, -7, 2, -47, 61, 50, 14, -20, 17, 81], "withholdReward": false, "trial_id": "mdp_trial_22", "block": "test", "trialIndex": 25, "score": 9, "costs": 0, "simulationMode": [null, null, null, null, null], "rewards": [-2, -1, -2, -15, 29], "path": ["0", "0", "1", "2", "3", "4", "7"], "rt": [8600, 73, 258, 101, 442], "actions": ["up", "up", "up", "right", "down"], "actionTimes": [15296, 15888, 16656, 17267, 18222], "queries": {"click": {"state": {"target": [], "time": []}, "edge": {"target": [], "time": []}}, "mouseover": {"state": {"target": ["12", "12"], "time": [14082, 14682]}, "edge": {"target": [], "time": []}}, "mouseout": {"state": {"target": ["12", "13", "22", "14", "0", "12", "12"], "time": [942, 1026, 1134, 5740, 6504, 14173, 14732]}, "edge": {"target": [], "time": []}}}, "displayed_time": "20.70", "trialTime": 23156, "trial_type": "mouselab-mdp", "trial_index": 36, "time_elapsed": 2597467, "internal_node_id": "0.0-6.0-1.0-21.0"}}, {"uniqueid": "w36990997:a11124115", "current_trial": 37, "dateTime": 1693567420748, "trialdata": {"revealed_states": [], "clicked_states": [], "num_clicks_accrued": [0, 0, 0, 0, 0, 0, 0, 0, 0, 0, 0, 0, 0], "stateRewards": ["", 2, -1, -4, -13, 74, 77, 3, 2, -43, -2, -11, 2, 3, 7, 11, -26, -29, -33, -3, -3, -13, -3, 1, 3, -7, 14, -59, 33, 9, -5, 34, 79, 68], "withholdReward": false, "trial_id": "mdp_trial_23", "block": "test", "trialIndex": 26, "score": -4, "costs": 0, "simulationMode": [null, null, null, null, null], "rewards": [2, 3, 7, -3, -13], "path": ["0", "0", "12", "13", "14", "19", "21"], "rt": [22101, 406, 401, 289, 542], "actions": ["right", "right", "right", "down", "down"], "actionTimes": [30159, 31083, 31994, 32797, 33850], "queries": {"click": {"state": {"target": [], "time": []}, "edge": {"target": [], "time": []}}, "mouseover": {"state": {"target": ["11", "10", "1", "1"], "time": [15322, 28361, 28743, 29776]}, "edge": {"target": [], "time": []}}, "mouseout": {"state": {"target": ["7", "11", "10", "1"], "time": [7427, 15338, 28477, 28760]}, "edge": {"target": [], "time": []}}}, "displayed_time": "34.36", "trialTime": 36376, "trial_type": "mouselab-mdp", "trial_index": 37, "time_elapsed": 2634063, "internal_node_id": "0.0-6.0-1.0-22.0"}}, {"uniqueid": "w36990997:a11124115", "current_trial": 38, "dateTime": 1693567451114, "trialdata": {"revealed_states": [], "clicked_states": ["33", "32", "31", "17", "16"], "num_clicks_accrued": [0, 0, 0, 0, 0, 0, 0, 0, 0, 0, 0, 0, 0], "stateRewards": ["", -2, 2, -5, -6, 10, -66, -58, -10, -11, -63, -70, -1, -4, -5, 7, 66, -64, -43, -3, 45, -37, 4, -2, -2, -6, -4, -30, 33, 43, 15, -32, -65, -59], "withholdReward": false, "trial_id": "mdp_trial_24", "block": "test", "trialIndex": 27, "score": 52.25, "costs": -10.75, "simulationMode": [null, null, null, null, null], "rewards": [-1, -4, -5, 7, 66], "path": ["0", "0", "12", "13", "14", "15", "16"], "rt": [21855, 436, 257, 830, 218], "actions": ["right", "right", "right", "up", "up"], "actionTimes": [23113, 24057, 24824, 26166, 26900], "queries": {"click": {"state": {"target": ["33", "32", "31", "17", "16"], "time": [3072, 6334, 9866, 14393, 18505]}, "edge": {"target": [], "time": []}}, "mouseover": {"state": {"target": ["0", "33", "32", "31", "13", "14", "14", "17", "16"], "time": [1818, 2716, 5348, 9627, 13492, 13509, 13796, 14256, 18287]}, "edge": {"target": [], "time": []}}, "mouseout": {"state": {"target": ["1", "1", "0", "0", "33", "32", "31", "13", "14", "14", "17", "16", "6", "7"], "time": [484, 836, 1084, 1884, 5031, 8728, 13407, 13507, 13542, 14107, 14502, 22686, 28812, 29027]}, "edge": {"target": [], "time": []}}}, "displayed_time": "27.43", "trialTime": 30108, "trial_type": "mouselab-mdp", "trial_index": 38, "time_elapsed": 2664429, "internal_node_id": "0.0-6.0-1.0-23.0"}}, {"uniqueid": "w36990997:a11124115", "current_trial": 39, "dateTime": 1693567474328, "trialdata": {"revealed_states": [], "clicked_states": ["9", "6", "7"], "num_clicks_accrued": [0, 0, 0, 0, 0, 0, 0, 0, 0, 0, 0, 0, 0], "stateRewards": ["", 2, 3, 8, 14, 69, -27, 17, 2, -71, -65, -10, 2, -3, 7, 8, 65, -10, 65, -12, 73, -12, 13, -2, -2, 6, 10, -79, -69, -18, 10, -85, 67, 74], "withholdReward": false, "trial_id": "mdp_trial_25", "block": "test", "trialIndex": 28, "score": 37.55, "costs": -6.449999999999999, "simulationMode": [null, null, null, null, null], "rewards": [2, 3, 8, 14, 17], "path": ["0", "0", "1", "2", "3", "4", "7"], "rt": [13790, 448, 173, 125, 330], "actions": ["up", "up", "up", "right", "down"], "actionTimes": [16379, 17340, 18030, 18665, 19505], "queries": {"click": {"state": {"target": ["9", "6", "7"], "time": [3593, 7753, 12311]}, "edge": {"target": [], "time": []}}, "mouseover": {"state": {"target": ["1", "2", "3", "9", "7", "6", "6", "7", "7"], "time": [2968, 3051, 3118, 3367, 6914, 7167, 7648, 11677, 11960]}, "edge": {"target": [], "time": []}}, "mouseout": {"state": {"target": ["4", "7", "1", "1", "2", "3", "9", "9", "7", "6", "6", "7", "7", "4", "7"], "time": [1801, 1835, 2086, 3035, 3085, 3151, 3721, 3886, 6950, 7283, 11579, 11710, 17191, 21219, 21286]}, "edge": {"target": [], "time": []}}}, "displayed_time": "20.02", "trialTime": 22997, "trial_type": "mouselab-mdp", "trial_index": 39, "time_elapsed": 2687643, "internal_node_id": "0.0-6.0-1.0-24.0"}}, {"uniqueid": "w36990997:a11124115", "current_trial": 40, "dateTime": 1693567497279, "trialdata": {"revealed_states": [], "clicked_states": [], "num_clicks_accrued": [0, 0, 0, 0, 0, 0, 0, 0, 0, 0, 0, 0, 0], "stateRewards": ["", 1, 2, -3, -5, 66, -50, -47, -5, 1, 28, -27, 1, 1, -1, -6, 37, -25, 56, 1, -82, -66, -40, -1, -4, -7, 15, -61, -23, 26, 10, 14, -56, 29], "withholdReward": false, "trial_id": "mdp_trial_26", "block": "test", "trialIndex": 29, "score": -20, "costs": 0, "simulationMode": [null, null, null, null, null], "rewards": [-1, -4, -7, 15, -23], "path": ["0", "0", "23", "24", "25", "26", "28"], "rt": [5634, 335, 144, 415, 105], "actions": ["left", "left", "left", "up", "right"], "actionTimes": [11088, 11934, 12593, 13515, 14136], "queries": {"click": {"state": {"target": [], "time": []}, "edge": {"target": [], "time": []}}, "mouseover": {"state": {"target": ["1", "1", "23", "24", "28"], "time": [5871, 7434, 7602, 7734, 8084]}, "edge": {"target": [], "time": []}}, "mouseout": {"state": {"target": ["10", "2", "1", "1", "1", "23", "24", "28", "0"], "time": [1289, 1322, 4920, 6119, 7534, 7634, 7751, 15679, 21424]}, "edge": {"target": [], "time": []}}}, "displayed_time": "19.46", "trialTime": 22754, "trial_type": "mouselab-mdp", "trial_index": 40, "time_elapsed": 2710593, "internal_node_id": "0.0-6.0-1.0-25.0"}}, {"uniqueid": "w36990997:a11124115", "current_trial": 41, "dateTime": 1693567515942, "trialdata": {"revealed_states": [], "clicked_states": ["6"], "num_clicks_accrued": [0, 0, 0, 0, 0, 0, 0, 0, 0, 0, 0, 0, 0], "stateRewards": ["", -2, -1, -6, -14, -55, 78, -13, 11, 14, -71, 59, 2, 2, 6, -6, 9, 38, 14, 7, 85, 11, 68, 1, -4, -1, -3, -63, -85, 9, -2, 63, -86, -10], "withholdReward": false, "trial_id": "mdp_trial_27", "block": "test", "trialIndex": 30, "score": 52.85, "costs": -2.15, "simulationMode": [null, null, null, null, null], "rewards": [-2, -1, -6, -14, 78], "path": ["0", "0", "1", "2", "3", "4", "6"], "rt": [7000, 16, 116, 182, 104], "actions": ["up", "up", "up", "right", "right"], "actionTimes": [8847, 9382, 10015, 10716, 11336], "queries": {"click": {"state": {"target": ["6"], "time": [3987]}, "edge": {"target": [], "time": []}}, "mouseover": {"state": {"target": ["1", "10", "8", "3", "7", "4", "6", "15", "16", "16", "16", "18"], "time": [2039, 2105, 2122, 2488, 3488, 3603, 3887, 6719, 6883, 7135, 8167, 8266]}, "edge": {"target": [], "time": []}}, "mouseout": {"state": {"target": ["1", "10", "8", "3", "7", "4", "6", "15", "16", "16", "16"], "time": [2055, 2121, 2138, 2505, 3537, 3620, 4622, 6755, 6901, 8116, 8217]}, "edge": {"target": [], "time": []}}}, "displayed_time": "15.85", "trialTime": 18452, "trial_type": "mouselab-mdp", "trial_index": 41, "time_elapsed": 2729256, "internal_node_id": "0.0-6.0-1.0-26.0"}}, {"uniqueid": "w36990997:a11124115", "current_trial": 42, "dateTime": 1693567536490, "trialdata": {"revealed_states": [], "clicked_states": [], "num_clicks_accrued": [0, 0, 0, 0, 0, 0, 0, 0, 0, 0, 0, 0, 0], "stateRewards": ["", 1, -2, 4, 7, -43, -83, -60, -5, -86, -80, 83, -1, -2, 6, 11, -15, 21, 13, 9, 29, -49, 11, -1, 4, -6, -11, 87, 40, 63, -8, -39, -11, 62], "withholdReward": false, "trial_id": "mdp_trial_28", "block": "test", "trialIndex": 31, "score": 35, "costs": 0, "simulationMode": [null, null, null, null, null], "rewards": [-1, -2, 6, 11, 21], "path": ["0", "0", "12", "13", "14", "15", "17"], "rt": [7154, 628, 403, 534, 181], "actions": ["right", "right", "right", "up", "right"], "actionTimes": [12452, 13588, 14510, 15557, 16254], "queries": {"click": {"state": {"target": [], "time": []}, "edge": {"target": [], "time": []}}, "mouseover": {"state": {"target": ["1", "1"], "time": [6008, 11543]}, "edge": {"target": [], "time": []}}, "mouseout": {"state": {"target": ["4", "1", "1", "1", "23"], "time": [4646, 4881, 10891, 11642, 18453]}, "edge": {"target": [], "time": []}}}, "displayed_time": "19.30", "trialTime": 20311, "trial_type": "mouselab-mdp", "trial_index": 42, "time_elapsed": 2749805, "internal_node_id": "0.0-6.0-1.0-27.0"}}, {"uniqueid": "w36990997:a11124115", "current_trial": 43, "dateTime": 1693567555661, "trialdata": {"revealed_states": [], "clicked_states": [], "num_clicks_accrued": [0, 0, 0, 0, 0, 0, 0, 0, 0, 0, 0, 0, 0], "stateRewards": ["", 2, -4, 1, -12, -59, -53, -74, 16, -88, -66, 66, 1, -2, 8, -9, -14, 22, 25, -1, -39, 47, -14, -1, -1, -2, 1, -4, 52, -26, 15, -7, 46, 43], "withholdReward": false, "trial_id": "mdp_trial_29", "block": "test", "trialIndex": 32, "score": -33, "costs": 0, "simulationMode": [null, null, null, null, null], "rewards": [1, -2, 8, -1, -39], "path": ["0", "0", "12", "13", "14", "19", "20"], "rt": [5289, 210, 189, 668, 125], "actions": ["right", "right", "right", "down", "right"], "actionTimes": [8382, 9103, 9799, 10977, 11613], "queries": {"click": {"state": {"target": [], "time": []}, "edge": {"target": [], "time": []}}, "mouseover": {"state": {"target": ["0", "14", "13"], "time": [6642, 6925, 7941]}, "edge": {"target": [], "time": []}}, "mouseout": {"state": {"target": ["1", "0", "0", "0", "14", "13", "13", "15", "19", "22"], "time": [2211, 2579, 6442, 6658, 7907, 7957, 13353, 13536, 14436, 14702]}, "edge": {"target": [], "time": []}}}, "displayed_time": "17.09", "trialTime": 18928, "trial_type": "mouselab-mdp", "trial_index": 43, "time_elapsed": 2768976, "internal_node_id": "0.0-6.0-1.0-28.0"}}, {"uniqueid": "w36990997:a11124115", "current_trial": 44, "dateTime": 1693567582133, "trialdata": {"revealed_states": [], "clicked_states": ["32", "31", "33"], "num_clicks_accrued": [0, 0, 0, 0, 0, 0, 0, 0, 0, 0, 0, 0, 0], "stateRewards": ["", -2, 3, -5, -7, 66, 43, -60, -4, -70, -75, 4, -1, 2, 2, -13, 54, 11, -40, -1, 77, 32, 15, -2, 3, -8, -9, -35, 83, -27, 6, -74, -34, 44], "withholdReward": false, "trial_id": "mdp_trial_30", "block": "test", "trialIndex": 33, "score": 36.55, "costs": -6.449999999999999, "simulationMode": [null, null, null, null, null], "rewards": [-2, 3, -8, 6, 44], "path": ["0", "0", "23", "24", "25", "30", "33"], "rt": [15459, 4, 94, 527, 182], "actions": ["left", "left", "left", "down", "left"], "actionTimes": [20147, 20668, 21291, 22325, 23012], "queries": {"click": {"state": {"target": ["32", "31", "33"], "time": [7687, 11040, 15428]}, "edge": {"target": [], "time": []}}, "mouseover": {"state": {"target": ["31", "30", "32", "31", "25", "33"], "time": [6840, 7089, 7489, 8541, 15034, 15233]}, "edge": {"target": [], "time": []}}, "mouseout": {"state": {"target": ["18", "12", "0", "31", "30", "32", "31", "25", "33"], "time": [2227, 4192, 6024, 6857, 7423, 8374, 12553, 15051, 15919]}, "edge": {"target": [], "time": []}}}, "displayed_time": "23.53", "trialTime": 26248, "trial_type": "mouselab-mdp", "trial_index": 44, "time_elapsed": 2795448, "internal_node_id": "0.0-6.0-1.0-29.0"}}, {"uniqueid": "w36990997:a11124115", "current_trial": 45, "dateTime": 1693567609343, "trialdata": {"revealed_states": [], "clicked_states": ["6", "5", "9"], "num_clicks_accrued": [0, 0, 0, 0, 0, 0, 0, 0, 0, 0, 0, 0, 0], "stateRewards": ["", 2, -1, -3, 16, -3, -16, -62, -1, 13, -26, 43, -1, 4, 3, -9, -54, -37, -3, -12, -71, -68, -57, 1, -3, 2, -9, 2, -2, -9, -11, 84, -52, 55], "withholdReward": false, "trial_id": "mdp_trial_31", "block": "test", "trialIndex": 34, "score": 3.5500000000000007, "costs": -6.449999999999999, "simulationMode": [null, null, null, null, null], "rewards": [2, -1, -3, -1, 13], "path": ["0", "0", "1", "2", "3", "8", "9"], "rt": [13982, 373, 396, 443, 473], "actions": ["up", "up", "up", "left", "up"], "actionTimes": [16050, 16932, 17837, 18800, 19792], "queries": {"click": {"state": {"target": ["6", "5", "9"], "time": [4078, 7980, 11847]}, "edge": {"target": [], "time": []}}, "mouseover": {"state": {"target": ["1", "2", "4", "6", "6", "5", "4", "3", "9", "9", "8"], "time": [3149, 3215, 3548, 3582, 3865, 7795, 11175, 11325, 11408, 11709, 15322]}, "edge": {"target": [], "time": []}}, "mouseout": {"state": {"target": ["29", "25", "24", "12", "1", "2", "4", "6", "6", "5", "5", "4", "3", "9", "9", "8", "1", "0"], "time": [1150, 1167, 1183, 1434, 3182, 3282, 3565, 3632, 5813, 8912, 11059, 11292, 11358, 11425, 15305, 23284, 26246, 26347]}, "edge": {"target": [], "time": []}}}, "displayed_time": "20.30", "trialTime": 26985, "trial_type": "mouselab-mdp", "trial_index": 45, "time_elapsed": 2822657, "internal_node_id": "0.0-6.0-1.0-30.0"}}, {"uniqueid": "w36990997:a11124115", "current_trial": 46, "dateTime": 1693567629428, "trialdata": {"revealed_states": [], "clicked_states": [], "num_clicks_accrued": [0, 0, 0, 0, 0, 0, 0, 0, 0, 0, 0, 0, 0], "stateRewards": ["", 2, 4, 7, -6, -76, -81, 2, 5, -66, -3, 36, -2, -4, 6, -2, -69, 4, -49, -6, 67, 38, -67, 2, 1, 1, 6, -68, -21, 52, -16, -16, 6, -70], "withholdReward": false, "trial_id": "mdp_trial_32", "block": "test", "trialIndex": 35, "score": -11, "costs": 0, "simulationMode": [null, null, null, null, null], "rewards": [2, 1, 1, 6, -21], "path": ["0", "0", "23", "24", "25", "26", "28"], "rt": [2500, 189, 160, 321, 140], "actions": ["left", "left", "left", "up", "right"], "actionTimes": [3776, 4483, 5160, 5990, 6641], "queries": {"click": {"state": {"target": [], "time": []}, "edge": {"target": [], "time": []}}, "mouseover": {"state": {"target": [], "time": []}, "edge": {"target": [], "time": []}}, "mouseout": {"state": {"target": ["2", "1"], "time": [819, 885]}, "edge": {"target": [], "time": []}}}, "displayed_time": "15.28", "trialTime": 19877, "trial_type": "mouselab-mdp", "trial_index": 46, "time_elapsed": 2842743, "internal_node_id": "0.0-6.0-1.0-31.0"}}, {"uniqueid": "w36990997:a11124115", "current_trial": 47, "dateTime": 1693567646806, "trialdata": {"revealed_states": [], "clicked_states": ["17"], "num_clicks_accrued": [0, 0, 0, 0, 0, 0, 0, 0, 0, 0, 0, 0, 0], "stateRewards": ["", 2, -3, 5, -14, -63, -9, -24, -11, -54, -43, 68, 2, -2, -4, 7, -64, 30, 47, 12, -74, 11, 86, 1, -3, 3, 10, -71, -42, -52, -1, -29, -16, 69], "withholdReward": false, "trial_id": "mdp_trial_33", "block": "test", "trialIndex": 36, "score": 30.85, "costs": -2.15, "simulationMode": [null, null, null, null, null], "rewards": [2, -2, -4, 7, 30], "path": ["0", "0", "12", "13", "14", "15", "17"], "rt": [6568, 362, 267, 801, 97], "actions": ["right", "right", "right", "up", "right"], "actionTimes": [8442, 9317, 10120, 11444, 12051], "queries": {"click": {"state": {"target": ["17"], "time": [4374]}, "edge": {"target": [], "time": []}}, "mouseover": {"state": {"target": ["0", "12", "13", "14", "17", "20", "19"], "time": [1882, 3375, 3508, 3690, 4141, 8004, 8087]}, "edge": {"target": [], "time": []}}, "mouseout": {"state": {"target": ["1", "0", "0", "0", "12", "13", "14", "17", "20"], "time": [777, 859, 1725, 3191, 3459, 3574, 4090, 5125, 8038]}, "edge": {"target": [], "time": []}}}, "displayed_time": "15.88", "trialTime": 17163, "trial_type": "mouselab-mdp", "trial_index": 47, "time_elapsed": 2860120, "internal_node_id": "0.0-6.0-1.0-32.0"}}, {"uniqueid": "w36990997:a11124115", "current_trial": 48, "dateTime": 1693567671085, "trialdata": {"revealed_states": [], "clicked_states": ["32", "31", "22"], "num_clicks_accrued": [0, 0, 0, 0, 0, 0, 0, 0, 0, 0, 0, 0, 0], "stateRewards": ["", -1, -2, 4, 9, 10, -75, 39, 16, -43, 88, -19, -1, 1, 2, 4, -31, 10, 73, 12, 41, -64, -81, -2, 2, -6, 1, -81, -1, -26, 3, -59, -3, -20], "withholdReward": false, "trial_id": "mdp_trial_34", "block": "test", "trialIndex": 37, "score": -56.45, "costs": -6.449999999999999, "simulationMode": [null, null, null, null, null], "rewards": [-1, 1, 2, 12, -64], "path": ["0", "0", "12", "13", "14", "19", "21"], "rt": [14944, 163, 217, 522, 899], "actions": ["right", "right", "right", "down", "down"], "actionTimes": [16614, 17293, 18026, 19064, 20473], "queries": {"click": {"state": {"target": ["32", "31", "22"], "time": [3225, 7255, 12463]}, "edge": {"target": [], "time": []}}, "mouseover": {"state": {"target": ["32", "31", "22"], "time": [2903, 7018, 12312]}, "edge": {"target": [], "time": []}}, "mouseout": {"state": {"target": ["12", "0", "32", "31", "31", "22"], "time": [839, 1353, 6833, 11613, 11729, 16060]}, "edge": {"target": [], "time": []}}}, "displayed_time": "20.99", "trialTime": 24068, "trial_type": "mouselab-mdp", "trial_index": 48, "time_elapsed": 2884399, "internal_node_id": "0.0-6.0-1.0-33.0"}}, {"uniqueid": "w36990997:a11124115", "current_trial": 49, "dateTime": 1693567691687, "trialdata": {"revealed_states": [], "clicked_states": ["6", "7"], "num_clicks_accrued": [0, 0, 0, 0, 0, 0, 0, 0, 0, 0, 0, 0, 0], "stateRewards": ["", -2, -3, 7, -13, 60, 9, 37, -6, 37, 20, 1, 2, -2, -8, 6, -80, -31, -10, -7, 70, -65, -44, -1, 1, 7, 6, -11, 73, -85, 16, -21, 47, 34], "withholdReward": false, "trial_id": "mdp_trial_35", "block": "test", "trialIndex": 38, "score": 21.7, "costs": -4.3, "simulationMode": [null, null, null, null, null], "rewards": [-2, -3, 7, -13, 37], "path": ["0", "0", "1", "2", "3", "4", "7"], "rt": [9507, 809, 200, 412, 158], "actions": ["up", "up", "up", "right", "down"], "actionTimes": [11060, 12386, 13105, 14033, 14698], "queries": {"click": {"state": {"target": ["6", "7"], "time": [3913, 7581]}, "edge": {"target": [], "time": []}}, "mouseover": {"state": {"target": ["1", "7", "6", "7"], "time": [2780, 3346, 3762, 7345]}, "edge": {"target": [], "time": []}}, "mouseout": {"state": {"target": ["1", "7", "6", "7"], "time": [3329, 3412, 7159, 18634]}, "edge": {"target": [], "time": []}}}, "displayed_time": "15.55", "trialTime": 20383, "trial_type": "mouselab-mdp", "trial_index": 49, "time_elapsed": 2905002, "internal_node_id": "0.0-6.0-1.0-34.0"}}, {"uniqueid": "w36990997:a11124115", "current_trial": 50, "dateTime": 1693567715040, "trialdata": {"revealed_states": [], "clicked_states": ["17", "16", "29"], "num_clicks_accrued": [0, 0, 0, 0, 0, 0, 0, 0, 0, 0, 0, 0, 0], "stateRewards": ["", 1, -1, 1, 13, 31, -56, 72, 2, 41, 5, 63, -2, -3, -2, 3, -71, -26, 52, 13, -31, 24, -67, 2, -2, 5, 4, 66, 43, 72, 9, 86, -26, 44], "withholdReward": false, "trial_id": "mdp_trial_36", "block": "test", "trialIndex": 39, "score": 74.55, "costs": -6.449999999999999, "simulationMode": [null, null, null, null, null], "rewards": [2, -2, 5, 4, 72], "path": ["0", "0", "23", "24", "25", "26", "29"], "rt": [14110, 284, 227, 698, 198], "actions": ["left", "left", "left", "up", "left"], "actionTimes": [17387, 18203, 18938, 20144, 20858], "queries": {"click": {"state": {"target": ["17", "16", "29"], "time": [4752, 9135, 13588]}, "edge": {"target": [], "time": []}}, "mouseover": {"state": {"target": ["12", "13", "14", "17", "16", "18", "25", "26", "29", "30"], "time": [4239, 4257, 4289, 4588, 8769, 12648, 13132, 13249, 13431, 16912]}, "edge": {"target": [], "time": []}}, "mouseout": {"state": {"target": ["0", "12", "13", "14", "17", "16", "18", "25", "26", "29", "30"], "time": [4207, 4256, 4272, 4306, 8652, 12549, 12665, 13181, 13265, 16845, 21794]}, "edge": {"target": [], "time": []}}}, "displayed_time": "21.38", "trialTime": 23130, "trial_type": "mouselab-mdp", "trial_index": 50, "time_elapsed": 2928354, "internal_node_id": "0.0-6.0-1.0-35.0"}}, {"uniqueid": "w36990997:a11124115", "current_trial": 51, "dateTime": 1693567733808, "trialdata": {"revealed_states": [], "clicked_states": ["29"], "num_clicks_accrued": [0, 0, 0, 0, 0, 0, 0, 0, 0, 0, 0, 0, 0], "stateRewards": ["", 1, -4, -6, 11, -20, 8, -30, 1, -38, 88, 42, 2, 3, 5, -12, -8, -74, 30, -8, 67, -19, 42, 2, -1, 4, 13, 50, -68, 2, -8, -15, 87, -46], "withholdReward": false, "trial_id": "mdp_trial_37", "block": "test", "trialIndex": 40, "score": 77.85, "costs": -2.15, "simulationMode": [null, null, null, null, null], "rewards": [1, -4, -6, 1, 88], "path": ["0", "0", "1", "2", "3", "8", "10"], "rt": [9885, 1182, 1083, 530, 49], "actions": ["up", "up", "up", "left", "down"], "actionTimes": [11213, 12905, 14487, 15532, 16100], "queries": {"click": {"state": {"target": ["29"], "time": [2905]}, "edge": {"target": [], "time": []}}, "mouseover": {"state": {"target": ["23", "26", "29", "26", "28", "1", "15", "17", "14"], "time": [2512, 2579, 2710, 3595, 8808, 8924, 9156, 9255, 10704]}, "edge": {"target": [], "time": []}}, "mouseout": {"state": {"target": ["0", "0", "0", "23", "26", "29", "26", "28", "1", "15", "17", "14"], "time": [718, 746, 2011, 2528, 2677, 2988, 3861, 8856, 8956, 9173, 10604, 10755]}, "edge": {"target": [], "time": []}}}, "displayed_time": "16.62", "trialTime": 18538, "trial_type": "mouselab-mdp", "trial_index": 51, "time_elapsed": 2947123, "internal_node_id": "0.0-6.0-1.0-36.0"}}, {"uniqueid": "w36990997:a11124115", "current_trial": 52, "dateTime": 1693567758477, "trialdata": {"revealed_states": [], "clicked_states": ["29", "17", "7"], "num_clicks_accrued": [0, 0, 0, 0, 0, 0, 0, 0, 0, 0, 0, 0, 0], "stateRewards": ["", -2, -2, -3, -6, -15, -11, 41, -12, -63, -76, 2, -2, -3, 8, 9, -36, -2, -18, -16, -32, -85, -17, -2, 1, 5, -16, 82, 35, -88, -1, 80, -82, -20], "withholdReward": false, "trial_id": "mdp_trial_38", "block": "test", "trialIndex": 41, "score": 21.55, "costs": -6.449999999999999, "simulationMode": [null, null, null, null, null], "rewards": [-2, -2, -3, -6, 41], "path": ["0", "0", "1", "2", "3", "4", "7"], "rt": [11967, 414, 160, 139, 259], "actions": ["up", "up", "up", "right", "down"], "actionTimes": [13682, 14612, 15284, 15946, 16716], "queries": {"click": {"state": {"target": ["29", "17", "7"], "time": [3114, 6463, 9518]}, "edge": {"target": [], "time": []}}, "mouseover": {"state": {"target": ["31", "25", "29", "15", "17", "16", "7"], "time": [2549, 2616, 2950, 5782, 5915, 7048, 7815]}, "edge": {"target": [], "time": []}}, "mouseout": {"state": {"target": ["18", "12", "0", "31", "25", "29", "15", "17", "16", "7"], "time": [1000, 1235, 1801, 2567, 2649, 5331, 5848, 6556, 7632, 13125]}, "edge": {"target": [], "time": []}}}, "displayed_time": "17.23", "trialTime": 24427, "trial_type": "mouselab-mdp", "trial_index": 52, "time_elapsed": 2971791, "internal_node_id": "0.0-6.0-1.0-37.0"}}, {"uniqueid": "w36990997:a11124115", "current_trial": 53, "dateTime": 1693567775679, "trialdata": {"revealed_states": [], "clicked_states": ["29"], "num_clicks_accrued": [0, 0, 0, 0, 0, 0, 0, 0, 0, 0, 0, 0, 0], "stateRewards": ["", -1, 1, 6, -6, 70, 66, 67, -16, -75, -35, 37, -1, 4, 4, -6, 47, -9, 63, 15, 21, -63, 13, 1, 3, -6, 10, 79, -29, 18, -15, 9, -67, -19], "withholdReward": false, "trial_id": "mdp_trial_39", "block": "test", "trialIndex": 42, "score": 23.85, "costs": -2.15, "simulationMode": [null, null, null, null, null], "rewards": [1, 3, -6, 10, 18], "path": ["0", "0", "23", "24", "25", "26", "29"], "rt": [7719, 13, 83, 519, 101], "actions": ["left", "left", "left", "up", "left"], "actionTimes": [9051, 9581, 10182, 11218, 11836], "queries": {"click": {"state": {"target": ["29"], "time": [3442]}, "edge": {"target": [], "time": []}}, "mouseover": {"state": {"target": ["1", "25", "29", "26", "25", "30"], "time": [1838, 2936, 3221, 8566, 8633, 8699]}, "edge": {"target": [], "time": []}}, "mouseout": {"state": {"target": ["7", "12", "1", "25", "29", "26", "25", "30", "31"], "time": [641, 821, 2454, 3087, 3537, 8600, 8666, 16245, 16278]}, "edge": {"target": [], "time": []}}}, "displayed_time": "15.33", "trialTime": 16919, "trial_type": "mouselab-mdp", "trial_index": 53, "time_elapsed": 2988993, "internal_node_id": "0.0-6.0-1.0-38.0"}}, {"uniqueid": "w36990997:a11124115", "current_trial": 54, "dateTime": 1693567794696, "trialdata": {"revealed_states": [], "clicked_states": ["17", "20"], "num_clicks_accrued": [0, 0, 0, 0, 0, 0, 0, 0, 0, 0, 0, 0, 0], "stateRewards": ["", -1, 4, -6, -5, -22, -38, -38, -2, -56, 88, 14, -1, -1, -7, -6, 61, -60, 21, 11, 57, 31, -30, -2, -2, 6, -9, -44, -70, -44, -15, 34, 16, -78], "withholdReward": false, "trial_id": "mdp_trial_40", "block": "test", "trialIndex": 43, "score": 54.7, "costs": -4.3, "simulationMode": [null, null, null, null, null], "rewards": [-1, -1, -7, 11, 57], "path": ["0", "0", "12", "13", "14", "19", "20"], "rt": [9544, 446, 188, 382, 148], "actions": ["right", "right", "right", "down", "right"], "actionTimes": [10935, 11896, 12602, 13498, 14160], "queries": {"click": {"state": {"target": ["17", "20"], "time": [3020, 7088]}, "edge": {"target": [], "time": []}}, "mouseover": {"state": {"target": ["17", "20", "20", "21"], "time": [2970, 6651, 6967, 10499]}, "edge": {"target": [], "time": []}}, "mouseout": {"state": {"target": ["1", "17", "17", "20", "20", "21"], "time": [905, 4320, 6585, 6751, 7934, 18125]}, "edge": {"target": [], "time": []}}}, "displayed_time": "15.39", "trialTime": 18734, "trial_type": "mouselab-mdp", "trial_index": 54, "time_elapsed": 3008010, "internal_node_id": "0.0-6.0-1.0-39.0"}}, {"uniqueid": "w36990997:a11124115", "current_trial": 55, "dateTime": 1693567856120, "trialdata": {"rt": 61413, "response": {"Q0": "$-2 to $2", "Q1": "$-16 to $16", "Q2": "$-88 to $88", "Q3": "The cost for clicking on nodes varied between nodes.", "Q4": "Very motivated"}, "question_order": [0, 1, 2, 3, 4], "trial_id": "final_quiz_control", "trial_type": "survey-multi-choice", "trial_index": 55, "time_elapsed": 3069435, "internal_node_id": "0.0-6.0-2.0"}}, {"uniqueid": "w36990997:a11124115", "current_trial": 56, "dateTime": 1693567938281, "trialdata": {"rt": 82150, "response": {"Q0": "my strategy was to view the nodes before every move to get better points", "Q1": "yes i improved", "Q2": "it was a bit difficult because the nodes with points changes"}, "trial_id": "self_report_control", "trial_type": "survey-text", "trial_index": 56, "time_elapsed": 3151596, "internal_node_id": "0.0-6.0-3.0"}}, {"uniqueid": "w36990997:a11124115", "current_trial": 57, "dateTime": 1693567982528, "trialdata": {"rt": 44244, "response": {"Q0": "Agree", "Q1": "Neither disagree nor agree", "Q2": "Agree", "Q3": "Strongly agree", "Q4": "Agree", "Q5": "Disagree", "Q6": "Agree"}, "question_order": [0, 1, 2, 3, 4, 5, 6], "trial_id": "self_report_2", "trial_type": "survey-multi-choice", "trial_index": 57, "time_elapsed": 3195843, "internal_node_id": "0.0-6.0-4.0"}}, {"uniqueid": "w36990997:a11124115", "current_trial": 58, "dateTime": 1693568025075, "trialdata": {"rt": 42535, "response": {"gender": "female", "age": "27", "colorblind": "0", "effort": "1"}, "trial_type": "survey-html-form", "trial_index": 58, "time_elapsed": 3238390, "internal_node_id": "0.0-6.0-5.0"}}, {"uniqueid": "w36990997:a11124115", "current_trial": 59, "dateTime": 1693568049382, "trialdata": {"rt": 24304, "response": {"Q0": "a bit confusing", "Q1": "no", "Q2": ""}, "trial_type": "survey-text", "trial_index": 59, "time_elapsed": 3262697, "internal_node_id": "0.0-6.0-6.0"}}, {"uniqueid": "w36990997:a11124115", "current_trial": 60, "dateTime": 1693568057591, "trialdata": {"rt": 8206, "stimulus": "<h1>Completion Code Instructions (1/2)</h1>\n<br><br><br><br>\nYou have reached the end of the experiment! The completion code consists of two parts: (1) a code with 2 characters (2) a code with 6 characters. On this page, you will receive the second part of the code. The first part of the completion code will be on the next page.\n<br><br>\nThe second part of your completion code is: <b>EWEK22</b>\n<br><br>\nPlease note this down. Then, press 'Finish HIT' in order to find the first part of your completion code. Once the data has been saved, you will receive this code either in this window or in the original browser window where you started the experiment.\n", "response": 0, "trial_type": "html-button-response", "trial_index": 60, "time_elapsed": 3270906, "internal_node_id": "0.0-6.0-7.0"}}, {"uniqueid": "w36990997:a11124115", "current_trial": 61, "dateTime": 1693568058594, "trialdata": {"success": true, "trial_type": "fullscreen", "trial_index": 61, "time_elapsed": 3271909, "internal_node_id": "0.0-7.0"}}], "questiondata": {"params": {"CODE": "C6DMOQA6", "MIN_TIME": 14, "inspectCost": 1, "startTime": "Fri Sep 01 2023 12:39:45 GMT+0200 (South Africa Standard Time)", "bonusRate": 0.002, "variance": "1_2_4_8_44", "branching": "31123"}, "final_score": 618.8}, "eventdata": [{"eventtype": "initialized", "value": null, "timestamp": 1693564784523, "interval": 0}, {"eventtype": "window_resize", "value": [1032, 600], "timestamp": 1693564784523, "interval": 0}, {"eventtype": "window_resize", "value": [1032, 600], "timestamp": 1693564784993, "interval": 470}, {"eventtype": "window_resize", "value": [1280, 720], "timestamp": 1693564808667, "interval": 23674}, {"eventtype": "window_resize", "value": [1032, 600], "timestamp": 1693564812675, "interval": 4008}, {"eventtype": "focus", "value": "off", "timestamp": 1693564844215, "interval": 31540}, {"eventtype": "focus", "value": "on", "timestamp": 1693564859427, "interval": 15212}, {"eventtype": "focus", "value": "off", "timestamp": 1693564980736, "interval": 121309}, {"eventtype": "focus", "value": "on", "timestamp": 1693564981880, "interval": 1144}, {"eventtype": "focus", "value": "off", "timestamp": 1693564982950, "interval": 1070}, {"eventtype": "focus", "value": "on", "timestamp": 1693564987683, "interval": 4733}, {"eventtype": "focus", "value": "off", "timestamp": 1693565012686, "interval": 25003}, {"eventtype": "focus", "value": "on", "timestamp": 1693565107440, "interval": 94754}, {"eventtype": "focus", "value": "off", "timestamp": 1693565110207, "interval": 2767}, {"eventtype": "focus", "value": "on", "timestamp": 1693565123572, "interval": 13365}, {"eventtype": "focus", "value": "off", "timestamp": 1693565318510, "interval": 194938}, {"eventtype": "focus", "value": "on", "timestamp": 1693565793823, "interval": 475313}, {"eventtype": "focus", "value": "off", "timestamp": 1693565879069, "interval": 85246}, {"eventtype": "focus", "value": "on", "timestamp": 1693565891008, "interval": 11939}, {"eventtype": "focus", "value": "off", "timestamp": 1693565962494, "interval": 71486}, {"eventtype": "focus", "value": "on", "timestamp": 1693565970025, "interval": 7531}, {"eventtype": "focus", "value": "off", "timestamp": 1693565979252, "interval": 9227}, {"eventtype": "focus", "value": "on", "timestamp": 1693566502504, "interval": 523252}, {"eventtype": "focus", "value": "off", "timestamp": 1693566564570, "interval": 62066}, {"eventtype": "focus", "value": "on", "timestamp": 1693566564572, "interval": 2}, {"eventtype": "window_resize", "value": [1280, 720], "timestamp": 1693566566312, "interval": 1740}, {"eventtype": "window_resize", "value": [1032, 600], "timestamp": 1693566569137, "interval": 2825}, {"eventtype": "focus", "value": "off", "timestamp": 1693567363138, "interval": 794001}, {"eventtype": "focus", "value": "on", "timestamp": 1693567366468, "interval": 3330}, {"eventtype": "focus", "value": "off", "timestamp": 1693567905546, "interval": 539078}, {"eventtype": "focus", "value": "on", "timestamp": 1693567908865, "interval": 3319}], "useragent": "Mozilla/5.0 (Windows NT 10.0; Win64; x64) AppleWebKit/537.36 (KHTML, like Gecko) Chrome/116.0.0.0 Safari/537.36", "mode": "live", "id": "w36990997:a11124115", "status": "user data saved", "Beginhit": "2023-09-01 10:40:32.885703", "Beginexp": "2023-09-01 10:41:01.657002", "Endhit": "2023-09-01 11:35:12.049111", "psiturkStatus": 3, "browser": "<redacted>", "platform": "windows", "language": "en-US"}