{"condition": 1, "counterbalance": 0, "assignmentId": "a43011510", "workerId": "w39104261", "hitId": "h44890388", "currenttrial": 9, "bonus": 0, "data": [{"uniqueid": "w39104261:a43011510", "current_trial": 0, "dateTime": 1693834573358, "trialdata": {"success": true, "trial_type": "fullscreen", "trial_index": 0, "time_elapsed": 9485, "internal_node_id": "0.0-0.0"}}, {"uniqueid": "w39104261:a43011510", "current_trial": 1, "dateTime": 1693834593539, "trialdata": {"view_history": [{"page_index": 0, "viewing_time": 20175}], "rt": 20176, "trial_id": "exp_instructions_misaligned", "trial_type": "instructions", "trial_index": 1, "time_elapsed": 29666, "internal_node_id": "0.0-1.0"}}, {"uniqueid": "w39104261:a43011510", "current_trial": 2, "dateTime": 1693834912663, "trialdata": {"view_history": [{"page_index": 0, "viewing_time": 105711}, {"page_index": 1, "viewing_time": 164126}, {"page_index": 2, "viewing_time": 20496}, {"page_index": 3, "viewing_time": 28984}], "rt": 319317, "trial_id": "mouselab_instructions_1_misaligned", "trial_type": "instructions", "trial_index": 2, "time_elapsed": 348789, "internal_node_id": "0.0-2.0-1.0"}}, {"uniqueid": "w39104261:a43011510", "current_trial": 3, "dateTime": 1693834930966, "trialdata": {"revealed_states": [], "clicked_states": ["12", "13", "14"], "num_clicks_accrued": [0, 0, 0, 0, 0, 0, 0, 0, 0, 0, 0, 0, 0], "stateRewards": ["", 10, -10, -10, -10, -10, 10, -10, -10, -10, -10, 10, -10, 10, -10, 10, 10, 10, 10, 10, 10, 10, 10, -10, 10, 10, 10, 10, 10, 10, 10, 10, 10, -10], "withholdReward": false, "trial_id": "practice_1", "block": "test", "trialIndex": 0, "score": 12, "costs": -1.5, "simulationMode": [null, null, null, null, null, null], "rewards": [-10, 10, -10, 10, 10], "path": ["0", "0", "12", "13", "14", "19", "21"], "rt": [5945, 89, 320, 200, 0, 139], "actions": ["right", "right", "right", "right", "down", "down"], "actionTimes": [8640, 8760, 9625, 10368, 10941, 11627], "queries": {"click": {"state": {"target": ["12", "13", "14"], "time": [4371, 6443, 7621]}, "edge": {"target": [], "time": []}}, "mouseover": {"state": {"target": ["12", "13", "14", "14"], "time": [4071, 4960, 6754, 7476]}, "edge": {"target": [], "time": []}}, "mouseout": {"state": {"target": ["0", "12", "13", "14", "14", "19", "21"], "time": [4043, 4773, 6590, 7346, 12580, 12699, 12903]}, "edge": {"target": [], "time": []}}}, "displayed_time": "12.16", "trialTime": 17049, "trial_type": "mouselab-mdp", "trial_index": 3, "time_elapsed": 367092, "internal_node_id": "0.0-2.0-2.0-0.0"}}, {"uniqueid": "w39104261:a43011510", "current_trial": 4, "dateTime": 1693834976011, "trialdata": {"revealed_states": [], "clicked_states": ["1", "2", "3", "8"], "num_clicks_accrued": [0, 0, 0, 0, 0, 0, 0, 0, 0, 0, 0, 0, 0], "stateRewards": ["", -10, -10, 10, -10, 10, -10, 10, 10, 10, 10, 10, -10, -10, 10, -10, 10, -10, -10, 10, -10, 10, 10, -10, 10, 10, 10, 10, 10, 10, 10, -10, -10, 10], "withholdReward": false, "trial_id": "practice_2", "block": "test", "trialIndex": 1, "score": 11.5, "costs": -2, "simulationMode": [null, null, null, null, null], "rewards": [-10, -10, 10, 10, 10], "path": ["0", "0", "1", "2", "3", "8", "9"], "rt": [19265, 203, 54, 0, 1], "actions": ["up", "up", "up", "left", "up"], "actionTimes": [29803, 30824, 31643, 32449, 33173], "queries": {"click": {"state": {"target": ["1", "2", "3", "8"], "time": [15318, 18999, 22115, 24712]}, "edge": {"target": [], "time": []}}, "mouseover": {"state": {"target": ["1", "2", "3", "8", "9", "2", "0"], "time": [14761, 18666, 20813, 23680, 25471, 28620, 28997]}, "edge": {"target": [], "time": []}}, "mouseout": {"state": {"target": ["21", "19", "0", "0", "1", "1", "2", "3", "8", "9", "2", "0", "8", "3"], "time": [null, 166, 1803, 12189, 16602, 18482, 20433, 23180, 25286, 28419, 28803, 34092, 34582, 35230]}, "edge": {"target": [], "time": []}}}, "displayed_time": "33.89", "trialTime": 37102, "trial_type": "mouselab-mdp", "trial_index": 4, "time_elapsed": 412138, "internal_node_id": "0.0-2.0-2.0-1.0"}}, {"uniqueid": "w39104261:a43011510", "current_trial": 5, "dateTime": 1693835035774, "trialdata": {"view_history": [{"page_index": 0, "viewing_time": 45464}, {"page_index": 1, "viewing_time": 14297}], "rt": 59762, "trial_id": "mouselab_instructions_2_misaligned", "trial_type": "instructions", "trial_index": 5, "time_elapsed": 471901, "internal_node_id": "0.0-2.0-3.0"}}, {"uniqueid": "w39104261:a43011510", "current_trial": 6, "dateTime": 1693835107391, "trialdata": {"rt": 71616, "response": {"Q0": "The cost is always $2.", "Q1": "The better I perform the higher my bonus will be.", "Q2": "No, the amount of cash at each node of the web may be different each time.", "Q3": "To click on the least number of nodes.", "Q4": "Any time during the round.", "Q5": "3 seconds"}, "question_order": [0, 1, 2, 3, 4, 5], "correct": {"Q0": "The cost for clicking on nodes may vary between nodes.", "Q1": "The better I perform the higher my bonus will be.", "Q2": "No, the amount of cash at each node of the web may be different each time.", "Q3": "To get the highest total score.", "Q4": "Only before moving the spider.", "Q5": "3 seconds"}, "trial_id": "mouselab_quiz_misaligned", "trial_type": "survey-multi-choice", "trial_index": 6, "time_elapsed": 543518, "internal_node_id": "0.0-2.0-4.0"}}, {"uniqueid": "w39104261:a43011510", "current_trial": 7, "dateTime": 1693835118094, "trialdata": {"success": true, "trial_type": "fullscreen", "trial_index": 7, "time_elapsed": 554221, "internal_node_id": "0.0-2.1-0.1-0.1"}}, {"uniqueid": "w39104261:a43011510", "current_trial": 8, "dateTime": 1693835123546, "trialdata": {"view_history": [{"page_index": 0, "viewing_time": 2282}, {"page_index": 1, "viewing_time": 1271}, {"page_index": 2, "viewing_time": 913}, {"page_index": 3, "viewing_time": 984}], "rt": 5450, "trial_id": "mouselab_instructions_1_misaligned", "trial_type": "instructions", "trial_index": 8, "time_elapsed": 559673, "internal_node_id": "0.0-2.1-1.1"}}], "questiondata": {"params": {"CODE": "C6DMOQA6", "MIN_TIME": 14, "inspectCost": 1, "startTime": "Mon Sep 04 2023 15:36:02 GMT+0200 (South Africa Standard Time)", "bonusRate": 0.002, "variance": "1_2_4_8_44", "branching": "31123"}}, "eventdata": [{"eventtype": "initialized", "value": null, "timestamp": 1693834561487, "interval": 0}, {"eventtype": "window_resize", "value": [1024, 733], "timestamp": 1693834561487, "interval": 0}, {"eventtype": "focus", "value": "on", "timestamp": 1693834562054, "interval": 567}, {"eventtype": "window_resize", "value": [1024, 733], "timestamp": 1693834562251, "interval": 197}, {"eventtype": "window_resize", "value": [1440, 859], "timestamp": 1693834564317, "interval": 2066}, {"eventtype": "window_resize", "value": [1440, 900], "timestamp": 1693834572522, "interval": 8205}, {"eventtype": "focus", "value": "off", "timestamp": 1693835115560, "interval": 543038}, {"eventtype": "focus", "value": "on", "timestamp": 1693835115560, "interval": 0}], "useragent": "Mozilla/5.0 (Macintosh; Intel Mac OS X 10.15; rv:109.0) Gecko/20100101 Firefox/117.0", "mode": "live", "id": "w39104261:a43011510", "status": "user data saved", "Beginhit": "2023-09-04 13:35:58.335293", "Beginexp": "2023-09-04 13:36:13.543807", "Endhit": null, "psiturkStatus": 2, "browser": "<redacted>", "platform": "macos", "language": "en-US", "excludeReason": "quizfail"}