{"condition": 1, "counterbalance": 0, "assignmentId": "a98133500", "workerId": "w22592146", "hitId": "h27401965", "currenttrial": 56, "bonus": 0, "data": [{"uniqueid": "w22592146:a98133500", "current_trial": 0, "dateTime": 1691159568837, "trialdata": {"success": true, "trial_type": "fullscreen", "trial_index": 0, "time_elapsed": 11258, "internal_node_id": "0.0-0.0"}}, {"uniqueid": "w22592146:a98133500", "current_trial": 1, "dateTime": 1691159624548, "trialdata": {"view_history": [{"page_index": 0, "viewing_time": 55702}], "rt": 55704, "trial_id": "exp_instructions_misaligned", "trial_type": "instructions", "trial_index": 1, "time_elapsed": 66970, "internal_node_id": "0.0-1.0"}}, {"uniqueid": "w22592146:a98133500", "current_trial": 2, "dateTime": 1691159629288, "trialdata": {"success": true, "trial_type": "fullscreen", "trial_index": 2, "time_elapsed": 71710, "internal_node_id": "0.0-2.0-0.0"}}, {"uniqueid": "w22592146:a98133500", "current_trial": 3, "dateTime": 1691160084133, "trialdata": {"view_history": [{"page_index": 0, "viewing_time": 169076}, {"page_index": 1, "viewing_time": 169421}, {"page_index": 2, "viewing_time": 46268}, {"page_index": 3, "viewing_time": 70079}], "rt": 454844, "trial_id": "mouselab_instructions_1_misaligned", "trial_type": "instructions", "trial_index": 3, "time_elapsed": 526555, "internal_node_id": "0.0-2.0-1.0"}}, {"uniqueid": "w22592146:a98133500", "current_trial": 4, "dateTime": 1691160121642, "trialdata": {"revealed_states": [], "clicked_states": ["25", "30", "23", "12"], "num_clicks_accrued": [0, 0, 0, 0, 0, 0, 0, 0, 0, 0, 0, 0, 0], "stateRewards": ["", 10, -10, 10, 10, 10, -10, -10, 10, -10, -10, 10, -10, 10, 10, 10, 10, 10, -10, -10, -10, 10, 10, -10, 10, -10, -10, 10, 10, -10, -10, -10, 10, 10], "withholdReward": false, "trial_id": "practice_1", "block": "test", "trialIndex": 0, "score": 31.5, "costs": -2, "simulationMode": [null, null, null, null, null], "rewards": [10, -10, 10, 10, 10], "path": ["0", "0", "1", "2", "3", "4", "5"], "rt": [25262, 309, 364, 95, 862], "actions": ["up", "up", "up", "right", "up"], "actionTimes": [31010, 31827, 32697, 33297, 34677], "queries": {"click": {"state": {"target": ["25", "30", "23", "12"], "time": [9521, 13410, 17893, 23891]}, "edge": {"target": [], "time": []}}, "mouseover": {"state": {"target": ["23", "24", "25", "26", "26", "30", "23", "1", "24", "12", "13"], "time": [7825, 8109, 8824, 10858, 11607, 12624, 17340, 19203, 20837, 23368, 24768]}, "edge": {"target": [], "time": []}}, "mouseout": {"state": {"target": ["0", "23", "24", "25", "26", "26", "25", "30", "23", "1", "23", "24", "12"], "time": [4394, 7992, 8759, 10741, 10907, 12423, 12524, 13525, 19036, 20404, 20753, 23230, 24552]}, "edge": {"target": [], "time": []}}}, "displayed_time": "35.18", "trialTime": 36506, "trial_type": "mouselab-mdp", "trial_index": 4, "time_elapsed": 564064, "internal_node_id": "0.0-2.0-2.0-0.0"}}, {"uniqueid": "w22592146:a98133500", "current_trial": 5, "dateTime": 1691160147292, "trialdata": {"revealed_states": [], "clicked_states": ["23", "26", "30"], "num_clicks_accrued": [0, 0, 0, 0, 0, 0, 0, 0, 0, 0, 0, 0, 0], "stateRewards": ["", -10, -10, 10, 10, -10, -10, 10, 10, -10, -10, 10, -10, -10, 10, -10, 10, -10, -10, 10, 10, 10, -10, -10, 10, 10, -10, -10, -10, 10, -10, 10, -10, 10], "withholdReward": false, "trial_id": "practice_2", "block": "test", "trialIndex": 1, "score": -8, "costs": -1.5, "simulationMode": [null, null, null, null, null], "rewards": [-10, -10, 10, 10, -10], "path": ["0", "0", "1", "2", "3", "8", "9"], "rt": [13155, 144, 33, 540, 157], "actions": ["up", "up", "up", "left", "up"], "actionTimes": [19545, 20198, 20736, 21793, 22443], "queries": {"click": {"state": {"target": ["23", "26", "30"], "time": [10577, 13059, 15169]}, "edge": {"target": [], "time": []}}, "mouseover": {"state": {"target": ["23", "0", "24", "26", "25", "30", "24", "1", "1"], "time": [9325, 11756, 12037, 12604, 14141, 14292, 16625, 16789, 17738]}, "edge": {"target": [], "time": []}}, "mouseout": {"state": {"target": ["13", "0", "23", "0", "23", "24", "26", "25", "30", "24", "1"], "time": [3728, 5959, 11675, 11973, 12024, 12456, 14087, 14221, 16539, 16673, 16838]}, "edge": {"target": [], "time": []}}}, "displayed_time": "22.95", "trialTime": 25486, "trial_type": "mouselab-mdp", "trial_index": 5, "time_elapsed": 589713, "internal_node_id": "0.0-2.0-2.0-1.0"}}, {"uniqueid": "w22592146:a98133500", "current_trial": 6, "dateTime": 1691160250492, "trialdata": {"view_history": [{"page_index": 0, "viewing_time": 76516}, {"page_index": 1, "viewing_time": 26682}], "rt": 103198, "trial_id": "mouselab_instructions_2_misaligned", "trial_type": "instructions", "trial_index": 6, "time_elapsed": 692914, "internal_node_id": "0.0-2.0-3.0"}}, {"uniqueid": "w22592146:a98133500", "current_trial": 7, "dateTime": 1691160318672, "trialdata": {"rt": 68176, "response": {"Q0": "The cost for clicking on nodes may vary between nodes.", "Q1": "The better I perform the higher my bonus will be.", "Q2": "No, the amount of cash at each node of the web may be different each time.", "Q3": "To get the highest total score.", "Q4": "Only before moving the spider.", "Q5": "3 seconds"}, "question_order": [0, 1, 2, 3, 4, 5], "correct": {"Q0": "The cost for clicking on nodes may vary between nodes.", "Q1": "The better I perform the higher my bonus will be.", "Q2": "No, the amount of cash at each node of the web may be different each time.", "Q3": "To get the highest total score.", "Q4": "Only before moving the spider.", "Q5": "3 seconds"}, "trial_id": "mouselab_quiz_misaligned", "trial_type": "survey-multi-choice", "trial_index": 7, "time_elapsed": 761094, "internal_node_id": "0.0-2.0-4.0"}}, {"uniqueid": "w22592146:a98133500", "current_trial": 8, "dateTime": 1691160353751, "trialdata": {"rt": 35071, "stimulus": "\n<h1> Get ready to start the game! </h1>\n\nThank you for reading the instructions. Get ready start with the 40 rounds of this game.\n<br><br>\nIf you need to take a break, feel free to take one after the end of a round, before continuing to the next one.\n<br><br>\nRemember, the more money the spider gets, the bigger your bonus will be!\n<br><br>\n<div style='text-align: center;'>Press <code>space</code> to begin.</div>\n\n<br><br>\n(If, at any point, the <code>space</code> key does not take you to the next page, click once on the text and try again.)", "response": " ", "trial_id": "mdp_ready", "trial_type": "html-keyboard-response", "trial_index": 8, "time_elapsed": 796173, "internal_node_id": "0.0-4.0-0.0"}}, {"uniqueid": "w22592146:a98133500", "current_trial": 9, "dateTime": 1691160384759, "trialdata": {"revealed_states": [], "clicked_states": ["24", "26"], "num_clicks_accrued": [0, 0, 0, 0, 0, 0, 0, 0, 0, 0, 0, 0, 0], "stateRewards": ["", -1, -2, 8, -6, -79, -6, 87, 9, -5, -66, -38, 2, 2, 5, -6, -82, 74, 85, -8, 67, -30, -15, 1, -2, -2, -2, 87, 64, 49, 7, 2, -38, -9], "withholdReward": false, "trial_id": "mdp_trial_1", "block": "test", "trialIndex": 2, "score": -53.9, "costs": -1.9, "simulationMode": [null, null, null, null, null], "rewards": [-1, -2, 8, 9, -66], "path": ["0", "0", "1", "2", "3", "8", "10"], "rt": [13450, 622, 246, 594, 557], "actions": ["up", "up", "up", "left", "down"], "actionTimes": [20518, 21649, 22407, 23520, 24583], "queries": {"click": {"state": {"target": ["24", "26"], "time": [8418, 10048]}, "edge": {"target": [], "time": []}}, "mouseover": {"state": {"target": ["23", "24", "26", "25", "30", "31", "0", "12", "13", "15", "13", "0", "1"], "time": [7829, 7997, 9548, 11263, 11413, 12127, 12195, 12344, 12462, 12794, 16527, 17442, 18526]}, "edge": {"target": [], "time": []}}, "mouseout": {"state": {"target": ["1", "0", "23", "24", "26", "25", "30", "31", "0", "12", "13", "15", "13", "0"], "time": [3581, 7781, 7914, 9312, 11230, 11363, 12111, 12144, 12261, 12428, 12528, 16476, 16575, 17909]}, "edge": {"target": [], "time": []}}}, "displayed_time": "25.09", "trialTime": 30828, "trial_type": "mouselab-mdp", "trial_index": 9, "time_elapsed": 827180, "internal_node_id": "0.0-4.0-1.0-0.0"}}, {"uniqueid": "w22592146:a98133500", "current_trial": 10, "dateTime": 1691160409088, "trialdata": {"revealed_states": [], "clicked_states": [], "num_clicks_accrued": [0, 0, 0, 0, 0, 0, 0, 0, 0, 0, 0, 0, 0], "stateRewards": ["", 1, -2, 7, -14, 88, -56, -44, -14, 64, -51, -57, -2, 3, -4, -9, -11, 19, -77, -1, 68, 75, -67, -1, 1, -2, 5, -37, 70, -34, -10, -72, 63, -41], "withholdReward": false, "trial_id": "mdp_trial_2", "block": "test", "trialIndex": 3, "score": -64, "costs": 0, "simulationMode": [null, null, null, null, null], "rewards": [1, -2, 7, -14, -56], "path": ["0", "0", "1", "2", "3", "4", "6"], "rt": [4749, 576, 342, 482, 26], "actions": ["up", "up", "up", "right", "right"], "actionTimes": [8482, 9569, 10416, 11406, 11948], "queries": {"click": {"state": {"target": [], "time": []}, "edge": {"target": [], "time": []}}, "mouseover": {"state": {"target": ["23", "12", "13", "15", "15", "18"], "time": [4410, 4574, 4659, 5791, 7359, 7390]}, "edge": {"target": [], "time": []}}, "mouseout": {"state": {"target": ["1", "23", "12", "13", "15", "15", "18"], "time": [1493, 4509, 4608, 5728, 6091, 7374, 7406]}, "edge": {"target": [], "time": []}}}, "displayed_time": "17.73", "trialTime": 24150, "trial_type": "mouselab-mdp", "trial_index": 10, "time_elapsed": 851510, "internal_node_id": "0.0-4.0-1.0-1.0"}}, {"uniqueid": "w22592146:a98133500", "current_trial": 11, "dateTime": 1691160430265, "trialdata": {"revealed_states": [], "clicked_states": ["15", "19"], "num_clicks_accrued": [0, 0, 0, 0, 0, 0, 0, 0, 0, 0, 0, 0, 0], "stateRewards": ["", 1, 4, 7, -16, -84, -6, -46, -12, -7, -49, -26, -1, 2, -4, 2, 22, 37, -64, 1, 88, -13, -10, 1, -4, -2, 5, 2, -10, -34, 9, 66, 55, 38], "withholdReward": false, "trial_id": "mdp_trial_3", "block": "test", "trialIndex": 4, "score": 17.9, "costs": -3.1, "simulationMode": [null, null, null, null, null], "rewards": [-1, 2, -4, 2, 22], "path": ["0", "0", "12", "13", "14", "15", "16"], "rt": [4813, 207, 155, 369, 114], "actions": ["right", "right", "right", "up", "up"], "actionTimes": [7977, 8690, 9355, 10235, 10863], "queries": {"click": {"state": {"target": ["15", "19"], "time": [4598, 5931]}, "edge": {"target": [], "time": []}}, "mouseover": {"state": {"target": ["12", "13", "14", "15", "14", "19", "12"], "time": [3584, 3619, 3734, 4234, 5117, 5317, 7001]}, "edge": {"target": [], "time": []}}, "mouseout": {"state": {"target": ["12", "13", "14", "13", "12", "12", "13", "14", "15", "14", "19", "12", "12", "12"], "time": [1667, 1717, 1902, 1951, 2551, 3618, 3667, 4100, 5101, 5150, 6783, 7169, 18911, 19843]}, "edge": {"target": [], "time": []}}}, "displayed_time": "17.16", "trialTime": 20961, "trial_type": "mouselab-mdp", "trial_index": 11, "time_elapsed": 872686, "internal_node_id": "0.0-4.0-1.0-2.0"}}, {"uniqueid": "w22592146:a98133500", "current_trial": 12, "dateTime": 1691160448688, "trialdata": {"revealed_states": [], "clicked_states": ["5"], "num_clicks_accrued": [0, 0, 0, 0, 0, 0, 0, 0, 0, 0, 0, 0, 0], "stateRewards": ["", 1, -3, -2, 14, 49, -40, -39, 2, 26, -61, 73, 1, -4, -8, 12, 79, 29, -65, -13, 55, -26, 27, -1, 3, 3, 9, -17, -60, -18, -8, 35, -88, 69], "withholdReward": false, "trial_id": "mdp_trial_4", "block": "test", "trialIndex": 5, "score": 56.85, "costs": -2.15, "simulationMode": [null, null, null, null, null], "rewards": [1, -3, -2, 14, 49], "path": ["0", "0", "1", "2", "3", "4", "5"], "rt": [7195, 439, 197, 338, 314], "actions": ["up", "up", "up", "right", "up"], "actionTimes": [9108, 10066, 10773, 11630, 12438], "queries": {"click": {"state": {"target": ["5"], "time": [3390]}, "edge": {"target": [], "time": []}}, "mouseover": {"state": {"target": ["1", "4", "5", "6", "16", "2", "2"], "time": [2578, 2645, 2945, 4112, 4394, 7793, 8026]}, "edge": {"target": [], "time": []}}, "mouseout": {"state": {"target": ["0", "1", "4", "5", "6", "16", "2", "2"], "time": [2543, 2595, 2744, 4011, 4278, 7426, 7876, 8143]}, "edge": {"target": [], "time": []}}}, "displayed_time": "15.91", "trialTime": 18205, "trial_type": "mouselab-mdp", "trial_index": 12, "time_elapsed": 891110, "internal_node_id": "0.0-4.0-1.0-3.0"}}, {"uniqueid": "w22592146:a98133500", "current_trial": 13, "dateTime": 1691160467849, "trialdata": {"revealed_states": [], "clicked_states": ["16", "20"], "num_clicks_accrued": [0, 0, 0, 0, 0, 0, 0, 0, 0, 0, 0, 0, 0], "stateRewards": ["", 1, 3, 1, -13, 52, -28, 67, -14, 3, 63, -70, -1, -4, 7, -11, -10, 47, -18, 6, 69, -9, -61, 2, 3, -6, 10, 63, -34, 40, -6, -79, -35, -32], "withholdReward": false, "trial_id": "mdp_trial_5", "block": "test", "trialIndex": 6, "score": 72.7, "costs": -4.3, "simulationMode": [null, null, null, null, null, null], "rewards": [-1, -4, 7, 6, 69], "path": ["0", "0", "12", "13", "14", "19", "20"], "rt": [6473, 2994, 247, 209, 463, 250], "actions": ["up", "right", "right", "right", "down", "right"], "actionTimes": [8970, 11966, 12723, 13434, 14405, 15175], "queries": {"click": {"state": {"target": ["16", "20"], "time": [3691, 6543]}, "edge": {"target": [], "time": []}}, "mouseover": {"state": {"target": ["18", "15", "16", "17", "20", "19", "22", "12", "1"], "time": [2929, 3012, 3278, 4246, 4647, 7428, 7495, 7560, 10127]}, "edge": {"target": [], "time": []}}, "mouseout": {"state": {"target": ["7", "18", "15", "16", "17", "20", "19", "22", "12", "1"], "time": [1612, 2946, 3229, 4164, 4313, 7394, 7462, 7510, 8043, 11076]}, "edge": {"target": [], "time": []}}}, "displayed_time": "16.50", "trialTime": 18958, "trial_type": "mouselab-mdp", "trial_index": 13, "time_elapsed": 910270, "internal_node_id": "0.0-4.0-1.0-4.0"}}, {"uniqueid": "w22592146:a98133500", "current_trial": 14, "dateTime": 1691160489500, "trialdata": {"revealed_states": [], "clicked_states": ["26", "27"], "num_clicks_accrued": [0, 0, 0, 0, 0, 0, 0, 0, 0, 0, 0, 0, 0], "stateRewards": ["", 1, -3, -6, -5, 47, 80, -29, 11, -71, 10, -29, -2, 3, -6, 12, 2, -78, -6, 8, 34, -16, -5, -1, 3, 3, -13, 84, -36, -62, -3, -27, 66, 15], "withholdReward": false, "trial_id": "mdp_trial_6", "block": "test", "trialIndex": 7, "score": 72.3, "costs": -3.7, "simulationMode": [null, null, null, null, null], "rewards": [-1, 3, 3, -13, 84], "path": ["0", "0", "23", "24", "25", "26", "27"], "rt": [9733, 253, 137, 714, 93], "actions": ["left", "left", "left", "up", "up"], "actionTimes": [15383, 16145, 16793, 18021, 18633], "queries": {"click": {"state": {"target": ["26", "27"], "time": [7720, 8889]}, "edge": {"target": [], "time": []}}, "mouseover": {"state": {"target": ["23", "24", "25", "26", "27", "23"], "time": [6860, 6910, 7076, 7277, 8410, 11975]}, "edge": {"target": [], "time": []}}, "mouseout": {"state": {"target": ["12", "0", "23", "24", "25", "26", "27"], "time": [2646, 5228, 6894, 6993, 7210, 7944, 9976]}, "edge": {"target": [], "time": []}}}, "displayed_time": "19.65", "trialTime": 21451, "trial_type": "mouselab-mdp", "trial_index": 14, "time_elapsed": 931922, "internal_node_id": "0.0-4.0-1.0-5.0"}}, {"uniqueid": "w22592146:a98133500", "current_trial": 15, "dateTime": 1691160516318, "trialdata": {"revealed_states": [], "clicked_states": ["32", "27"], "num_clicks_accrued": [0, 0, 0, 0, 0, 0, 0, 0, 0, 0, 0, 0, 0], "stateRewards": ["", 1, 2, 2, -15, -84, 28, -26, 13, 31, 86, 30, -2, 1, -1, -8, 66, -40, -1, -10, -32, 57, -17, 1, 2, -2, 9, -23, 77, 85, 12, -32, -62, -35], "withholdReward": false, "trial_id": "mdp_trial_7", "block": "test", "trialIndex": 8, "score": -54.3, "costs": -4.3, "simulationMode": [null, null, null, null, null], "rewards": [-2, 1, -1, -8, -40], "path": ["0", "0", "12", "13", "14", "15", "17"], "rt": [15244, 92, 71, 846, 638], "actions": ["right", "right", "right", "up", "right"], "actionTimes": [18332, 18939, 19518, 20877, 22017], "queries": {"click": {"state": {"target": ["32", "27"], "time": [4166, 9910]}, "edge": {"target": [], "time": []}}, "mouseover": {"state": {"target": ["31", "32", "30", "29", "29", "26", "27", "28", "23"], "time": [3569, 3802, 4470, 4636, 5869, 7850, 9100, 11150, 11349]}, "edge": {"target": [], "time": []}}, "mouseout": {"state": {"target": ["23", "1", "0", "31", "32", "30", "29", "29", "26", "27", "28"], "time": [1936, 2286, 3479, 3585, 4436, 4486, 5753, 7701, 8067, 11049, 11166]}, "edge": {"target": [], "time": []}}}, "displayed_time": "22.51", "trialTime": 26586, "trial_type": "mouselab-mdp", "trial_index": 15, "time_elapsed": 958739, "internal_node_id": "0.0-4.0-1.0-6.0"}}, {"uniqueid": "w22592146:a98133500", "current_trial": 16, "dateTime": 1691160537520, "trialdata": {"revealed_states": [], "clicked_states": ["21", "5"], "num_clicks_accrued": [0, 0, 0, 0, 0, 0, 0, 0, 0, 0, 0, 0, 0], "stateRewards": ["", 2, -4, -8, -15, 71, -43, -41, 7, -17, 20, 67, -1, -1, -4, 6, 37, -24, -47, 9, 34, 57, 45, 1, 2, -4, -5, -23, 88, -5, 13, -40, 43, 44], "withholdReward": false, "trial_id": "mdp_trial_8", "block": "test", "trialIndex": 9, "score": 41.7, "costs": -4.3, "simulationMode": [null, null, null, null, null], "rewards": [2, -4, -8, -15, 71], "path": ["0", "0", "1", "2", "3", "4", "5"], "rt": [9318, 38, 68, 169, 232], "actions": ["up", "up", "up", "right", "up"], "actionTimes": [13144, 13695, 14274, 14944, 15688], "queries": {"click": {"state": {"target": ["21", "5"], "time": [5013, 7860]}, "edge": {"target": [], "time": []}}, "mouseover": {"state": {"target": ["22", "21", "18", "4", "5", "9", "8", "3", "2", "1"], "time": [4279, 4494, 5526, 5626, 5859, 8508, 11456, 11758, 11905, 12107]}, "edge": {"target": [], "time": []}}, "mouseout": {"state": {"target": ["23", "22", "21", "18", "4", "5", "9", "8", "3", "2", "1", "1"], "time": [3076, 4293, 5477, 5542, 5793, 8308, 11407, 11723, 11858, 12022, 12373, 20202]}, "edge": {"target": [], "time": []}}}, "displayed_time": "17.83", "trialTime": 20974, "trial_type": "mouselab-mdp", "trial_index": 16, "time_elapsed": 979942, "internal_node_id": "0.0-4.0-1.0-7.0"}}, {"uniqueid": "w22592146:a98133500", "current_trial": 17, "dateTime": 1691160557489, "trialdata": {"revealed_states": [], "clicked_states": ["11", "27"], "num_clicks_accrued": [0, 0, 0, 0, 0, 0, 0, 0, 0, 0, 0, 0, 0], "stateRewards": ["", 1, -2, -8, -13, 4, 34, -84, -4, -49, 88, -70, -1, 3, -4, 10, -77, 13, -34, 15, -21, -16, 27, 1, -2, 8, -8, -6, 38, -26, 6, -15, 66, -3], "withholdReward": false, "trial_id": "mdp_trial_9", "block": "test", "trialIndex": 10, "score": -12.3, "costs": -4.3, "simulationMode": [null, null, null, null, null], "rewards": [-1, 3, -4, 15, -21], "path": ["0", "0", "12", "13", "14", "19", "20"], "rt": [8735, 84, 29, 701, 239], "actions": ["right", "right", "right", "down", "right"], "actionTimes": [10173, 10764, 11307, 12513, 13267], "queries": {"click": {"state": {"target": ["11", "27"], "time": [2444, 5471]}, "edge": {"target": [], "time": []}}, "mouseover": {"state": {"target": ["10", "11", "27", "1"], "time": [1865, 2132, 3030, 9194]}, "edge": {"target": [], "time": []}}, "mouseout": {"state": {"target": ["0", "0", "10", "11", "27", "1", "0", "31"], "time": [506, 1794, 1932, 2848, 6696, 9278, 18074, 18441]}, "edge": {"target": [], "time": []}}}, "displayed_time": "15.44", "trialTime": 19758, "trial_type": "mouselab-mdp", "trial_index": 17, "time_elapsed": 999911, "internal_node_id": "0.0-4.0-1.0-8.0"}}, {"uniqueid": "w22592146:a98133500", "current_trial": 18, "dateTime": 1691160577155, "trialdata": {"revealed_states": [], "clicked_states": ["32", "33"], "num_clicks_accrued": [0, 0, 0, 0, 0, 0, 0, 0, 0, 0, 0, 0, 0], "stateRewards": ["", 1, -3, 4, 13, -72, 52, 5, 5, -58, 5, 14, 2, 1, 3, -14, -86, -4, 73, 6, -58, -50, 49, 2, -3, -4, 2, 33, -41, 42, -11, 81, 45, 53], "withholdReward": false, "trial_id": "mdp_trial_10", "block": "test", "trialIndex": 11, "score": 32.7, "costs": -4.3, "simulationMode": [null, null, null, null, null], "rewards": [2, -3, -4, -11, 53], "path": ["0", "0", "23", "24", "25", "30", "33"], "rt": [8916, 2, 58, 550, 486], "actions": ["left", "left", "left", "down", "left"], "actionTimes": [12604, 13116, 13706, 14763, 15747], "queries": {"click": {"state": {"target": ["32", "33"], "time": [4826, 7996]}, "edge": {"target": [], "time": []}}, "mouseover": {"state": {"target": ["0", "32", "33"], "time": [4085, 4381, 5431]}, "edge": {"target": [], "time": []}}, "mouseout": {"state": {"target": ["16", "15", "18", "12", "0", "32", "33", "30"], "time": [1749, 2782, 2815, 2865, 4098, 5216, 11430, 18825]}, "edge": {"target": [], "time": []}}}, "displayed_time": "17.69", "trialTime": 19467, "trial_type": "mouselab-mdp", "trial_index": 18, "time_elapsed": 1019577, "internal_node_id": "0.0-4.0-1.0-9.0"}}, {"uniqueid": "w22592146:a98133500", "current_trial": 19, "dateTime": 1691160600168, "trialdata": {"revealed_states": [], "clicked_states": ["5", "6"], "num_clicks_accrued": [0, 0, 0, 0, 0, 0, 0, 0, 0, 0, 0, 0, 0], "stateRewards": ["", 1, 4, 5, -5, 58, -80, 75, 6, 25, -39, 46, 2, -2, 4, 2, 59, 31, -22, -12, -61, 15, 72, 1, -2, -7, 8, 77, 76, -23, -7, 71, -15, -3], "withholdReward": false, "trial_id": "mdp_trial_11", "block": "test", "trialIndex": 12, "score": 58.7, "costs": -4.3, "simulationMode": [null, null, null, null, null], "rewards": [1, 4, 5, -5, 58], "path": ["0", "0", "1", "2", "3", "4", "5"], "rt": [9468, 405, 538, 417, 364], "actions": ["up", "up", "up", "right", "up"], "actionTimes": [13386, 14306, 15356, 16284, 17147], "queries": {"click": {"state": {"target": ["5", "6"], "time": [5197, 8690]}, "edge": {"target": [], "time": []}}, "mouseover": {"state": {"target": ["1", "2", "4", "5", "6", "7", "1", "1"], "time": [4437, 4487, 4554, 4754, 5820, 10185, 10301, 12250]}, "edge": {"target": [], "time": []}}, "mouseout": {"state": {"target": ["31", "0", "1", "2", "4", "5", "5", "6", "7", "1"], "time": [3138, 3387, 4470, 4504, 4587, 5411, 5688, 10151, 10235, 10352]}, "edge": {"target": [], "time": []}}}, "displayed_time": "17.92", "trialTime": 22812, "trial_type": "mouselab-mdp", "trial_index": 19, "time_elapsed": 1042589, "internal_node_id": "0.0-4.0-1.0-10.0"}}, {"uniqueid": "w22592146:a98133500", "current_trial": 20, "dateTime": 1691160622150, "trialdata": {"revealed_states": [], "clicked_states": ["11", "9", "5"], "num_clicks_accrued": [0, 0, 0, 0, 0, 0, 0, 0, 0, 0, 0, 0, 0], "stateRewards": ["", -2, -3, -5, 8, 27, 11, 43, -6, -24, -87, 69, -2, 1, 1, 9, 19, 48, -37, 9, -14, 45, 62, 1, 2, 1, 16, -81, -41, 22, 4, -6, -63, 47], "withholdReward": false, "trial_id": "mdp_trial_12", "block": "test", "trialIndex": 13, "score": 46.55, "costs": -6.449999999999999, "simulationMode": [null, null, null, null, null], "rewards": [-2, -3, -5, -6, 69], "path": ["0", "0", "1", "2", "3", "8", "11"], "rt": [13116, 91, 76, 360, 715], "actions": ["up", "up", "up", "left", "left"], "actionTimes": [14648, 15235, 15821, 16687, 17908], "queries": {"click": {"state": {"target": ["11", "9", "5"], "time": [2904, 7034, 10256]}, "edge": {"target": [], "time": []}}, "mouseover": {"state": {"target": ["1", "10", "11", "9", "9", "5", "8", "11", "10", "1"], "time": [2316, 2364, 2581, 3581, 3818, 9496, 12699, 12827, 13627, 13761]}, "edge": {"target": [], "time": []}}, "mouseout": {"state": {"target": ["1", "1", "10", "11", "9", "9", "9", "5", "8", "11", "10"], "time": [883, 2333, 2398, 3414, 3615, 7250, 9332, 12461, 12714, 13544, 13694]}, "edge": {"target": [], "time": []}}}, "displayed_time": "18.43", "trialTime": 21764, "trial_type": "mouselab-mdp", "trial_index": 20, "time_elapsed": 1064572, "internal_node_id": "0.0-4.0-1.0-11.0"}}, {"uniqueid": "w22592146:a98133500", "current_trial": 21, "dateTime": 1691160645733, "trialdata": {"revealed_states": [], "clicked_states": ["28", "18", "17"], "num_clicks_accrued": [0, 0, 0, 0, 0, 0, 0, 0, 0, 0, 0, 0, 0], "stateRewards": ["", -2, -4, 4, -11, -63, -60, -7, 2, -14, 81, -43, -1, -1, -5, 7, 10, 69, 40, 8, -83, 52, 60, 1, 2, 5, -5, 16, 64, 14, -3, 29, 7, -51], "withholdReward": false, "trial_id": "mdp_trial_13", "block": "test", "trialIndex": 14, "score": 62.55, "costs": -6.449999999999999, "simulationMode": [null, null, null, null, null], "rewards": [-1, -1, -5, 7, 69], "path": ["0", "0", "12", "13", "14", "15", "17"], "rt": [12669, 496, 29, 568, 28], "actions": ["right", "right", "right", "up", "right"], "actionTimes": [16247, 17256, 17804, 18861, 19387], "queries": {"click": {"state": {"target": ["28", "18", "17"], "time": [5175, 8164, 11356]}, "edge": {"target": [], "time": []}}, "mouseover": {"state": {"target": ["28", "28", "18", "15", "17", "15", "12", "12"], "time": [4430, 4764, 6230, 9211, 9277, 12261, 14409, 15459]}, "edge": {"target": [], "time": []}}, "mouseout": {"state": {"target": ["1", "28", "28", "18", "18", "15", "17", "15", "18", "12", "12", "0", "23"], "time": [2947, 4530, 5400, 8382, 9128, 9244, 11568, 12394, 14225, 14492, 21089, 21273, 21356]}, "edge": {"target": [], "time": []}}}, "displayed_time": "19.89", "trialTime": 23355, "trial_type": "mouselab-mdp", "trial_index": 21, "time_elapsed": 1088154, "internal_node_id": "0.0-4.0-1.0-12.0"}}, {"uniqueid": "w22592146:a98133500", "current_trial": 22, "dateTime": 1691160669503, "trialdata": {"revealed_states": [], "clicked_states": ["5", "6", "11"], "num_clicks_accrued": [0, 0, 0, 0, 0, 0, 0, 0, 0, 0, 0, 0, 0], "stateRewards": ["", 1, 1, -3, 7, 49, 78, 26, -5, 26, 48, -43, -1, -3, 2, -5, 4, -1, -60, 10, -35, 51, 81, -2, 1, -7, -5, -39, -86, -54, 4, -3, 74, 77], "withholdReward": false, "trial_id": "mdp_trial_14", "block": "test", "trialIndex": 15, "score": 77.55, "costs": -6.449999999999999, "simulationMode": [null, null, null, null, null], "rewards": [1, 1, -3, 7, 78], "path": ["0", "0", "1", "2", "3", "4", "6"], "rt": [13800, 313, 161, 156, 25], "actions": ["up", "up", "up", "right", "right"], "actionTimes": [17681, 18512, 19178, 19823, 20359], "queries": {"click": {"state": {"target": ["5", "6", "11"], "time": [5558, 9888, 13601]}, "edge": {"target": [], "time": []}}, "mouseover": {"state": {"target": ["1", "4", "5", "6", "6", "4", "3", "8", "11", "10", "1"], "time": [4488, 4655, 4921, 6037, 6421, 11785, 11835, 11935, 12151, 15401, 15518]}, "edge": {"target": [], "time": []}}, "mouseout": {"state": {"target": ["0", "1", "4", "5", "6", "6", "4", "3", "8", "11", "10", "1"], "time": [4453, 4521, 4704, 5971, 6221, 11767, 11802, 11885, 12084, 15301, 15417, 15534]}, "edge": {"target": [], "time": []}}}, "displayed_time": "20.88", "trialTime": 23560, "trial_type": "mouselab-mdp", "trial_index": 22, "time_elapsed": 1111925, "internal_node_id": "0.0-4.0-1.0-13.0"}}, {"uniqueid": "w22592146:a98133500", "current_trial": 23, "dateTime": 1691160692187, "trialdata": {"revealed_states": [], "clicked_states": ["17", "16", "18"], "num_clicks_accrued": [0, 0, 0, 0, 0, 0, 0, 0, 0, 0, 0, 0, 0], "stateRewards": ["", 1, 4, 5, 8, -55, -11, 8, 16, -37, 77, -22, -2, 3, -8, -10, 45, 87, -67, 4, 17, -33, -22, -1, -3, 7, 6, -39, -85, 75, -1, 7, -48, 45], "withholdReward": false, "trial_id": "mdp_trial_15", "block": "test", "trialIndex": 16, "score": 63.55, "costs": -6.449999999999999, "simulationMode": [null, null, null, null, null], "rewards": [-2, 3, -8, -10, 87], "path": ["0", "0", "12", "13", "14", "15", "17"], "rt": [12692, 422, 567, 425, 16], "actions": ["right", "right", "right", "up", "right"], "actionTimes": [16353, 17270, 18348, 19271, 19795], "queries": {"click": {"state": {"target": ["17", "16", "18"], "time": [5040, 9545, 12878]}, "edge": {"target": [], "time": []}}, "mouseover": {"state": {"target": ["15", "17", "16", "18", "13"], "time": [4304, 4554, 6017, 11051, 14050]}, "edge": {"target": [], "time": []}}, "mouseout": {"state": {"target": ["15", "17", "16", "18", "13"], "time": [4338, 5768, 10750, 14000, 21145]}, "edge": {"target": [], "time": []}}}, "displayed_time": "20.33", "trialTime": 22469, "trial_type": "mouselab-mdp", "trial_index": 23, "time_elapsed": 1134609, "internal_node_id": "0.0-4.0-1.0-14.0"}}, {"uniqueid": "w22592146:a98133500", "current_trial": 24, "dateTime": 1691160714788, "trialdata": {"revealed_states": [], "clicked_states": ["11", "6", "5"], "num_clicks_accrued": [0, 0, 0, 0, 0, 0, 0, 0, 0, 0, 0, 0, 0], "stateRewards": ["", 2, 4, 4, -8, -36, -33, 38, 16, -51, 57, 57, 1, 3, 4, -6, 45, 68, 87, 1, 63, 24, -55, -2, 2, -6, -13, -63, -50, 8, 2, 80, 6, 60], "withholdReward": false, "trial_id": "mdp_trial_16", "block": "test", "trialIndex": 17, "score": 76.55, "costs": -6.449999999999999, "simulationMode": [null, null, null, null, null], "rewards": [2, 4, 4, 16, 57], "path": ["0", "0", "1", "2", "3", "8", "11"], "rt": [12919, 215, 404, 241, 456], "actions": ["up", "up", "up", "left", "left"], "actionTimes": [16244, 16965, 17887, 18641, 19592], "queries": {"click": {"state": {"target": ["11", "6", "5"], "time": [5740, 9092, 12372]}, "edge": {"target": [], "time": []}}, "mouseover": {"state": {"target": ["1", "8", "11", "9", "5", "6", "4", "5", "3", "2", "1"], "time": [3920, 4070, 5321, 6452, 6752, 6986, 10035, 11269, 14050, 14132, 14815]}, "edge": {"target": [], "time": []}}, "mouseout": {"state": {"target": ["0", "1", "8", "11", "9", "5", "6", "4", "5", "5", "3", "2", "1", "0"], "time": [2853, 3954, 4937, 6402, 6502, 6785, 9309, 11103, 12588, 13949, 14067, 14716, 21046, 21129]}, "edge": {"target": [], "time": []}}}, "displayed_time": "20.08", "trialTime": 22382, "trial_type": "mouselab-mdp", "trial_index": 24, "time_elapsed": 1157210, "internal_node_id": "0.0-4.0-1.0-15.0"}}, {"uniqueid": "w22592146:a98133500", "current_trial": 25, "dateTime": 1691160738666, "trialdata": {"revealed_states": [], "clicked_states": ["33", "27", "9"], "num_clicks_accrued": [0, 0, 0, 0, 0, 0, 0, 0, 0, 0, 0, 0, 0], "stateRewards": ["", 1, 1, 7, -11, 80, -20, -53, -14, 3, 31, 27, 2, -1, -8, -10, 33, 41, 86, 9, 78, -37, -13, -1, -2, -6, -8, -80, 75, 4, -16, -49, -74, 24], "withholdReward": false, "trial_id": "mdp_trial_17", "block": "test", "trialIndex": 18, "score": -7.449999999999999, "costs": -6.449999999999999, "simulationMode": [null, null, null, null, null], "rewards": [-1, -2, -6, -16, 24], "path": ["0", "0", "23", "24", "25", "30", "33"], "rt": [13669, 278, 416, 85, 737], "actions": ["left", "left", "left", "down", "left"], "actionTimes": [16418, 17206, 18140, 18741, 19993], "queries": {"click": {"state": {"target": ["33", "27", "9"], "time": [4205, 8200, 11475]}, "edge": {"target": [], "time": []}}, "mouseover": {"state": {"target": ["23", "24", "30", "33", "30", "31", "24", "28", "27", "11", "9", "9", "8", "10"], "time": [3331, 3379, 3463, 3729, 4895, 5046, 5229, 5378, 5978, 9410, 9544, 9843, 14873, 14923]}, "edge": {"target": [], "time": []}}, "mouseout": {"state": {"target": ["0", "23", "24", "30", "33", "30", "31", "24", "28", "27", "11", "9", "9", "8", "10", "0"], "time": [2079, 3362, 3429, 3680, 4863, 4963, 5163, 5245, 5796, 9310, 9477, 9626, 14841, 14890, 14941, 22321]}, "edge": {"target": [], "time": []}}}, "displayed_time": "20.49", "trialTime": 23662, "trial_type": "mouselab-mdp", "trial_index": 25, "time_elapsed": 1181088, "internal_node_id": "0.0-4.0-1.0-16.0"}}, {"uniqueid": "w22592146:a98133500", "current_trial": 26, "dateTime": 1691160760961, "trialdata": {"revealed_states": [], "clicked_states": ["16", "6", "17"], "num_clicks_accrued": [0, 0, 0, 0, 0, 0, 0, 0, 0, 0, 0, 0, 0], "stateRewards": ["", -2, 3, 3, -14, 62, 36, 49, 16, 11, 17, -84, 2, -1, 6, 2, -82, -73, 49, -6, -87, 48, 50, -1, -2, -1, -16, -11, 37, -44, 4, 55, 73, -10], "withholdReward": false, "trial_id": "mdp_trial_18", "block": "test", "trialIndex": 19, "score": 19.55, "costs": -6.449999999999999, "simulationMode": [null, null, null, null, null], "rewards": [-2, 3, 3, -14, 36], "path": ["0", "0", "1", "2", "3", "4", "6"], "rt": [13429, 284, 3, 530, 550], "actions": ["up", "up", "up", "right", "right"], "actionTimes": [16594, 17378, 17879, 18923, 19992], "queries": {"click": {"state": {"target": ["16", "6", "17"], "time": [4876, 8521, 12100]}, "edge": {"target": [], "time": []}}, "mouseover": {"state": {"target": ["18", "15", "16", "6", "4", "6", "15", "14", "17", "15", "18"], "time": [4148, 4281, 4431, 5899, 6131, 6497, 10079, 10178, 10497, 15593, 15676]}, "edge": {"target": [], "time": []}}, "mouseout": {"state": {"target": ["0", "13", "12", "18", "15", "16", "6", "4", "6", "15", "14", "17", "15", "18"], "time": [832, 1132, 2449, 4182, 4315, 5747, 6031, 6398, 9531, 10129, 10395, 15577, 15643, 15726]}, "edge": {"target": [], "time": []}}}, "displayed_time": "20.51", "trialTime": 22069, "trial_type": "mouselab-mdp", "trial_index": 26, "time_elapsed": 1203382, "internal_node_id": "0.0-4.0-1.0-17.0"}}, {"uniqueid": "w22592146:a98133500", "current_trial": 27, "dateTime": 1691160783648, "trialdata": {"revealed_states": [], "clicked_states": ["9", "5", "16"], "num_clicks_accrued": [0, 0, 0, 0, 0, 0, 0, 0, 0, 0, 0, 0, 0], "stateRewards": ["", -2, 1, -7, -8, -37, -76, -87, 11, 30, -63, 80, -1, 4, 2, -1, 42, 17, 52, -3, -75, -80, -68, 2, -3, -5, -15, -48, 82, 24, -7, 5, -22, -71], "withholdReward": false, "trial_id": "mdp_trial_19", "block": "test", "trialIndex": 20, "score": 39.55, "costs": -6.449999999999999, "simulationMode": [null, null, null, null, null], "rewards": [-1, 4, 2, -1, 42], "path": ["0", "0", "12", "13", "14", "15", "16"], "rt": [12454, 134, 25, 433, 493], "actions": ["right", "right", "right", "up", "up"], "actionTimes": [16820, 17471, 17996, 18937, 19929], "queries": {"click": {"state": {"target": ["9", "5", "16"], "time": [5668, 9175, 12852]}, "edge": {"target": [], "time": []}}, "mouseover": {"state": {"target": ["10", "8", "9", "5", "6", "16", "15", "13"], "time": [4991, 5058, 5225, 6708, 11590, 12422, 16121, 16204]}, "edge": {"target": [], "time": []}}, "mouseout": {"state": {"target": ["0", "10", "8", "9", "5", "6", "16", "15", "13"], "time": [4859, 5026, 5175, 6508, 11472, 11739, 15987, 16153, 21368]}, "edge": {"target": [], "time": []}}}, "displayed_time": "20.44", "trialTime": 22461, "trial_type": "mouselab-mdp", "trial_index": 27, "time_elapsed": 1226070, "internal_node_id": "0.0-4.0-1.0-18.0"}}, {"uniqueid": "w22592146:a98133500", "current_trial": 28, "dateTime": 1691160805031, "trialdata": {"revealed_states": [], "clicked_states": ["30", "32", "21"], "num_clicks_accrued": [0, 0, 0, 0, 0, 0, 0, 0, 0, 0, 0, 0, 0], "stateRewards": ["", -1, -4, -3, 1, -45, -67, -24, 14, 32, 22, 22, -1, 1, -5, -7, 72, 84, -79, -5, 19, -40, -2, -1, -2, 8, -3, 84, -25, -28, 11, 64, -66, 77], "withholdReward": false, "trial_id": "mdp_trial_20", "block": "test", "trialIndex": 21, "score": 32.15, "costs": -5.85, "simulationMode": [null, null, null, null, null], "rewards": [-1, -4, -3, 14, 32], "path": ["0", "0", "1", "2", "3", "8", "9"], "rt": [11873, 496, 576, 413, 389], "actions": ["up", "up", "up", "left", "up"], "actionTimes": [14260, 15268, 16348, 17268, 18179], "queries": {"click": {"state": {"target": ["30", "32", "21"], "time": [4513, 5918, 9401]}, "edge": {"target": [], "time": []}}, "mouseover": {"state": {"target": ["23", "24", "25", "30", "32", "21", "12"], "time": [3159, 3259, 3360, 3826, 5258, 7209, 13288]}, "edge": {"target": [], "time": []}}, "mouseout": {"state": {"target": ["0", "23", "24", "25", "30", "32", "21", "12"], "time": [3144, 3209, 3309, 3776, 5159, 6592, 13023, 13338]}, "edge": {"target": [], "time": []}}}, "displayed_time": "18.69", "trialTime": 21154, "trial_type": "mouselab-mdp", "trial_index": 28, "time_elapsed": 1247452, "internal_node_id": "0.0-4.0-1.0-19.0"}}, {"uniqueid": "w22592146:a98133500", "current_trial": 29, "dateTime": 1691160827332, "trialdata": {"revealed_states": [], "clicked_states": ["16", "11", "5"], "num_clicks_accrued": [0, 0, 0, 0, 0, 0, 0, 0, 0, 0, 0, 0, 0], "stateRewards": ["", -1, 2, -2, 5, 80, -61, -27, 12, 44, -26, -75, -2, -4, 1, -16, 42, -49, -50, 4, -44, 2, 80, -2, -2, 5, -2, 59, 10, 24, 7, -48, -86, -44], "withholdReward": false, "trial_id": "mdp_trial_21", "block": "test", "trialIndex": 22, "score": 77.55, "costs": -6.449999999999999, "simulationMode": [null, null, null, null, null], "rewards": [-1, 2, -2, 5, 80], "path": ["0", "0", "1", "2", "3", "4", "5"], "rt": [13779, 277, 634, 187, 225], "actions": ["up", "up", "up", "right", "up"], "actionTimes": [16121, 16909, 18048, 18750, 19488], "queries": {"click": {"state": {"target": ["16", "11", "5"], "time": [3880, 7263, 11372]}, "edge": {"target": [], "time": []}}, "mouseover": {"state": {"target": ["18", "16", "6", "4", "3", "8", "11", "9", "5", "6", "7"], "time": [3068, 3286, 4634, 4690, 4802, 4902, 5435, 10632, 10749, 12315, 15197]}, "edge": {"target": [], "time": []}}, "mouseout": {"state": {"target": ["0", "18", "16", "6", "4", "3", "8", "11", "9", "5", "6", "7", "3", "2", "1", "0"], "time": [3014, 3085, 4552, 4668, 4769, 4852, 5318, 10563, 10666, 12265, 12381, 15296, 20995, 21028, 21061, 21127]}, "edge": {"target": [], "time": []}}}, "displayed_time": "20.00", "trialTime": 22057, "trial_type": "mouselab-mdp", "trial_index": 29, "time_elapsed": 1269753, "internal_node_id": "0.0-4.0-1.0-20.0"}}, {"uniqueid": "w22592146:a98133500", "current_trial": 30, "dateTime": 1691160849860, "trialdata": {"revealed_states": [], "clicked_states": ["20", "16", "5"], "num_clicks_accrued": [0, 0, 0, 0, 0, 0, 0, 0, 0, 0, 0, 0, 0], "stateRewards": ["", -1, 2, -6, 6, 43, 78, 78, -2, 55, -29, -17, -2, -4, 1, -15, 13, 7, -79, 8, -28, -68, 36, -1, -3, 3, -16, 84, -18, 87, 10, 32, 13, -81], "withholdReward": false, "trial_id": "mdp_trial_22", "block": "test", "trialIndex": 23, "score": 37.55, "costs": -6.449999999999999, "simulationMode": [null, null, null, null, null], "rewards": [-1, 2, -6, 6, 43], "path": ["0", "0", "1", "2", "3", "4", "5"], "rt": [14007, 300, 408, 149, 170], "actions": ["up", "up", "up", "right", "up"], "actionTimes": [16788, 17594, 18518, 19174, 19862], "queries": {"click": {"state": {"target": ["20", "16", "5"], "time": [4414, 8444, 12748]}, "edge": {"target": [], "time": []}}, "mouseover": {"state": {"target": ["12", "13", "14", "20", "14", "15", "14", "19", "14", "15", "16", "4", "5", "3"], "time": [3548, 3630, 3780, 3963, 5397, 5613, 7230, 7313, 7779, 7828, 7996, 11945, 12343, 14560]}, "edge": {"target": [], "time": []}}, "mouseout": {"state": {"target": ["0", "12", "13", "14", "20", "14", "15", "14", "19", "14", "15", "16", "4", "5", "3", "2", "1", "0"], "time": [2314, 3597, 3730, 3831, 5248, 5414, 7197, 7262, 7746, 7812, 7929, 11777, 12010, 14260, 21273, 21356, 21390, 21439]}, "edge": {"target": [], "time": []}}}, "displayed_time": "20.38", "trialTime": 22256, "trial_type": "mouselab-mdp", "trial_index": 30, "time_elapsed": 1292281, "internal_node_id": "0.0-4.0-1.0-21.0"}}, {"uniqueid": "w22592146:a98133500", "current_trial": 31, "dateTime": 1691160873689, "trialdata": {"revealed_states": [], "clicked_states": ["27", "29", "33"], "num_clicks_accrued": [0, 0, 0, 0, 0, 0, 0, 0, 0, 0, 0, 0, 0], "stateRewards": ["", 2, -1, 4, -9, -43, 7, 54, -13, 38, -40, -83, -1, 2, -8, -10, 34, -33, 11, -14, -79, 65, 26, 1, 2, 4, 10, 21, 1, 86, 4, -53, 28, -29], "withholdReward": false, "trial_id": "mdp_trial_23", "block": "test", "trialIndex": 24, "score": 96.55, "costs": -6.449999999999999, "simulationMode": [null, null, null, null, null], "rewards": [1, 2, 4, 10, 86], "path": ["0", "0", "23", "24", "25", "26", "29"], "rt": [12955, 246, 542, 503, 222], "actions": ["left", "left", "left", "up", "left"], "actionTimes": [16021, 16781, 17827, 18837, 19572], "queries": {"click": {"state": {"target": ["27", "29", "33"], "time": [4964, 8409, 12210]}, "edge": {"target": [], "time": []}}, "mouseover": {"state": {"target": ["23", "24", "25", "26", "27", "29", "33"], "time": [3790, 3873, 4023, 4340, 4574, 6055, 9670]}, "edge": {"target": [], "time": []}}, "mouseout": {"state": {"target": ["0", "23", "24", "25", "26", "27", "29", "33", "30"], "time": [1090, 3839, 3956, 4256, 4490, 5831, 9504, 15322, 20849]}, "edge": {"target": [], "time": []}}}, "displayed_time": "20.08", "trialTime": 23537, "trial_type": "mouselab-mdp", "trial_index": 31, "time_elapsed": 1316110, "internal_node_id": "0.0-4.0-1.0-22.0"}}, {"uniqueid": "w22592146:a98133500", "current_trial": 32, "dateTime": 1691160895403, "trialdata": {"revealed_states": [], "clicked_states": ["27", "11", "5"], "num_clicks_accrued": [0, 0, 0, 0, 0, 0, 0, 0, 0, 0, 0, 0, 0], "stateRewards": ["", -2, 2, 3, -7, 76, 63, 21, 15, 35, -8, -44, 1, 1, -2, -12, 23, 24, 76, -9, 46, 66, -49, -2, -1, 7, 12, 40, -71, -45, -6, 38, -49, 46], "withholdReward": false, "trial_id": "mdp_trial_24", "block": "test", "trialIndex": 25, "score": 65.55, "costs": -6.449999999999999, "simulationMode": [null, null, null, null, null], "rewards": [-2, 2, 3, -7, 76], "path": ["0", "0", "1", "2", "3", "4", "5"], "rt": [13646, 265, 81, 634, 50], "actions": ["up", "up", "up", "right", "up"], "actionTimes": [16245, 17029, 17628, 18781, 19347], "queries": {"click": {"state": {"target": ["27", "11", "5"], "time": [4041, 7690, 11798]}, "edge": {"target": [], "time": []}}, "mouseover": {"state": {"target": ["28", "27", "11", "9", "11", "10", "2", "4", "5"], "time": [3286, 3652, 5685, 5985, 6585, 10561, 11099, 11232, 11348]}, "edge": {"target": [], "time": []}}, "mouseout": {"state": {"target": ["0", "28", "27", "11", "9", "11", "10", "2", "4", "5", "1", "0"], "time": [2086, 3370, 4257, 5701, 6501, 9949, 11033, 11115, 11316, 20561, 20661, 20728]}, "edge": {"target": [], "time": []}}}, "displayed_time": "19.88", "trialTime": 21442, "trial_type": "mouselab-mdp", "trial_index": 32, "time_elapsed": 1337824, "internal_node_id": "0.0-4.0-1.0-23.0"}}, {"uniqueid": "w22592146:a98133500", "current_trial": 33, "dateTime": 1691160917196, "trialdata": {"revealed_states": [], "clicked_states": ["28", "10", "11"], "num_clicks_accrued": [0, 0, 0, 0, 0, 0, 0, 0, 0, 0, 0, 0, 0], "stateRewards": ["", 2, -4, 4, 9, 69, 9, -75, 12, -86, 66, 25, -1, 3, 2, -13, -88, -3, 1, 4, -69, 49, -84, 2, -1, 4, 2, -18, -81, -52, -15, -69, -54, 25], "withholdReward": false, "trial_id": "mdp_trial_25", "block": "test", "trialIndex": 26, "score": 73.55, "costs": -6.449999999999999, "simulationMode": [null, null, null, null, null], "rewards": [2, -4, 4, 12, 66], "path": ["0", "0", "1", "2", "3", "8", "10"], "rt": [13104, 558, 122, 359, 177], "actions": ["up", "up", "up", "left", "down"], "actionTimes": [15954, 17021, 17652, 18521, 19206], "queries": {"click": {"state": {"target": ["28", "10", "11"], "time": [4483, 8026, 11569]}, "edge": {"target": [], "time": []}}, "mouseover": {"state": {"target": ["23", "24", "28", "10", "11"], "time": [3600, 3734, 3833, 5701, 9464]}, "edge": {"target": [], "time": []}}, "mouseout": {"state": {"target": ["0", "23", "24", "28", "10", "11"], "time": [3567, 3651, 3767, 4705, 9114, 20826]}, "edge": {"target": [], "time": []}}}, "displayed_time": "19.71", "trialTime": 21509, "trial_type": "mouselab-mdp", "trial_index": 33, "time_elapsed": 1359617, "internal_node_id": "0.0-4.0-1.0-24.0"}}, {"uniqueid": "w22592146:a98133500", "current_trial": 34, "dateTime": 1691160936859, "trialdata": {"revealed_states": [], "clicked_states": ["5", "9", "4"], "num_clicks_accrued": [0, 0, 0, 0, 0, 0, 0, 0, 0, 0, 0, 0, 0], "stateRewards": ["", -1, -4, -1, -11, 43, 69, 39, 4, 17, -20, -82, -2, -1, 4, 8, -79, 24, -79, 11, 36, 64, 41, 2, 4, -1, 11, -79, -47, 75, -3, 63, -36, -19], "withholdReward": false, "trial_id": "mdp_trial_26", "block": "test", "trialIndex": 27, "score": -89.85, "costs": -5.85, "simulationMode": [null, null, null, null, null], "rewards": [-1, -4, -1, 4, -82], "path": ["0", "0", "1", "2", "3", "8", "11"], "rt": [11273, 469, 35, 310, 581], "actions": ["up", "up", "up", "left", "left"], "actionTimes": [12765, 13741, 14290, 15130, 16202], "queries": {"click": {"state": {"target": ["5", "9", "4"], "time": [3004, 7024, 10563]}, "edge": {"target": [], "time": []}}, "mouseover": {"state": {"target": ["1", "7", "4", "5", "9", "9", "4", "2", "1"], "time": [2259, 2392, 2425, 2608, 4074, 6609, 7889, 11754, 11804]}, "edge": {"target": [], "time": []}}, "mouseout": {"state": {"target": ["1", "7", "4", "5", "9", "9", "4", "2", "1", "12"], "time": [2341, 2408, 2508, 3217, 6340, 7756, 11655, 11776, 17734, 17801]}, "edge": {"target": [], "time": []}}}, "displayed_time": "16.72", "trialTime": 19372, "trial_type": "mouselab-mdp", "trial_index": 34, "time_elapsed": 1379280, "internal_node_id": "0.0-4.0-1.0-25.0"}}, {"uniqueid": "w22592146:a98133500", "current_trial": 35, "dateTime": 1691160958110, "trialdata": {"revealed_states": [], "clicked_states": ["16", "20", "22"], "num_clicks_accrued": [0, 0, 0, 0, 0, 0, 0, 0, 0, 0, 0, 0, 0], "stateRewards": ["", 1, 1, -2, 7, -31, -6, 76, 1, -36, -16, -53, 2, 1, 7, 13, -47, -10, 47, -7, 72, 46, -56, -2, -2, -2, 11, -80, 44, 38, 16, 67, 85, -78], "withholdReward": false, "trial_id": "mdp_trial_27", "block": "test", "trialIndex": 28, "score": 68.55, "costs": -6.449999999999999, "simulationMode": [null, null, null, null, null], "rewards": [2, 1, 7, -7, 72], "path": ["0", "0", "12", "13", "14", "19", "20"], "rt": [13055, 218, 326, 300, 251], "actions": ["right", "right", "right", "down", "right"], "actionTimes": [15317, 16051, 16892, 17701, 18468], "queries": {"click": {"state": {"target": ["16", "20", "22"], "time": [4935, 7864, 11221]}, "edge": {"target": [], "time": []}}, "mouseover": {"state": {"target": ["7", "18", "18", "15", "16", "17", "20", "19", "22", "19"], "time": [3256, 3457, 3821, 3990, 4421, 6087, 7352, 8918, 9201, 12415]}, "edge": {"target": [], "time": []}}, "mouseout": {"state": {"target": ["0", "7", "18", "18", "15", "16", "16", "17", "20", "19", "22", "19", "20", "19"], "time": [1404, 3307, 3540, 3873, 4386, 5148, 6020, 7185, 8835, 9068, 12366, 12550, 19746, 19796]}, "edge": {"target": [], "time": []}}}, "displayed_time": "18.98", "trialTime": 20944, "trial_type": "mouselab-mdp", "trial_index": 35, "time_elapsed": 1400531, "internal_node_id": "0.0-4.0-1.0-26.0"}}, {"uniqueid": "w22592146:a98133500", "current_trial": 36, "dateTime": 1691160979192, "trialdata": {"revealed_states": [], "clicked_states": ["32", "27", "29"], "num_clicks_accrued": [0, 0, 0, 0, 0, 0, 0, 0, 0, 0, 0, 0, 0], "stateRewards": ["", 2, -1, -2, -5, -47, -57, -33, -11, 31, -18, -72, -2, 1, -4, -8, -46, -53, -50, 15, -85, -9, 39, -2, -2, 1, 14, -1, -8, 53, -12, -41, -74, 62], "withholdReward": false, "trial_id": "mdp_trial_28", "block": "test", "trialIndex": 29, "score": 57.55, "costs": -6.449999999999999, "simulationMode": [null, null, null, null, null], "rewards": [-2, -2, 1, 14, 53], "path": ["0", "0", "23", "24", "25", "26", "29"], "rt": [12830, 208, 483, 69, 545], "actions": ["left", "left", "left", "up", "left"], "actionTimes": [14824, 15535, 16511, 17095, 18154], "queries": {"click": {"state": {"target": ["32", "27", "29"], "time": [4090, 7333, 10819]}, "edge": {"target": [], "time": []}}, "mouseover": {"state": {"target": ["23", "24", "30", "32", "30", "25", "26", "27", "29", "26"], "time": [2765, 2831, 3048, 3665, 4916, 4970, 5030, 5131, 10211, 14009]}, "edge": {"target": [], "time": []}}, "mouseout": {"state": {"target": ["0", "23", "24", "30", "32", "30", "25", "26", "27", "27", "29", "26", "24"], "time": [2715, 2815, 2881, 3415, 4883, 4951, 4997, 5081, 7558, 10028, 13493, 19425, 19508]}, "edge": {"target": [], "time": []}}}, "displayed_time": "18.66", "trialTime": 20780, "trial_type": "mouselab-mdp", "trial_index": 36, "time_elapsed": 1421613, "internal_node_id": "0.0-4.0-1.0-27.0"}}, {"uniqueid": "w22592146:a98133500", "current_trial": 37, "dateTime": 1691161000423, "trialdata": {"revealed_states": [], "clicked_states": ["5", "16", "9"], "num_clicks_accrued": [0, 0, 0, 0, 0, 0, 0, 0, 0, 0, 0, 0, 0], "stateRewards": ["", 1, 2, -3, -5, 66, -50, -47, -5, 1, 28, -27, 1, 1, -1, -6, 37, -25, 56, 1, -82, -66, -40, -1, -4, -7, 15, -61, -23, 26, 10, 14, -56, 29], "withholdReward": false, "trial_id": "mdp_trial_29", "block": "test", "trialIndex": 30, "score": 54.55, "costs": -6.449999999999999, "simulationMode": [null, null, null, null, null], "rewards": [1, 2, -3, -5, 66], "path": ["0", "0", "1", "2", "3", "4", "5"], "rt": [13573, 339, 11, 600, 269], "actions": ["up", "up", "up", "right", "up"], "actionTimes": [15247, 16097, 16602, 17726, 18509], "queries": {"click": {"state": {"target": ["5", "16", "9"], "time": [3231, 6821, 11216]}, "edge": {"target": [], "time": []}}, "mouseover": {"state": {"target": ["1", "4", "5", "5", "6", "16", "7", "3", "8", "9", "3"], "time": [2346, 2495, 2579, 2713, 4145, 4828, 10391, 10459, 10593, 10725, 12891]}, "edge": {"target": [], "time": []}}, "mouseout": {"state": {"target": ["0", "1", "4", "5", "5", "5", "6", "16", "7", "3", "8", "9", "9", "3", "2", "1", "0"], "time": [2296, 2395, 2545, 2613, 3449, 4081, 4198, 10327, 10408, 10508, 10692, 11429, 12375, 13674, 20021, 20071, 20105]}, "edge": {"target": [], "time": []}}}, "displayed_time": "19.02", "trialTime": 20901, "trial_type": "mouselab-mdp", "trial_index": 37, "time_elapsed": 1442844, "internal_node_id": "0.0-4.0-1.0-28.0"}}, {"uniqueid": "w22592146:a98133500", "current_trial": 38, "dateTime": 1691161022815, "trialdata": {"revealed_states": [], "clicked_states": ["9", "6", "16"], "num_clicks_accrued": [0, 0, 0, 0, 0, 0, 0, 0, 0, 0, 0, 0, 0], "stateRewards": ["", 2, 3, -2, -8, -8, -41, 74, 15, -23, -80, 1, 1, 3, 3, -15, -63, -78, 67, 13, 75, -41, 86, 2, -2, 6, -3, -8, -49, 50, -6, 83, 74, 80], "withholdReward": false, "trial_id": "mdp_trial_30", "block": "test", "trialIndex": 31, "score": 67.55, "costs": -6.449999999999999, "simulationMode": [null, null, null, null, null], "rewards": [2, -2, 6, -6, 74], "path": ["0", "0", "23", "24", "25", "30", "32"], "rt": [13411, 137, 462, 92, 558], "actions": ["left", "left", "left", "down", "down"], "actionTimes": [15219, 15857, 16832, 17461, 18511], "queries": {"click": {"state": {"target": ["9", "6", "16"], "time": [3507, 7829, 10788]}, "edge": {"target": [], "time": []}}, "mouseover": {"state": {"target": ["1", "8", "9", "3", "7", "6", "16", "18", "1"], "time": [2508, 2675, 3175, 4657, 5074, 5341, 10255, 14220, 14387]}, "edge": {"target": [], "time": []}}, "mouseout": {"state": {"target": ["0", "1", "8", "9", "3", "7", "6", "16", "18", "1", "12"], "time": [1212, 2541, 2709, 4559, 4791, 5192, 9922, 14137, 14253, 20051, 20318]}, "edge": {"target": [], "time": []}}}, "displayed_time": "19.02", "trialTime": 22082, "trial_type": "mouselab-mdp", "trial_index": 38, "time_elapsed": 1465237, "internal_node_id": "0.0-4.0-1.0-29.0"}}, {"uniqueid": "w22592146:a98133500", "current_trial": 39, "dateTime": 1691161043916, "trialdata": {"revealed_states": [], "clicked_states": ["21", "7", "5"], "num_clicks_accrued": [0, 0, 0, 0, 0, 0, 0, 0, 0, 0, 0, 0, 0], "stateRewards": ["", -1, -4, -1, -5, -28, -23, -15, -15, -38, 59, -87, 2, 2, -5, 9, -55, -39, -71, -6, 85, -85, -11, -1, -2, 5, -10, 1, 25, 41, -4, 69, -35, 86], "withholdReward": false, "trial_id": "mdp_trial_31", "block": "test", "trialIndex": 32, "score": -13.45, "costs": -6.449999999999999, "simulationMode": [null, null, null, null, null], "rewards": [-1, -2, 5, -10, 1], "path": ["0", "0", "23", "24", "25", "26", "27"], "rt": [13122, 121, 276, 133, 76], "actions": ["left", "left", "left", "up", "up"], "actionTimes": [15016, 15643, 16455, 17105, 17697], "queries": {"click": {"state": {"target": ["21", "7", "5"], "time": [3011, 6469, 10621]}, "edge": {"target": [], "time": []}}, "mouseover": {"state": {"target": ["12", "22", "21", "13", "18", "7", "6", "5", "3", "10"], "time": [2278, 2325, 2593, 3893, 3976, 5192, 9107, 10223, 14121, 14221]}, "edge": {"target": [], "time": []}}, "mouseout": {"state": {"target": ["0", "0", "12", "22", "21", "13", "18", "7", "6", "5", "5", "3", "10", "23"], "time": [1177, 1393, 2293, 2376, 3659, 3943, 4026, 6696, 10150, 10833, 14088, 14154, 14271, 19102]}, "edge": {"target": [], "time": []}}}, "displayed_time": "18.19", "trialTime": 20794, "trial_type": "mouselab-mdp", "trial_index": 39, "time_elapsed": 1486337, "internal_node_id": "0.0-4.0-1.0-30.0"}}, {"uniqueid": "w22592146:a98133500", "current_trial": 40, "dateTime": 1691161064623, "trialdata": {"revealed_states": [], "clicked_states": ["20", "5", "29"], "num_clicks_accrued": [0, 0, 0, 0, 0, 0, 0, 0, 0, 0, 0, 0, 0], "stateRewards": ["", -2, 3, -1, 2, -72, 63, 20, -1, 62, -66, 39, -2, 3, -6, 14, 22, 47, 1, 8, -49, -1, -41, 2, 2, -6, -16, -64, -60, -34, 16, 54, 22, -7], "withholdReward": false, "trial_id": "mdp_trial_32", "block": "test", "trialIndex": 33, "score": 49.55, "costs": -6.449999999999999, "simulationMode": [null, null, null, null, null], "rewards": [-2, 3, -6, 14, 47], "path": ["0", "0", "12", "13", "14", "15", "17"], "rt": [12544, 161, 246, 63, 526], "actions": ["right", "right", "right", "up", "right"], "actionTimes": [14148, 14817, 15569, 16152, 17182], "queries": {"click": {"state": {"target": ["20", "5", "29"], "time": [3201, 6568, 9858]}, "edge": {"target": [], "time": []}}, "mouseover": {"state": {"target": ["13", "14", "20", "20", "14", "15", "16", "6", "5", "9", "11", "27", "29"], "time": [2260, 2326, 2410, 2759, 4192, 4260, 4326, 4742, 4827, 7308, 7358, 7575, 8458]}, "edge": {"target": [], "time": []}}, "mouseout": {"state": {"target": ["0", "13", "14", "20", "20", "14", "15", "16", "6", "5", "9", "11", "27", "29", "29", "30", "31"], "time": [2164, 2310, 2343, 2510, 3976, 4226, 4310, 4344, 4792, 7141, 7341, 7408, 8209, 10082, 18453, 18869, 18885]}, "edge": {"target": [], "time": []}}}, "displayed_time": "17.69", "trialTime": 20394, "trial_type": "mouselab-mdp", "trial_index": 40, "time_elapsed": 1507044, "internal_node_id": "0.0-4.0-1.0-31.0"}}, {"uniqueid": "w22592146:a98133500", "current_trial": 41, "dateTime": 1691161085187, "trialdata": {"revealed_states": [], "clicked_states": ["11", "5", "16"], "num_clicks_accrued": [0, 0, 0, 0, 0, 0, 0, 0, 0, 0, 0, 0, 0], "stateRewards": ["", -2, -3, 7, -13, 60, 9, 37, -6, 37, 20, 1, 2, -2, -8, 6, -80, -31, -10, -7, 70, -65, -44, -1, 1, 7, 6, -11, 73, -85, 16, -21, 47, 34], "withholdReward": false, "trial_id": "mdp_trial_33", "block": "test", "trialIndex": 34, "score": 42.55, "costs": -6.449999999999999, "simulationMode": [null, null, null, null, null], "rewards": [-2, -3, 7, -13, 60], "path": ["0", "0", "1", "2", "3", "4", "5"], "rt": [12513, 50, 182, 111, 569], "actions": ["up", "up", "up", "right", "up"], "actionTimes": [13970, 14539, 15238, 15867, 16941], "queries": {"click": {"state": {"target": ["11", "5", "16"], "time": [2772, 6475, 9906]}, "edge": {"target": [], "time": []}}, "mouseover": {"state": {"target": ["1", "10", "8", "11", "5", "6", "16", "16", "18", "1", "2"], "time": [2110, 2177, 2227, 2411, 4093, 7208, 7325, 7758, 11423, 12106, 13372]}, "edge": {"target": [], "time": []}}, "mouseout": {"state": {"target": ["0", "1", "10", "8", "11", "5", "6", "16", "16", "18", "1", "2", "1"], "time": [812, 2143, 2195, 2294, 3726, 7125, 7226, 7442, 11356, 11506, 13338, 18387, 18436]}, "edge": {"target": [], "time": []}}}, "displayed_time": "17.45", "trialTime": 20251, "trial_type": "mouselab-mdp", "trial_index": 41, "time_elapsed": 1527609, "internal_node_id": "0.0-4.0-1.0-32.0"}}, {"uniqueid": "w22592146:a98133500", "current_trial": 42, "dateTime": 1691161105865, "trialdata": {"revealed_states": [], "clicked_states": ["20", "16", "9"], "num_clicks_accrued": [0, 0, 0, 0, 0, 0, 0, 0, 0, 0, 0, 0, 0], "stateRewards": ["", -2, 4, -3, -13, 63, -36, 62, 11, 78, 34, -51, 2, -2, 8, -6, -40, -18, 31, 9, 64, 39, 79, 1, 4, -4, 15, -12, 76, 73, -10, -77, 86, -4], "withholdReward": false, "trial_id": "mdp_trial_34", "block": "test", "trialIndex": 35, "score": 81.55, "costs": -6.449999999999999, "simulationMode": [null, null, null, null, null], "rewards": [-2, 4, -3, 11, 78], "path": ["0", "0", "1", "2", "3", "8", "9"], "rt": [13195, 130, 312, 75, 141], "actions": ["up", "up", "up", "left", "up"], "actionTimes": [14946, 15584, 16414, 16994, 17644], "queries": {"click": {"state": {"target": ["20", "16", "9"], "time": [3272, 6646, 10894]}, "edge": {"target": [], "time": []}}, "mouseover": {"state": {"target": ["12", "13", "19", "20", "14", "15", "16", "4", "9", "1"], "time": [2341, 2407, 2525, 2723, 4540, 4624, 4890, 9822, 10187, 12436]}, "edge": {"target": [], "time": []}}, "mouseout": {"state": {"target": ["0", "12", "13", "19", "20", "14", "15", "16", "4", "9", "1", "0"], "time": [1275, 2374, 2423, 2640, 4406, 4590, 4740, 9042, 9854, 12169, 13536, 18834]}, "edge": {"target": [], "time": []}}}, "displayed_time": "18.15", "trialTime": 20352, "trial_type": "mouselab-mdp", "trial_index": 42, "time_elapsed": 1548286, "internal_node_id": "0.0-4.0-1.0-33.0"}}, {"uniqueid": "w22592146:a98133500", "current_trial": 43, "dateTime": 1691161126998, "trialdata": {"revealed_states": [], "clicked_states": ["29", "11", "5"], "num_clicks_accrued": [0, 0, 0, 0, 0, 0, 0, 0, 0, 0, 0, 0, 0], "stateRewards": ["", 1, -1, 4, -2, -75, -75, 84, -9, -60, -79, 59, 2, -4, 8, 9, -17, -82, 80, 14, -4, 49, 49, -1, 3, 6, -11, -33, 34, 55, 9, -57, 5, 59], "withholdReward": false, "trial_id": "mdp_trial_35", "block": "test", "trialIndex": 36, "score": 47.55, "costs": -6.449999999999999, "simulationMode": [null, null, null, null, null], "rewards": [1, -1, 4, -9, 59], "path": ["0", "0", "1", "2", "3", "8", "11"], "rt": [11494, 14, 136, 59, 441], "actions": ["up", "up", "up", "left", "left"], "actionTimes": [14791, 15305, 15959, 16533, 17496], "queries": {"click": {"state": {"target": ["29", "11", "5"], "time": [4683, 7810, 11139]}, "edge": {"target": [], "time": []}}, "mouseover": {"state": {"target": ["23", "26", "29", "11", "9", "11", "5"], "time": [3926, 4111, 4260, 5676, 5860, 6893, 8759]}, "edge": {"target": [], "time": []}}, "mouseout": {"state": {"target": ["0", "23", "26", "29", "11", "9", "11", "5", "4", "7", "18", "13"], "time": [3911, 3961, 4177, 5443, 5710, 6758, 8643, 13956, 18788, 18821, 18937, 19021]}, "edge": {"target": [], "time": []}}}, "displayed_time": "17.99", "trialTime": 20798, "trial_type": "mouselab-mdp", "trial_index": 43, "time_elapsed": 1569419, "internal_node_id": "0.0-4.0-1.0-34.0"}}, {"uniqueid": "w22592146:a98133500", "current_trial": 44, "dateTime": 1691161148144, "trialdata": {"revealed_states": [], "clicked_states": ["22", "7", "31"], "num_clicks_accrued": [0, 0, 0, 0, 0, 0, 0, 0, 0, 0, 0, 0, 0], "stateRewards": ["", 1, 3, 3, -10, 52, 68, 59, 12, 7, 49, 21, -2, -3, -4, -2, -2, 63, 63, -4, 44, 43, -76, -2, -3, -6, 13, 48, 36, 12, -5, -36, -33, -11], "withholdReward": false, "trial_id": "mdp_trial_36", "block": "test", "trialIndex": 37, "score": 19.55, "costs": -6.449999999999999, "simulationMode": [null, null, null, null, null], "rewards": [1, 3, 3, 12, 7], "path": ["0", "0", "1", "2", "3", "8", "9"], "rt": [12300, 258, 545, 273, 175], "actions": ["up", "up", "up", "left", "up"], "actionTimes": [14104, 14867, 15921, 16698, 17383], "queries": {"click": {"state": {"target": ["22", "7", "31"], "time": [3009, 6349, 10155]}, "edge": {"target": [], "time": []}}, "mouseover": {"state": {"target": ["0", "12", "22", "22", "13", "7", "2", "10", "28", "24", "31"], "time": [2148, 2166, 2247, 2597, 4331, 4581, 7246, 7445, 8178, 8428, 8678]}, "edge": {"target": [], "time": []}}, "mouseout": {"state": {"target": ["0", "0", "12", "22", "22", "13", "7", "2", "10", "28", "24", "31", "31"], "time": [799, 2165, 2180, 2315, 4247, 4415, 7196, 7296, 8045, 8395, 8445, 10383, 13310]}, "edge": {"target": [], "time": []}}}, "displayed_time": "17.88", "trialTime": 20741, "trial_type": "mouselab-mdp", "trial_index": 44, "time_elapsed": 1590566, "internal_node_id": "0.0-4.0-1.0-35.0"}}, {"uniqueid": "w22592146:a98133500", "current_trial": 45, "dateTime": 1691161171175, "trialdata": {"revealed_states": [], "clicked_states": ["6", "5", "9"], "num_clicks_accrued": [0, 0, 0, 0, 0, 0, 0, 0, 0, 0, 0, 0, 0], "stateRewards": ["", 2, -1, -1, -9, -81, -30, 55, -6, 78, 25, 62, 2, 4, -1, 9, -85, 1, -19, 1, -60, 12, -34, 1, 4, -1, -13, -24, -16, -83, -8, 16, 43, 9], "withholdReward": false, "trial_id": "mdp_trial_37", "block": "test", "trialIndex": 38, "score": 65.55, "costs": -6.449999999999999, "simulationMode": [null, null, null, null, null], "rewards": [2, -1, -1, -6, 78], "path": ["0", "0", "1", "2", "3", "8", "9"], "rt": [14474, 284, 299, 115, 161], "actions": ["up", "up", "up", "left", "up"], "actionTimes": [16622, 17422, 18237, 18870, 19549], "queries": {"click": {"state": {"target": ["6", "5", "9"], "time": [4803, 8664, 12392]}, "edge": {"target": [], "time": []}}, "mouseover": {"state": {"target": ["1", "1", "7", "4", "6", "5", "9", "8", "10", "10", "8", "3", "2"], "time": [2878, 3760, 4075, 4108, 4309, 5644, 9848, 13339, 13422, 15773, 15837, 16004, 16087]}, "edge": {"target": [], "time": []}}, "mouseout": {"state": {"target": ["0", "1", "1", "7", "4", "6", "5", "9", "8", "10", "10", "8", "3", "2", "7", "17", "14", "22", "22"], "time": [2794, 2993, 4025, 4092, 4142, 5560, 9591, 13305, 13389, 13527, 15822, 15954, 16037, 20719, 20803, 21186, 21455, 21536, 21669]}, "edge": {"target": [], "time": []}}}, "displayed_time": "20.05", "trialTime": 22627, "trial_type": "mouselab-mdp", "trial_index": 45, "time_elapsed": 1613596, "internal_node_id": "0.0-4.0-1.0-36.0"}}, {"uniqueid": "w22592146:a98133500", "current_trial": 46, "dateTime": 1691161194835, "trialdata": {"revealed_states": [], "clicked_states": ["17", "18", "5"], "num_clicks_accrued": [0, 0, 0, 0, 0, 0, 0, 0, 0, 0, 0, 0, 0], "stateRewards": ["", 2, -1, -1, 7, 11, -40, -22, -2, 69, 37, 8, -2, 4, -8, -12, -2, -72, -3, -12, 17, 63, 12, 1, 3, -7, 6, 25, 61, 61, -9, 28, -17, 27], "withholdReward": false, "trial_id": "mdp_trial_38", "block": "test", "trialIndex": 39, "score": 9.55, "costs": -6.449999999999999, "simulationMode": [null, null, null, null, null], "rewards": [1, 3, -7, -9, 28], "path": ["0", "0", "23", "24", "25", "30", "31"], "rt": [13557, 351, 587, 304, 403], "actions": ["left", "left", "left", "down", "right"], "actionTimes": [16197, 17049, 18150, 18967, 19883], "queries": {"click": {"state": {"target": ["17", "18", "5"], "time": [4157, 6941, 11541]}, "edge": {"target": [], "time": []}}, "mouseover": {"state": {"target": ["18", "15", "17", "15", "18", "5"], "time": [3270, 3586, 3701, 5133, 5984, 9199]}, "edge": {"target": [], "time": []}}, "mouseout": {"state": {"target": ["0", "18", "15", "17", "15", "18", "5", "0"], "time": [2135, 3354, 3601, 5102, 5168, 8950, 13780, 21445]}, "edge": {"target": [], "time": []}}}, "displayed_time": "20.39", "trialTime": 23290, "trial_type": "mouselab-mdp", "trial_index": 46, "time_elapsed": 1637257, "internal_node_id": "0.0-4.0-1.0-37.0"}}, {"uniqueid": "w22592146:a98133500", "current_trial": 47, "dateTime": 1691161216151, "trialdata": {"revealed_states": [], "clicked_states": ["16", "5", "9"], "num_clicks_accrued": [0, 0, 0, 0, 0, 0, 0, 0, 0, 0, 0, 0, 0], "stateRewards": ["", 2, -1, 1, 10, -52, 86, -22, -2, -14, -63, 38, 1, 3, 7, -8, 11, -32, -27, 9, -71, 40, -87, -2, -1, 5, -7, 12, 31, -57, 13, 86, -58, 29], "withholdReward": false, "trial_id": "mdp_trial_39", "block": "test", "trialIndex": 40, "score": -57.45, "costs": -6.449999999999999, "simulationMode": [null, null, null, null, null], "rewards": [1, 3, 7, 9, -71], "path": ["0", "0", "12", "13", "14", "19", "20"], "rt": [12774, 272, 41, 102, 282], "actions": ["right", "right", "right", "down", "right"], "actionTimes": [14536, 15311, 15863, 16474, 17269], "queries": {"click": {"state": {"target": ["16", "5", "9"], "time": [3565, 7259, 10145]}, "edge": {"target": [], "time": []}}, "mouseover": {"state": {"target": ["1", "16", "16", "4", "5", "9", "8"], "time": [2742, 2925, 3142, 4642, 4858, 9140, 13488]}, "edge": {"target": [], "time": []}}, "mouseout": {"state": {"target": ["0", "1", "16", "16", "4", "5", "9", "8", "24", "25"], "time": [926, 2808, 3026, 3784, 4779, 8706, 13438, 13554, 18585, 18852]}, "edge": {"target": [], "time": []}}}, "displayed_time": "17.77", "trialTime": 20906, "trial_type": "mouselab-mdp", "trial_index": 47, "time_elapsed": 1658572, "internal_node_id": "0.0-4.0-1.0-38.0"}}, {"uniqueid": "w22592146:a98133500", "current_trial": 48, "dateTime": 1691161236167, "trialdata": {"revealed_states": [], "clicked_states": ["29", "33", "9"], "num_clicks_accrued": [0, 0, 0, 0, 0, 0, 0, 0, 0, 0, 0, 0, 0], "stateRewards": ["", 2, 4, -3, 16, -58, 30, -35, 11, -60, 47, 27, -2, -1, -7, -16, 23, -70, 68, -10, -65, -43, -34, -2, 1, 7, 9, -63, 34, -31, -8, -12, -86, 59], "withholdReward": false, "trial_id": "mdp_trial_40", "block": "test", "trialIndex": 41, "score": 50.55, "costs": -6.449999999999999, "simulationMode": [null, null, null, null, null], "rewards": [-2, 1, 7, -8, 59], "path": ["0", "0", "23", "24", "25", "30", "33"], "rt": [12336, 262, 631, 88, 215], "actions": ["left", "left", "left", "down", "left"], "actionTimes": [13956, 14715, 15867, 16457, 17183], "queries": {"click": {"state": {"target": ["29", "33", "9"], "time": [2946, 6535, 9979]}, "edge": {"target": [], "time": []}}, "mouseover": {"state": {"target": ["23", "24", "25", "29", "33", "32", "30", "25", "11", "9", "8", "10", "23"], "time": [2223, 2290, 2357, 2524, 4172, 8238, 9104, 9154, 9287, 9387, 11337, 11420, 13302]}, "edge": {"target": [], "time": []}}, "mouseout": {"state": {"target": ["0", "23", "24", "25", "29", "29", "33", "32", "30", "25", "11", "9", "8", "10", "23", "0"], "time": [2207, 2273, 2323, 2407, 3164, 3973, 7987, 9071, 9138, 9187, 9321, 11304, 11386, 11437, 18699, 18749]}, "edge": {"target": [], "time": []}}}, "displayed_time": "17.70", "trialTime": 19661, "trial_type": "mouselab-mdp", "trial_index": 48, "time_elapsed": 1678588, "internal_node_id": "0.0-4.0-1.0-39.0"}}, {"uniqueid": "w22592146:a98133500", "current_trial": 49, "dateTime": 1691161342371, "trialdata": {"rt": 106200, "response": {"Q0": "$-2 to $2", "Q1": "$-4 to $4", "Q2": "$-16 to $16", "Q3": "The cost for clicking on nodes varied between nodes.", "Q4": "Very motivated"}, "question_order": [0, 1, 2, 3, 4], "trial_id": "final_quiz_control", "trial_type": "survey-multi-choice", "trial_index": 49, "time_elapsed": 1784793, "internal_node_id": "0.0-4.0-2.0"}}, {"uniqueid": "w22592146:a98133500", "current_trial": 50, "dateTime": 1691161526636, "trialdata": {"rt": 184254, "response": {"Q0": "Tried to get the value of the nodes at the end because they seemed to have great negative or positive values", "Q1": "Yes. The timing of revealing nodes was a bit tricky for me in the beginning", "Q2": "It was not that difficult. I just had to make sure i chose low negatively impacting nodes or high positively impacting nodes"}, "trial_id": "self_report_control", "trial_type": "survey-text", "trial_index": 50, "time_elapsed": 1969057, "internal_node_id": "0.0-4.0-3.0"}}, {"uniqueid": "w22592146:a98133500", "current_trial": 51, "dateTime": 1691161604522, "trialdata": {"rt": 77881, "response": {"Q0": "Disagree", "Q1": "Disagree", "Q2": "Agree", "Q3": "Agree", "Q4": "Neither disagree nor agree", "Q5": "Agree", "Q6": "Disagree"}, "question_order": [0, 1, 2, 3, 4, 5, 6], "trial_id": "self_report_2", "trial_type": "survey-multi-choice", "trial_index": 51, "time_elapsed": 2046943, "internal_node_id": "0.0-4.0-4.0"}}, {"uniqueid": "w22592146:a98133500", "current_trial": 52, "dateTime": 1691161637397, "trialdata": {"rt": 32870, "response": {"gender": "female", "age": "26", "colorblind": "0", "effort": "0"}, "trial_type": "survey-html-form", "trial_index": 52, "time_elapsed": 2079819, "internal_node_id": "0.0-4.0-5.0"}}, {"uniqueid": "w22592146:a98133500", "current_trial": 53, "dateTime": 1691161726920, "trialdata": {"rt": 89514, "response": {"Q0": "The value of nodes in the beginning but i got a hang of the game", "Q1": "Have not done it before", "Q2": ""}, "trial_type": "survey-text", "trial_index": 53, "time_elapsed": 2169342, "internal_node_id": "0.0-4.0-6.0"}}, {"uniqueid": "w22592146:a98133500", "current_trial": 54, "dateTime": 1691161735268, "trialdata": {"rt": 8341, "stimulus": "Press 'Finish HIT' in order to reach the completion code. Once the data has been saved, you will receive the code either in this window or in the original browser window where you started the experiment.\n", "response": 0, "trial_type": "html-button-response", "trial_index": 54, "time_elapsed": 2177690, "internal_node_id": "0.0-5.0"}}, {"uniqueid": "w22592146:a98133500", "current_trial": 55, "dateTime": 1691161736277, "trialdata": {"success": true, "trial_type": "fullscreen", "trial_index": 55, "time_elapsed": 2178699, "internal_node_id": "0.0-6.0"}}], "questiondata": {"params": {"CODE": "C6DMOQA6", "MIN_TIME": 14, "inspectCost": 1, "startTime": "Fri Aug 04 2023 16:32:35 GMT+0200 (South Africa Standard Time)", "bonusRate": 0.002, "variance": "1_2_4_8_44", "branching": "31123"}, "final_score": 1383.5}, "eventdata": [{"eventtype": "initialized", "value": null, "timestamp": 1691159554942, "interval": 0}, {"eventtype": "window_resize", "value": [1536, 758], "timestamp": 1691159554942, "interval": 0}, {"eventtype": "window_resize", "value": [1536, 758], "timestamp": 1691159555414, "interval": 472}, {"eventtype": "window_resize", "value": [1536, 864], "timestamp": 1691159568062, "interval": 12648}, {"eventtype": "window_resize", "value": [1536, 758], "timestamp": 1691161735490, "interval": 2167428}], "useragent": "Mozilla/5.0 (Windows NT 10.0; Win64; x64) AppleWebKit/537.36 (KHTML, like Gecko) Chrome/115.0.0.0 Safari/537.36", "mode": "live", "id": "w22592146:a98133500", "status": "user data saved", "Beginhit": "2023-08-04 14:32:32.503896", "Beginexp": "2023-08-04 14:32:49.743396", "Endhit": "2023-08-04 15:08:59.197984", "psiturkStatus": 3, "browser": "<redacted>", "platform": "windows", "language": "en-GB"}