{"condition": 0, "counterbalance": 0, "assignmentId": "a10313951", "workerId": "w75195348", "hitId": "h13304823", "currenttrial": 55, "bonus": 0, "data": [{"uniqueid": "w75195348:a10313951", "current_trial": 0, "dateTime": 1693660270478, "trialdata": {"success": true, "trial_type": "fullscreen", "trial_index": 0, "time_elapsed": 10054, "internal_node_id": "0.0-0.0"}}, {"uniqueid": "w75195348:a10313951", "current_trial": 1, "dateTime": 1693660276800, "trialdata": {"view_history": [{"page_index": 0, "viewing_time": 6316}], "rt": 6317, "trial_id": "exp_instructions_control", "trial_type": "instructions", "trial_index": 1, "time_elapsed": 16376, "internal_node_id": "0.0-1.0"}}, {"uniqueid": "w75195348:a10313951", "current_trial": 2, "dateTime": 1693660372003, "trialdata": {"view_history": [{"page_index": 0, "viewing_time": 23298}, {"page_index": 1, "viewing_time": 43245}, {"page_index": 2, "viewing_time": 6487}, {"page_index": 3, "viewing_time": 22171}], "rt": 95201, "trial_id": "mouselab_instructions_1_control", "trial_type": "instructions", "trial_index": 2, "time_elapsed": 111579, "internal_node_id": "0.0-2.0-1.0"}}, {"uniqueid": "w75195348:a10313951", "current_trial": 3, "dateTime": 1693660389149, "trialdata": {"revealed_states": [], "clicked_states": ["12", "1", "23", "24"], "num_clicks_accrued": [0, 0, 0, 0, 0, 0, 0, 0, 0, 0, 0, 0, 0], "stateRewards": ["", 10, 10, -10, -10, -10, 10, 10, -10, 10, 10, 10, -10, -10, 10, 10, 10, -10, 10, -10, 10, 10, -10, 10, 10, -10, -10, -10, -10, -10, -10, -10, -10, -10], "withholdReward": false, "trial_id": "practice_1", "block": "test", "trialIndex": 0, "score": -8.5, "costs": -2, "simulationMode": [null, null, null, null, null, null, null], "rewards": [10, 10, -10, -10, -10], "path": ["0", "0", "1", "2", "3", "4", "5"], "rt": [4877, 1149, 2350, 227, 72, 624, 194], "actions": ["up", "left", "up", "up", "up", "right", "up"], "actionTimes": [7149, 8301, 10653, 11373, 11933, 13069, 13757], "queries": {"click": {"state": {"target": ["12", "1", "23", "24"], "time": [4311, 6465, 7899, 8916]}, "edge": {"target": [], "time": []}}, "mouseover": {"state": {"target": ["12", "13", "14", "13", "1", "1", "23", "24", "24", "31", "25"], "time": [3953, 4654, 5204, 5822, 6007, 6289, 7774, 8625, 8891, 9357, 9591]}, "edge": {"target": [], "time": []}}, "mouseout": {"state": {"target": ["0", "12", "13", "14", "13", "1", "1", "1", "23", "24", "24", "31", "25", "24", "23", "1", "1", "0", "0"], "time": [3854, 4570, 5171, 5789, 5855, 6055, 6856, 7273, 8224, 8874, 9224, 9391, 10042, 10176, 10259, 10509, 11159, 11593, 13127]}, "edge": {"target": [], "time": []}}}, "displayed_time": "14.27", "trialTime": 16718, "trial_type": "mouselab-mdp", "trial_index": 3, "time_elapsed": 128724, "internal_node_id": "0.0-2.0-2.0-0.0"}}, {"uniqueid": "w75195348:a10313951", "current_trial": 4, "dateTime": 1693660397422, "trialdata": {"revealed_states": [], "clicked_states": [], "num_clicks_accrued": [0, 0, 0, 0, 0, 0, 0, 0, 0, 0, 0, 0, 0], "stateRewards": ["", 10, -10, -10, -10, 10, 10, 10, -10, -10, -10, -10, -10, 10, -10, 10, 10, -10, 10, -10, -10, -10, 10, 10, -10, 10, 10, 10, 10, -10, 10, -10, -10, 10], "withholdReward": false, "trial_id": "practice_2", "block": "test", "trialIndex": 1, "score": -26.5, "costs": 0, "simulationMode": [null, null, null, null, null], "rewards": [-10, 10, -10, -10, -10], "path": ["0", "0", "12", "13", "14", "19", "21"], "rt": [577, 132, 89, 162, 168], "actions": ["right", "right", "right", "down", "down"], "actionTimes": [2665, 3305, 3897, 4554, 5242], "queries": {"click": {"state": {"target": [], "time": []}, "edge": {"target": [], "time": []}}, "mouseover": {"state": {"target": ["0", "22", "21"], "time": [2154, 2305, 2404]}, "edge": {"target": [], "time": []}}, "mouseout": {"state": {"target": ["0", "0", "22", "21"], "time": [1887, 2187, 2338, 2454]}, "edge": {"target": [], "time": []}}}, "displayed_time": "5.74", "trialTime": 7945, "trial_type": "mouselab-mdp", "trial_index": 4, "time_elapsed": 136998, "internal_node_id": "0.0-2.0-2.0-1.0"}}, {"uniqueid": "w75195348:a10313951", "current_trial": 5, "dateTime": 1693660416528, "trialdata": {"view_history": [{"page_index": 0, "viewing_time": 16052}, {"page_index": 1, "viewing_time": 3051}], "rt": 19104, "trial_id": "mouselab_instructions_2_control", "trial_type": "instructions", "trial_index": 5, "time_elapsed": 156104, "internal_node_id": "0.0-2.0-3.0"}}, {"uniqueid": "w75195348:a10313951", "current_trial": 6, "dateTime": 1693660434373, "trialdata": {"rt": 17840, "response": {"Q0": "The cost for clicking on nodes may vary between nodes.", "Q1": "The better I perform the higher my bonus will be.", "Q2": "No, the amount of cash at each node of the web may be different each time.", "Q3": "To get the highest total score.", "Q4": "Only before moving the spider.", "Q5": "3 seconds"}, "question_order": [0, 1, 2, 3, 4, 5], "correct": {"Q0": "The cost for clicking on nodes may vary between nodes.", "Q1": "The better I perform the higher my bonus will be.", "Q2": "No, the amount of cash at each node of the web may be different each time.", "Q3": "To get the highest total score.", "Q4": "Only before moving the spider.", "Q5": "3 seconds"}, "trial_id": "mouselab_quiz_control", "trial_type": "survey-multi-choice", "trial_index": 6, "time_elapsed": 173949, "internal_node_id": "0.0-2.0-4.0"}}, {"uniqueid": "w75195348:a10313951", "current_trial": 7, "dateTime": 1693660438786, "trialdata": {"rt": 4405, "response": {"Q0": "No"}, "question_order": [0], "trial_id": "repeat_check", "trial_type": "survey-multi-choice", "trial_index": 7, "time_elapsed": 178362, "internal_node_id": "0.0-4.0-0.0"}}, {"uniqueid": "w75195348:a10313951", "current_trial": 8, "dateTime": 1693660453188, "trialdata": {"rt": 14398, "stimulus": "\n<h1> Get ready to start the game! </h1>\n\nThank you for reading the instructions. Get ready start with the 40 rounds of this game.\n<br><br>\nIf you need to take a break, feel free to take one after the end of a round, before continuing to the next one.\n<br><br>\nRemember, the more money the spider gets, the bigger your bonus will be!\n<br><br>\n<div style='text-align: center;'>Press <code>space</code> to begin.</div>\n\n<br><br>\n(If, at any point, the <code>space</code> key does not take you to the next page, click once on the text and try again.)", "response": " ", "trial_id": "mdp_ready", "trial_type": "html-keyboard-response", "trial_index": 8, "time_elapsed": 192764, "internal_node_id": "0.0-6.0-0.0"}}, {"uniqueid": "w75195348:a10313951", "current_trial": 9, "dateTime": 1693660472038, "trialdata": {"revealed_states": [], "clicked_states": ["12"], "num_clicks_accrued": [0, 0, 0, 0, 0, 0, 0, 0, 0, 0, 0, 0, 0], "stateRewards": ["", 1, -2, -8, -3, 31, -84, -55, -14, 15, -58, 17, -2, -3, 7, 7, -12, 48, 67, 4, -44, -68, 46, 2, 3, -5, -7, 76, 27, 5, 11, 57, 52, 59], "withholdReward": false, "trial_id": "mdp_trial_1", "block": "test", "trialIndex": 2, "score": -3.4000000000000004, "costs": -1.4, "simulationMode": [null, null, null, null, null], "rewards": [2, 3, -5, -7, 5], "path": ["0", "0", "23", "24", "25", "26", "29"], "rt": [4131, 137, 127, 118, 123], "actions": ["left", "left", "left", "up", "left"], "actionTimes": [6594, 7251, 7890, 8514, 9138], "queries": {"click": {"state": {"target": ["12"], "time": [3440]}, "edge": {"target": [], "time": []}}, "mouseover": {"state": {"target": ["0", "12", "13", "1", "23"], "time": [2708, 2924, 3675, 4625, 6377]}, "edge": {"target": [], "time": []}}, "mouseout": {"state": {"target": ["0", "0", "12", "13", "1", "23", "31"], "time": [1139, 2741, 3626, 4442, 6060, 6561, 9179]}, "edge": {"target": [], "time": []}}}, "displayed_time": "16.46", "trialTime": 18563, "trial_type": "mouselab-mdp", "trial_index": 9, "time_elapsed": 211614, "internal_node_id": "0.0-6.0-1.0-0.0"}}, {"uniqueid": "w75195348:a10313951", "current_trial": 10, "dateTime": 1693660490376, "trialdata": {"revealed_states": [], "clicked_states": ["1", "2", "3", "12"], "num_clicks_accrued": [0, 0, 0, 0, 0, 0, 0, 0, 0, 0, 0, 0, 0], "stateRewards": ["", -2, -4, -6, 12, -58, -70, -80, 2, 16, -88, -62, 1, 2, -5, 11, 77, -35, -44, -5, 18, -83, 87, 1, -3, -5, 13, -44, -21, -86, 10, -52, 8, 29], "withholdReward": false, "trial_id": "mdp_trial_2", "block": "test", "trialIndex": 3, "score": 5.4, "costs": -5.6, "simulationMode": [null, null, null, null, null, null, null], "rewards": [1, 2, -5, -5, 18], "path": ["0", "0", "12", "13", "14", "19", "20"], "rt": [5574, 1885, 2094, 251, 365, 137, 287], "actions": ["right", "right", "right", "right", "right", "down", "right"], "actionTimes": [6951, 8839, 10935, 11687, 12567, 13223, 14025], "queries": {"click": {"state": {"target": ["1", "2", "3", "12"], "time": [2142, 3877, 5561, 8075]}, "edge": {"target": [], "time": []}}, "mouseover": {"state": {"target": ["0", "0", "1", "12", "2", "3", "10", "0", "22", "12", "22", "0", "0"], "time": [1426, 1726, 1809, 2994, 3544, 4995, 6296, 6780, 7581, 7830, 8682, 9582, 10417]}, "edge": {"target": [], "time": []}}, "mouseout": {"state": {"target": ["0", "0", "0", "1", "12", "1", "2", "3", "10", "0", "22", "12", "22", "0", "0", "22", "22"], "time": [924, 1492, 1742, 2510, 3294, 3462, 4862, 5846, 6630, 6813, 7680, 8599, 8865, 9983, 10450, 12118, 13402]}, "edge": {"target": [], "time": []}}}, "displayed_time": "15.38", "trialTime": 18056, "trial_type": "mouselab-mdp", "trial_index": 10, "time_elapsed": 229952, "internal_node_id": "0.0-6.0-1.0-1.0"}}, {"uniqueid": "w75195348:a10313951", "current_trial": 11, "dateTime": 1693660508506, "trialdata": {"revealed_states": [], "clicked_states": ["23"], "num_clicks_accrued": [0, 0, 0, 0, 0, 0, 0, 0, 0, 0, 0, 0, 0], "stateRewards": ["", -2, -2, -7, -13, -10, 49, -68, -1, 84, 70, 88, 1, 4, 4, 12, -57, 25, 30, 8, -1, -77, 57, 2, 3, 2, 3, -18, -80, 23, -15, -41, 70, 11], "withholdReward": false, "trial_id": "mdp_trial_3", "block": "test", "trialIndex": 4, "score": -9.4, "costs": -1.4, "simulationMode": [null, null, null, null, null], "rewards": [2, 3, 2, 3, -18], "path": ["0", "0", "23", "24", "25", "26", "27"], "rt": [4319, 180, 136, 158, 115], "actions": ["left", "left", "left", "up", "up"], "actionTimes": [6551, 7237, 7876, 8532, 9141], "queries": {"click": {"state": {"target": ["23"], "time": [3044]}, "edge": {"target": [], "time": []}}, "mouseover": {"state": {"target": ["23", "24", "25", "25", "24", "2", "25", "25", "30", "31"], "time": [2752, 4170, 4236, 4570, 4837, 5154, 5604, 5871, 6221, 6488]}, "edge": {"target": [], "time": []}}, "mouseout": {"state": {"target": ["0", "23", "23", "23", "24", "25", "25", "24", "23", "2", "25", "25", "30", "31"], "time": [2685, 3094, 3320, 3802, 4203, 4436, 4820, 4853, 4887, 5487, 5637, 6171, 6239, 6522]}, "edge": {"target": [], "time": []}}}, "displayed_time": "16.23", "trialTime": 17846, "trial_type": "mouselab-mdp", "trial_index": 11, "time_elapsed": 248081, "internal_node_id": "0.0-6.0-1.0-2.0"}}, {"uniqueid": "w75195348:a10313951", "current_trial": 12, "dateTime": 1693660529132, "trialdata": {"revealed_states": [], "clicked_states": ["3"], "num_clicks_accrued": [0, 0, 0, 0, 0, 0, 0, 0, 0, 0, 0, 0, 0], "stateRewards": ["", 2, -3, 5, -14, -63, -9, -24, -11, -54, -43, 68, 2, -2, -4, 7, -64, 30, 47, 12, -74, 11, 86, 1, -3, 3, 10, -71, -42, -52, -1, -29, -16, 69], "withholdReward": false, "trial_id": "mdp_trial_4", "block": "test", "trialIndex": 5, "score": -20.4, "costs": -1.4, "simulationMode": [null, null, null, null, null], "rewards": [2, -3, 5, -14, -9], "path": ["0", "0", "1", "2", "3", "4", "6"], "rt": [4260, 72, 80, 1772, 94], "actions": ["up", "up", "up", "right", "right"], "actionTimes": [5591, 6183, 6759, 9032, 9640], "queries": {"click": {"state": {"target": ["3"], "time": [2914]}, "edge": {"target": [], "time": []}}, "mouseover": {"state": {"target": ["1", "2", "3", "2", "1", "2", "1", "0"], "time": [1772, 2022, 2539, 3406, 3556, 3891, 5341, 5458]}, "edge": {"target": [], "time": []}}, "mouseout": {"state": {"target": ["0", "1", "2", "3", "2", "1", "2", "1", "0", "12", "7", "4", "7", "12"], "time": [1675, 1906, 2373, 3373, 3474, 3841, 5308, 5375, 5491, 7710, 8010, 8661, 8845, 9879]}, "edge": {"target": [], "time": []}}}, "displayed_time": "15.33", "trialTime": 20345, "trial_type": "mouselab-mdp", "trial_index": 12, "time_elapsed": 268708, "internal_node_id": "0.0-6.0-1.0-3.0"}}, {"uniqueid": "w75195348:a10313951", "current_trial": 13, "dateTime": 1693660552990, "trialdata": {"revealed_states": [], "clicked_states": ["1", "2", "10", "3", "4", "6", "9"], "num_clicks_accrued": [0, 0, 0, 0, 0, 0, 0, 0, 0, 0, 0, 0, 0], "stateRewards": ["", 2, 3, -3, 4, 72, -28, 34, -12, 57, -64, -15, 2, 1, -4, -15, 2, 49, 31, -1, -42, -58, 31, -2, 1, -2, -13, -75, -19, -22, -6, 61, 10, -56], "withholdReward": false, "trial_id": "mdp_trial_5", "block": "test", "trialIndex": 6, "score": 37.2, "costs": -9.8, "simulationMode": [null, null, null, null, null], "rewards": [2, 3, -3, -12, 57], "path": ["0", "0", "1", "2", "3", "8", "9"], "rt": [17765, 111, 72, 144, 134], "actions": ["up", "up", "up", "left", "up"], "actionTimes": [18655, 19263, 19823, 20463, 21104], "queries": {"click": {"state": {"target": ["1", "2", "10", "3", "4", "6", "9"], "time": [1737, 3742, 5528, 7841, 9758, 11748, 14732]}, "edge": {"target": [], "time": []}}, "mouseover": {"state": {"target": ["0", "12", "1", "2", "10", "10", "8", "3", "4", "4", "5", "6", "7", "1", "2", "8", "9", "9", "8", "3", "5", "3", "2", "1", "2"], "time": [985, 1317, 1501, 1985, 4020, 4320, 6439, 7624, 8707, 9074, 10059, 10742, 12094, 12728, 13996, 14045, 14278, 14512, 15046, 15180, 15313, 16848, 16914, 17231, 17698]}, "edge": {"target": [], "time": []}}, "mouseout": {"state": {"target": ["12", "0", "0", "12", "1", "2", "2", "10", "10", "10", "8", "3", "3", "4", "4", "5", "6", "7", "1", "2", "8", "9", "9", "8", "3", "5", "3", "2", "1", "2", "1", "0", "0"], "time": [417, 533, 1051, 1368, 1869, 3811, 3987, 4070, 5989, 6273, 7573, 7931, 8273, 8908, 9828, 10609, 12010, 12260, 13962, 14014, 14078, 14312, 15012, 15080, 15229, 16782, 16880, 17031, 17531, 18233, 21886, 22151, 22201]}, "edge": {"target": [], "time": []}}}, "displayed_time": "21.62", "trialTime": 23583, "trial_type": "mouselab-mdp", "trial_index": 13, "time_elapsed": 292566, "internal_node_id": "0.0-6.0-1.0-4.0"}}, {"uniqueid": "w75195348:a10313951", "current_trial": 14, "dateTime": 1693660583810, "trialdata": {"revealed_states": [], "clicked_states": ["12", "13", "14", "19", "21", "15", "17", "16", "18"], "num_clicks_accrued": [0, 0, 0, 0, 0, 0, 0, 0, 0, 0, 0, 0, 0], "stateRewards": ["", 2, 3, -1, 16, -78, -11, 46, 2, -20, 79, -67, 2, 3, 2, 11, -83, -42, -58, -11, -67, -22, 55, 2, -1, -1, -16, -83, -82, 23, -11, -29, 13, 13], "withholdReward": false, "trial_id": "mdp_trial_6", "block": "test", "trialIndex": 7, "score": 38.4, "costs": -12.600000000000001, "simulationMode": [null, null, null, null, null], "rewards": [2, 3, 2, -11, 55], "path": ["0", "0", "12", "13", "14", "19", "22"], "rt": [19535, 1479, 486, 350, 809], "actions": ["right", "right", "right", "down", "left"], "actionTimes": [20940, 22924, 23916, 24780, 26108], "queries": {"click": {"state": {"target": ["12", "13", "14", "19", "21", "15", "17", "16", "18"], "time": [2265, 4201, 6409, 8324, 10178, 11979, 14206, 16468, 18947]}, "edge": {"target": [], "time": []}}, "mouseover": {"state": {"target": ["12", "13", "14", "19", "21", "15", "17", "14", "14", "16", "15", "13", "18", "12"], "time": [2026, 2477, 4796, 7114, 8598, 11184, 13969, 14554, 15071, 16322, 16756, 17705, 18573, 19657]}, "edge": {"target": [], "time": []}}, "mouseout": {"state": {"target": ["0", "12", "13", "14", "14", "19", "21", "14", "15", "17", "14", "14", "15", "16", "15", "13", "18", "18", "12", "19", "22", "19", "22", "21"], "time": [1559, 2340, 4746, 6487, 7063, 8549, 10433, 10934, 13903, 14487, 14571, 15937, 16039, 16722, 16772, 18490, 19031, 19157, 23060, 24878, 25745, 25929, 26179, 26396]}, "edge": {"target": [], "time": []}}}, "displayed_time": "26.61", "trialTime": 30525, "trial_type": "mouselab-mdp", "trial_index": 14, "time_elapsed": 323385, "internal_node_id": "0.0-6.0-1.0-5.0"}}, {"uniqueid": "w75195348:a10313951", "current_trial": 15, "dateTime": 1693660601220, "trialdata": {"revealed_states": [], "clicked_states": ["25", "30", "33"], "num_clicks_accrued": [0, 0, 0, 0, 0, 0, 0, 0, 0, 0, 0, 0, 0], "stateRewards": ["", 2, 4, 4, -8, -36, -33, 38, 16, -51, 57, 57, 1, 3, 4, -6, 45, 68, 87, 1, 63, 24, -55, -2, 2, -6, -13, -63, -50, 8, 2, 80, 6, 60], "withholdReward": false, "trial_id": "mdp_trial_7", "block": "test", "trialIndex": 8, "score": 51.8, "costs": -4.199999999999999, "simulationMode": [null, null, null, null, null], "rewards": [-2, 2, -6, 2, 60], "path": ["0", "0", "23", "24", "25", "30", "33"], "rt": [9457, 110, 85, 47, 104], "actions": ["left", "left", "left", "down", "left"], "actionTimes": [10837, 11459, 12035, 12579, 13189], "queries": {"click": {"state": {"target": ["25", "30", "33"], "time": [2996, 5436, 7905]}, "edge": {"target": [], "time": []}}, "mouseover": {"state": {"target": ["0", "22", "14", "13", "23", "24", "25", "25", "26", "30", "32", "33", "32", "31", "23", "23"], "time": [1533, 1889, 2024, 2457, 2523, 2541, 2590, 2742, 3707, 5247, 6795, 7677, 8312, 10063, 10146, 10513]}, "edge": {"target": [], "time": []}}, "mouseout": {"state": {"target": ["0", "0", "22", "14", "13", "23", "24", "25", "25", "25", "26", "25", "30", "30", "32", "33", "33", "32", "31", "23", "23"], "time": [1138, 1606, 1922, 2441, 2473, 2540, 2573, 2606, 3158, 3408, 5009, 5075, 5843, 6142, 7595, 8012, 8195, 10029, 10096, 10363, 10680]}, "edge": {"target": [], "time": []}}}, "displayed_time": "15.38", "trialTime": 17140, "trial_type": "mouselab-mdp", "trial_index": 15, "time_elapsed": 340795, "internal_node_id": "0.0-6.0-1.0-6.0"}}, {"uniqueid": "w75195348:a10313951", "current_trial": 16, "dateTime": 1693660649337, "trialdata": {"revealed_states": [], "clicked_states": ["4", "5", "6", "7", "3", "8", "11", "9", "10", "19", "20", "21", "22", "17", "16", "18"], "num_clicks_accrued": [0, 0, 0, 0, 0, 0, 0, 0, 0, 0, 0, 0, 0], "stateRewards": ["", -1, 2, -6, 6, -82, -19, -39, -16, -83, 11, -33, -2, -2, 4, -6, -82, -1, -19, -6, -10, -67, -41, -2, 1, -7, 16, -23, -78, -52, 14, 31, -71, 74], "withholdReward": false, "trial_id": "mdp_trial_8", "block": "test", "trialIndex": 9, "score": -29.399999999999995, "costs": -22.399999999999995, "simulationMode": [null, null, null, null, null], "rewards": [-2, -2, 4, -6, -1], "path": ["0", "0", "12", "13", "14", "15", "17"], "rt": [39448, 344, 54, 46, 25], "actions": ["right", "right", "right", "up", "right"], "actionTimes": [42744, 43591, 44136, 44695, 45224], "queries": {"click": {"state": {"target": ["4", "5", "6", "7", "3", "8", "11", "9", "10", "19", "20", "21", "22", "17", "16", "18"], "time": [4862, 7099, 9661, 11595, 14340, 17635, 19461, 21390, 23344, 27230, 29037, 30986, 32995, 36518, 38450, 40780]}, "edge": {"target": [], "time": []}}, "mouseover": {"state": {"target": ["1", "2", "2", "3", "4", "7", "7", "2", "5", "6", "3", "2", "6", "7", "2", "3", "8", "10", "8", "10", "8", "11", "9", "10", "23", "22", "14", "19", "19", "20", "21", "22", "13", "18", "0", "12", "15", "17", "16", "18", "22", "22", "12", "18", "12", "22"], "time": [3306, 3414, 3945, 4065, 4498, 5215, 5549, 5783, 6967, 7634, 8852, 9152, 9453, 9953, 11854, 13756, 14523, 15307, 15941, 16725, 17392, 18028, 20261, 21997, 24048, 26150, 26316, 26833, 27083, 27800, 29368, 31286, 34172, 34539, 35540, 35873, 36124, 36224, 37141, 38777, 39360, 39593, 40343, 40544, 41046, 41195]}, "edge": {"target": [], "time": []}}, "mouseout": {"state": {"target": ["1", "1", "2", "2", "3", "4", "4", "7", "7", "2", "4", "5", "6", "3", "2", "6", "7", "2", "3", "8", "10", "8", "10", "8", "11", "9", "10", "23", "22", "14", "19", "19", "19", "20", "21", "22", "13", "18", "0", "12", "15", "17", "16", "18", "22", "22", "12", "18", "12", "22"], "time": [962, 3320, 3898, 4048, 4448, 4955, 5182, 5383, 5733, 6016, 6850, 7368, 7918, 9052, 9202, 9902, 11804, 13622, 14456, 15091, 15758, 16692, 16758, 17943, 20077, 21595, 23614, 24114, 26199, 26783, 26999, 27349, 27500, 29301, 31204, 33289, 34289, 35341, 35673, 35923, 36157, 36707, 38710, 38882, 39427, 39677, 40412, 40994, 41078, 41227]}, "edge": {"target": [], "time": []}}}, "displayed_time": "45.72", "trialTime": 47816, "trial_type": "mouselab-mdp", "trial_index": 16, "time_elapsed": 388913, "internal_node_id": "0.0-6.0-1.0-7.0"}}, {"uniqueid": "w75195348:a10313951", "current_trial": 17, "dateTime": 1693660670892, "trialdata": {"revealed_states": [], "clicked_states": ["24", "25", "26", "27", "29", "28", "30"], "num_clicks_accrued": [0, 0, 0, 0, 0, 0, 0, 0, 0, 0, 0, 0, 0], "stateRewards": ["", 2, 4, -6, -13, -75, -81, 30, 7, 5, 59, -65, -1, -1, 7, 14, -38, 36, -41, 1, -54, -5, 64, 2, -1, 5, 6, -19, 79, 11, 16, -33, -50, 58], "withholdReward": false, "trial_id": "mdp_trial_9", "block": "test", "trialIndex": 10, "score": 81.2, "costs": -9.8, "simulationMode": [null, null, null, null, null], "rewards": [2, -1, 5, 6, 79], "path": ["0", "0", "23", "24", "25", "26", "28"], "rt": [14633, 105, 65, 107, 97], "actions": ["left", "left", "left", "up", "right"], "actionTimes": [16211, 16819, 17378, 17987, 18578], "queries": {"click": {"state": {"target": ["24", "25", "26", "27", "29", "28", "30"], "time": [2683, 4596, 6619, 8426, 10344, 12375, 14225]}, "edge": {"target": [], "time": []}}, "mouseover": {"state": {"target": ["0", "25", "24", "25", "26", "27", "29", "28", "25", "30", "30", "33", "30", "25", "26", "26", "23"], "time": [1589, 2282, 2499, 3084, 5320, 7837, 8721, 10572, 12590, 12674, 13024, 13291, 13758, 14677, 14943, 15159, 15759]}, "edge": {"target": [], "time": []}}, "mouseout": {"state": {"target": ["0", "0", "25", "24", "25", "25", "26", "27", "29", "26", "28", "25", "30", "30", "33", "30", "25", "26", "26", "23"], "time": [1264, 1614, 2399, 2966, 4672, 5251, 6678, 8653, 10489, 10555, 12557, 12624, 12808, 13057, 13558, 14609, 14709, 14993, 15578, 15927]}, "edge": {"target": [], "time": []}}}, "displayed_time": "19.10", "trialTime": 21251, "trial_type": "mouselab-mdp", "trial_index": 17, "time_elapsed": 410468, "internal_node_id": "0.0-6.0-1.0-8.0"}}, {"uniqueid": "w75195348:a10313951", "current_trial": 18, "dateTime": 1693660698848, "trialdata": {"revealed_states": [], "clicked_states": ["1", "3", "8", "9", "10", "11", "4", "5", "6", "7"], "num_clicks_accrued": [0, 0, 0, 0, 0, 0, 0, 0, 0, 0, 0, 0, 0], "stateRewards": ["", -1, -2, 8, -6, -79, -6, 87, 9, -5, -66, -38, 2, 2, 5, -6, -82, 74, 85, -8, 67, -30, -15, 1, -2, -2, -2, 87, 64, 49, 7, 2, -38, -9], "withholdReward": false, "trial_id": "mdp_trial_10", "block": "test", "trialIndex": 11, "score": 72, "costs": -14.000000000000002, "simulationMode": [null, null, null, null, null], "rewards": [-1, -2, 8, -6, 87], "path": ["0", "0", "1", "2", "3", "4", "7"], "rt": [21568, 2, 25, 547, 155], "actions": ["up", "up", "up", "right", "down"], "actionTimes": [22490, 22991, 23530, 24569, 25227], "queries": {"click": {"state": {"target": ["1", "3", "8", "9", "10", "11", "4", "5", "6", "7"], "time": [1901, 3783, 5813, 9014, 10955, 12854, 14809, 16731, 18550, 20389]}, "edge": {"target": [], "time": []}}, "mouseover": {"state": {"target": ["1", "2", "3", "8", "11", "8", "11", "2", "9", "11", "10", "11", "8", "3", "4", "5", "6", "7", "7", "7"], "time": [1651, 2486, 2853, 4403, 4455, 4771, 6122, 7973, 8791, 10008, 10576, 11259, 13077, 13127, 13211, 15197, 17013, 18899, 19182, 19465]}, "edge": {"target": [], "time": []}}, "mouseout": {"state": {"target": ["0", "1", "1", "2", "3", "8", "11", "8", "11", "8", "2", "8", "9", "8", "11", "10", "11", "8", "3", "4", "5", "6", "7", "7", "7"], "time": [1018, 2085, 2435, 2653, 4370, 4438, 4672, 6089, 7790, 7856, 8557, 8606, 9240, 9557, 10529, 11159, 13044, 13094, 13177, 14894, 16980, 18798, 18965, 19199, 20583]}, "edge": {"target": [], "time": []}}}, "displayed_time": "25.74", "trialTime": 27658, "trial_type": "mouselab-mdp", "trial_index": 18, "time_elapsed": 438423, "internal_node_id": "0.0-6.0-1.0-9.0"}}, {"uniqueid": "w75195348:a10313951", "current_trial": 19, "dateTime": 1693660721954, "trialdata": {"revealed_states": [], "clicked_states": ["14", "19", "21", "20", "22", "18", "16", "17"], "num_clicks_accrued": [0, 0, 0, 0, 0, 0, 0, 0, 0, 0, 0, 0, 0], "stateRewards": ["", 2, 2, 3, -15, 23, -14, 73, -7, -32, -20, -6, 1, 1, -5, -12, 73, 6, -84, 11, -81, -57, 13, -2, -1, -4, -8, -52, -58, 49, 13, 5, -41, -41], "withholdReward": false, "trial_id": "mdp_trial_11", "block": "test", "trialIndex": 12, "score": 46.8, "costs": -11.200000000000001, "simulationMode": [null, null, null, null, null], "rewards": [1, 1, -5, -12, 73], "path": ["0", "0", "12", "13", "14", "15", "16"], "rt": [16543, 230, 72, 176, 84], "actions": ["right", "right", "right", "up", "up"], "actionTimes": [17912, 18646, 19238, 19926, 20503], "queries": {"click": {"state": {"target": ["14", "19", "21", "20", "22", "18", "16", "17"], "time": [2554, 4434, 6396, 8360, 10264, 12294, 14176, 16029]}, "edge": {"target": [], "time": []}}, "mouseover": {"state": {"target": ["0", "12", "13", "14", "19", "19", "21", "20", "22", "22", "13", "18", "16", "17", "15", "14"], "time": [1380, 1834, 2200, 2333, 2818, 3318, 4852, 7038, 8638, 8956, 10541, 10708, 12726, 14444, 16380, 16629]}, "edge": {"target": [], "time": []}}, "mouseout": {"state": {"target": ["0", "0", "12", "13", "14", "19", "19", "21", "19", "20", "19", "22", "22", "13", "18", "16", "17", "15", "14", "14", "22"], "time": [715, 1517, 2134, 2301, 2784, 2884, 4769, 6771, 6989, 8572, 8623, 8672, 10440, 10623, 12492, 14410, 16328, 16529, 17413, 19564, 20749]}, "edge": {"target": [], "time": []}}}, "displayed_time": "21.02", "trialTime": 22791, "trial_type": "mouselab-mdp", "trial_index": 19, "time_elapsed": 461530, "internal_node_id": "0.0-6.0-1.0-10.0"}}, {"uniqueid": "w75195348:a10313951", "current_trial": 20, "dateTime": 1693660740517, "trialdata": {"revealed_states": [], "clicked_states": ["1", "2", "3", "11", "8"], "num_clicks_accrued": [0, 0, 0, 0, 0, 0, 0, 0, 0, 0, 0, 0, 0], "stateRewards": ["", -1, -3, -3, 1, -38, 2, -53, -2, -1, -81, 70, -1, 1, -5, -9, 46, 15, 35, -1, -22, 38, 59, -2, 4, -8, 13, 1, -83, -43, 4, 76, 13, 48], "withholdReward": false, "trial_id": "mdp_trial_12", "block": "test", "trialIndex": 13, "score": 54, "costs": -7, "simulationMode": [null, null, null, null, null], "rewards": [-1, -3, -3, -2, 70], "path": ["0", "0", "1", "2", "3", "8", "11"], "rt": [10619, 252, 77, 567, 187], "actions": ["up", "up", "up", "left", "left"], "actionTimes": [11995, 12747, 13322, 14379, 15066], "queries": {"click": {"state": {"target": ["1", "2", "3", "11", "8"], "time": [2792, 4418, 6177, 7741, 9904]}, "edge": {"target": [], "time": []}}, "mouseover": {"state": {"target": ["0", "1", "2", "3", "8", "11", "8", "2", "1", "0"], "time": [1801, 2568, 3269, 5137, 6421, 7054, 8457, 10358, 10492, 10875]}, "edge": {"target": [], "time": []}}, "mouseout": {"state": {"target": ["0", "0", "1", "2", "3", "8", "11", "8", "3", "2", "1", "0"], "time": [1386, 2251, 2872, 5037, 6405, 7021, 8389, 10141, 10274, 10408, 10741, 11025]}, "edge": {"target": [], "time": []}}}, "displayed_time": "15.56", "trialTime": 18236, "trial_type": "mouselab-mdp", "trial_index": 20, "time_elapsed": 480092, "internal_node_id": "0.0-6.0-1.0-11.0"}}, {"uniqueid": "w75195348:a10313951", "current_trial": 21, "dateTime": 1693660756149, "trialdata": {"revealed_states": [], "clicked_states": ["25", "26", "29"], "num_clicks_accrued": [0, 0, 0, 0, 0, 0, 0, 0, 0, 0, 0, 0, 0], "stateRewards": ["", 1, 4, -4, 14, 35, 51, 19, -13, 54, 78, -74, -2, -1, -3, 13, -11, -42, -73, -15, -24, -3, -69, 2, -1, 5, 16, -27, 73, 58, 9, -60, 5, -60], "withholdReward": false, "trial_id": "mdp_trial_13", "block": "test", "trialIndex": 14, "score": 75.8, "costs": -4.199999999999999, "simulationMode": [null, null, null, null, null], "rewards": [2, -1, 5, 16, 58], "path": ["0", "0", "23", "24", "25", "26", "29"], "rt": [8078, 600, 156, 145, 120], "actions": ["left", "left", "left", "up", "left"], "actionTimes": [8784, 9904, 10576, 11216, 11840], "queries": {"click": {"state": {"target": ["25", "26", "29"], "time": [2144, 3878, 5823]}, "edge": {"target": [], "time": []}}, "mouseover": {"state": {"target": ["23", "24", "23", "24", "25", "26", "27", "26", "29", "27", "24", "23"], "time": [1177, 1227, 1661, 1810, 1877, 2628, 2863, 3396, 5630, 6213, 8016, 8082]}, "edge": {"target": [], "time": []}}, "mouseout": {"state": {"target": ["23", "24", "23", "24", "25", "25", "26", "27", "26", "25", "25", "25", "26", "29", "27", "26", "24", "23"], "time": [1209, 1526, 1793, 1844, 2215, 2545, 2744, 3345, 4129, 4429, 4980, 5264, 5413, 6113, 7882, 7949, 8032, 8100]}, "edge": {"target": [], "time": []}}}, "displayed_time": "14.71", "trialTime": 15297, "trial_type": "mouselab-mdp", "trial_index": 21, "time_elapsed": 495725, "internal_node_id": "0.0-6.0-1.0-12.0"}}, {"uniqueid": "w75195348:a10313951", "current_trial": 22, "dateTime": 1693660791881, "trialdata": {"revealed_states": [], "clicked_states": ["23", "25", "30", "33", "32", "31", "26", "27", "28", "29", "5"], "num_clicks_accrued": [0, 0, 0, 0, 0, 0, 0, 0, 0, 0, 0, 0, 0], "stateRewards": ["", 1, 2, -3, -6, 50, -7, 7, -7, -80, 21, -1, 2, 2, 4, -1, 33, 84, 1, 14, -53, 81, 6, -2, -2, -3, -9, -87, -38, -59, -5, -74, -3, -71], "withholdReward": false, "trial_id": "mdp_trial_14", "block": "test", "trialIndex": 15, "score": 28.599999999999998, "costs": -15.400000000000002, "simulationMode": [null, null, null, null, null], "rewards": [1, 2, -3, -6, 50], "path": ["0", "0", "1", "2", "3", "4", "5"], "rt": [24411, 153, 314, 4202, 108], "actions": ["up", "up", "up", "right", "up"], "actionTimes": [25918, 26576, 27405, 32109, 32718], "queries": {"click": {"state": {"target": ["23", "25", "30", "33", "32", "31", "26", "27", "28", "29", "5"], "time": [2253, 4123, 6391, 8670, 10557, 12444, 14597, 16588, 18457, 20182, 23464]}, "edge": {"target": [], "time": []}}, "mouseover": {"state": {"target": ["0", "23", "25", "26", "30", "31", "32", "33", "32", "31", "25", "26", "29", "26", "26", "27", "28", "29", "24", "0", "1", "2", "3", "4", "5", "4", "7", "7", "4", "7", "0"], "time": [1584, 2051, 2934, 4686, 6137, 6820, 7271, 8505, 9090, 10875, 12726, 12808, 13243, 14093, 14277, 14926, 16864, 18947, 20516, 22316, 22367, 22433, 22800, 23050, 23267, 23785, 23884, 24385, 25286, 25536, 25836]}, "edge": {"target": [], "time": []}}, "mouseout": {"state": {"target": ["0", "0", "23", "25", "26", "25", "30", "31", "32", "33", "32", "31", "25", "26", "29", "26", "26", "27", "28", "26", "29", "24", "0", "1", "2", "3", "4", "5", "4", "7", "7", "4", "7", "0", "1", "2", "4", "7", "4", "4", "7", "12"], "time": [1133, 1634, 2467, 4568, 6053, 6103, 6603, 6920, 8288, 9006, 10628, 12659, 12758, 12859, 14060, 14109, 14843, 16813, 18715, 18797, 20398, 20581, 22334, 22400, 22700, 23035, 23166, 23734, 23851, 23918, 24453, 25503, 25586, 25904, 26604, 27103, 29139, 29406, 29906, 31491, 31708, 33826]}, "edge": {"target": [], "time": []}}}, "displayed_time": "33.23", "trialTime": 35406, "trial_type": "mouselab-mdp", "trial_index": 22, "time_elapsed": 531457, "internal_node_id": "0.0-6.0-1.0-13.0"}}, {"uniqueid": "w75195348:a10313951", "current_trial": 23, "dateTime": 1693660813147, "trialdata": {"revealed_states": [], "clicked_states": ["12", "15", "19", "20", "21", "22"], "num_clicks_accrued": [0, 0, 0, 0, 0, 0, 0, 0, 0, 0, 0, 0, 0], "stateRewards": ["", -1, 2, -2, 5, 80, -61, -27, 12, 44, -26, -75, -2, -4, 1, -16, 42, -49, -50, 4, -44, 2, 80, -2, -2, 5, -2, 59, 10, 24, 7, -48, -86, -44], "withholdReward": false, "trial_id": "mdp_trial_15", "block": "test", "trialIndex": 16, "score": 70.6, "costs": -8.4, "simulationMode": [null, null, null, null, null], "rewards": [-2, -4, 1, 4, 80], "path": ["0", "0", "12", "13", "14", "19", "22"], "rt": [13721, 101, 44, 85, 158], "actions": ["right", "right", "right", "down", "left"], "actionTimes": [15011, 15617, 16180, 16769, 17425], "queries": {"click": {"state": {"target": ["12", "15", "19", "20", "21", "22"], "time": [2274, 4118, 6192, 8518, 10479, 12485]}, "edge": {"target": [], "time": []}}, "mouseover": {"state": {"target": ["12", "13", "14", "15", "14", "19", "21", "20", "21", "22", "15", "18", "13"], "time": [2004, 2554, 2854, 3271, 4473, 5106, 6541, 8360, 8909, 10794, 13196, 13414, 14748]}, "edge": {"target": [], "time": []}}, "mouseout": {"state": {"target": ["0", "12", "12", "13", "14", "15", "14", "19", "21", "20", "21", "22", "15", "18", "13"], "time": [1603, 2358, 2487, 2705, 3188, 4406, 5024, 6424, 6907, 8777, 10728, 12913, 13246, 14630, 14798]}, "edge": {"target": [], "time": []}}}, "displayed_time": "17.92", "trialTime": 20930, "trial_type": "mouselab-mdp", "trial_index": 23, "time_elapsed": 552723, "internal_node_id": "0.0-6.0-1.0-14.0"}}, {"uniqueid": "w75195348:a10313951", "current_trial": 24, "dateTime": 1693660832461, "trialdata": {"revealed_states": [], "clicked_states": ["5", "7", "4", "6"], "num_clicks_accrued": [0, 0, 0, 0, 0, 0, 0, 0, 0, 0, 0, 0, 0], "stateRewards": ["", -2, -4, 6, 14, -34, 49, 36, -8, -3, 32, -4, 1, -2, 1, -8, -20, -71, -57, -7, -86, -62, -16, -2, -3, -5, 11, 23, -21, 53, 5, -5, 85, 73], "withholdReward": false, "trial_id": "mdp_trial_16", "block": "test", "trialIndex": 17, "score": 57.4, "costs": -5.6, "simulationMode": [null, null, null, null, null], "rewards": [-2, -4, 6, 14, 49], "path": ["0", "0", "1", "2", "3", "4", "6"], "rt": [11561, 346, 810, 4, 61], "actions": ["up", "up", "up", "right", "right"], "actionTimes": [12892, 13756, 15070, 15583, 16156], "queries": {"click": {"state": {"target": ["5", "7", "4", "6"], "time": [3371, 5656, 8662, 10427]}, "edge": {"target": [], "time": []}}, "mouseover": {"state": {"target": ["2", "3", "2", "3", "4", "5", "4", "7", "1", "7", "6", "3", "4", "6", "2", "2", "1"], "time": [1732, 1883, 2467, 2599, 2983, 3183, 3633, 3767, 4150, 5168, 5952, 8137, 8488, 9622, 10823, 11489, 11874]}, "edge": {"target": [], "time": []}}, "mouseout": {"state": {"target": ["0", "2", "3", "2", "3", "4", "5", "4", "7", "1", "7", "6", "3", "4", "4", "4", "6", "2", "2", "1", "2", "2", "18", "18", "12"], "time": [1448, 1765, 2400, 2549, 2933, 3117, 3584, 3700, 3818, 4167, 5869, 7787, 8404, 8745, 9004, 9588, 10689, 11123, 11657, 11907, 14793, 15209, 15543, 16478, 18128]}, "edge": {"target": [], "time": []}}}, "displayed_time": "16.65", "trialTime": 18972, "trial_type": "mouselab-mdp", "trial_index": 24, "time_elapsed": 572037, "internal_node_id": "0.0-6.0-1.0-15.0"}}, {"uniqueid": "w75195348:a10313951", "current_trial": 25, "dateTime": 1693660853136, "trialdata": {"revealed_states": [], "clicked_states": ["8", "11", "10", "9", "7", "6"], "num_clicks_accrued": [0, 0, 0, 0, 0, 0, 0, 0, 0, 0, 0, 0, 0], "stateRewards": ["", 1, 2, -3, 6, -88, 74, -45, 7, -46, 40, -77, 1, -4, 4, 3, 22, -25, -59, 8, -83, 19, -60, -1, -1, -1, -8, 26, -29, 64, -7, -88, -51, -55], "withholdReward": false, "trial_id": "mdp_trial_17", "block": "test", "trialIndex": 18, "score": 71.6, "costs": -8.4, "simulationMode": [null, null, null, null, null], "rewards": [1, 2, -3, 6, 74], "path": ["0", "0", "1", "2", "3", "4", "6"], "rt": [14602, 351, 62, 4, 63], "actions": ["up", "up", "up", "right", "right"], "actionTimes": [15443, 16290, 16852, 17362, 17939], "queries": {"click": {"state": {"target": ["8", "11", "10", "9", "7", "6"], "time": [2936, 4757, 6718, 8676, 10817, 12742]}, "edge": {"target": [], "time": []}}, "mouseover": {"state": {"target": ["0", "12", "0", "1", "2", "10", "8", "11", "9", "10", "9", "8", "2", "3", "4", "7", "6", "5", "2"], "time": [942, 1075, 1726, 2159, 2259, 2443, 2644, 3344, 5097, 5979, 7046, 9064, 9449, 9548, 9932, 10582, 11251, 13104, 15187]}, "edge": {"target": [], "time": []}}, "mouseout": {"state": {"target": ["0", "0", "12", "0", "1", "2", "10", "8", "8", "11", "9", "8", "10", "8", "9", "8", "10", "2", "3", "4", "7", "6", "5", "2", "18", "15", "12", "13"], "time": [558, 975, 1125, 1776, 2243, 2276, 2543, 3019, 3294, 4928, 5864, 5930, 6863, 6980, 9014, 9098, 9232, 9498, 9565, 10516, 11033, 13002, 14970, 15203, 17472, 17722, 18723, 18806]}, "edge": {"target": [], "time": []}}}, "displayed_time": "18.46", "trialTime": 20291, "trial_type": "mouselab-mdp", "trial_index": 25, "time_elapsed": 592711, "internal_node_id": "0.0-6.0-1.0-16.0"}}, {"uniqueid": "w75195348:a10313951", "current_trial": 26, "dateTime": 1693660870354, "trialdata": {"revealed_states": [], "clicked_states": ["21", "20", "19", "14"], "num_clicks_accrued": [0, 0, 0, 0, 0, 0, 0, 0, 0, 0, 0, 0, 0], "stateRewards": ["", -2, -1, -6, -14, -55, 78, -13, 11, 14, -71, 59, 2, 2, 6, -6, 9, 38, 14, 7, 85, 11, 68, 1, -4, -1, -3, -63, -85, 9, -2, 63, -86, -10], "withholdReward": false, "trial_id": "mdp_trial_18", "block": "test", "trialIndex": 19, "score": 96.4, "costs": -5.6, "simulationMode": [null, null, null, null, null], "rewards": [2, 2, 6, 7, 85], "path": ["0", "0", "12", "13", "14", "19", "20"], "rt": [10456, 322, 115, 88, 112], "actions": ["right", "right", "right", "down", "right"], "actionTimes": [12001, 12830, 13438, 14030, 14638], "queries": {"click": {"state": {"target": ["21", "20", "19", "14"], "time": [3434, 5739, 8340, 10167]}, "edge": {"target": [], "time": []}}, "mouseover": {"state": {"target": ["12", "13", "14", "19", "21", "20", "19", "22", "22", "19", "14", "22", "21"], "time": [1679, 2380, 2513, 2880, 3247, 5532, 5967, 6016, 6299, 8151, 8568, 10486, 10904]}, "edge": {"target": [], "time": []}}, "mouseout": {"state": {"target": ["0", "12", "13", "14", "19", "21", "20", "19", "22", "22", "19", "14", "22", "21"], "time": [1613, 2313, 2463, 2797, 3131, 3519, 5933, 5999, 6033, 7918, 8401, 10420, 10620, 10937]}, "edge": {"target": [], "time": []}}}, "displayed_time": "15.55", "trialTime": 16846, "trial_type": "mouselab-mdp", "trial_index": 26, "time_elapsed": 609929, "internal_node_id": "0.0-6.0-1.0-17.0"}}, {"uniqueid": "w75195348:a10313951", "current_trial": 27, "dateTime": 1693660886547, "trialdata": {"revealed_states": [], "clicked_states": ["27", "26"], "num_clicks_accrued": [0, 0, 0, 0, 0, 0, 0, 0, 0, 0, 0, 0, 0], "stateRewards": ["", 1, -3, -6, -5, 47, 80, -29, 11, -71, 10, -29, -2, 3, -6, 12, 2, -78, -6, 8, 34, -16, -5, -1, 3, 3, -13, 84, -36, -62, -3, -27, 66, 15], "withholdReward": false, "trial_id": "mdp_trial_19", "block": "test", "trialIndex": 20, "score": 73.2, "costs": -2.8, "simulationMode": [null, null, null, null, null], "rewards": [-1, 3, 3, -13, 84], "path": ["0", "0", "23", "24", "25", "26", "27"], "rt": [8177, 537, 159, 83, 93], "actions": ["left", "left", "left", "up", "up"], "actionTimes": [9023, 10063, 10719, 11295, 11889], "queries": {"click": {"state": {"target": ["27", "26"], "time": [3817, 7011]}, "edge": {"target": [], "time": []}}, "mouseover": {"state": {"target": ["21", "21", "22", "0", "1", "24", "24", "25", "26", "27", "26", "31", "32", "30", "26", "31"], "time": [983, 1719, 1768, 1934, 2318, 2768, 2969, 3136, 3403, 3636, 4054, 4437, 4670, 5905, 6805, 7288]}, "edge": {"target": [], "time": []}}, "mouseout": {"state": {"target": ["0", "21", "21", "22", "0", "1", "24", "24", "25", "26", "27", "26", "31", "32", "30", "26", "26", "31"], "time": [856, 1000, 1734, 1801, 2185, 2602, 2852, 3069, 3352, 3552, 4003, 4086, 4504, 5871, 6171, 7112, 7222, 7406]}, "edge": {"target": [], "time": []}}}, "displayed_time": "14.85", "trialTime": 15631, "trial_type": "mouselab-mdp", "trial_index": 27, "time_elapsed": 626123, "internal_node_id": "0.0-6.0-1.0-18.0"}}, {"uniqueid": "w75195348:a10313951", "current_trial": 28, "dateTime": 1693660903029, "trialdata": {"revealed_states": [], "clicked_states": [], "num_clicks_accrued": [0, 0, 0, 0, 0, 0, 0, 0, 0, 0, 0, 0, 0], "stateRewards": ["", 2, 4, -3, 16, -58, 30, -35, 11, -60, 47, 27, -2, -1, -7, -16, 23, -70, 68, -10, -65, -43, -34, -2, 1, 7, 9, -63, 34, -31, -8, -12, -86, 59], "withholdReward": false, "trial_id": "mdp_trial_20", "block": "test", "trialIndex": 21, "score": 42, "costs": 0, "simulationMode": [null, null, null, null, null], "rewards": [-2, -1, -7, -16, 68], "path": ["0", "0", "12", "13", "14", "15", "18"], "rt": [7190, 337, 431, 299, 569], "actions": ["right", "right", "right", "up", "left"], "actionTimes": [8129, 8960, 9888, 10688, 11760], "queries": {"click": {"state": {"target": [], "time": []}, "edge": {"target": [], "time": []}}, "mouseover": {"state": {"target": ["31", "22", "13", "18", "16", "15", "14", "14", "0"], "time": [2966, 3532, 3700, 3732, 4050, 4550, 4617, 4834, 5651]}, "edge": {"target": [], "time": []}}, "mouseout": {"state": {"target": ["0", "0", "31", "22", "13", "18", "16", "15", "14", "14", "0"], "time": [397, 1048, 3283, 3667, 3716, 3783, 4517, 4600, 4633, 5101, 6201]}, "edge": {"target": [], "time": []}}}, "displayed_time": "14.94", "trialTime": 16097, "trial_type": "mouselab-mdp", "trial_index": 28, "time_elapsed": 642605, "internal_node_id": "0.0-6.0-1.0-19.0"}}, {"uniqueid": "w75195348:a10313951", "current_trial": 29, "dateTime": 1693660919975, "trialdata": {"revealed_states": [], "clicked_states": ["18", "15"], "num_clicks_accrued": [0, 0, 0, 0, 0, 0, 0, 0, 0, 0, 0, 0, 0], "stateRewards": ["", -1, 4, 3, 12, -27, 34, -33, 3, -63, 1, 6, 2, 2, -6, -11, -77, -85, 68, -6, 51, 81, -60, -2, -2, 1, 15, 20, 15, 68, -10, -14, 6, -4], "withholdReward": false, "trial_id": "mdp_trial_21", "block": "test", "trialIndex": 22, "score": 52.2, "costs": -2.8, "simulationMode": [null, null, null, null, null], "rewards": [2, 2, -6, -11, 68], "path": ["0", "0", "12", "13", "14", "15", "18"], "rt": [5627, 112, 104, 48, 89], "actions": ["right", "right", "right", "up", "left"], "actionTimes": [7021, 7628, 8236, 8780, 9372], "queries": {"click": {"state": {"target": ["18", "15"], "time": [2080, 4955]}, "edge": {"target": [], "time": []}}, "mouseover": {"state": {"target": ["18", "14", "19", "21", "17", "15", "22", "14", "15", "14", "19", "22"], "time": [1575, 2326, 2543, 2944, 3460, 4127, 4277, 4628, 4744, 5162, 5227, 5829]}, "edge": {"target": [], "time": []}}, "mouseout": {"state": {"target": ["0", "18", "14", "19", "21", "17", "15", "22", "14", "15", "14", "19", "22"], "time": [1405, 2293, 2526, 2827, 3093, 4094, 4161, 4462, 4695, 5129, 5194, 5662, 5929]}, "edge": {"target": [], "time": []}}}, "displayed_time": "15.39", "trialTime": 16574, "trial_type": "mouselab-mdp", "trial_index": 29, "time_elapsed": 659551, "internal_node_id": "0.0-6.0-1.0-20.0"}}, {"uniqueid": "w75195348:a10313951", "current_trial": 30, "dateTime": 1693660936760, "trialdata": {"revealed_states": [], "clicked_states": ["9", "10", "8"], "num_clicks_accrued": [0, 0, 0, 0, 0, 0, 0, 0, 0, 0, 0, 0, 0], "stateRewards": ["", -1, -1, 4, -16, -75, 81, -51, -7, -84, 73, -30, -2, 1, -3, -16, -77, 33, 14, 1, 45, 87, -66, 2, 2, -5, -7, -19, -17, 79, -3, 8, 49, 47], "withholdReward": false, "trial_id": "mdp_trial_22", "block": "test", "trialIndex": 23, "score": 63.8, "costs": -4.199999999999999, "simulationMode": [null, null, null, null, null], "rewards": [-1, -1, 4, -7, 73], "path": ["0", "0", "1", "2", "3", "8", "10"], "rt": [8343, 83, 43, 85, 157], "actions": ["up", "up", "up", "left", "down"], "actionTimes": [9280, 9870, 10413, 11006, 11661], "queries": {"click": {"state": {"target": ["9", "10", "8"], "time": [1760, 4005, 7250]}, "edge": {"target": [], "time": []}}, "mouseover": {"state": {"target": ["8", "11", "9", "10", "10", "11", "11", "1", "2", "8", "2", "1", "2", "3", "3", "2"], "time": [1328, 1411, 1645, 2462, 2697, 4247, 4530, 6415, 6699, 6933, 7466, 8017, 8067, 8150, 8384, 9069]}, "edge": {"target": [], "time": []}}, "mouseout": {"state": {"target": ["0", "8", "11", "9", "10", "10", "11", "11", "10", "1", "2", "8", "2", "1", "2", "3", "3", "2", "12", "22"], "time": [948, 1395, 1513, 1995, 2513, 4147, 4282, 6216, 6299, 6683, 6732, 7433, 7483, 8050, 8117, 8335, 9018, 9084, 12955, 13555]}, "edge": {"target": [], "time": []}}}, "displayed_time": "14.94", "trialTime": 16382, "trial_type": "mouselab-mdp", "trial_index": 30, "time_elapsed": 676336, "internal_node_id": "0.0-6.0-1.0-21.0"}}, {"uniqueid": "w75195348:a10313951", "current_trial": 31, "dateTime": 1693660954202, "trialdata": {"revealed_states": [], "clicked_states": ["30", "33", "31", "32", "25"], "num_clicks_accrued": [0, 0, 0, 0, 0, 0, 0, 0, 0, 0, 0, 0, 0], "stateRewards": ["", -1, -3, -7, -4, -85, -70, 79, 8, 84, -66, 42, 2, -2, -3, -16, -54, -66, 68, -3, 21, -14, 7, -2, -1, -3, -8, 75, 80, 86, -7, -84, 73, -16], "withholdReward": false, "trial_id": "mdp_trial_23", "block": "test", "trialIndex": 24, "score": 53, "costs": -7, "simulationMode": [null, null, null, null, null], "rewards": [-2, -1, -3, -7, 73], "path": ["0", "0", "23", "24", "25", "30", "32"], "rt": [11854, 143, 4, 48, 24], "actions": ["left", "left", "left", "down", "down"], "actionTimes": [12655, 13295, 13790, 14351, 14895], "queries": {"click": {"state": {"target": ["30", "33", "31", "32", "25"], "time": [2266, 4206, 6124, 8008, 10781]}, "edge": {"target": [], "time": []}}, "mouseover": {"state": {"target": ["30", "30", "32", "33", "31", "32", "30", "25", "26", "27", "26", "25"], "time": [1207, 1623, 2475, 2892, 4577, 6394, 8295, 8430, 8580, 8913, 10381, 10447]}, "edge": {"target": [], "time": []}}, "mouseout": {"state": {"target": ["0", "0", "30", "30", "32", "33", "31", "32", "30", "25", "26", "27", "26", "25", "25"], "time": [38, 812, 1491, 2424, 2627, 4394, 6295, 8247, 8363, 8513, 8779, 10347, 10414, 10888, 11049]}, "edge": {"target": [], "time": []}}}, "displayed_time": "15.39", "trialTime": 17039, "trial_type": "mouselab-mdp", "trial_index": 31, "time_elapsed": 693778, "internal_node_id": "0.0-6.0-1.0-22.0"}}, {"uniqueid": "w75195348:a10313951", "current_trial": 32, "dateTime": 1693660972221, "trialdata": {"revealed_states": [], "clicked_states": ["6", "5", "4", "3"], "num_clicks_accrued": [0, 0, 0, 0, 0, 0, 0, 0, 0, 0, 0, 0, 0], "stateRewards": ["", -2, -4, -8, 8, 63, -50, -19, -7, -17, -31, 31, 1, 3, -5, 12, -35, -63, -29, -4, -17, -75, -79, -2, -3, -2, 8, -3, -85, 10, -2, -82, -82, 56], "withholdReward": false, "trial_id": "mdp_trial_24", "block": "test", "trialIndex": 25, "score": 51.4, "costs": -5.6, "simulationMode": [null, null, null, null, null], "rewards": [-2, -4, -8, 8, 63], "path": ["0", "0", "1", "2", "3", "4", "5"], "rt": [11062, 229, 24, 545, 231], "actions": ["up", "up", "up", "right", "up"], "actionTimes": [12396, 13115, 13643, 14683, 15419], "queries": {"click": {"state": {"target": ["6", "5", "4", "3"], "time": [2689, 4647, 7159, 10500]}, "edge": {"target": [], "time": []}}, "mouseover": {"state": {"target": ["0", "0", "1", "2", "4", "6", "4", "2", "1", "4", "5", "4", "7", "4", "3", "3", "2", "1", "12", "1", "2", "3", "3", "13", "13"], "time": [1358, 1575, 1675, 1758, 2258, 2475, 3009, 3176, 3259, 3727, 4143, 4860, 4944, 6946, 7513, 7796, 9332, 9397, 9782, 9814, 9864, 9931, 10282, 11333, 11549]}, "edge": {"target": [], "time": []}}, "mouseout": {"state": {"target": ["0", "0", "0", "1", "2", "4", "6", "6", "4", "2", "1", "4", "5", "4", "7", "4", "4", "3", "3", "2", "1", "12", "1", "2", "3", "3", "13", "13", "13", "12"], "time": [923, 1375, 1608, 1725, 2025, 2442, 2764, 2976, 3026, 3193, 3476, 4010, 4844, 4910, 6880, 7236, 7430, 7530, 9281, 9381, 9447, 9798, 9847, 9898, 10187, 10683, 11416, 11766, 15769, 16020]}, "edge": {"target": [], "time": []}}}, "displayed_time": "15.92", "trialTime": 17627, "trial_type": "mouselab-mdp", "trial_index": 32, "time_elapsed": 711796, "internal_node_id": "0.0-6.0-1.0-23.0"}}, {"uniqueid": "w75195348:a10313951", "current_trial": 33, "dateTime": 1693660989102, "trialdata": {"revealed_states": [], "clicked_states": ["19", "20"], "num_clicks_accrued": [0, 0, 0, 0, 0, 0, 0, 0, 0, 0, 0, 0, 0], "stateRewards": ["", 2, -3, -8, 14, -7, -51, 73, 2, 36, 36, -43, -1, 3, -4, 1, 6, 87, -65, 15, 61, -42, -83, -1, 3, -2, -7, 30, -48, 35, 13, 26, 60, 78], "withholdReward": false, "trial_id": "mdp_trial_25", "block": "test", "trialIndex": 26, "score": 71.2, "costs": -2.8, "simulationMode": [null, null, null, null, null], "rewards": [-1, 3, -4, 15, 61], "path": ["0", "0", "12", "13", "14", "19", "20"], "rt": [6789, 142, 84, 286, 206], "actions": ["right", "right", "right", "down", "right"], "actionTimes": [8243, 8896, 9472, 10272, 10977], "queries": {"click": {"state": {"target": ["19", "20"], "time": [3342, 5193]}, "edge": {"target": [], "time": []}}, "mouseover": {"state": {"target": ["13", "14", "15", "14", "19", "21", "20", "21", "22", "19"], "time": [2512, 2595, 2696, 2963, 3129, 3680, 4030, 5514, 6265, 8217]}, "edge": {"target": [], "time": []}}, "mouseout": {"state": {"target": ["0", "13", "14", "15", "14", "19", "21", "20", "21", "22", "19", "20"], "time": [1466, 2545, 2628, 2912, 3012, 3630, 3797, 5466, 5798, 7699, 8266, 9084]}, "edge": {"target": [], "time": []}}}, "displayed_time": "15.46", "trialTime": 16481, "trial_type": "mouselab-mdp", "trial_index": 33, "time_elapsed": 728678, "internal_node_id": "0.0-6.0-1.0-24.0"}}, {"uniqueid": "w75195348:a10313951", "current_trial": 34, "dateTime": 1693661005474, "trialdata": {"revealed_states": [], "clicked_states": ["32", "30", "25"], "num_clicks_accrued": [0, 0, 0, 0, 0, 0, 0, 0, 0, 0, 0, 0, 0], "stateRewards": ["", -1, 3, -5, -2, -13, -9, -34, -7, -81, 32, 35, -2, -2, 1, -14, -32, 81, 7, 4, 82, 56, -8, -1, 3, -8, 6, -24, -24, -53, 2, 38, 61, 54], "withholdReward": false, "trial_id": "mdp_trial_26", "block": "test", "trialIndex": 27, "score": 52.8, "costs": -4.199999999999999, "simulationMode": [null, null, null, null, null], "rewards": [-1, 3, -8, 2, 61], "path": ["0", "0", "23", "24", "25", "30", "32"], "rt": [7276, 45, 23, 49, 75], "actions": ["left", "left", "left", "down", "down"], "actionTimes": [8317, 8860, 9388, 9932, 10524], "queries": {"click": {"state": {"target": ["32", "30", "25"], "time": [1862, 4251, 6364]}, "edge": {"target": [], "time": []}}, "mouseover": {"state": {"target": ["0", "31", "32", "33", "30", "25", "31"], "time": [1144, 1473, 1589, 2890, 4075, 4576, 6694]}, "edge": {"target": [], "time": []}}, "mouseout": {"state": {"target": ["0", "0", "31", "32", "33", "30", "25", "31"], "time": [739, 1391, 1507, 2357, 3992, 4349, 6644, 6867]}, "edge": {"target": [], "time": []}}}, "displayed_time": "15.04", "trialTime": 15935, "trial_type": "mouselab-mdp", "trial_index": 34, "time_elapsed": 745050, "internal_node_id": "0.0-6.0-1.0-25.0"}}, {"uniqueid": "w75195348:a10313951", "current_trial": 35, "dateTime": 1693661022387, "trialdata": {"revealed_states": [], "clicked_states": ["5", "6", "4"], "num_clicks_accrued": [0, 0, 0, 0, 0, 0, 0, 0, 0, 0, 0, 0, 0], "stateRewards": ["", 2, -1, 5, 6, 10, 86, 55, 10, -45, 63, -71, 1, -2, 5, -8, -50, -72, 36, 15, 61, 12, 33, -1, -4, 6, 5, 79, -56, -21, -16, -87, 60, -81], "withholdReward": false, "trial_id": "mdp_trial_27", "block": "test", "trialIndex": 28, "score": 93.8, "costs": -4.199999999999999, "simulationMode": [null, null, null, null, null], "rewards": [2, -1, 5, 6, 86], "path": ["0", "0", "1", "2", "3", "4", "6"], "rt": [8028, 28, 7, 65, 58], "actions": ["up", "up", "up", "right", "right"], "actionTimes": [9287, 9815, 10311, 10887, 11447], "queries": {"click": {"state": {"target": ["5", "6", "4"], "time": [2498, 4528, 7238]}, "edge": {"target": [], "time": []}}, "mouseover": {"state": {"target": ["1", "10", "8", "3", "4", "5", "4", "6", "7", "7", "4", "7"], "time": [1361, 1712, 1946, 2012, 2096, 2296, 2712, 3547, 4882, 6017, 6967, 7500]}, "edge": {"target": [], "time": []}}, "mouseout": {"state": {"target": ["0", "1", "10", "8", "3", "4", "5", "4", "6", "6", "7", "7", "4", "7", "12"], "time": [1317, 1378, 1762, 1979, 2062, 2213, 2680, 2746, 4587, 4783, 5682, 6884, 7454, 7550, 13272]}, "edge": {"target": [], "time": []}}}, "displayed_time": "15.26", "trialTime": 16456, "trial_type": "mouselab-mdp", "trial_index": 35, "time_elapsed": 761962, "internal_node_id": "0.0-6.0-1.0-26.0"}}, {"uniqueid": "w75195348:a10313951", "current_trial": 36, "dateTime": 1693661042647, "trialdata": {"revealed_states": [], "clicked_states": ["9", "11", "10", "8", "3"], "num_clicks_accrued": [0, 0, 0, 0, 0, 0, 0, 0, 0, 0, 0, 0, 0], "stateRewards": ["", -1, 1, -2, 5, 73, 15, 61, 8, 7, 38, 76, 2, 2, -4, -6, -6, -26, 43, -5, -45, -85, -35, -2, 1, -4, 15, -10, 69, 72, -11, 84, -49, -38], "withholdReward": false, "trial_id": "mdp_trial_28", "block": "test", "trialIndex": 29, "score": 75, "costs": -7, "simulationMode": [null, null, null, null, null], "rewards": [-1, 1, -2, 8, 76], "path": ["0", "0", "1", "2", "3", "8", "11"], "rt": [10637, 145, 7, 19, 3], "actions": ["up", "up", "up", "left", "left"], "actionTimes": [11945, 12584, 13096, 13625, 14126], "queries": {"click": {"state": {"target": ["9", "11", "10", "8", "3"], "time": [2202, 4107, 5965, 7927, 10108]}, "edge": {"target": [], "time": []}}, "mouseover": {"state": {"target": ["0", "0", "1", "10", "9", "11", "11", "10", "8", "0", "3", "2", "1"], "time": [1321, 1545, 1645, 1695, 2045, 2529, 2896, 4364, 6700, 8605, 9902, 10318, 10352]}, "edge": {"target": [], "time": []}}, "mouseout": {"state": {"target": ["12", "0", "0", "1", "10", "9", "9", "11", "11", "10", "10", "8", "10", "0", "3", "2", "1", "32", "29", "25"], "time": [845, 1361, 1595, 1661, 1728, 2295, 2446, 2562, 4314, 6233, 6598, 8168, 8234, 8684, 10302, 10335, 10368, 17691, 18976, 19026]}, "edge": {"target": [], "time": []}}}, "displayed_time": "15.31", "trialTime": 19835, "trial_type": "mouselab-mdp", "trial_index": 36, "time_elapsed": 782222, "internal_node_id": "0.0-6.0-1.0-27.0"}}, {"uniqueid": "w75195348:a10313951", "current_trial": 37, "dateTime": 1693661060102, "trialdata": {"revealed_states": [], "clicked_states": ["29", "27", "28", "26"], "num_clicks_accrued": [0, 0, 0, 0, 0, 0, 0, 0, 0, 0, 0, 0, 0], "stateRewards": ["", 1, 2, 7, 13, 88, -71, 27, 3, 60, 5, -53, -2, 2, -6, -1, -30, 79, 47, -4, -14, 46, 68, 1, 1, 8, 10, -14, 86, 48, -11, -67, -44, 5], "withholdReward": false, "trial_id": "mdp_trial_29", "block": "test", "trialIndex": 30, "score": 100.4, "costs": -5.6, "simulationMode": [null, null, null, null, null], "rewards": [1, 1, 8, 10, 86], "path": ["0", "0", "23", "24", "25", "26", "28"], "rt": [9654, 54, 65, 105, 80], "actions": ["left", "left", "left", "up", "right"], "actionTimes": [10794, 11353, 11914, 12521, 13097], "queries": {"click": {"state": {"target": ["29", "27", "28", "26"], "time": [1668, 3882, 5776, 9006]}, "edge": {"target": [], "time": []}}, "mouseover": {"state": {"target": ["26", "29", "26", "24", "25", "26", "27", "28", "25", "30", "32", "31", "31", "25", "26", "31"], "time": [1150, 1489, 1939, 2156, 2523, 2945, 3190, 4090, 6026, 6427, 6509, 6893, 8561, 8661, 8778, 9278]}, "edge": {"target": [], "time": []}}, "mouseout": {"state": {"target": ["29", "24", "23", "0", "26", "29", "26", "24", "25", "26", "27", "28", "25", "30", "32", "31", "31", "25", "26", "31"], "time": [504, 588, 637, 688, 1175, 1905, 1956, 2190, 2906, 3073, 4041, 5976, 6093, 6476, 6576, 8111, 8577, 8695, 9212, 9295]}, "edge": {"target": [], "time": []}}}, "displayed_time": "15.14", "trialTime": 17002, "trial_type": "mouselab-mdp", "trial_index": 37, "time_elapsed": 799678, "internal_node_id": "0.0-6.0-1.0-28.0"}}, {"uniqueid": "w75195348:a10313951", "current_trial": 38, "dateTime": 1693661076409, "trialdata": {"revealed_states": [], "clicked_states": ["16", "15"], "num_clicks_accrued": [0, 0, 0, 0, 0, 0, 0, 0, 0, 0, 0, 0, 0], "stateRewards": ["", -1, -4, -3, 1, -45, -67, -24, 14, 32, 22, 22, -1, 1, -5, -7, 72, 84, -79, -5, 19, -40, -2, -1, -2, 8, -3, 84, -25, -28, 11, 64, -66, 77], "withholdReward": false, "trial_id": "mdp_trial_30", "block": "test", "trialIndex": 31, "score": 57.2, "costs": -2.8, "simulationMode": [null, null, null, null, null], "rewards": [-1, 1, -5, -7, 72], "path": ["0", "0", "12", "13", "14", "15", "16"], "rt": [6019, 84, 61, 7, 96], "actions": ["right", "right", "right", "up", "up"], "actionTimes": [7101, 7692, 8252, 8748, 9356], "queries": {"click": {"state": {"target": ["16", "15"], "time": [1971, 5097]}, "edge": {"target": [], "time": []}}, "mouseover": {"state": {"target": ["0", "12", "13", "15", "16", "18", "12", "18", "15", "14", "19"], "time": [1234, 1267, 1334, 1584, 1767, 2317, 2968, 3302, 4769, 5771, 5837]}, "edge": {"target": [], "time": []}}, "mouseout": {"state": {"target": ["31", "31", "0", "0", "12", "13", "15", "16", "16", "18", "12", "18", "15", "14", "19"], "time": [233, 533, 717, 1250, 1300, 1384, 1684, 2057, 2252, 2435, 3186, 4671, 5737, 5820, 5905]}, "edge": {"target": [], "time": []}}}, "displayed_time": "15.08", "trialTime": 15789, "trial_type": "mouselab-mdp", "trial_index": 38, "time_elapsed": 815984, "internal_node_id": "0.0-6.0-1.0-29.0"}}, {"uniqueid": "w75195348:a10313951", "current_trial": 39, "dateTime": 1693661102589, "trialdata": {"revealed_states": [], "clicked_states": ["19", "22", "20", "21", "9", "11", "10", "8"], "num_clicks_accrued": [0, 0, 0, 0, 0, 0, 0, 0, 0, 0, 0, 0, 0], "stateRewards": ["", 1, 1, -5, 10, -31, 73, 14, -8, -23, 63, -70, -1, 2, 8, 7, 25, -59, 27, -10, -40, -71, -15, -2, 3, -8, -5, -19, 77, -34, 7, 67, 63, 19], "withholdReward": false, "trial_id": "mdp_trial_31", "block": "test", "trialIndex": 32, "score": 40.8, "costs": -11.200000000000001, "simulationMode": [null, null, null, null, null], "rewards": [1, 1, -5, -8, 63], "path": ["0", "0", "1", "2", "3", "8", "10"], "rt": [18957, 554, 126, 166, 186], "actions": ["up", "up", "up", "left", "down"], "actionTimes": [20246, 21302, 21925, 22582, 23269], "queries": {"click": {"state": {"target": ["19", "22", "20", "21", "9", "11", "10", "8"], "time": [2359, 4295, 6273, 8434, 11081, 13287, 15283, 18270]}, "edge": {"target": [], "time": []}}, "mouseover": {"state": {"target": ["0", "12", "22", "19", "19", "21", "22", "20", "21", "24", "25", "26", "27", "11", "9", "8", "28", "11", "11", "10", "2", "10", "2", "7", "6", "4", "2", "3", "8", "2", "1"], "time": [1497, 1596, 1829, 1881, 2180, 2847, 3815, 5483, 6719, 9088, 9170, 9420, 9636, 10521, 10905, 11388, 11521, 12773, 13081, 13590, 13699, 14174, 15508, 15942, 16309, 17493, 17560, 17894, 17993, 18527, 18611]}, "edge": {"target": [], "time": []}}, "mouseout": {"state": {"target": ["0", "0", "12", "22", "19", "19", "21", "22", "22", "19", "20", "21", "24", "25", "26", "27", "11", "9", "8", "28", "11", "11", "10", "2", "10", "2", "7", "6", "4", "2", "3", "8", "2", "1"], "time": [1351, 1563, 1696, 1846, 2030, 2681, 2931, 4534, 4933, 5118, 6468, 8619, 9120, 9370, 9438, 10438, 10588, 11356, 11406, 11555, 13007, 13540, 13640, 13890, 15475, 15909, 16008, 17477, 17509, 17861, 17960, 18461, 18560, 18694]}, "edge": {"target": [], "time": []}}}, "displayed_time": "23.78", "trialTime": 25736, "trial_type": "mouselab-mdp", "trial_index": 39, "time_elapsed": 842165, "internal_node_id": "0.0-6.0-1.0-30.0"}}, {"uniqueid": "w75195348:a10313951", "current_trial": 40, "dateTime": 1693661120926, "trialdata": {"revealed_states": [], "clicked_states": ["30", "33", "32", "31", "25"], "num_clicks_accrued": [0, 0, 0, 0, 0, 0, 0, 0, 0, 0, 0, 0, 0], "stateRewards": ["", -2, 1, -8, 12, -65, -79, 16, 7, -80, -17, -45, -2, 2, -5, -2, -85, 23, -4, -7, 48, 27, -76, 2, 3, 5, 2, 43, 71, -13, 7, -49, 59, -31], "withholdReward": false, "trial_id": "mdp_trial_32", "block": "test", "trialIndex": 33, "score": 69, "costs": -7, "simulationMode": [null, null, null, null, null], "rewards": [2, 3, 5, 7, 59], "path": ["0", "0", "23", "24", "25", "30", "32"], "rt": [11564, 47, 505, 112, 390], "actions": ["left", "left", "left", "down", "down"], "actionTimes": [12816, 13359, 14382, 14991, 15871], "queries": {"click": {"state": {"target": ["30", "33", "32", "31", "25"], "time": [2839, 4702, 6609, 8598, 11186]}, "edge": {"target": [], "time": []}}, "mouseover": {"state": {"target": ["0", "0", "23", "24", "25", "30", "33", "32", "31", "25"], "time": [1286, 1516, 1749, 2033, 2250, 2500, 3352, 5019, 7089, 10941]}, "edge": {"target": [], "time": []}}, "mouseout": {"state": {"target": ["0", "0", "0", "23", "24", "25", "30", "33", "32", "31", "25", "31"], "time": [832, 1333, 1650, 1817, 2168, 2434, 3284, 4919, 6820, 9156, 11341, 11425]}, "edge": {"target": [], "time": []}}}, "displayed_time": "16.36", "trialTime": 17888, "trial_type": "mouselab-mdp", "trial_index": 40, "time_elapsed": 860501, "internal_node_id": "0.0-6.0-1.0-31.0"}}, {"uniqueid": "w75195348:a10313951", "current_trial": 41, "dateTime": 1693661140927, "trialdata": {"revealed_states": [], "clicked_states": ["16", "18", "17", "22", "20", "19"], "num_clicks_accrued": [0, 0, 0, 0, 0, 0, 0, 0, 0, 0, 0, 0, 0], "stateRewards": ["", 1, 1, -3, 7, 49, 78, 26, -5, 26, 48, -43, -1, -3, 2, -5, 4, -1, -60, 10, -35, 51, 81, -2, 1, -7, -5, -39, -86, -54, 4, -3, 74, 77], "withholdReward": false, "trial_id": "mdp_trial_33", "block": "test", "trialIndex": 34, "score": 80.6, "costs": -8.4, "simulationMode": [null, null, null, null, null], "rewards": [-1, -3, 2, 10, 81], "path": ["0", "0", "12", "13", "14", "19", "22"], "rt": [14314, 198, 58, 82, 219], "actions": ["right", "right", "right", "down", "left"], "actionTimes": [15537, 16240, 16801, 17377, 18097], "queries": {"click": {"state": {"target": ["16", "18", "17", "22", "20", "19"], "time": [2099, 4236, 6241, 9258, 11708, 13643]}, "edge": {"target": [], "time": []}}, "mouseover": {"state": {"target": ["18", "15", "16", "15", "13", "18", "15", "17", "19", "21", "13", "7", "4", "4", "6", "22", "19", "20", "19", "14", "19"], "time": [1562, 1696, 1912, 2329, 2913, 3280, 4465, 4549, 6517, 6917, 8353, 8402, 8568, 8703, 8751, 9035, 9453, 9753, 12121, 12287, 12654]}, "edge": {"target": [], "time": []}}, "mouseout": {"state": {"target": ["0", "18", "15", "16", "15", "13", "18", "15", "17", "17", "19", "21", "13", "7", "4", "4", "6", "22", "19", "20", "19", "14", "19"], "time": [978, 1614, 1763, 2296, 2413, 3063, 4415, 4498, 6292, 6433, 6549, 8301, 8367, 8418, 8652, 8718, 8768, 9419, 9469, 12088, 12154, 12571, 13957]}, "edge": {"target": [], "time": []}}}, "displayed_time": "18.59", "trialTime": 19537, "trial_type": "mouselab-mdp", "trial_index": 41, "time_elapsed": 880503, "internal_node_id": "0.0-6.0-1.0-32.0"}}, {"uniqueid": "w75195348:a10313951", "current_trial": 42, "dateTime": 1693661163602, "trialdata": {"revealed_states": [], "clicked_states": ["9", "7", "6", "5", "11", "10"], "num_clicks_accrued": [0, 0, 0, 0, 0, 0, 0, 0, 0, 0, 0, 0, 0], "stateRewards": ["", 1, 4, 5, 8, -55, -11, 8, 16, -37, 77, -22, -2, 3, -8, -10, 45, 87, -67, 4, 17, -33, -22, -1, -3, 7, 6, -39, -85, 75, -1, 7, -48, 45], "withholdReward": false, "trial_id": "mdp_trial_34", "block": "test", "trialIndex": 35, "score": 94.6, "costs": -8.4, "simulationMode": [null, null, null, null, null], "rewards": [1, 4, 5, 16, 77], "path": ["0", "0", "1", "2", "3", "8", "10"], "rt": [16079, 99, 77, 38, 95], "actions": ["up", "up", "up", "left", "down"], "actionTimes": [17632, 18223, 18800, 19328, 19920], "queries": {"click": {"state": {"target": ["9", "7", "6", "5", "11", "10"], "time": [3539, 6197, 8386, 10338, 12336, 14362]}, "edge": {"target": [], "time": []}}, "mouseover": {"state": {"target": ["18", "23", "8", "9", "11", "28", "2", "7", "6", "5", "3", "8", "11", "10", "10", "25", "30", "33", "0", "0"], "time": [2025, 2575, 3108, 3425, 3843, 4277, 5562, 5661, 7144, 8796, 10581, 10614, 10831, 12583, 12932, 14985, 15251, 15486, 16719, 17053]}, "edge": {"target": [], "time": []}}, "mouseout": {"state": {"target": ["21", "23", "0", "18", "23", "8", "9", "11", "28", "2", "7", "6", "5", "5", "3", "8", "11", "11", "10", "10", "25", "30", "33", "0", "0"], "time": [572, 840, 1564, 2091, 2608, 3342, 3776, 3909, 4309, 5594, 6712, 8455, 10420, 10531, 10598, 10648, 12398, 12549, 12616, 14534, 15021, 15301, 16420, 16736, 20856]}, "edge": {"target": [], "time": []}}}, "displayed_time": "20.43", "trialTime": 22223, "trial_type": "mouselab-mdp", "trial_index": 42, "time_elapsed": 903177, "internal_node_id": "0.0-6.0-1.0-33.0"}}, {"uniqueid": "w75195348:a10313951", "current_trial": 43, "dateTime": 1693661180020, "trialdata": {"revealed_states": [], "clicked_states": ["32", "31", "33", "30"], "num_clicks_accrued": [0, 0, 0, 0, 0, 0, 0, 0, 0, 0, 0, 0, 0], "stateRewards": ["", -1, 3, 8, 9, -53, 20, -84, 2, -28, -62, -31, -1, -2, -7, 2, 51, 58, 45, -4, -17, -41, 36, 2, -2, -7, -15, 29, -54, -37, -16, -43, 65, -17], "withholdReward": false, "trial_id": "mdp_trial_35", "block": "test", "trialIndex": 36, "score": 36.4, "costs": -5.6, "simulationMode": [null, null, null, null, null], "rewards": [2, -2, -7, -16, 65], "path": ["0", "0", "23", "24", "25", "30", "32"], "rt": [8669, 348, 74, 66, 160], "actions": ["left", "left", "left", "down", "down"], "actionTimes": [9650, 10496, 11089, 11649, 12308], "queries": {"click": {"state": {"target": ["32", "31", "33", "30"], "time": [1870, 4142, 5955, 7797]}, "edge": {"target": [], "time": []}}, "mouseover": {"state": {"target": ["23", "31", "30", "32", "31", "30", "33", "32", "30"], "time": [1155, 1372, 1472, 1722, 2289, 4475, 4909, 6542, 7087]}, "edge": {"target": [], "time": []}}, "mouseout": {"state": {"target": ["0", "23", "31", "30", "32", "31", "30", "33", "33", "32", "30", "30"], "time": [504, 1238, 1389, 1539, 2089, 4424, 4876, 6175, 6409, 6610, 7877, 8011]}, "edge": {"target": [], "time": []}}}, "displayed_time": "14.98", "trialTime": 15922, "trial_type": "mouselab-mdp", "trial_index": 43, "time_elapsed": 919596, "internal_node_id": "0.0-6.0-1.0-34.0"}}, {"uniqueid": "w75195348:a10313951", "current_trial": 44, "dateTime": 1693661196485, "trialdata": {"revealed_states": [], "clicked_states": ["27", "29", "28", "26"], "num_clicks_accrued": [0, 0, 0, 0, 0, 0, 0, 0, 0, 0, 0, 0, 0], "stateRewards": ["", -1, -4, -1, -11, 43, 69, 39, 4, 17, -20, -82, -2, -1, 4, 8, -79, 24, -79, 11, 36, 64, 41, 2, 4, -1, 11, -79, -47, 75, -3, 63, -36, -19], "withholdReward": false, "trial_id": "mdp_trial_36", "block": "test", "trialIndex": 37, "score": 85.4, "costs": -5.6, "simulationMode": [null, null, null, null, null], "rewards": [2, 4, -1, 11, 75], "path": ["0", "0", "23", "24", "25", "26", "29"], "rt": [9570, 538, 178, 118, 157], "actions": ["left", "left", "left", "up", "left"], "actionTimes": [11003, 12042, 12715, 13323, 13979], "queries": {"click": {"state": {"target": ["27", "29", "28", "26"], "time": [2805, 4652, 6503, 9111]}, "edge": {"target": [], "time": []}}, "mouseover": {"state": {"target": ["23", "24", "30", "25", "26", "27", "29", "26", "28", "24", "25", "26", "26", "25", "30", "31"], "time": [1844, 1876, 2327, 2410, 2445, 2627, 3181, 4862, 4929, 6847, 7464, 7565, 8932, 9382, 9566, 9599]}, "edge": {"target": [], "time": []}}, "mouseout": {"state": {"target": ["0", "23", "24", "30", "25", "26", "27", "29", "26", "28", "24", "25", "26", "26", "26", "25", "30", "31"], "time": [1446, 1860, 1927, 2377, 2427, 2528, 3094, 4779, 4896, 6814, 6914, 7500, 8666, 9197, 9349, 9483, 9583, 9633]}, "edge": {"target": [], "time": []}}}, "displayed_time": "15.43", "trialTime": 15995, "trial_type": "mouselab-mdp", "trial_index": 44, "time_elapsed": 936061, "internal_node_id": "0.0-6.0-1.0-35.0"}}, {"uniqueid": "w75195348:a10313951", "current_trial": 45, "dateTime": 1693661225768, "trialdata": {"revealed_states": [], "clicked_states": ["6", "7", "5", "9", "11", "10", "17", "16", "18", "20"], "num_clicks_accrued": [0, 0, 0, 0, 0, 0, 0, 0, 0, 0, 0, 0, 0], "stateRewards": ["", 1, -1, 4, 5, -32, 18, 20, 6, -88, -74, 9, -2, 1, -2, -14, 34, -77, -38, -1, 80, -36, 73, 2, 3, -8, 10, -48, -73, -71, -11, -22, 20, 54], "withholdReward": false, "trial_id": "mdp_trial_37", "block": "test", "trialIndex": 38, "score": 62, "costs": -14.000000000000002, "simulationMode": [null, null, null, null, null], "rewards": [-2, 1, -2, -1, 80], "path": ["0", "0", "12", "13", "14", "19", "20"], "rt": [23138, 398, 124, 113, 88], "actions": ["right", "right", "right", "down", "right"], "actionTimes": [24342, 25252, 25876, 26484, 27092], "queries": {"click": {"state": {"target": ["6", "7", "5", "9", "11", "10", "17", "16", "18", "20"], "time": [2251, 4407, 6408, 8535, 10484, 12484, 15059, 17213, 19379, 21945]}, "edge": {"target": [], "time": []}}, "mouseover": {"state": {"target": ["0", "1", "7", "4", "6", "12", "7", "4", "5", "4", "8", "9", "11", "10", "1", "13", "14", "15", "17", "16", "18", "18", "13", "22", "19", "21", "20", "21"], "time": [1532, 1715, 1798, 1866, 2016, 2766, 3267, 4675, 4800, 6702, 7186, 7503, 9305, 10755, 13074, 13274, 14108, 14526, 14975, 15526, 17532, 17995, 19596, 19680, 20279, 21464, 21748, 22266]}, "edge": {"target": [], "time": []}}, "mouseout": {"state": {"target": ["0", "0", "1", "7", "4", "6", "12", "7", "4", "5", "4", "8", "9", "11", "10", "1", "13", "14", "15", "17", "16", "16", "18", "18", "13", "22", "19", "21", "20", "20", "21", "21"], "time": [934, 1665, 1732, 1815, 1900, 2533, 2967, 4617, 4734, 6670, 7020, 7420, 8754, 10707, 12874, 13157, 13374, 14492, 14858, 15095, 17267, 17477, 17611, 19579, 19646, 19696, 21230, 21649, 22022, 22181, 24049, 24599]}, "edge": {"target": [], "time": []}}}, "displayed_time": "27.59", "trialTime": 28836, "trial_type": "mouselab-mdp", "trial_index": 45, "time_elapsed": 965343, "internal_node_id": "0.0-6.0-1.0-36.0"}}, {"uniqueid": "w75195348:a10313951", "current_trial": 46, "dateTime": 1693661243322, "trialdata": {"revealed_states": [], "clicked_states": ["27", "29", "28"], "num_clicks_accrued": [0, 0, 0, 0, 0, 0, 0, 0, 0, 0, 0, 0, 0], "stateRewards": ["", 2, -4, -8, -15, 71, -43, -41, 7, -17, 20, 67, -1, -1, -4, 6, 37, -24, -47, 9, 34, 57, 45, 1, 2, -4, -5, -23, 88, -5, 13, -40, 43, 44], "withholdReward": false, "trial_id": "mdp_trial_38", "block": "test", "trialIndex": 39, "score": 77.8, "costs": -4.199999999999999, "simulationMode": [null, null, null, null, null], "rewards": [1, 2, -4, -5, 88], "path": ["0", "0", "23", "24", "25", "26", "28"], "rt": [9148, 118, 156, 146, 121], "actions": ["left", "left", "left", "up", "right"], "actionTimes": [10227, 10850, 11506, 12147, 12770], "queries": {"click": {"state": {"target": ["27", "29", "28"], "time": [2078, 4698, 6618]}, "edge": {"target": [], "time": []}}, "mouseover": {"state": {"target": ["25", "27", "26", "29", "26", "28", "28", "24", "30", "31", "25", "25", "30"], "time": [1572, 1924, 2406, 3224, 4975, 5058, 5343, 6876, 6960, 9028, 9712, 9962, 10046]}, "edge": {"target": [], "time": []}}, "mouseout": {"state": {"target": ["0", "25", "27", "26", "29", "26", "28", "28", "28", "24", "30", "31", "25", "25", "30", "31"], "time": [1322, 1640, 2373, 2539, 4941, 5008, 5142, 6715, 6843, 6893, 7026, 9162, 9746, 10013, 10063, 16451]}, "edge": {"target": [], "time": []}}}, "displayed_time": "15.08", "trialTime": 17074, "trial_type": "mouselab-mdp", "trial_index": 46, "time_elapsed": 982897, "internal_node_id": "0.0-6.0-1.0-37.0"}}, {"uniqueid": "w75195348:a10313951", "current_trial": 47, "dateTime": 1693661267468, "trialdata": {"revealed_states": [], "clicked_states": ["16", "17", "18", "20", "21", "22", "29"], "num_clicks_accrued": [0, 0, 0, 0, 0, 0, 0, 0, 0, 0, 0, 0, 0], "stateRewards": ["", 2, -1, 1, 10, -52, 86, -22, -2, -14, -63, 38, 1, 3, 7, -8, 11, -32, -27, 9, -71, 40, -87, -2, -1, 5, -7, 12, 31, -57, 13, 86, -58, 29], "withholdReward": false, "trial_id": "mdp_trial_39", "block": "test", "trialIndex": 40, "score": 50.2, "costs": -9.8, "simulationMode": [null, null, null, null, null], "rewards": [1, 3, 7, 9, 40], "path": ["0", "0", "12", "13", "14", "19", "21"], "rt": [16704, 422, 110, 55, 126], "actions": ["right", "right", "right", "down", "down"], "actionTimes": [19138, 20064, 20688, 21247, 21870], "queries": {"click": {"state": {"target": ["16", "17", "18", "20", "21", "22", "29"], "time": [3072, 5343, 7295, 9272, 11223, 13224, 15970]}, "edge": {"target": [], "time": []}}, "mouseover": {"state": {"target": ["15", "16", "13", "13", "14", "17", "15", "18", "18", "13", "21", "20", "21", "21", "22", "31", "31", "25", "29", "25", "24", "19", "21"], "time": [2516, 2893, 3343, 3560, 3660, 3910, 5596, 5646, 5897, 7513, 7881, 8198, 9531, 10666, 11550, 13669, 15454, 15504, 15803, 16204, 16238, 18423, 19073]}, "edge": {"target": [], "time": []}}, "mouseout": {"state": {"target": ["0", "0", "12", "0", "0", "15", "16", "13", "13", "14", "17", "15", "18", "18", "13", "21", "20", "21", "21", "22", "31", "31", "25", "29", "25", "24", "19", "21"], "time": [1008, 1442, 1608, 1908, 1992, 2576, 3276, 3376, 3627, 3677, 5562, 5629, 5678, 7481, 7550, 8064, 9465, 9615, 11467, 13435, 14002, 15471, 15570, 16170, 16220, 16254, 18857, 19223]}, "edge": {"target": [], "time": []}}}, "displayed_time": "22.36", "trialTime": 23710, "trial_type": "mouselab-mdp", "trial_index": 47, "time_elapsed": 1007044, "internal_node_id": "0.0-6.0-1.0-38.0"}}, {"uniqueid": "w75195348:a10313951", "current_trial": 48, "dateTime": 1693661286431, "trialdata": {"revealed_states": [], "clicked_states": ["6", "7", "5", "10", "11", "9"], "num_clicks_accrued": [0, 0, 0, 0, 0, 0, 0, 0, 0, 0, 0, 0, 0], "stateRewards": ["", -2, 2, 3, -7, -31, -33, 29, -8, -57, 50, -83, -1, -1, 5, 13, -23, -62, 25, 5, -66, -85, 14, 1, -2, -1, 16, 71, 33, -19, -14, 5, -43, 79], "withholdReward": false, "trial_id": "mdp_trial_40", "block": "test", "trialIndex": 41, "score": 36.6, "costs": -8.4, "simulationMode": [null, null, null, null, null], "rewards": [-2, 2, 3, -8, 50], "path": ["0", "0", "1", "2", "3", "8", "10"], "rt": [13049, 73, 34, 77, 86], "actions": ["up", "up", "up", "left", "down"], "actionTimes": [14444, 15019, 15547, 16122, 16699], "queries": {"click": {"state": {"target": ["6", "7", "5", "10", "11", "9"], "time": [2312, 4274, 6502, 8460, 10600, 12519]}, "edge": {"target": [], "time": []}}, "mouseover": {"state": {"target": ["1", "7", "4", "6", "4", "7", "4", "5", "11", "10", "11", "9", "8", "12"], "time": [1817, 1916, 1983, 2183, 2717, 2817, 4936, 5053, 7172, 7554, 8755, 10924, 12708, 13976]}, "edge": {"target": [], "time": []}}, "mouseout": {"state": {"target": ["0", "1", "7", "4", "6", "4", "7", "4", "5", "11", "10", "11", "9", "8", "10"], "time": [1165, 1849, 1933, 2017, 2406, 2733, 4551, 5004, 6688, 7210, 8623, 10807, 12692, 12758, 12792]}, "edge": {"target": [], "time": []}}}, "displayed_time": "17.20", "trialTime": 18426, "trial_type": "mouselab-mdp", "trial_index": 48, "time_elapsed": 1026006, "internal_node_id": "0.0-6.0-1.0-39.0"}}, {"uniqueid": "w75195348:a10313951", "current_trial": 49, "dateTime": 1693661311563, "trialdata": {"rt": 25128, "response": {"Q0": "$-2 to $2", "Q1": "$-16 to $16", "Q2": "$-88 to $88", "Q3": "The cost for clicking on nodes varied between nodes.", "Q4": "Slightly motivated"}, "question_order": [0, 1, 2, 3, 4], "trial_id": "final_quiz_control", "trial_type": "survey-multi-choice", "trial_index": 49, "time_elapsed": 1051139, "internal_node_id": "0.0-6.0-2.0"}}, {"uniqueid": "w75195348:a10313951", "current_trial": 50, "dateTime": 1693661358756, "trialdata": {"rt": 47185, "response": {"Q0": "Find the final nodes with the good cash. Ignore the near nodes as not much in it either way.", "Q1": "Yes, got better at finding the big wads", "Q2": "Easy to improve, look harder for cash"}, "trial_id": "self_report_control", "trial_type": "survey-text", "trial_index": 50, "time_elapsed": 1098332, "internal_node_id": "0.0-6.0-3.0"}}, {"uniqueid": "w75195348:a10313951", "current_trial": 51, "dateTime": 1693661377391, "trialdata": {"rt": 18631, "response": {"gender": "male", "age": "56", "colorblind": "0", "effort": "0"}, "trial_type": "survey-html-form", "trial_index": 51, "time_elapsed": 1116967, "internal_node_id": "0.0-6.0-4.0"}}, {"uniqueid": "w75195348:a10313951", "current_trial": 52, "dateTime": 1693661430713, "trialdata": {"rt": 53316, "response": {"Q0": "Didn't realise the payoff was so high initially, so started putting more effort into finding the money", "Q1": "no I have never done this before", "Q2": ""}, "trial_type": "survey-text", "trial_index": 52, "time_elapsed": 1170288, "internal_node_id": "0.0-6.0-5.0"}}, {"uniqueid": "w75195348:a10313951", "current_trial": 53, "dateTime": 1693661467640, "trialdata": {"rt": 36923, "stimulus": "<h1>Completion Code Instructions (1/2)</h1>\n<br><br><br><br>\nYou have reached the end of the experiment! The completion code consists of two parts: (1) a code with 2 characters (2) a code with 6 characters. On this page, you will receive the second part of the code. The first part of the completion code will be on the next page.\n<br><br>\nThe second part of your completion code is: <b>EWEK22</b>\n<br><br>\nPlease note this down. Then, press 'Next' in order to find the first part of your completion code. Once the data has been saved, you will receive this code either in this window or in the original browser window where you started the experiment.\n <br><br>\n<h2 style='color: red;'>Note: this is <strong>NOT</strong> the full completion code. Copy this down and click 'Next' to get the full completion code on the next page.</h2>", "response": 0, "trial_type": "html-button-response", "trial_index": 53, "time_elapsed": 1207216, "internal_node_id": "0.0-6.0-6.0"}}, {"uniqueid": "w75195348:a10313951", "current_trial": 54, "dateTime": 1693661468655, "trialdata": {"success": true, "trial_type": "fullscreen", "trial_index": 54, "time_elapsed": 1208231, "internal_node_id": "0.0-7.0"}}], "questiondata": {"params": {"CODE": "C6DMOQA6", "MIN_TIME": 14, "inspectCost": 1, "startTime": "Sat Sep 02 2023 14:10:59 GMT+0100 (British Summer Time)", "bonusRate": 0.002, "variance": "1_2_4_8_44", "branching": "31123"}, "final_score": 2144}, "eventdata": [{"eventtype": "initialized", "value": null, "timestamp": 1693660259345, "interval": 0}, {"eventtype": "window_resize", "value": [819, 614], "timestamp": 1693660259345, "interval": 0}, {"eventtype": "window_resize", "value": [819, 614], "timestamp": 1693660259665, "interval": 320}, {"eventtype": "focus", "value": "off", "timestamp": 1693660263458, "interval": 3793}, {"eventtype": "focus", "value": "on", "timestamp": 1693660268266, "interval": 4808}, {"eventtype": "window_resize", "value": [1536, 960], "timestamp": 1693660269688, "interval": 1422}, {"eventtype": "window_resize", "value": [819, 614], "timestamp": 1693661439235, "interval": 1169547}, {"eventtype": "focus", "value": "off", "timestamp": 1693661455658, "interval": 16423}, {"eventtype": "focus", "value": "on", "timestamp": 1693661464180, "interval": 8522}], "useragent": "Mozilla/5.0 (Windows NT 10.0; Win64; x64) AppleWebKit/537.36 (KHTML, like Gecko) Chrome/116.0.0.0 Safari/537.36", "mode": "live", "id": "w75195348:a10313951", "status": "user data saved", "Beginhit": "2023-09-02 13:11:00.709476", "Beginexp": "2023-09-02 13:11:12.914344", "Endhit": "2023-09-02 13:31:11.535615", "psiturkStatus": 3, "browser": "<redacted>", "platform": "windows", "language": "en"}