{"condition": 1, "counterbalance": 0, "assignmentId": "a64325979", "workerId": "w75430675", "hitId": "h79384216", "currenttrial": 56, "bonus": 0, "data": [{"uniqueid": "w75430675:a64325979", "current_trial": 0, "dateTime": 1693580173017, "trialdata": {"success": true, "trial_type": "fullscreen", "trial_index": 0, "time_elapsed": 3551, "internal_node_id": "0.0-0.0"}}, {"uniqueid": "w75430675:a64325979", "current_trial": 1, "dateTime": 1693580177879, "trialdata": {"view_history": [{"page_index": 0, "viewing_time": 4860}], "rt": 4860, "trial_id": "exp_instructions_misaligned", "trial_type": "instructions", "trial_index": 1, "time_elapsed": 8413, "internal_node_id": "0.0-1.0"}}, {"uniqueid": "w75430675:a64325979", "current_trial": 2, "dateTime": 1693580242806, "trialdata": {"view_history": [{"page_index": 0, "viewing_time": 17575}, {"page_index": 1, "viewing_time": 26592}, {"page_index": 2, "viewing_time": 5920}, {"page_index": 3, "viewing_time": 14840}], "rt": 64927, "trial_id": "mouselab_instructions_1_misaligned", "trial_type": "instructions", "trial_index": 2, "time_elapsed": 73340, "internal_node_id": "0.0-2.0-1.0"}}, {"uniqueid": "w75430675:a64325979", "current_trial": 3, "dateTime": 1693580266335, "trialdata": {"revealed_states": [], "clicked_states": ["14", "25", "3"], "num_clicks_accrued": [0, 0, 0, 0, 0, 0, 0, 0, 0, 0, 0, 0, 0], "stateRewards": ["", -10, -10, 10, 10, -10, -10, 10, 10, 10, -10, -10, 10, 10, 10, 10, 10, -10, -10, 10, 10, -10, -10, 10, 10, -10, -10, 10, -10, 10, 10, -10, 10, -10], "withholdReward": false, "trial_id": "practice_1", "block": "test", "trialIndex": 0, "score": -8, "costs": -1.5, "simulationMode": [null, null, null, null, null], "rewards": [-10, -10, 10, 10, -10], "path": ["0", "0", "1", "2", "3", "4", "6"], "rt": [15315, 406, 202, 533, 387], "actions": ["up", "up", "up", "right", "right"], "actionTimes": [17042, 17945, 18641, 19673, 20561], "queries": {"click": {"state": {"target": ["14", "25", "3"], "time": [4704, 6637, 8830]}, "edge": {"target": [], "time": []}}, "mouseover": {"state": {"target": ["12", "13", "12", "13", "14", "12", "0", "24", "25", "24", "3", "2", "2", "3", "2", "4", "15", "14", "19", "22", "0", "1", "2", "13"], "time": [3409, 3760, 4143, 4361, 4393, 5578, 5597, 5612, 5994, 7229, 7646, 7946, 8163, 8263, 9665, 12233, 12483, 12533, 13501, 13801, 13984, 14034, 14102, 15202]}, "edge": {"target": [], "time": []}}, "mouseout": {"state": {"target": ["12", "12", "13", "12", "13", "14", "12", "0", "24", "25", "25", "24", "3", "2", "2", "3", "2", "3", "4", "15", "14", "19", "22", "0", "1", "2", "13", "12"], "time": [874, 3577, 4110, 4360, 4376, 5561, 5595, 5611, 5644, 6714, 7212, 7246, 7930, 7996, 8213, 9598, 11100, 12200, 12250, 12500, 13467, 13751, 13834, 14001, 14068, 14168, 15652, 21557]}, "edge": {"target": [], "time": []}}}, "displayed_time": "21.06", "trialTime": 23265, "trial_type": "mouselab-mdp", "trial_index": 3, "time_elapsed": 96868, "internal_node_id": "0.0-2.0-2.0-0.0"}}, {"uniqueid": "w75430675:a64325979", "current_trial": 4, "dateTime": 1693580295070, "trialdata": {"revealed_states": [], "clicked_states": ["14", "25", "3", "5", "9", "17", "16", "20"], "num_clicks_accrued": [0, 0, 0, 0, 0, 0, 0, 0, 0, 0, 0, 0, 0], "stateRewards": ["", -10, -10, -10, 10, 10, -10, 10, -10, -10, -10, -10, 10, 10, 10, -10, -10, -10, -10, -10, 10, 10, 10, -10, 10, -10, -10, -10, -10, -10, -10, -10, 10, 10], "withholdReward": false, "trial_id": "practice_2", "block": "test", "trialIndex": 1, "score": 29.5, "costs": -4, "simulationMode": [null, null, null, null, null], "rewards": [10, 10, 10, -10, 10], "path": ["0", "0", "12", "13", "14", "19", "20"], "rt": [21810, 224, 219, 558, 203], "actions": ["right", "right", "right", "down", "right"], "actionTimes": [23224, 23944, 24655, 25712, 26408], "queries": {"click": {"state": {"target": ["14", "25", "3", "5", "9", "17", "16", "20"], "time": [2981, 5932, 8468, 10380, 12484, 15204, 17604, 19548]}, "edge": {"target": [], "time": []}}, "mouseover": {"state": {"target": ["12", "13", "14", "12", "0", "23", "24", "25", "4", "3", "5", "9", "9", "6", "17", "16", "20", "14", "13", "12"], "time": [2334, 2368, 2485, 4804, 4837, 4887, 4987, 5187, 8039, 8239, 9941, 11942, 12159, 14294, 14595, 17180, 19315, 22334, 22368, 22651]}, "edge": {"target": [], "time": []}}, "mouseout": {"state": {"target": ["12", "0", "12", "13", "14", "14", "12", "0", "23", "24", "25", "4", "3", "5", "9", "9", "9", "6", "17", "17", "16", "20", "14", "13", "12"], "time": [966, 2318, 2351, 2401, 3786, 4770, 4820, 4870, 4937, 5104, 7623, 8089, 9874, 11892, 11959, 12553, 14194, 14311, 16196, 16996, 18998, 22301, 22351, 22634, 27605]}, "edge": {"target": [], "time": []}}}, "displayed_time": "26.91", "trialTime": 28607, "trial_type": "mouselab-mdp", "trial_index": 4, "time_elapsed": 125604, "internal_node_id": "0.0-2.0-2.0-1.0"}}, {"uniqueid": "w75430675:a64325979", "current_trial": 5, "dateTime": 1693580310166, "trialdata": {"view_history": [{"page_index": 0, "viewing_time": 12182}, {"page_index": 1, "viewing_time": 2912}], "rt": 15094, "trial_id": "mouselab_instructions_2_misaligned", "trial_type": "instructions", "trial_index": 5, "time_elapsed": 140700, "internal_node_id": "0.0-2.0-3.0"}}, {"uniqueid": "w75430675:a64325979", "current_trial": 6, "dateTime": 1693580324718, "trialdata": {"rt": 14550, "response": {"Q0": "The cost for clicking on nodes may vary between nodes.", "Q1": "The better I perform the higher my bonus will be.", "Q2": "No, the amount of cash at each node of the web may be different each time.", "Q3": "To get the highest total score.", "Q4": "Only before moving the spider.", "Q5": "3 seconds"}, "question_order": [0, 1, 2, 3, 4, 5], "correct": {"Q0": "The cost for clicking on nodes may vary between nodes.", "Q1": "The better I perform the higher my bonus will be.", "Q2": "No, the amount of cash at each node of the web may be different each time.", "Q3": "To get the highest total score.", "Q4": "Only before moving the spider.", "Q5": "3 seconds"}, "trial_id": "mouselab_quiz_misaligned", "trial_type": "survey-multi-choice", "trial_index": 6, "time_elapsed": 155252, "internal_node_id": "0.0-2.0-4.0"}}, {"uniqueid": "w75430675:a64325979", "current_trial": 7, "dateTime": 1693580327910, "trialdata": {"rt": 3187, "response": {"Q0": "No"}, "question_order": [0], "trial_id": "repeat_check", "trial_type": "survey-multi-choice", "trial_index": 7, "time_elapsed": 158444, "internal_node_id": "0.0-4.0-0.0"}}, {"uniqueid": "w75430675:a64325979", "current_trial": 8, "dateTime": 1693580334189, "trialdata": {"rt": 6277, "stimulus": "\n<h1> Get ready to start the game! </h1>\n\nThank you for reading the instructions. Get ready start with the 40 rounds of this game.\n<br><br>\nIf you need to take a break, feel free to take one after the end of a round, before continuing to the next one.\n<br><br>\nRemember, the more money the spider gets, the bigger your bonus will be!\n<br><br>\n<div style='text-align: center;'>Press <code>space</code> to begin.</div>\n\n<br><br>\n(If, at any point, the <code>space</code> key does not take you to the next page, click once on the text and try again.)", "response": " ", "trial_id": "mdp_ready", "trial_type": "html-keyboard-response", "trial_index": 8, "time_elapsed": 164723, "internal_node_id": "0.0-6.0-0.0"}}, {"uniqueid": "w75430675:a64325979", "current_trial": 9, "dateTime": 1693580355014, "trialdata": {"revealed_states": [], "clicked_states": ["14", "16", "17", "18"], "num_clicks_accrued": [0, 0, 0, 0, 0, 0, 0, 0, 0, 0, 0, 0, 0], "stateRewards": ["", 2, -4, 1, -12, -59, -53, -74, 16, -88, -66, 66, 1, -2, 8, -9, -14, 22, 25, -1, -39, 47, -14, -1, -1, -2, 1, -4, 52, -26, 15, -7, 46, 43], "withholdReward": false, "trial_id": "mdp_trial_1", "block": "test", "trialIndex": 2, "score": 15.6, "costs": -7.4, "simulationMode": [null, null, null, null, null, null], "rewards": [1, -2, 8, -9, 25], "path": ["0", "0", "12", "13", "14", "15", "18"], "rt": [12163, 790, 188, 175, 580, 1048], "actions": ["right", "right", "right", "right", "up", "left"], "actionTimes": [13677, 14469, 15157, 15829, 16901, 18437], "queries": {"click": {"state": {"target": ["14", "16", "17", "18"], "time": [2706, 4106, 7858, 11058]}, "edge": {"target": [], "time": []}}, "mouseover": {"state": {"target": ["13", "14", "15", "16", "17", "20", "18", "14"], "time": [2091, 2374, 3576, 3792, 4443, 8713, 9081, 12016]}, "edge": {"target": [], "time": []}}, "mouseout": {"state": {"target": ["16", "18", "0", "13", "14", "15", "16", "17", "20", "18", "14", "22"], "time": [806, 856, 2058, 2108, 3309, 3710, 4393, 8430, 8796, 11766, 19605, 19656]}, "edge": {"target": [], "time": []}}}, "displayed_time": "18.94", "trialTime": 20669, "trial_type": "mouselab-mdp", "trial_index": 9, "time_elapsed": 185547, "internal_node_id": "0.0-6.0-1.0-0.0"}}, {"uniqueid": "w75430675:a64325979", "current_trial": 10, "dateTime": 1693580377437, "trialdata": {"revealed_states": [], "clicked_states": ["3", "14", "25", "1", "21"], "num_clicks_accrued": [0, 0, 0, 0, 0, 0, 0, 0, 0, 0, 0, 0, 0], "stateRewards": ["", 1, 2, -3, -6, 50, -7, 7, -7, -80, 21, -1, 2, 2, 4, -1, 33, 84, 1, 14, -53, 81, 6, -2, -2, -3, -9, -87, -38, -59, -5, -74, -3, -71], "withholdReward": false, "trial_id": "mdp_trial_2", "block": "test", "trialIndex": 3, "score": 98.25, "costs": -4.75, "simulationMode": [null, null, null, null, null], "rewards": [2, 2, 4, 14, 81], "path": ["0", "0", "12", "13", "14", "19", "21"], "rt": [14907, 183, 156, 425, 260], "actions": ["right", "right", "right", "down", "down"], "actionTimes": [16309, 16980, 17637, 18556, 19308], "queries": {"click": {"state": {"target": ["3", "14", "25", "1", "21"], "time": [2906, 5561, 7473, 9177, 11946]}, "edge": {"target": [], "time": []}}, "mouseover": {"state": {"target": ["1", "2", "1", "2", "3", "14", "19", "22", "24", "25", "24", "1", "1", "12", "13", "14", "15", "16", "15", "14", "19", "21", "20"], "time": [1833, 1933, 2300, 2450, 2701, 3885, 6120, 6237, 6520, 6654, 8440, 8489, 8773, 9606, 9723, 10007, 10574, 10807, 11224, 11391, 11441, 11758, 12476]}, "edge": {"target": [], "time": []}}, "mouseout": {"state": {"target": ["12", "0", "1", "2", "1", "2", "3", "14", "19", "22", "24", "25", "24", "1", "1", "1", "12", "13", "14", "15", "16", "15", "14", "19", "21", "20", "19"], "time": [866, 1800, 1883, 2267, 2434, 2484, 3802, 6070, 6203, 6254, 6571, 8439, 8455, 8506, 9238, 9506, 9690, 9790, 10507, 10725, 11174, 11357, 11408, 11608, 12275, 15544, 20215]}, "edge": {"target": [], "time": []}}}, "displayed_time": "19.80", "trialTime": 22284, "trial_type": "mouselab-mdp", "trial_index": 10, "time_elapsed": 207971, "internal_node_id": "0.0-6.0-1.0-1.0"}}, {"uniqueid": "w75430675:a64325979", "current_trial": 11, "dateTime": 1693580402989, "trialdata": {"revealed_states": [], "clicked_states": ["3", "25", "14", "32", "33", "31"], "num_clicks_accrued": [0, 0, 0, 0, 0, 0, 0, 0, 0, 0, 0, 0, 0], "stateRewards": ["", 2, 4, -3, 16, -58, 30, -35, 11, -60, 47, 27, -2, -1, -7, -16, 23, -70, 68, -10, -65, -43, -34, -2, 1, 7, 9, -63, 34, -31, -8, -12, -86, 59], "withholdReward": false, "trial_id": "mdp_trial_3", "block": "test", "trialIndex": 4, "score": 47.7, "costs": -9.3, "simulationMode": [null, null, null, null, null], "rewards": [-2, 1, 7, -8, 59], "path": ["0", "0", "23", "24", "25", "30", "33"], "rt": [19658, 151, 173, 265, 178], "actions": ["left", "left", "left", "down", "left"], "actionTimes": [21018, 21657, 22345, 23121, 23801], "queries": {"click": {"state": {"target": ["3", "25", "14", "32", "33", "31"], "time": [2765, 5502, 7222, 9014, 12783, 16390]}, "edge": {"target": [], "time": []}}, "mouseover": {"state": {"target": ["1", "2", "3", "2", "23", "0", "25", "22", "19", "14", "20", "32", "33", "30", "31", "30", "26", "27", "27"], "time": [1888, 2074, 2594, 3356, 3474, 3807, 5341, 6526, 6576, 6726, 7610, 8711, 12597, 13298, 13331, 17484, 20536, 20554, 20820]}, "edge": {"target": [], "time": []}}, "mouseout": {"state": {"target": ["22", "0", "1", "2", "3", "2", "23", "0", "25", "22", "19", "14", "20", "32", "32", "33", "30", "31", "30", "33", "26", "27", "27"], "time": [686, 1838, 1938, 2305, 3340, 3406, 3523, 5125, 5875, 6542, 6610, 7594, 7627, 9059, 9295, 13264, 13315, 16458, 17535, 20486, 20553, 20570, 21687]}, "edge": {"target": [], "time": []}}}, "displayed_time": "24.29", "trialTime": 25289, "trial_type": "mouselab-mdp", "trial_index": 11, "time_elapsed": 233522, "internal_node_id": "0.0-6.0-1.0-2.0"}}, {"uniqueid": "w75430675:a64325979", "current_trial": 12, "dateTime": 1693580423397, "trialdata": {"revealed_states": [], "clicked_states": ["3", "25", "14", "27", "28"], "num_clicks_accrued": [0, 0, 0, 0, 0, 0, 0, 0, 0, 0, 0, 0, 0], "stateRewards": ["", 1, 2, 7, 13, 88, -71, 27, 3, 60, 5, -53, -2, 2, -6, -1, -30, 79, 47, -4, -14, 46, 68, 1, 1, 8, 10, -14, 86, 48, -11, -67, -44, 5], "withholdReward": false, "trial_id": "mdp_trial_4", "block": "test", "trialIndex": 5, "score": 98.85, "costs": -7.15, "simulationMode": [null, null, null, null, null], "rewards": [1, 1, 8, 10, 86], "path": ["0", "0", "23", "24", "25", "26", "28"], "rt": [14713, 130, 152, 150, 116], "actions": ["left", "left", "left", "up", "right"], "actionTimes": [15927, 16559, 17199, 17847, 18463], "queries": {"click": {"state": {"target": ["3", "25", "14", "27", "28"], "time": [2676, 4411, 6099, 7924, 11484]}, "edge": {"target": [], "time": []}}, "mouseover": {"state": {"target": ["8", "3", "2", "3", "2", "31", "25", "21", "14", "19", "21", "30", "26", "27", "23", "28", "23", "24"], "time": [2016, 2283, 2367, 2500, 2900, 3601, 3818, 4868, 5069, 6355, 6372, 7271, 7337, 7404, 8738, 11174, 11908, 14543]}, "edge": {"target": [], "time": []}}, "mouseout": {"state": {"target": ["0", "8", "3", "2", "3", "2", "31", "25", "21", "14", "19", "21", "30", "26", "27", "23", "28", "23", "24"], "time": [1749, 2066, 2316, 2464, 2884, 2917, 3651, 4768, 4885, 6353, 6370, 6387, 7304, 7354, 8171, 8805, 11841, 14527, 14578]}, "edge": {"target": [], "time": []}}}, "displayed_time": "18.96", "trialTime": 20271, "trial_type": "mouselab-mdp", "trial_index": 12, "time_elapsed": 253930, "internal_node_id": "0.0-6.0-1.0-3.0"}}, {"uniqueid": "w75430675:a64325979", "current_trial": 13, "dateTime": 1693580440357, "trialdata": {"revealed_states": [], "clicked_states": ["3"], "num_clicks_accrued": [0, 0, 0, 0, 0, 0, 0, 0, 0, 0, 0, 0, 0], "stateRewards": ["", -1, 4, -3, 3, 57, -61, 5, -11, 23, -1, 34, -2, -4, -1, -13, 27, 38, -36, 4, -45, 21, 88, 1, -2, -1, 1, -69, -5, -78, -12, -9, 38, -54], "withholdReward": false, "trial_id": "mdp_trial_5", "block": "test", "trialIndex": 6, "score": 17.05, "costs": -0.95, "simulationMode": [null, null, null, null, null], "rewards": [-2, -4, -1, 4, 21], "path": ["0", "0", "12", "13", "14", "19", "21"], "rt": [7620, 83, 99, 298, 186], "actions": ["right", "right", "right", "down", "down"], "actionTimes": [8838, 9413, 10013, 10813, 11501], "queries": {"click": {"state": {"target": ["3"], "time": [2266]}, "edge": {"target": [], "time": []}}, "mouseover": {"state": {"target": ["1", "3", "12", "2", "2", "28", "25", "24", "23"], "time": [1806, 2090, 2807, 3291, 3841, 6060, 6310, 8262, 8295]}, "edge": {"target": [], "time": []}}, "mouseout": {"state": {"target": ["0", "1", "3", "12", "2", "3", "2", "28", "25", "24", "23"], "time": [755, 1823, 2640, 3241, 3374, 3791, 5893, 6176, 8245, 8278, 12132]}, "edge": {"target": [], "time": []}}}, "displayed_time": "15.22", "trialTime": 16821, "trial_type": "mouselab-mdp", "trial_index": 13, "time_elapsed": 270891, "internal_node_id": "0.0-6.0-1.0-4.0"}}, {"uniqueid": "w75430675:a64325979", "current_trial": 14, "dateTime": 1693580468443, "trialdata": {"revealed_states": [], "clicked_states": ["3", "25", "14", "27", "28", "29", "32", "31"], "num_clicks_accrued": [0, 0, 0, 0, 0, 0, 0, 0, 0, 0, 0, 0, 0], "stateRewards": ["", 2, 3, 3, 10, 19, -21, 6, 9, 54, 68, 16, 2, 2, -6, -8, 40, -2, -75, -2, -42, 55, 59, -1, 2, 4, -14, 11, -34, -30, -6, 61, -53, 13], "withholdReward": false, "trial_id": "mdp_trial_6", "block": "test", "trialIndex": 7, "score": 46.4, "costs": -13.600000000000001, "simulationMode": [null, null, null, null, null], "rewards": [-1, 2, 4, -6, 61], "path": ["0", "0", "23", "24", "25", "30", "31"], "rt": [22112, 9, 148, 105, 161], "actions": ["left", "left", "left", "down", "right"], "actionTimes": [23084, 23587, 24243, 24851, 25507], "queries": {"click": {"state": {"target": ["3", "25", "14", "27", "28", "29", "32", "31"], "time": [1713, 2857, 4097, 5624, 8937, 12136, 15679, 18871]}, "edge": {"target": [], "time": []}}, "mouseover": {"state": {"target": ["1", "2", "3", "3", "2", "1", "25", "14", "19", "24", "27", "28", "24", "28", "26", "29", "29", "30", "32", "31", "31", "30", "33"], "time": [1327, 1344, 1378, 1566, 2045, 2077, 2261, 3745, 4462, 4980, 5263, 5881, 5914, 6281, 9183, 9216, 9650, 15320, 15437, 16121, 16554, 19142, 19557]}, "edge": {"target": [], "time": []}}, "mouseout": {"state": {"target": ["0", "1", "2", "3", "3", "2", "1", "25", "14", "14", "19", "24", "27", "28", "24", "28", "26", "29", "29", "30", "32", "31", "31", "30", "33", "31"], "time": [693, 1343, 1376, 1426, 2027, 2060, 2094, 3445, 4158, 4446, 4513, 5013, 5831, 5897, 6197, 9166, 9199, 9400, 12453, 15387, 16021, 16204, 19140, 19157, 22276, 26663]}, "edge": {"target": [], "time": []}}}, "displayed_time": "26.00", "trialTime": 27947, "trial_type": "mouselab-mdp", "trial_index": 14, "time_elapsed": 298977, "internal_node_id": "0.0-6.0-1.0-5.0"}}, {"uniqueid": "w75430675:a64325979", "current_trial": 15, "dateTime": 1693580484788, "trialdata": {"revealed_states": [], "clicked_states": ["25", "14", "3", "21"], "num_clicks_accrued": [0, 0, 0, 0, 0, 0, 0, 0, 0, 0, 0, 0, 0], "stateRewards": ["", -1, 3, -5, -2, -13, -9, -34, -7, -81, 32, 35, -2, -2, 1, -14, -32, 81, 7, 4, 82, 56, -8, -1, 3, -8, 6, -24, -24, -53, 2, 38, 61, 54], "withholdReward": false, "trial_id": "mdp_trial_7", "block": "test", "trialIndex": 8, "score": 52, "costs": -5, "simulationMode": [null, null, null, null, null], "rewards": [-2, -2, 1, 4, 56], "path": ["0", "0", "12", "13", "14", "19", "21"], "rt": [9571, 106, 129, 142, 190], "actions": ["right", "right", "right", "down", "down"], "actionTimes": [10636, 11235, 11859, 12491, 13171], "queries": {"click": {"state": {"target": ["25", "14", "3", "21"], "time": [1879, 3015, 4543, 6239]}, "edge": {"target": [], "time": []}}, "mouseover": {"state": {"target": ["0", "23", "24", "25", "19", "20", "14", "20", "20", "15", "4", "3", "18", "13", "19", "22", "12", "22", "19", "21", "20"], "time": [1387, 1437, 1470, 1720, 2288, 2354, 2638, 3272, 3856, 3989, 4039, 4322, 4889, 4908, 5023, 5607, 5690, 5790, 5808, 5840, 6708]}, "edge": {"target": [], "time": []}}, "mouseout": {"state": {"target": ["5", "0", "23", "24", "25", "19", "20", "14", "20", "20", "15", "4", "3", "18", "13", "19", "22", "12", "22", "19", "21", "20", "21"], "time": [469, 1420, 1453, 1570, 2087, 2321, 2438, 3255, 3288, 3889, 4006, 4056, 4823, 4906, 4923, 5256, 5623, 5757, 5807, 5823, 6541, 14047, 14114]}, "edge": {"target": [], "time": []}}}, "displayed_time": "15.06", "trialTime": 16180, "trial_type": "mouselab-mdp", "trial_index": 15, "time_elapsed": 315321, "internal_node_id": "0.0-6.0-1.0-6.0"}}, {"uniqueid": "w75430675:a64325979", "current_trial": 16, "dateTime": 1693580505796, "trialdata": {"revealed_states": [], "clicked_states": ["3", "25", "14", "31", "33", "32"], "num_clicks_accrued": [0, 0, 0, 0, 0, 0, 0, 0, 0, 0, 0, 0, 0], "stateRewards": ["", 2, 1, -3, 7, 46, 11, -36, 16, 71, 5, 1, 2, -2, -8, -3, -4, 6, 55, 7, 68, -54, 2, 1, 1, 6, -6, 42, -4, -84, -11, -65, 63, 25], "withholdReward": false, "trial_id": "mdp_trial_8", "block": "test", "trialIndex": 9, "score": 50.7, "costs": -9.3, "simulationMode": [null, null, null, null, null], "rewards": [1, 1, 6, -11, 63], "path": ["0", "0", "23", "24", "25", "30", "32"], "rt": [15348, 105, 89, 81, 105], "actions": ["left", "left", "left", "down", "down"], "actionTimes": [17050, 17649, 18233, 18809, 19417], "queries": {"click": {"state": {"target": ["3", "25", "14", "31", "33", "32"], "time": [2678, 3525, 4488, 5926, 9558, 13110]}, "edge": {"target": [], "time": []}}, "mouseover": {"state": {"target": ["1", "2", "3", "2", "24", "25", "19", "14", "19", "21", "21", "31", "32", "30", "31", "32", "33", "32", "31", "23", "28", "27"], "time": [2230, 2314, 2464, 3115, 3181, 3315, 3982, 4115, 4699, 4732, 5116, 5266, 5467, 5650, 5700, 6501, 9319, 9853, 13423, 13790, 13823, 14123]}, "edge": {"target": [], "time": []}}, "mouseout": {"state": {"target": ["21", "13", "12", "0", "1", "2", "3", "2", "24", "25", "25", "19", "14", "19", "21", "21", "31", "32", "30", "31", "32", "33", "32", "31", "23", "28"], "time": [478, 562, 745, 979, 2297, 2397, 3081, 3131, 3215, 3587, 3799, 4082, 4682, 4717, 4749, 5133, 5383, 5583, 5683, 6100, 9269, 9820, 13373, 13456, 13806, 13840]}, "edge": {"target": [], "time": []}}}, "displayed_time": "19.91", "trialTime": 20834, "trial_type": "mouselab-mdp", "trial_index": 16, "time_elapsed": 336329, "internal_node_id": "0.0-6.0-1.0-7.0"}}, {"uniqueid": "w75430675:a64325979", "current_trial": 17, "dateTime": 1693580521891, "trialdata": {"revealed_states": [], "clicked_states": ["3", "9", "11"], "num_clicks_accrued": [0, 0, 0, 0, 0, 0, 0, 0, 0, 0, 0, 0, 0], "stateRewards": ["", 1, 1, 5, 6, -29, -7, 3, -16, 9, -46, 65, -1, 4, -1, -16, -63, -77, -87, 8, 80, -50, 43, -1, -1, -5, 5, -38, -71, -62, 9, 81, -50, -52], "withholdReward": false, "trial_id": "mdp_trial_9", "block": "test", "trialIndex": 10, "score": 50.75, "costs": -5.25, "simulationMode": [null, null, null, null, null], "rewards": [1, 1, 5, -16, 65], "path": ["0", "0", "1", "2", "3", "8", "11"], "rt": [9969, 56, 161, 198, 106], "actions": ["up", "up", "up", "left", "left"], "actionTimes": [10989, 11532, 12204, 12892, 13500], "queries": {"click": {"state": {"target": ["3", "9", "11"], "time": [1913, 3242, 6466]}, "edge": {"target": [], "time": []}}, "mouseover": {"state": {"target": ["1", "2", "3", "2", "1", "31", "5", "9", "8", "10", "11", "10", "10"], "time": [1484, 1519, 1601, 2119, 2153, 2368, 2502, 2885, 3502, 4703, 5237, 6722, 7188]}, "edge": {"target": [], "time": []}}, "mouseout": {"state": {"target": ["27", "8", "10", "1", "2", "3", "2", "1", "31", "5", "9", "8", "10", "11", "10", "10", "22"], "time": [270, 399, 533, 1518, 1551, 2102, 2151, 2168, 2435, 2518, 3486, 3519, 4753, 6672, 6789, 15495, 15562]}, "edge": {"target": [], "time": []}}}, "displayed_time": "15.02", "trialTime": 15932, "trial_type": "mouselab-mdp", "trial_index": 17, "time_elapsed": 352425, "internal_node_id": "0.0-6.0-1.0-8.0"}}, {"uniqueid": "w75430675:a64325979", "current_trial": 18, "dateTime": 1693580548451, "trialdata": {"revealed_states": [], "clicked_states": ["3", "25", "14", "16", "18", "17", "20"], "num_clicks_accrued": [0, 0, 0, 0, 0, 0, 0, 0, 0, 0, 0, 0, 0], "stateRewards": ["", 1, -3, -1, 9, -34, -40, 22, -7, 45, 53, -11, 2, 4, 5, 15, 21, 37, -49, -3, 80, -28, -34, 1, -3, 1, 1, -40, -6, -5, -16, -85, -86, 59], "withholdReward": false, "trial_id": "mdp_trial_10", "block": "test", "trialIndex": 11, "score": 76.55, "costs": -11.450000000000001, "simulationMode": [null, null, null, null, null], "rewards": [2, 4, 5, -3, 80], "path": ["0", "0", "12", "13", "14", "19", "20"], "rt": [19288, 225, 156, 345, 134], "actions": ["right", "right", "right", "down", "right"], "actionTimes": [20176, 20895, 21543, 22383, 23007], "queries": {"click": {"state": {"target": ["3", "25", "14", "16", "18", "17", "20"], "time": [2580, 3724, 4740, 6052, 9372, 12588, 16196]}, "edge": {"target": [], "time": []}}, "mouseover": {"state": {"target": ["1", "2", "14", "19", "14", "18", "2", "3", "1", "23", "24", "25", "22", "14", "19", "21", "19", "15", "16", "15", "18", "17", "20", "20", "21", "21", "21"], "time": [1154, 1220, 1420, 1554, 1721, 2004, 2037, 2271, 3122, 3171, 3255, 3405, 4039, 4406, 4990, 5357, 5424, 5690, 5807, 6375, 6691, 10194, 13113, 15999, 16533, 16933, 17284]}, "edge": {"target": [], "time": []}}, "mouseout": {"state": {"target": ["0", "1", "2", "14", "19", "14", "18", "2", "3", "1", "23", "24", "25", "22", "14", "19", "21", "19", "15", "16", "15", "18", "17", "20", "20", "21", "21", "21", "20"], "time": [1103, 1186, 1371, 1453, 1687, 1970, 2021, 2071, 3038, 3138, 3205, 3372, 3956, 4056, 4973, 5006, 5390, 5490, 5774, 6341, 6408, 9577, 12913, 13930, 16483, 16583, 16983, 19468, 23872]}, "edge": {"target": [], "time": []}}}, "displayed_time": "23.51", "trialTime": 26399, "trial_type": "mouselab-mdp", "trial_index": 18, "time_elapsed": 378985, "internal_node_id": "0.0-6.0-1.0-9.0"}}, {"uniqueid": "w75430675:a64325979", "current_trial": 19, "dateTime": 1693580568139, "trialdata": {"revealed_states": [], "clicked_states": ["3", "25", "14", "5", "6", "7"], "num_clicks_accrued": [0, 0, 0, 0, 0, 0, 0, 0, 0, 0, 0, 0, 0], "stateRewards": ["", -2, 2, 8, -6, -25, 3, 87, 2, -62, -2, 74, -2, -1, 2, -1, 79, 49, -37, -14, 5, 67, -9, -1, 2, -2, 5, 15, 38, 32, -14, -38, -38, 30], "withholdReward": false, "trial_id": "mdp_trial_11", "block": "test", "trialIndex": 12, "score": 79.7, "costs": -9.3, "simulationMode": [null, null, null, null, null], "rewards": [-2, 2, 8, -6, 87], "path": ["0", "0", "1", "2", "3", "4", "7"], "rt": [14254, 148, 137, 168, 100], "actions": ["up", "up", "up", "right", "down"], "actionTimes": [15298, 15945, 16585, 17249, 17849], "queries": {"click": {"state": {"target": ["3", "25", "14", "5", "6", "7"], "time": [2014, 2941, 3862, 5133, 8318, 11502]}, "edge": {"target": [], "time": []}}, "mouseover": {"state": {"target": ["3", "28", "25", "14", "20", "5", "6", "7", "18", "14", "3", "9"], "time": [1868, 2469, 2652, 3586, 4354, 4987, 5404, 8624, 11845, 11876, 12310, 12460]}, "edge": {"target": [], "time": []}}, "mouseout": {"state": {"target": ["20", "14", "18", "12", "0", "3", "28", "25", "25", "14", "20", "14", "5", "6", "7", "18", "14", "3", "9"], "time": [333, 366, 566, 667, 1467, 2402, 2485, 3007, 3171, 4270, 4386, 4503, 5371, 8557, 11793, 11860, 12076, 12327, 14879]}, "edge": {"target": [], "time": []}}}, "displayed_time": "18.35", "trialTime": 19529, "trial_type": "mouselab-mdp", "trial_index": 19, "time_elapsed": 398673, "internal_node_id": "0.0-6.0-1.0-10.0"}}, {"uniqueid": "w75430675:a64325979", "current_trial": 20, "dateTime": 1693580584530, "trialdata": {"revealed_states": [], "clicked_states": ["3", "11", "10"], "num_clicks_accrued": [0, 0, 0, 0, 0, 0, 0, 0, 0, 0, 0, 0, 0], "stateRewards": ["", 2, -1, 5, 6, 10, 86, 55, 10, -45, 63, -71, 1, -2, 5, -8, -50, -72, 36, 15, 61, 12, 33, -1, -4, 6, 5, 79, -56, -21, -16, -87, 60, -81], "withholdReward": false, "trial_id": "mdp_trial_12", "block": "test", "trialIndex": 13, "score": 73.75, "costs": -5.25, "simulationMode": [null, null, null, null, null], "rewards": [2, -1, 5, 10, 63], "path": ["0", "0", "1", "2", "3", "8", "10"], "rt": [9655, 69, 93, 397, 121], "actions": ["up", "up", "up", "left", "down"], "actionTimes": [10702, 11262, 11853, 12741, 13365], "queries": {"click": {"state": {"target": ["3", "11", "10"], "time": [1915, 3235, 6562]}, "edge": {"target": [], "time": []}}, "mouseover": {"state": {"target": ["3", "3", "2", "1", "11", "10", "10", "2", "3", "9"], "time": [1417, 1784, 2152, 2170, 3036, 3586, 4220, 7138, 7171, 7288]}, "edge": {"target": [], "time": []}}, "mouseout": {"state": {"target": ["0", "3", "3", "2", "1", "11", "10", "10", "2", "3", "9", "3", "2", "1"], "time": [449, 1451, 2136, 2169, 2186, 3520, 3636, 6821, 7155, 7188, 14227, 14261, 14278, 14294]}, "edge": {"target": [], "time": []}}}, "displayed_time": "15.05", "trialTime": 16237, "trial_type": "mouselab-mdp", "trial_index": 20, "time_elapsed": 415064, "internal_node_id": "0.0-6.0-1.0-11.0"}}, {"uniqueid": "w75430675:a64325979", "current_trial": 21, "dateTime": 1693580600546, "trialdata": {"revealed_states": [], "clicked_states": ["3", "25", "14", "27"], "num_clicks_accrued": [0, 0, 0, 0, 0, 0, 0, 0, 0, 0, 0, 0, 0], "stateRewards": ["", 2, -2, -8, 9, -20, 55, -58, 14, 42, 2, 36, 1, -3, -5, 5, -58, 57, 60, 16, 57, 30, -70, -2, 1, 3, 10, 59, 23, 77, -13, -26, 88, -72], "withholdReward": false, "trial_id": "mdp_trial_13", "block": "test", "trialIndex": 14, "score": 66, "costs": -5, "simulationMode": [null, null, null, null, null], "rewards": [-2, 1, 3, 10, 59], "path": ["0", "0", "23", "24", "25", "26", "27"], "rt": [7905, 37, 135, 197, 80], "actions": ["left", "left", "left", "up", "up"], "actionTimes": [8808, 9343, 9991, 10687, 11287], "queries": {"click": {"state": {"target": ["3", "25", "14", "27"], "time": [1620, 2756, 3580, 4716]}, "edge": {"target": [], "time": []}}, "mouseover": {"state": {"target": ["1", "2", "3", "2", "1", "24", "25", "24", "14", "19", "27", "24", "28"], "time": [1266, 1283, 1332, 2233, 2299, 2382, 2516, 3001, 3416, 3967, 4517, 5001, 5201]}, "edge": {"target": [], "time": []}}, "mouseout": {"state": {"target": ["0", "1", "2", "3", "2", "1", "24", "25", "25", "24", "14", "19", "25", "27", "24", "28", "23"], "time": [1232, 1281, 1315, 2216, 2266, 2333, 2432, 2824, 3000, 3016, 3800, 3984, 4084, 4935, 5152, 12124, 12141]}, "edge": {"target": [], "time": []}}}, "displayed_time": "14.90", "trialTime": 15871, "trial_type": "mouselab-mdp", "trial_index": 21, "time_elapsed": 431080, "internal_node_id": "0.0-6.0-1.0-12.0"}}, {"uniqueid": "w75430675:a64325979", "current_trial": 22, "dateTime": 1693580617202, "trialdata": {"revealed_states": [], "clicked_states": ["3", "25", "14", "29"], "num_clicks_accrued": [0, 0, 0, 0, 0, 0, 0, 0, 0, 0, 0, 0, 0], "stateRewards": ["", 1, 2, -6, -13, -51, 22, -4, -12, -44, -12, 6, -2, -2, -2, -14, -46, -4, -77, -2, 36, -79, 41, 2, -4, 2, -6, -55, 59, 70, -5, 39, -19, 24], "withholdReward": false, "trial_id": "mdp_trial_14", "block": "test", "trialIndex": 15, "score": 59, "costs": -5, "simulationMode": [null, null, null, null, null], "rewards": [2, -4, 2, -6, 70], "path": ["0", "0", "23", "24", "25", "26", "29"], "rt": [8029, 81, 97, 136, 29], "actions": ["left", "left", "left", "up", "left"], "actionTimes": [8979, 9554, 10154, 10810, 11338], "queries": {"click": {"state": {"target": ["3", "25", "14", "29"], "time": [1719, 2871, 3734, 4919]}, "edge": {"target": [], "time": []}}, "mouseover": {"state": {"target": ["1", "2", "3", "2", "1", "0", "24", "25", "24", "14", "19", "31", "26", "29", "26", "23", "0", "23", "26"], "time": [1316, 1399, 1516, 1983, 2016, 2083, 2500, 2700, 3068, 3451, 3985, 4268, 4485, 4685, 5153, 5187, 5219, 6354, 8255]}, "edge": {"target": [], "time": []}}, "mouseout": {"state": {"target": ["0", "1", "2", "3", "3", "2", "1", "0", "24", "25", "24", "14", "19", "31", "25", "26", "29", "26", "23", "0", "23", "26", "23"], "time": [1283, 1366, 1499, 1803, 1950, 2000, 2033, 2117, 2650, 3067, 3084, 3968, 4001, 4285, 4352, 4652, 5136, 5170, 5203, 5436, 6404, 8660, 12243]}, "edge": {"target": [], "time": []}}}, "displayed_time": "14.95", "trialTime": 16498, "trial_type": "mouselab-mdp", "trial_index": 22, "time_elapsed": 447736, "internal_node_id": "0.0-6.0-1.0-13.0"}}, {"uniqueid": "w75430675:a64325979", "current_trial": 23, "dateTime": 1693580659594, "trialdata": {"revealed_states": [], "clicked_states": ["3", "14", "16", "17", "18", "15", "20", "22", "21", "19", "25", "33", "31"], "num_clicks_accrued": [0, 0, 0, 0, 0, 0, 0, 0, 0, 0, 0, 0, 0], "stateRewards": ["", -2, -2, -3, -6, -15, -11, 41, -12, -63, -76, 2, -2, -3, 8, 9, -36, -2, -18, -16, -32, -85, -17, -2, 1, 5, -16, 82, 35, -88, -1, 80, -82, -20], "withholdReward": false, "trial_id": "mdp_trial_15", "block": "test", "trialIndex": 16, "score": 59.85, "costs": -23.15, "simulationMode": [null, null, null, null, null], "rewards": [-2, 1, 5, -1, 80], "path": ["0", "0", "23", "24", "25", "30", "31"], "rt": [35653, 61, 118, 94, 117], "actions": ["left", "left", "left", "down", "right"], "actionTimes": [36701, 37260, 37868, 38460, 39068], "queries": {"click": {"state": {"target": ["3", "14", "16", "17", "18", "15", "20", "22", "21", "19", "25", "33", "31"], "time": [2009, 3177, 4433, 7882, 11129, 14873, 16009, 19681, 22888, 26145, 28072, 29280, 32618]}, "edge": {"target": [], "time": []}}, "mouseover": {"state": {"target": ["3", "7", "12", "14", "22", "12", "17", "15", "16", "15", "17", "18", "14", "20", "15", "20", "19", "22", "21", "21", "19", "19", "22", "12", "0", "23", "24", "25", "24", "31", "30", "33", "30", "31", "32", "32"], "time": [1785, 2352, 2736, 2986, 3453, 3703, 3953, 4087, 4254, 4687, 7640, 8590, 11376, 11526, 14612, 15813, 17114, 19466, 19971, 20901, 23236, 23619, 26991, 27423, 27473, 27490, 27539, 27857, 28324, 28774, 28859, 28941, 29558, 30325, 32861, 32994]}, "edge": {"target": [], "time": []}}, "mouseout": {"state": {"target": ["18", "6", "3", "2", "23", "0", "3", "7", "12", "14", "22", "12", "17", "15", "16", "15", "17", "18", "18", "14", "20", "15", "20", "19", "22", "21", "21", "19", "19", "22", "12", "0", "23", "24", "25", "24", "31", "30", "33", "30", "31", "32", "32"], "time": [166, 283, 417, 433, 517, 717, 2319, 2385, 2752, 3419, 3486, 3720, 4053, 4187, 4654, 4704, 8173, 11181, 11343, 11443, 14397, 15397, 16797, 19416, 19950, 20000, 23202, 23252, 26622, 27006, 27456, 27489, 27522, 27842, 28307, 28341, 28824, 28908, 29541, 29591, 32794, 32877, 39966]}, "edge": {"target": [], "time": []}}}, "displayed_time": "39.57", "trialTime": 42228, "trial_type": "mouselab-mdp", "trial_index": 23, "time_elapsed": 490127, "internal_node_id": "0.0-6.0-1.0-14.0"}}, {"uniqueid": "w75430675:a64325979", "current_trial": 24, "dateTime": 1693580676018, "trialdata": {"revealed_states": [], "clicked_states": ["3", "25", "14", "16"], "num_clicks_accrued": [0, 0, 0, 0, 0, 0, 0, 0, 0, 0, 0, 0, 0], "stateRewards": ["", -1, -2, -8, 8, -27, -82, 19, -14, -62, 4, 1, -2, 2, 6, 10, 73, -51, -2, 2, 73, -48, 54, -1, 2, -4, 11, -25, 47, 86, 15, 33, 43, -42], "withholdReward": false, "trial_id": "mdp_trial_16", "block": "test", "trialIndex": 17, "score": 84, "costs": -5, "simulationMode": [null, null, null, null, null], "rewards": [-2, 2, 6, 10, 73], "path": ["0", "0", "12", "13", "14", "15", "16"], "rt": [8695, 16, 51, 37, 23], "actions": ["right", "right", "right", "up", "up"], "actionTimes": [10092, 10619, 11171, 11707, 12243], "queries": {"click": {"state": {"target": ["3", "25", "14", "16"], "time": [2391, 4232, 5288, 6296]}, "edge": {"target": [], "time": []}}, "mouseover": {"state": {"target": ["1", "2", "3", "2", "1", "23", "24", "25", "24", "0", "12", "13", "14", "19", "15", "16", "16", "15", "18"], "time": [1845, 1862, 2195, 2862, 2912, 2962, 3028, 3196, 4713, 4747, 4765, 4782, 4798, 5664, 5899, 5916, 6131, 6682, 7416]}, "edge": {"target": [], "time": []}}, "mouseout": {"state": {"target": ["0", "1", "2", "3", "2", "1", "23", "24", "25", "24", "0", "12", "13", "14", "19", "14", "15", "16", "16", "15", "14", "18", "13"], "time": [976, 1861, 1877, 2846, 2895, 2928, 2995, 3129, 4284, 4730, 4764, 4780, 4796, 5631, 5881, 5898, 5914, 5931, 6632, 6748, 7282, 12653, 12687]}, "edge": {"target": [], "time": []}}}, "displayed_time": "15.40", "trialTime": 16243, "trial_type": "mouselab-mdp", "trial_index": 24, "time_elapsed": 506552, "internal_node_id": "0.0-6.0-1.0-15.0"}}, {"uniqueid": "w75430675:a64325979", "current_trial": 25, "dateTime": 1693580692090, "trialdata": {"revealed_states": [], "clicked_states": ["3", "5"], "num_clicks_accrued": [0, 0, 0, 0, 0, 0, 0, 0, 0, 0, 0, 0, 0], "stateRewards": ["", 1, -1, 8, 4, 76, -33, -17, -3, -1, -54, -74, -2, 2, -5, 13, -51, 63, 83, 1, 84, 29, -36, 2, -1, 7, -12, -10, -44, -43, -14, 8, -69, 19], "withholdReward": false, "trial_id": "mdp_trial_17", "block": "test", "trialIndex": 18, "score": 84.9, "costs": -3.0999999999999996, "simulationMode": [null, null, null, null, null], "rewards": [1, -1, 8, 4, 76], "path": ["0", "0", "1", "2", "3", "4", "5"], "rt": [6494, 70, 135, 101, 101], "actions": ["up", "up", "up", "right", "up"], "actionTimes": [7685, 8244, 8876, 9476, 10076], "queries": {"click": {"state": {"target": ["3", "5"], "time": [2009, 4025]}, "edge": {"target": [], "time": []}}, "mouseover": {"state": {"target": ["3", "4", "6", "14", "14", "7", "5", "6"], "time": [1868, 2535, 2553, 2785, 3118, 3552, 3819, 4320]}, "edge": {"target": [], "time": []}}, "mouseout": {"state": {"target": ["0", "3", "4", "6", "14", "14", "7", "5", "5", "6", "18", "13", "22"], "time": [1551, 2518, 2551, 2568, 2818, 3485, 3602, 4093, 4286, 10892, 10958, 10992, 11026]}, "edge": {"target": [], "time": []}}}, "displayed_time": "15.19", "trialTime": 15908, "trial_type": "mouselab-mdp", "trial_index": 25, "time_elapsed": 522624, "internal_node_id": "0.0-6.0-1.0-16.0"}}, {"uniqueid": "w75430675:a64325979", "current_trial": 26, "dateTime": 1693580711794, "trialdata": {"revealed_states": [], "clicked_states": ["3", "25", "33", "31"], "num_clicks_accrued": [0, 0, 0, 0, 0, 0, 0, 0, 0, 0, 0, 0, 0], "stateRewards": ["", 1, -1, 1, -14, -10, 67, -28, -11, 72, 40, -65, -1, 1, 1, -2, 8, -55, 34, -10, 61, 33, -15, 2, -4, 7, 4, -75, 63, -21, -16, 61, 19, 21], "withholdReward": false, "trial_id": "mdp_trial_18", "block": "test", "trialIndex": 19, "score": 43.8, "costs": -6.199999999999999, "simulationMode": [null, null, null, null, null], "rewards": [2, -4, 7, -16, 61], "path": ["0", "0", "23", "24", "25", "30", "31"], "rt": [10766, 49, 83, 67, 132], "actions": ["left", "left", "left", "down", "right"], "actionTimes": [11709, 12260, 12844, 13412, 14044], "queries": {"click": {"state": {"target": ["3", "25", "33", "31"], "time": [1473, 2785, 3937, 8105]}, "edge": {"target": [], "time": []}}, "mouseover": {"state": {"target": ["1", "2", "3", "7", "31", "30", "25", "31", "19", "33", "32", "31"], "time": [1017, 1084, 1334, 2035, 2318, 2351, 2602, 2986, 3186, 3770, 4170, 5004]}, "edge": {"target": [], "time": []}}, "mouseout": {"state": {"target": ["10", "1", "1", "2", "3", "7", "31", "30", "25", "25", "31", "19", "33", "32", "31"], "time": [434, 567, 1050, 1217, 1934, 2201, 2335, 2435, 2856, 2969, 3003, 3253, 4153, 4187, 8440]}, "edge": {"target": [], "time": []}}}, "displayed_time": "14.95", "trialTime": 19532, "trial_type": "mouselab-mdp", "trial_index": 26, "time_elapsed": 542327, "internal_node_id": "0.0-6.0-1.0-17.0"}}, {"uniqueid": "w75430675:a64325979", "current_trial": 27, "dateTime": 1693580739993, "trialdata": {"revealed_states": [], "clicked_states": ["3", "25", "14", "16", "17", "18", "20", "21"], "num_clicks_accrued": [0, 0, 0, 0, 0, 0, 0, 0, 0, 0, 0, 0, 0], "stateRewards": ["", -1, -4, -1, -11, 43, 69, 39, 4, 17, -20, -82, -2, -1, 4, 8, -79, 24, -79, 11, 36, 64, 41, 2, 4, -1, 11, -79, -47, 75, -3, 63, -36, -19], "withholdReward": false, "trial_id": "mdp_trial_19", "block": "test", "trialIndex": 20, "score": 62.4, "costs": -13.600000000000001, "simulationMode": [null, null, null, null, null], "rewards": [-2, -1, 4, 11, 64], "path": ["0", "0", "12", "13", "14", "19", "21"], "rt": [21317, 616, 107, 235, 181], "actions": ["right", "right", "right", "down", "down"], "actionTimes": [23011, 24122, 24730, 25458, 26138], "queries": {"click": {"state": {"target": ["3", "25", "14", "16", "17", "18", "20", "21"], "time": [2511, 3607, 4438, 5839, 9143, 12647, 16279, 19791]}, "edge": {"target": [], "time": []}}, "mouseover": {"state": {"target": ["1", "2", "3", "3", "10", "28", "26", "25", "0", "14", "15", "16", "17", "15", "18", "18", "14", "19", "19", "14", "15", "14", "19", "20", "21", "22"], "time": [2053, 2088, 2120, 2320, 3087, 3154, 3271, 3371, 3988, 4038, 5122, 5306, 7007, 9511, 9528, 9743, 13129, 13179, 13596, 13729, 15781, 15848, 15883, 16098, 16683, 20051]}, "edge": {"target": [], "time": []}}, "mouseout": {"state": {"target": ["1", "2", "3", "3", "10", "28", "26", "25", "0", "14", "15", "16", "17", "15", "18", "18", "14", "19", "19", "14", "15", "14", "19", "20", "21", "22"], "time": [2087, 2103, 2137, 3055, 3104, 3204, 3338, 3972, 4005, 5056, 5272, 6307, 9510, 9526, 9560, 13079, 13146, 13212, 13713, 13746, 15798, 15881, 15915, 16615, 20001, 26991]}, "edge": {"target": [], "time": []}}}, "displayed_time": "26.64", "trialTime": 28034, "trial_type": "mouselab-mdp", "trial_index": 27, "time_elapsed": 570527, "internal_node_id": "0.0-6.0-1.0-18.0"}}, {"uniqueid": "w75430675:a64325979", "current_trial": 28, "dateTime": 1693581054517, "trialdata": {"revealed_states": [], "clicked_states": ["3", "14", "25", "32", "31"], "num_clicks_accrued": [0, 0, 0, 0, 0, 0, 0, 0, 0, 0, 0, 0, 0], "stateRewards": ["", 1, -3, -4, -11, -56, 61, -47, -16, -28, -9, 69, -2, -3, -4, -8, 40, -86, 59, -4, 80, 27, 54, -1, 3, -1, 8, 67, 23, 50, 6, 83, -43, -29], "withholdReward": false, "trial_id": "mdp_trial_20", "block": "test", "trialIndex": 21, "score": 82.85, "costs": -7.15, "simulationMode": [null, null, null, null, null], "rewards": [-1, 3, -1, 6, 83], "path": ["0", "0", "23", "24", "25", "30", "31"], "rt": [11445, 68, 69, 76, 134], "actions": ["left", "left", "left", "down", "right"], "actionTimes": [12767, 13334, 13902, 14478, 15102], "queries": {"click": {"state": {"target": ["3", "14", "25", "32", "31"], "time": [2267, 3230, 4115, 5395, 8699]}, "edge": {"target": [], "time": []}}, "mouseover": {"state": {"target": ["1", "2", "3", "3", "15", "14", "23", "25", "30", "32", "31", "30", "33", "33", "30", "33", "30"], "time": [1789, 1822, 1855, 2048, 2990, 3023, 3607, 3858, 4792, 5075, 5976, 8945, 8978, 9362, 9912, 10763, 12064]}, "edge": {"target": [], "time": []}}, "mouseout": {"state": {"target": ["0", "1", "2", "3", "3", "15", "14", "23", "25", "30", "32", "31", "30", "33", "33", "31", "30", "33", "30"], "time": [1772, 1806, 1839, 1972, 2790, 3012, 3441, 3624, 4291, 5042, 5792, 8928, 8962, 9328, 9395, 9896, 9962, 12048, 12080]}, "edge": {"target": [], "time": []}}}, "displayed_time": "15.60", "trialTime": 314355, "trial_type": "mouselab-mdp", "trial_index": 28, "time_elapsed": 885051, "internal_node_id": "0.0-6.0-1.0-19.0"}}, {"uniqueid": "w75430675:a64325979", "current_trial": 29, "dateTime": 1693581071486, "trialdata": {"revealed_states": [], "clicked_states": ["14", "25", "27"], "num_clicks_accrued": [0, 0, 0, 0, 0, 0, 0, 0, 0, 0, 0, 0, 0], "stateRewards": ["", 1, -4, -4, 8, 1, -79, 68, -10, -79, 8, -74, -1, -3, -6, 14, 43, 23, 9, 5, -51, 63, 61, -2, 4, 6, -10, 69, -32, 57, 15, -80, -80, -77], "withholdReward": false, "trial_id": "mdp_trial_21", "block": "test", "trialIndex": 22, "score": 62.95, "costs": -4.05, "simulationMode": [null, null, null, null, null], "rewards": [-2, 4, 6, -10, 69], "path": ["0", "0", "23", "24", "25", "26", "27"], "rt": [7625, 123, 114, 122, 64], "actions": ["left", "left", "left", "up", "up"], "actionTimes": [9807, 10423, 11030, 11655, 12215], "queries": {"click": {"state": {"target": ["14", "25", "27"], "time": [3300, 4215, 5707]}, "edge": {"target": [], "time": []}}, "mouseover": {"state": {"target": ["14", "14", "25", "24", "3", "10", "26", "26", "27", "28"], "time": [2726, 3008, 4026, 4545, 4643, 5060, 5227, 5448, 5544, 6144]}, "edge": {"target": [], "time": []}}, "mouseout": {"state": {"target": ["23", "18", "18", "0", "14", "14", "25", "24", "3", "10", "26", "26", "27", "28"], "time": [1273, 1340, 1474, 2675, 2742, 3626, 4543, 4560, 5044, 5077, 5344, 5477, 6111, 6161]}, "edge": {"target": [], "time": []}}}, "displayed_time": "16.18", "trialTime": 16766, "trial_type": "mouselab-mdp", "trial_index": 29, "time_elapsed": 902019, "internal_node_id": "0.0-6.0-1.0-20.0"}}, {"uniqueid": "w75430675:a64325979", "current_trial": 30, "dateTime": 1693581087942, "trialdata": {"revealed_states": [], "clicked_states": ["3", "14", "25", "29"], "num_clicks_accrued": [0, 0, 0, 0, 0, 0, 0, 0, 0, 0, 0, 0, 0], "stateRewards": ["", -1, 3, -7, 16, -32, -74, -48, 2, 10, 15, -30, 1, 1, -2, 10, 12, -83, 67, 13, -66, 47, 65, -2, 4, 2, -14, -8, -57, 24, 9, 65, 12, 46], "withholdReward": false, "trial_id": "mdp_trial_22", "block": "test", "trialIndex": 23, "score": 9, "costs": -5, "simulationMode": [null, null, null, null, null], "rewards": [-2, 4, 2, -14, 24], "path": ["0", "0", "23", "24", "25", "26", "29"], "rt": [7936, 62, 87, 104, 55], "actions": ["left", "left", "left", "up", "left"], "actionTimes": [9070, 9630, 10206, 10806, 11358], "queries": {"click": {"state": {"target": ["3", "14", "25", "29"], "time": [1906, 2690, 3467, 4587]}, "edge": {"target": [], "time": []}}, "mouseover": {"state": {"target": ["1", "2", "3", "14", "13", "25", "31", "31", "26", "29", "31"], "time": [1460, 1527, 1777, 2428, 2895, 3245, 3762, 3979, 4046, 4396, 8349]}, "edge": {"target": [], "time": []}}, "mouseout": {"state": {"target": ["21", "23", "1", "2", "3", "14", "13", "25", "31", "31", "26", "29", "31", "21"], "time": [408, 675, 1510, 1560, 1961, 2878, 2911, 3729, 3779, 3995, 4129, 8287, 12202, 12385]}, "edge": {"target": [], "time": []}}}, "displayed_time": "15.14", "trialTime": 16278, "trial_type": "mouselab-mdp", "trial_index": 30, "time_elapsed": 918475, "internal_node_id": "0.0-6.0-1.0-21.0"}}, {"uniqueid": "w75430675:a64325979", "current_trial": 31, "dateTime": 1693581104389, "trialdata": {"revealed_states": [], "clicked_states": ["3", "5", "6"], "num_clicks_accrued": [0, 0, 0, 0, 0, 0, 0, 0, 0, 0, 0, 0, 0], "stateRewards": ["", 2, -1, 8, -2, -16, 69, -39, -7, -13, -27, -86, 2, -2, 2, 13, -34, -16, -20, -5, 19, 81, 32, -2, -1, 2, -14, 20, 80, 58, 4, 70, 12, 73], "withholdReward": false, "trial_id": "mdp_trial_23", "block": "test", "trialIndex": 24, "score": 70.75, "costs": -5.25, "simulationMode": [null, null, null, null, null], "rewards": [2, -1, 8, -2, 69], "path": ["0", "0", "1", "2", "3", "4", "6"], "rt": [9179, 77, 77, 102, 77], "actions": ["up", "up", "up", "right", "right"], "actionTimes": [10273, 10849, 11417, 12009, 12600], "queries": {"click": {"state": {"target": ["3", "5", "6"], "time": [1861, 2737, 6221]}, "edge": {"target": [], "time": []}}, "mouseover": {"state": {"target": ["1", "2", "3", "7", "5", "4", "6", "7"], "time": [1396, 1430, 1697, 2231, 2464, 3198, 6017, 8786]}, "edge": {"target": [], "time": []}}, "mouseout": {"state": {"target": ["23", "0", "1", "2", "3", "7", "5", "5", "4", "6", "7", "13", "22"], "time": [595, 1363, 1413, 1463, 2203, 2264, 2826, 3165, 3215, 6667, 15458, 15542, 15591]}, "edge": {"target": [], "time": []}}}, "displayed_time": "15.10", "trialTime": 16248, "trial_type": "mouselab-mdp", "trial_index": 31, "time_elapsed": 934923, "internal_node_id": "0.0-6.0-1.0-22.0"}}, {"uniqueid": "w75430675:a64325979", "current_trial": 32, "dateTime": 1693581123413, "trialdata": {"revealed_states": [], "clicked_states": ["9", "7", "8", "3", "1"], "num_clicks_accrued": [0, 0, 0, 0, 0, 0, 0, 0, 0, 0, 0, 0, 0], "stateRewards": ["", 1, 2, 2, -15, -84, 28, -26, 13, 31, 86, 30, -2, 1, -1, -8, 66, -40, -1, -10, -32, 57, -17, 1, 2, -2, 9, -23, 77, 85, 12, -32, -62, -35], "withholdReward": false, "trial_id": "mdp_trial_24", "block": "test", "trialIndex": 25, "score": 42.45, "costs": -6.55, "simulationMode": [null, null, null, null, null], "rewards": [1, 2, 2, 13, 31], "path": ["0", "0", "1", "2", "3", "8", "9"], "rt": [13464, 333, 59, 172, 57], "actions": ["up", "up", "up", "left", "up"], "actionTimes": [14636, 15467, 16027, 16691, 17243], "queries": {"click": {"state": {"target": ["9", "7", "8", "3", "1"], "time": [1913, 5401, 9352, 11183, 13232]}, "edge": {"target": [], "time": []}}, "mouseover": {"state": {"target": ["1", "2", "9", "8", "1", "10", "8", "7", "18", "17", "8", "8", "2", "2", "3", "2", "1", "1", "12", "22", "12"], "time": [1489, 1522, 1707, 2224, 2790, 2890, 3474, 4191, 5626, 6043, 8911, 9245, 9612, 10730, 10913, 11463, 12481, 12764, 13482, 13532, 13866]}, "edge": {"target": [], "time": []}}, "mouseout": {"state": {"target": ["0", "1", "2", "9", "8", "1", "10", "8", "7", "7", "18", "17", "8", "8", "8", "2", "2", "3", "2", "1", "1", "12", "22", "12"], "time": [1472, 1506, 1539, 2223, 2240, 2807, 2940, 3674, 5485, 5609, 5643, 8844, 8928, 9415, 9595, 9628, 10796, 11447, 11480, 12548, 13449, 13499, 13832, 13899]}, "edge": {"target": [], "time": []}}}, "displayed_time": "17.74", "trialTime": 18851, "trial_type": "mouselab-mdp", "trial_index": 32, "time_elapsed": 953947, "internal_node_id": "0.0-6.0-1.0-23.0"}}, {"uniqueid": "w75430675:a64325979", "current_trial": 33, "dateTime": 1693581165717, "trialdata": {"revealed_states": [], "clicked_states": ["17", "20", "33", "29", "5", "7", "6", "1", "12", "23", "4"], "num_clicks_accrued": [0, 0, 0, 0, 0, 0, 0, 0, 0, 0, 0, 0, 0], "stateRewards": ["", -2, -2, -7, -13, -10, 49, -68, -1, 84, 70, 88, 1, 4, 4, 12, -57, 25, 30, 8, -1, -77, 57, 2, 3, 2, 3, -18, -80, 23, -15, -41, 70, 11], "withholdReward": false, "trial_id": "mdp_trial_25", "block": "test", "trialIndex": 26, "score": -107.85, "costs": -15.850000000000001, "simulationMode": [null, null, null, null, null], "rewards": [-2, -2, -7, -13, -68], "path": ["0", "0", "1", "2", "3", "4", "7"], "rt": [35969, 111, 159, 124, 379], "actions": ["up", "up", "up", "right", "down"], "actionTimes": [36933, 37532, 38180, 38796, 39668], "queries": {"click": {"state": {"target": ["17", "20", "33", "29", "5", "7", "6", "1", "12", "23", "4"], "time": [1529, 5968, 9793, 13721, 17953, 21410, 25033, 29881, 31936, 32961, 34841]}, "edge": {"target": [], "time": []}}, "mouseover": {"state": {"target": ["12", "13", "14", "17", "15", "20", "19", "33", "24", "26", "29", "26", "10", "3", "4", "3", "4", "4", "5", "4", "7", "6", "4", "2", "1", "12", "13", "12", "23", "0", "1", "2", "4", "7"], "time": [1073, 1092, 1108, 1323, 5310, 5727, 9213, 9530, 13149, 13349, 13600, 17037, 17069, 17087, 17120, 17303, 17454, 17637, 17737, 18387, 21206, 24794, 28579, 29413, 29680, 30314, 31014, 31598, 32599, 33683, 33750, 33833, 34451, 35501]}, "edge": {"target": [], "time": []}}, "mouseout": {"state": {"target": ["0", "12", "13", "14", "17", "15", "20", "19", "33", "24", "26", "29", "26", "10", "3", "4", "3", "4", "4", "5", "4", "7", "6", "4", "2", "1", "12", "13", "12", "23", "0", "1", "2", "4", "7", "12"], "time": [1056, 1090, 1106, 1123, 1990, 5660, 9196, 9229, 10097, 13183, 13417, 17036, 17053, 17086, 17103, 17186, 17420, 17487, 17688, 18370, 18421, 21757, 28562, 29363, 29429, 30214, 30481, 31532, 32349, 33250, 33717, 33783, 34402, 35435, 36169, 40739]}, "edge": {"target": [], "time": []}}}, "displayed_time": "40.16", "trialTime": 42124, "trial_type": "mouselab-mdp", "trial_index": 33, "time_elapsed": 996251, "internal_node_id": "0.0-6.0-1.0-24.0"}}, {"uniqueid": "w75430675:a64325979", "current_trial": 34, "dateTime": 1693581182133, "trialdata": {"revealed_states": [], "clicked_states": ["3", "5", "6"], "num_clicks_accrued": [0, 0, 0, 0, 0, 0, 0, 0, 0, 0, 0, 0, 0], "stateRewards": ["", 1, 1, 6, -14, -40, 37, 16, -13, 33, -68, 49, 2, 4, 3, 6, 55, 27, 32, 10, -65, 20, -87, 2, 1, -6, -5, -42, 12, 29, -8, 16, 76, -33], "withholdReward": false, "trial_id": "mdp_trial_26", "block": "test", "trialIndex": 27, "score": 25.75, "costs": -5.25, "simulationMode": [null, null, null, null, null], "rewards": [1, 1, 6, -14, 37], "path": ["0", "0", "1", "2", "3", "4", "6"], "rt": [9683, 48, 114, 273, 41], "actions": ["up", "up", "up", "right", "right"], "actionTimes": [10674, 11217, 11833, 12609, 13145], "queries": {"click": {"state": {"target": ["3", "5", "6"], "time": [1789, 3526, 6749]}, "edge": {"target": [], "time": []}}, "mouseover": {"state": {"target": ["1", "2", "3", "16", "17", "14", "18", "7", "4", "5", "6", "18", "6", "7"], "time": [1476, 1494, 1526, 2377, 2395, 2694, 2795, 2877, 3010, 3261, 3945, 4012, 5046, 10067]}, "edge": {"target": [], "time": []}}, "mouseout": {"state": {"target": ["0", "1", "2", "3", "16", "17", "14", "18", "7", "4", "5", "6", "18", "6", "7", "12"], "time": [792, 1493, 1509, 1866, 2394, 2411, 2727, 2827, 2977, 3094, 3878, 3995, 4495, 9867, 14069, 14254]}, "edge": {"target": [], "time": []}}}, "displayed_time": "14.99", "trialTime": 16241, "trial_type": "mouselab-mdp", "trial_index": 34, "time_elapsed": 1012667, "internal_node_id": "0.0-6.0-1.0-25.0"}}, {"uniqueid": "w75430675:a64325979", "current_trial": 35, "dateTime": 1693581206229, "trialdata": {"revealed_states": [], "clicked_states": ["11", "10", "8", "1", "12", "23", "2"], "num_clicks_accrued": [0, 0, 0, 0, 0, 0, 0, 0, 0, 0, 0, 0, 0], "stateRewards": ["", -2, -4, 2, 10, -17, 18, 73, 11, -32, 23, -13, -2, -4, 7, 12, -25, 66, -23, 15, 40, -76, -9, 1, 2, -7, -5, -20, 24, 3, -5, 16, -73, 70], "withholdReward": false, "trial_id": "mdp_trial_27", "block": "test", "trialIndex": 28, "score": 24.55, "costs": -5.449999999999999, "simulationMode": [null, null, null, null, null], "rewards": [-2, -4, 2, 11, 23], "path": ["0", "0", "1", "2", "3", "8", "10"], "rt": [18793, 89, 49, 91, 107], "actions": ["up", "up", "up", "left", "down"], "actionTimes": [19738, 20321, 20865, 21457, 22057], "queries": {"click": {"state": {"target": ["11", "10", "8", "1", "12", "23", "2"], "time": [2638, 6430, 11318, 12870, 13638, 14510, 17039]}, "edge": {"target": [], "time": []}}, "mouseover": {"state": {"target": ["4", "5", "11", "10", "1", "12", "1", "10", "2", "8", "3", "2", "1", "12", "0", "23", "0", "24", "10", "2", "12", "8", "10"], "time": [1533, 1883, 2433, 2950, 3000, 3117, 5920, 6253, 10907, 11124, 12158, 12442, 12675, 13126, 13893, 14210, 14927, 15945, 16295, 16696, 17346, 18013, 18430]}, "edge": {"target": [], "time": []}}, "mouseout": {"state": {"target": ["12", "0", "4", "5", "11", "10", "1", "12", "1", "10", "2", "8", "3", "2", "1", "12", "0", "23", "0", "1", "24", "10", "2", "2", "12", "2", "8", "10", "12"], "time": [498, 1417, 1599, 2050, 2934, 2984, 3017, 3150, 5970, 6720, 10957, 12142, 12425, 12458, 13076, 13843, 14027, 14861, 15661, 15811, 16262, 16311, 17091, 17263, 17530, 17882, 18347, 23267, 23301]}, "edge": {"target": [], "time": []}}}, "displayed_time": "22.55", "trialTime": 23913, "trial_type": "mouselab-mdp", "trial_index": 35, "time_elapsed": 1036763, "internal_node_id": "0.0-6.0-1.0-26.0"}}, {"uniqueid": "w75430675:a64325979", "current_trial": 36, "dateTime": 1693581242581, "trialdata": {"revealed_states": [], "clicked_states": ["17", "21", "32", "29", "27", "28", "7", "1", "12", "23"], "num_clicks_accrued": [0, 0, 0, 0, 0, 0, 0, 0, 0, 0, 0, 0, 0], "stateRewards": ["", -2, 2, -4, -4, -59, 88, 62, -3, 69, -15, -34, 1, -2, -5, 7, -54, -20, 78, -16, -74, -53, -21, 2, -4, 2, 13, -8, -44, 26, 9, 72, 4, 17], "withholdReward": false, "trial_id": "mdp_trial_28", "block": "test", "trialIndex": 29, "score": 39.7, "costs": -14.3, "simulationMode": [null, null, null, null, null], "rewards": [-2, 2, -4, -4, 62], "path": ["0", "0", "1", "2", "3", "4", "7"], "rt": [30717, 75, 108, 124, 707], "actions": ["up", "up", "up", "right", "down"], "actionTimes": [31656, 32223, 32823, 33439, 34639], "queries": {"click": {"state": {"target": ["17", "21", "32", "29", "27", "28", "7", "1", "12", "23"], "time": [1668, 5780, 9604, 13316, 18044, 21460, 25316, 29276, 29867, 30523]}, "edge": {"target": [], "time": []}}, "mouseover": {"state": {"target": ["12", "13", "17", "20", "14", "18", "13", "19", "21", "19", "20", "22", "32", "32", "30", "29", "29", "25", "24", "23", "28", "27", "28", "7", "6", "4", "7", "1", "12", "12", "0", "23", "2"], "time": [1155, 1172, 1505, 4958, 5008, 5274, 5374, 5425, 5641, 7176, 7209, 9161, 9294, 9378, 12881, 12981, 13131, 13832, 17201, 17268, 17618, 17885, 18419, 24824, 24925, 25108, 25174, 28760, 29528, 29695, 30045, 30161, 30846]}, "edge": {"target": [], "time": []}}, "mouseout": {"state": {"target": ["13", "12", "0", "12", "13", "17", "20", "14", "18", "13", "19", "21", "19", "20", "22", "32", "32", "32", "30", "29", "29", "29", "25", "24", "23", "28", "27", "28", "7", "6", "4", "7", "1", "12", "12", "0", "23", "2", "13", "22"], "time": [304, 337, 638, 1171, 1188, 2973, 4974, 5024, 5336, 5391, 5458, 6342, 7193, 9144, 9178, 9311, 9689, 10162, 12914, 13031, 13385, 13731, 17184, 17234, 17584, 17634, 18386, 24774, 24841, 25041, 25124, 26159, 29478, 29544, 30028, 30096, 30746, 30863, 35566, 35583]}, "edge": {"target": [], "time": []}}}, "displayed_time": "35.13", "trialTime": 36167, "trial_type": "mouselab-mdp", "trial_index": 36, "time_elapsed": 1073114, "internal_node_id": "0.0-6.0-1.0-27.0"}}, {"uniqueid": "w75430675:a64325979", "current_trial": 37, "dateTime": 1693581258621, "trialdata": {"revealed_states": [], "clicked_states": ["9", "7", "1", "12", "23"], "num_clicks_accrued": [0, 0, 0, 0, 0, 0, 0, 0, 0, 0, 0, 0, 0], "stateRewards": ["", -1, -3, -5, -14, -13, -47, 79, 8, -60, -64, 41, -1, 2, 3, 13, -46, 61, -79, -11, -64, -65, 23, 1, -2, 6, -14, 46, 32, 21, 7, 75, -66, 15], "withholdReward": false, "trial_id": "mdp_trial_29", "block": "test", "trialIndex": 30, "score": 52.45, "costs": -3.55, "simulationMode": [null, null, null, null, null], "rewards": [-1, -3, -5, -14, 79], "path": ["0", "0", "1", "2", "3", "4", "7"], "rt": [10849, 84, 85, 102, 133], "actions": ["up", "up", "up", "right", "down"], "actionTimes": [11718, 12310, 12894, 13494, 14126], "queries": {"click": {"state": {"target": ["9", "7", "1", "12", "23"], "time": [1931, 5746, 9739, 10202, 10835]}, "edge": {"target": [], "time": []}}, "mouseover": {"state": {"target": ["9", "4", "7", "1", "12", "0", "23", "0"], "time": [1715, 5468, 5518, 9505, 9923, 10389, 10656, 11275]}, "edge": {"target": [], "time": []}}, "mouseout": {"state": {"target": ["12", "0", "9", "4", "7", "1", "12", "0", "23", "0", "0"], "time": [364, 1281, 3750, 5502, 9121, 9889, 10356, 10424, 11207, 11373, 14959]}, "edge": {"target": [], "time": []}}}, "displayed_time": "14.87", "trialTime": 15854, "trial_type": "mouselab-mdp", "trial_index": 37, "time_elapsed": 1089154, "internal_node_id": "0.0-6.0-1.0-28.0"}}, {"uniqueid": "w75430675:a64325979", "current_trial": 38, "dateTime": 1693581274573, "trialdata": {"revealed_states": [], "clicked_states": ["10", "1", "23", "12"], "num_clicks_accrued": [0, 0, 0, 0, 0, 0, 0, 0, 0, 0, 0, 0, 0], "stateRewards": ["", 2, 3, -1, 16, -78, -11, 46, 2, -20, 79, -67, 2, 3, 2, 11, -83, -42, -58, -11, -67, -22, 55, 2, -1, -1, -16, -83, -82, 23, -11, -29, 13, 13], "withholdReward": false, "trial_id": "mdp_trial_30", "block": "test", "trialIndex": 31, "score": 83.6, "costs": -1.4, "simulationMode": [null, null, null, null, null], "rewards": [2, 3, -1, 2, 79], "path": ["0", "0", "1", "2", "3", "8", "10"], "rt": [7717, 103, 88, 88, 2], "actions": ["up", "up", "up", "left", "down"], "actionTimes": [8742, 9350, 9934, 10518, 11016], "queries": {"click": {"state": {"target": ["10", "1", "23", "12"], "time": [2891, 6979, 7490, 8026]}, "edge": {"target": [], "time": []}}, "mouseover": {"state": {"target": ["1", "3", "8", "11", "10", "1", "2", "1", "23", "0", "12"], "time": [1471, 1555, 2005, 2155, 2606, 6476, 6543, 6776, 7209, 7677, 7910]}, "edge": {"target": [], "time": []}}, "mouseout": {"state": {"target": ["0", "1", "3", "8", "11", "10", "1", "2", "1", "1", "23", "0", "12"], "time": [1439, 1488, 1838, 2039, 2572, 3256, 6526, 6726, 7039, 7127, 7643, 7743, 12915]}, "edge": {"target": [], "time": []}}}, "displayed_time": "15.03", "trialTime": 15766, "trial_type": "mouselab-mdp", "trial_index": 38, "time_elapsed": 1105107, "internal_node_id": "0.0-6.0-1.0-29.0"}}, {"uniqueid": "w75430675:a64325979", "current_trial": 39, "dateTime": 1693581304236, "trialdata": {"revealed_states": [], "clicked_states": ["20", "18", "28", "33", "5", "10", "1", "23", "12"], "num_clicks_accrued": [0, 0, 0, 0, 0, 0, 0, 0, 0, 0, 0, 0, 0], "stateRewards": ["", -1, -4, 8, 8, -68, 47, 24, -7, -61, 49, -69, -1, -1, 8, -7, 42, 1, -45, -11, 10, -63, -6, 1, 4, 6, -16, 79, -37, -58, -12, 81, 18, -53], "withholdReward": false, "trial_id": "mdp_trial_31", "block": "test", "trialIndex": 32, "score": 32.85, "costs": -12.15, "simulationMode": [null, null, null, null, null], "rewards": [-1, -4, 8, -7, 49], "path": ["0", "0", "1", "2", "3", "8", "10"], "rt": [24440, 132, 76, 84, 69], "actions": ["up", "up", "up", "left", "down"], "actionTimes": [25596, 26236, 26812, 27388, 27956], "queries": {"click": {"state": {"target": ["20", "18", "28", "33", "5", "10", "1", "23", "12"], "time": [1722, 5201, 8921, 12137, 16018, 19657, 23745, 24173, 24756]}, "edge": {"target": [], "time": []}}, "mouseover": {"state": {"target": ["19", "20", "21", "22", "13", "18", "23", "25", "28", "33", "30", "24", "7", "6", "5", "3", "10", "1", "23", "0", "12"], "time": [1415, 1449, 3233, 3467, 3567, 3967, 8371, 8538, 8671, 10272, 13108, 15460, 15494, 15511, 15794, 16694, 19513, 23533, 23934, 24350, 24584]}, "edge": {"target": [], "time": []}}, "mouseout": {"state": {"target": ["19", "14", "12", "0", "0", "19", "20", "21", "22", "13", "18", "23", "25", "28", "33", "30", "33", "24", "7", "6", "5", "5", "3", "10", "1", "23", "0", "12"], "time": [230, 280, 597, 774, 1382, 1432, 2366, 3350, 3500, 3684, 8354, 8387, 8571, 9606, 12182, 13142, 15430, 15477, 15510, 15527, 16098, 16678, 16728, 23249, 23883, 24317, 24384, 25652]}, "edge": {"target": [], "time": []}}}, "displayed_time": "28.45", "trialTime": 29476, "trial_type": "mouselab-mdp", "trial_index": 39, "time_elapsed": 1134770, "internal_node_id": "0.0-6.0-1.0-30.0"}}, {"uniqueid": "w75430675:a64325979", "current_trial": 40, "dateTime": 1693581330876, "trialdata": {"revealed_states": [], "clicked_states": ["11", "5", "17", "21", "29", "1", "23", "12"], "num_clicks_accrued": [0, 0, 0, 0, 0, 0, 0, 0, 0, 0, 0, 0, 0], "stateRewards": ["", 2, 2, 3, -15, 23, -14, 73, -7, -32, -20, -6, 1, 1, -5, -12, 73, 6, -84, 11, -81, -57, 13, -2, -1, -4, -8, -52, -58, 49, 13, 5, -41, -41], "withholdReward": false, "trial_id": "mdp_trial_32", "block": "test", "trialIndex": 33, "score": 24, "costs": -10, "simulationMode": [null, null, null, null, null], "rewards": [-2, -1, -4, -8, 49], "path": ["0", "0", "23", "24", "25", "26", "29"], "rt": [21800, 101, 112, 85, 37], "actions": ["left", "left", "left", "up", "left"], "actionTimes": [22802, 23393, 24004, 24577, 25113], "queries": {"click": {"state": {"target": ["11", "5", "17", "21", "29", "1", "23", "12"], "time": [1750, 5933, 9758, 13381, 16629, 20550, 20997, 21578]}, "edge": {"target": [], "time": []}}, "mouseover": {"state": {"target": ["1", "2", "8", "11", "8", "3", "4", "3", "5", "6", "17", "20", "21", "31", "25", "29", "25", "24", "31", "1", "23", "12", "12"], "time": [1138, 1156, 1188, 1605, 4891, 4926, 4943, 5542, 5742, 8161, 8928, 12966, 13132, 14733, 14917, 15251, 17719, 17737, 18186, 20371, 20805, 21205, 21439]}, "edge": {"target": [], "time": []}}, "mouseout": {"state": {"target": ["12", "0", "1", "2", "8", "11", "11", "8", "3", "4", "3", "5", "6", "17", "20", "21", "31", "25", "29", "25", "24", "31", "1", "23", "12", "12"], "time": [371, 1105, 1155, 1171, 1205, 1818, 2974, 4925, 4941, 5458, 5643, 8111, 8178, 12915, 12998, 13983, 14767, 15134, 17702, 17735, 17752, 19971, 20739, 21155, 21222, 25942]}, "edge": {"target": [], "time": []}}}, "displayed_time": "25.63", "trialTime": 26449, "trial_type": "mouselab-mdp", "trial_index": 40, "time_elapsed": 1161409, "internal_node_id": "0.0-6.0-1.0-31.0"}}, {"uniqueid": "w75430675:a64325979", "current_trial": 41, "dateTime": 1693581346740, "trialdata": {"revealed_states": [], "clicked_states": ["10", "6", "1", "23", "12"], "num_clicks_accrued": [0, 0, 0, 0, 0, 0, 0, 0, 0, 0, 0, 0, 0], "stateRewards": ["", -1, 1, -5, -6, -78, 47, -13, 12, 48, -88, 20, 2, -3, -2, 13, -20, 37, -57, 14, -38, 30, 31, -2, -2, 8, 2, -23, 78, 28, 12, -74, -88, 8], "withholdReward": false, "trial_id": "mdp_trial_33", "block": "test", "trialIndex": 34, "score": 32.45, "costs": -3.55, "simulationMode": [null, null, null, null, null], "rewards": [-1, 1, -5, -6, 47], "path": ["0", "0", "1", "2", "3", "4", "6"], "rt": [11087, 86, 95, 69, 72], "actions": ["up", "up", "up", "right", "right"], "actionTimes": [11998, 12597, 13189, 13749, 14317], "queries": {"click": {"state": {"target": ["10", "6", "1", "23", "12"], "time": [2049, 6066, 10337, 10765, 11250]}, "edge": {"target": [], "time": []}}, "mouseover": {"state": {"target": ["7", "5", "3", "10", "2", "6", "5", "9", "5", "4", "2", "2", "1", "23", "0", "12"], "time": [1166, 1350, 1717, 1767, 2852, 3269, 6672, 6921, 9507, 9574, 9840, 9942, 10024, 10541, 10942, 10974]}, "edge": {"target": [], "time": []}}, "mouseout": {"state": {"target": ["22", "12", "0", "7", "5", "3", "10", "2", "6", "5", "9", "5", "4", "2", "2", "1", "23", "0", "12"], "time": [299, 382, 1095, 1183, 1650, 1750, 2235, 2902, 6521, 6721, 9441, 9523, 9607, 9874, 9990, 10475, 10908, 10958, 15162]}, "edge": {"target": [], "time": []}}}, "displayed_time": "14.91", "trialTime": 15669, "trial_type": "mouselab-mdp", "trial_index": 41, "time_elapsed": 1177273, "internal_node_id": "0.0-6.0-1.0-32.0"}}, {"uniqueid": "w75430675:a64325979", "current_trial": 42, "dateTime": 1693581367907, "trialdata": {"revealed_states": [], "clicked_states": ["29", "31", "23", "12", "1"], "num_clicks_accrued": [0, 0, 0, 0, 0, 0, 0, 0, 0, 0, 0, 0, 0], "stateRewards": ["", 1, -2, -2, 10, -31, -77, 35, 9, -47, 8, 48, -2, 1, -4, -3, -26, -50, 43, -11, 76, -38, 17, 1, -1, 6, 10, 15, -9, 12, -8, 85, 11, -55], "withholdReward": false, "trial_id": "mdp_trial_34", "block": "test", "trialIndex": 35, "score": 79.45, "costs": -3.55, "simulationMode": [null, null, null, null, null], "rewards": [1, -1, 6, -8, 85], "path": ["0", "0", "23", "24", "25", "30", "31"], "rt": [10081, 77, 134, 93, 93], "actions": ["left", "left", "left", "down", "right"], "actionTimes": [16143, 16726, 17350, 17942, 18526], "queries": {"click": {"state": {"target": ["29", "31", "23", "12", "1"], "time": [6955, 10275, 14483, 14995, 15443]}, "edge": {"target": [], "time": []}}, "mouseover": {"state": {"target": ["28", "26", "29", "25", "31", "31", "19", "14", "18", "13", "12", "30", "25", "24", "23", "12", "1"], "time": [6423, 6488, 6789, 7523, 8140, 8690, 10943, 11009, 11376, 13611, 13661, 13895, 14061, 14128, 14178, 14695, 15196]}, "edge": {"target": [], "time": []}}, "mouseout": {"state": {"target": ["13", "18", "6", "5", "9", "8", "10", "28", "26", "29", "25", "31", "31", "19", "14", "18", "13", "12", "30", "25", "24", "23", "12", "1", "1", "12"], "time": [83, 100, 217, 284, 384, 434, 484, 6440, 6755, 7490, 7556, 8557, 10709, 10993, 11044, 13527, 13628, 13695, 14028, 14111, 14145, 14595, 15145, 15511, 16463, 19183]}, "edge": {"target": [], "time": []}}}, "displayed_time": "20.06", "trialTime": 20958, "trial_type": "mouselab-mdp", "trial_index": 42, "time_elapsed": 1198441, "internal_node_id": "0.0-6.0-1.0-33.0"}}, {"uniqueid": "w75430675:a64325979", "current_trial": 43, "dateTime": 1693581383643, "trialdata": {"revealed_states": [], "clicked_states": ["27", "23", "12", "1"], "num_clicks_accrued": [0, 0, 0, 0, 0, 0, 0, 0, 0, 0, 0, 0, 0], "stateRewards": ["", -1, 2, -2, 5, 80, -61, -27, 12, 44, -26, -75, -2, -4, 1, -16, 42, -49, -50, 4, -44, 2, 80, -2, -2, 5, -2, 59, 10, 24, 7, -48, -86, -44], "withholdReward": false, "trial_id": "mdp_trial_35", "block": "test", "trialIndex": 36, "score": 56.6, "costs": -1.4, "simulationMode": [null, null, null, null, null], "rewards": [-2, -2, 5, -2, 59], "path": ["0", "0", "23", "24", "25", "26", "27"], "rt": [6574, 55, 91, 59, 27], "actions": ["left", "left", "left", "up", "up"], "actionTimes": [7443, 8011, 8595, 9147, 9666], "queries": {"click": {"state": {"target": ["27", "23", "12", "1"], "time": [1824, 5792, 6264, 6736]}, "edge": {"target": [], "time": []}}, "mouseover": {"state": {"target": ["11", "27", "28", "24", "31", "23", "23", "0", "12", "1"], "time": [1381, 1598, 3717, 3734, 4534, 5434, 5500, 5935, 6136, 6552]}, "edge": {"target": [], "time": []}}, "mouseout": {"state": {"target": ["0", "11", "27", "28", "24", "31", "23", "23", "0", "12", "1", "0"], "time": [697, 1447, 3700, 3733, 3750, 5267, 5468, 5918, 5968, 6452, 10522, 10555]}, "edge": {"target": [], "time": []}}}, "displayed_time": "14.87", "trialTime": 15523, "trial_type": "mouselab-mdp", "trial_index": 43, "time_elapsed": 1214177, "internal_node_id": "0.0-6.0-1.0-34.0"}}, {"uniqueid": "w75430675:a64325979", "current_trial": 44, "dateTime": 1693581399483, "trialdata": {"revealed_states": [], "clicked_states": ["9", "33", "23", "12", "1"], "num_clicks_accrued": [0, 0, 0, 0, 0, 0, 0, 0, 0, 0, 0, 0, 0], "stateRewards": ["", 1, 4, 7, -16, -84, -6, -46, -12, -7, -49, -26, -1, 2, -4, 2, 22, 37, -64, 1, 88, -13, -10, 1, -4, -2, 5, 2, -10, -34, 9, 66, 55, 38], "withholdReward": false, "trial_id": "mdp_trial_36", "block": "test", "trialIndex": 37, "score": 38.45, "costs": -3.55, "simulationMode": [null, null, null, null, null], "rewards": [1, -4, -2, 9, 38], "path": ["0", "0", "23", "24", "25", "30", "33"], "rt": [10394, 66, 100, 60, 100], "actions": ["left", "left", "left", "down", "left"], "actionTimes": [11095, 11654, 12254, 12814, 13406], "queries": {"click": {"state": {"target": ["9", "33", "23", "12", "1"], "time": [1523, 5274, 9002, 9507, 9995]}, "edge": {"target": [], "time": []}}, "mouseover": {"state": {"target": ["6", "5", "9", "9", "24", "25", "33", "23", "18", "15", "17", "20", "19", "12", "23", "0", "12", "1"], "time": [944, 1027, 1244, 1361, 4730, 4930, 5031, 5865, 5948, 5983, 6499, 8417, 8450, 8500, 8834, 9201, 9284, 9767]}, "edge": {"target": [], "time": []}}, "mouseout": {"state": {"target": ["0", "6", "5", "9", "9", "24", "25", "33", "23", "18", "15", "17", "20", "19", "12", "23", "0", "12", "1", "13", "21"], "time": [276, 977, 1077, 1294, 3780, 4864, 4964, 5319, 5882, 5981, 6015, 6532, 8433, 8467, 8600, 9184, 9251, 9668, 14071, 14188, 14221]}, "edge": {"target": [], "time": []}}}, "displayed_time": "14.70", "trialTime": 15630, "trial_type": "mouselab-mdp", "trial_index": 44, "time_elapsed": 1230017, "internal_node_id": "0.0-6.0-1.0-35.0"}}, {"uniqueid": "w75430675:a64325979", "current_trial": 45, "dateTime": 1693581415354, "trialdata": {"revealed_states": [], "clicked_states": ["11", "1", "23", "12"], "num_clicks_accrued": [0, 0, 0, 0, 0, 0, 0, 0, 0, 0, 0, 0, 0], "stateRewards": ["", -1, -3, 1, 13, -64, -29, 12, -4, -33, 50, 56, 2, -3, 4, 11, -64, -58, -55, 12, 47, 38, -25, -2, 2, 5, -15, 85, 7, 84, 10, 8, 57, 26], "withholdReward": false, "trial_id": "mdp_trial_37", "block": "test", "trialIndex": 38, "score": 47.6, "costs": -1.4, "simulationMode": [null, null, null, null, null], "rewards": [-1, -3, 1, -4, 56], "path": ["0", "0", "1", "2", "3", "8", "11"], "rt": [6665, 75, 68, 237, 55], "actions": ["up", "up", "up", "left", "left"], "actionTimes": [7582, 8165, 8725, 9477, 10029], "queries": {"click": {"state": {"target": ["11", "1", "23", "12"], "time": [1889, 5697, 6145, 6665]}, "edge": {"target": [], "time": []}}, "mouseover": {"state": {"target": ["1", "2", "8", "11", "2", "7", "1", "23", "12"], "time": [1350, 1382, 1549, 1766, 2150, 3000, 5469, 5919, 6503]}, "edge": {"target": [], "time": []}}, "mouseout": {"state": {"target": ["12", "0", "1", "2", "8", "11", "2", "7", "1", "23", "23", "12"], "time": [349, 1316, 1366, 1399, 1667, 2116, 2166, 3084, 5853, 6198, 6270, 10657]}, "edge": {"target": [], "time": []}}}, "displayed_time": "14.92", "trialTime": 15676, "trial_type": "mouselab-mdp", "trial_index": 45, "time_elapsed": 1245887, "internal_node_id": "0.0-6.0-1.0-36.0"}}, {"uniqueid": "w75430675:a64325979", "current_trial": 46, "dateTime": 1693581433298, "trialdata": {"revealed_states": [], "clicked_states": ["17", "22", "31", "23", "12", "1"], "num_clicks_accrued": [0, 0, 0, 0, 0, 0, 0, 0, 0, 0, 0, 0, 0], "stateRewards": ["", 2, -1, -3, 16, -3, -16, -62, -1, 13, -26, 43, -1, 4, 3, -9, -54, -37, -3, -12, -71, -68, -57, 1, -3, 2, -9, 2, -2, -9, -11, 84, -52, 55], "withholdReward": false, "trial_id": "mdp_trial_38", "block": "test", "trialIndex": 39, "score": 67.3, "costs": -5.699999999999999, "simulationMode": [null, null, null, null, null], "rewards": [1, -3, 2, -11, 84], "path": ["0", "0", "23", "24", "25", "30", "31"], "rt": [13046, 110, 102, 110, 69], "actions": ["left", "left", "left", "down", "right"], "actionTimes": [13781, 14405, 14997, 15605, 16165], "queries": {"click": {"state": {"target": ["17", "22", "31", "23", "12", "1"], "time": [1346, 4554, 8097, 12154, 12617, 13100]}, "edge": {"target": [], "time": []}}, "mouseover": {"state": {"target": ["12", "13", "14", "17", "19", "22", "31", "31", "32", "33", "29", "23", "12", "1"], "time": [915, 949, 966, 1182, 2300, 3184, 5652, 7904, 8805, 8888, 9456, 11957, 12391, 12825]}, "edge": {"target": [], "time": []}}, "mouseout": {"state": {"target": ["0", "12", "13", "14", "17", "19", "22", "31", "31", "32", "33", "29", "23", "12", "1", "0"], "time": [899, 948, 965, 982, 1649, 2366, 5252, 5786, 8588, 8822, 9322, 11658, 12325, 12758, 16945, 16978]}, "edge": {"target": [], "time": []}}}, "displayed_time": "16.68", "trialTime": 17741, "trial_type": "mouselab-mdp", "trial_index": 46, "time_elapsed": 1263831, "internal_node_id": "0.0-6.0-1.0-37.0"}}, {"uniqueid": "w75430675:a64325979", "current_trial": 47, "dateTime": 1693581458226, "trialdata": {"revealed_states": [], "clicked_states": ["11", "7", "20", "32", "29", "23", "1", "12"], "num_clicks_accrued": [0, 0, 0, 0, 0, 0, 0, 0, 0, 0, 0, 0, 0], "stateRewards": ["", -1, -3, -7, -7, -76, 30, -49, 11, -70, 56, 2, 1, 4, -3, -14, -59, -83, -25, -9, -21, -67, -73, -2, 4, 4, -9, -11, -32, 60, 9, -87, 22, -64], "withholdReward": false, "trial_id": "mdp_trial_39", "block": "test", "trialIndex": 40, "score": 47, "costs": -10, "simulationMode": [null, null, null, null, null], "rewards": [-2, 4, 4, -9, 60], "path": ["0", "0", "23", "24", "25", "26", "29"], "rt": [20449, 56, 120, 89, 57], "actions": ["left", "left", "left", "up", "left"], "actionTimes": [21301, 21860, 22476, 23060, 23612], "queries": {"click": {"state": {"target": ["11", "7", "20", "32", "29", "23", "1", "12"], "time": [1632, 4913, 8224, 11592, 15449, 19320, 19891, 20340]}, "edge": {"target": [], "time": []}}, "mouseover": {"state": {"target": ["10", "11", "1", "7", "15", "20", "32", "33", "29", "26", "23", "23", "1", "12"], "time": [1235, 1419, 2386, 2553, 5489, 5939, 10159, 14963, 15163, 18700, 18749, 19185, 19550, 20101]}, "edge": {"target": [], "time": []}}, "mouseout": {"state": {"target": ["0", "10", "11", "1", "7", "15", "20", "20", "32", "32", "33", "29", "29", "26", "23", "23", "1", "12"], "time": [1069, 1285, 1869, 2403, 5339, 5505, 8301, 9242, 11682, 14546, 15080, 15477, 18684, 18717, 19067, 19467, 20068, 24405]}, "edge": {"target": [], "time": []}}}, "displayed_time": "24.11", "trialTime": 24724, "trial_type": "mouselab-mdp", "trial_index": 47, "time_elapsed": 1288759, "internal_node_id": "0.0-6.0-1.0-38.0"}}, {"uniqueid": "w75430675:a64325979", "current_trial": 48, "dateTime": 1693581516313, "trialdata": {"revealed_states": [], "clicked_states": ["11", "7", "29", "20", "16", "32", "31", "28", "6", "10", "5", "9", "27", "33", "23", "12", "1"], "num_clicks_accrued": [0, 0, 0, 0, 0, 0, 0, 0, 0, 0, 0, 0, 0], "stateRewards": ["", -1, 2, -6, 6, -82, -19, -39, -16, -83, 11, -33, -2, -2, 4, -6, -82, -1, -19, -6, -10, -67, -41, -2, 1, -7, 16, -23, -78, -52, 14, 31, -71, 74], "withholdReward": false, "trial_id": "mdp_trial_40", "block": "test", "trialIndex": 41, "score": 50.650000000000006, "costs": -29.34999999999999, "simulationMode": [null, null, null, null, null], "rewards": [-2, 1, -7, 14, 74], "path": ["0", "0", "23", "24", "25", "30", "33"], "rt": [53197, 113, 136, 79, 95], "actions": ["left", "left", "left", "down", "left"], "actionTimes": [54193, 54809, 55433, 56009, 56593], "queries": {"click": {"state": {"target": ["11", "7", "29", "20", "16", "32", "31", "28", "6", "10", "5", "9", "27", "33", "23", "12", "1"], "time": [1663, 5006, 8767, 12182, 15454, 18653, 22462, 26470, 30133, 33774, 37813, 41550, 44965, 48165, 52469, 52950, 53418]}, "edge": {"target": [], "time": []}}, "mouseover": {"state": {"target": ["1", "2", "8", "11", "2", "7", "28", "29", "27", "29", "26", "13", "20", "15", "16", "12", "32", "22", "12", "31", "31", "24", "28", "28", "28", "1", "6", "16", "18", "2", "10", "5", "2", "1", "2", "9", "9", "3", "27", "28", "23", "23", "30", "33", "30", "23", "12", "1"], "time": [1134, 1168, 1368, 1451, 4187, 4821, 8190, 8258, 8507, 8607, 9475, 9525, 9808, 13361, 13895, 16413, 16497, 19315, 19599, 22018, 22268, 22752, 22802, 25988, 26204, 29657, 29957, 30708, 30743, 33477, 33644, 37532, 39182, 39333, 41068, 41117, 41417, 44553, 44737, 45387, 45504, 45954, 46054, 46105, 52026, 52243, 52760, 53227]}, "edge": {"target": [], "time": []}}, "mouseout": {"state": {"target": ["0", "1", "2", "8", "11", "2", "7", "28", "29", "27", "29", "26", "13", "20", "15", "16", "12", "32", "22", "12", "31", "31", "24", "28", "28", "28", "1", "6", "16", "18", "2", "10", "5", "5", "2", "1", "2", "9", "9", "9", "3", "27", "28", "23", "23", "30", "33", "30", "23", "12", "1"], "time": [600, 1151, 1184, 1401, 4121, 4755, 8157, 8207, 8374, 8541, 9458, 9491, 9558, 13261, 13378, 16347, 16430, 19199, 19349, 21968, 22034, 22524, 22786, 22852, 26004, 26972, 29690, 30202, 30725, 30762, 33577, 37264, 37886, 38215, 39216, 41067, 41083, 41134, 41606, 44536, 44638, 45354, 45404, 45821, 45988, 46088, 50809, 52042, 52643, 53127, 53844]}, "edge": {"target": [], "time": []}}}, "displayed_time": "57.08", "trialTime": 57873, "trial_type": "mouselab-mdp", "trial_index": 48, "time_elapsed": 1346846, "internal_node_id": "0.0-6.0-1.0-39.0"}}, {"uniqueid": "w75430675:a64325979", "current_trial": 49, "dateTime": 1693581546345, "trialdata": {"rt": 30029, "response": {"Q0": "$-2 to $2", "Q1": "$-32 to $32", "Q2": "$-88 to $88", "Q3": "The cost for clicking on nodes varied between nodes.", "Q4": "Slightly motivated"}, "question_order": [0, 1, 2, 3, 4], "trial_id": "final_quiz_control", "trial_type": "survey-multi-choice", "trial_index": 49, "time_elapsed": 1376878, "internal_node_id": "0.0-6.0-2.0"}}, {"uniqueid": "w75430675:a64325979", "current_trial": 50, "dateTime": 1693581671039, "trialdata": {"rt": 124683, "response": {"Q0": "I started by examining the nodes that led to more choices, and then examining the choices branching from those nodes; I changed my strategy halfway through to starting from the furthest nodes and picking a high-scoring one. I also learned that clicking on the first-level nodes actually earned me a bit of money so I started doing that.", "Q1": "I changed it to inspecting final-level nodes after I realised that the value ranges for the nodes grew with distance from the centre. ", "Q2": "It took me about halfway through the game, so it was quite difficult; the lack of information and the fact that I had started off not exploring the full range of node levels were the problem."}, "trial_id": "self_report_control", "trial_type": "survey-text", "trial_index": 50, "time_elapsed": 1501573, "internal_node_id": "0.0-6.0-3.0"}}, {"uniqueid": "w75430675:a64325979", "current_trial": 51, "dateTime": 1693581686887, "trialdata": {"rt": 15844, "response": {"Q0": "Agree", "Q1": "Strongly agree", "Q2": "Strongly disagree", "Q3": "Strongly disagree", "Q4": "Strongly agree", "Q5": "Disagree", "Q6": "Agree"}, "question_order": [0, 1, 2, 3, 4, 5, 6], "trial_id": "self_report_2", "trial_type": "survey-multi-choice", "trial_index": 51, "time_elapsed": 1517421, "internal_node_id": "0.0-6.0-4.0"}}, {"uniqueid": "w75430675:a64325979", "current_trial": 52, "dateTime": 1693581698350, "trialdata": {"rt": 11459, "response": {"gender": "other", "age": "30", "colorblind": "0", "effort": "0"}, "trial_type": "survey-html-form", "trial_index": 52, "time_elapsed": 1528884, "internal_node_id": "0.0-6.0-5.0"}}, {"uniqueid": "w75430675:a64325979", "current_trial": 53, "dateTime": 1693581717982, "trialdata": {"rt": 19628, "response": {"Q0": "No, the experiment was clear.", "Q1": "No, I hadn't.", "Q2": "None."}, "trial_type": "survey-text", "trial_index": 53, "time_elapsed": 1548516, "internal_node_id": "0.0-6.0-6.0"}}, {"uniqueid": "w75430675:a64325979", "current_trial": 54, "dateTime": 1693581728982, "trialdata": {"rt": 10997, "stimulus": "<h1>Completion Code Instructions (1/2)</h1>\n<br><br><br><br>\nYou have reached the end of the experiment! The completion code consists of two parts: (1) a code with 2 characters (2) a code with 6 characters. On this page, you will receive the second part of the code. The first part of the completion code will be on the next page.\n<br><br>\nThe second part of your completion code is: <b>EWEK22</b>\n<br><br>\nPlease note this down. Then, press 'Next' in order to find the first part of your completion code. Once the data has been saved, you will receive this code either in this window or in the original browser window where you started the experiment.\n <br><br>\n<h2 style='color: red;'>Note: this is <strong>NOT</strong> the full completion code. Copy this down and click 'Next' to get the full completion code on the next page.</h2>", "response": 0, "trial_type": "html-button-response", "trial_index": 54, "time_elapsed": 1559516, "internal_node_id": "0.0-6.0-7.0"}}, {"uniqueid": "w75430675:a64325979", "current_trial": 55, "dateTime": 1693581729985, "trialdata": {"success": true, "trial_type": "fullscreen", "trial_index": 55, "time_elapsed": 1560519, "internal_node_id": "0.0-7.0"}}], "questiondata": {"params": {"CODE": "C6DMOQA6", "MIN_TIME": 14, "inspectCost": 1, "startTime": "Fri Sep 01 2023 15:56:08 GMT+0100 (British Summer Time)", "bonusRate": 0.002, "variance": "1_2_4_8_44", "branching": "31123"}, "final_score": 2029.8}, "eventdata": [{"eventtype": "initialized", "value": null, "timestamp": 1693580168588, "interval": 0}, {"eventtype": "window_resize", "value": [1024, 767], "timestamp": 1693580168588, "interval": 0}, {"eventtype": "window_resize", "value": [1024, 767], "timestamp": 1693580168891, "interval": 303}, {"eventtype": "window_resize", "value": [1920, 1200], "timestamp": 1693580172236, "interval": 3345}, {"eventtype": "focus", "value": "off", "timestamp": 1693580758251, "interval": 586015}, {"eventtype": "focus", "value": "on", "timestamp": 1693581053731, "interval": 295480}, {"eventtype": "window_resize", "value": [1024, 767], "timestamp": 1693581729235, "interval": 675504}], "useragent": "Mozilla/5.0 (Windows NT 10.0; Win64; x64) AppleWebKit/537.36 (KHTML, like Gecko) Chrome/116.0.0.0 Safari/537.36", "mode": "live", "id": "w75430675:a64325979", "status": "user data saved", "Beginhit": "2023-09-01 14:56:07.733456", "Beginexp": "2023-09-01 14:56:13.0857", "Endhit": "2023-09-01 15:22:10.384409", "psiturkStatus": 3, "browser": "<redacted>", "platform": "windows", "language": "en", "excludeReason": "invalidClickStrats"}