{"condition": 1, "counterbalance": 0, "assignmentId": "a34571206", "workerId": "w77759469", "hitId": "h12114829", "currenttrial": 62, "bonus": 0, "data": [{"uniqueid": "w77759469:a34571206", "current_trial": 0, "dateTime": 1693580099940, "trialdata": {"success": true, "trial_type": "fullscreen", "trial_index": 0, "time_elapsed": 3752, "internal_node_id": "0.0-0.0"}}, {"uniqueid": "w77759469:a34571206", "current_trial": 1, "dateTime": 1693580108278, "trialdata": {"view_history": [{"page_index": 0, "viewing_time": 8333}], "rt": 8334, "trial_id": "exp_instructions_misaligned", "trial_type": "instructions", "trial_index": 1, "time_elapsed": 12090, "internal_node_id": "0.0-1.0"}}, {"uniqueid": "w77759469:a34571206", "current_trial": 2, "dateTime": 1693580209601, "trialdata": {"view_history": [{"page_index": 0, "viewing_time": 29444}, {"page_index": 1, "viewing_time": 40173}, {"page_index": 2, "viewing_time": 12989}, {"page_index": 3, "viewing_time": 18711}], "rt": 101317, "trial_id": "mouselab_instructions_1_misaligned", "trial_type": "instructions", "trial_index": 2, "time_elapsed": 113413, "internal_node_id": "0.0-2.0-1.0"}}, {"uniqueid": "w77759469:a34571206", "current_trial": 3, "dateTime": 1693580262485, "trialdata": {"revealed_states": [], "clicked_states": ["23", "24", "25", "26", "28", "30", "32", "1", "2", "4", "3", "12", "13", "14", "15", "18", "17", "16", "19", "20", "21", "22"], "num_clicks_accrued": [0, 0, 0, 0, 0, 0, 0, 0, 0, 0, 0, 0, 0], "stateRewards": ["", -10, 10, -10, -10, -10, 10, -10, -10, 10, 10, 10, -10, 10, 10, -10, 10, 10, 10, 10, -10, -10, -10, 10, -10, -10, -10, 10, 10, -10, 10, 10, 10, -10], "withholdReward": false, "trial_id": "practice_1", "block": "test", "trialIndex": 0, "score": 2.5, "costs": -11, "simulationMode": [null, null, null, null, null], "rewards": [-10, 10, 10, 10, -10], "path": ["0", "0", "12", "13", "14", "19", "22"], "rt": [43430, 692, 436, 201, 497], "actions": ["right", "right", "right", "down", "left"], "actionTimes": [45659, 46873, 47829, 48546, 49546], "queries": {"click": {"state": {"target": ["23", "24", "25", "26", "28", "30", "32", "1", "2", "4", "3", "12", "13", "14", "15", "18", "17", "16", "19", "20", "21", "22"], "time": [3600, 5552, 7738, 9423, 11156, 13442, 14504, 17275, 19243, 21091, 22730, 25247, 26680, 28017, 29811, 31900, 33217, 35438, 37706, 38983, 40391, 41572]}, "edge": {"target": [], "time": []}}, "mouseover": {"state": {"target": ["23", "24", "25", "30", "25", "26", "28", "28", "30", "30", "25", "25", "30", "32", "0", "7", "1", "2", "7", "4", "3", "8", "13", "12", "13", "14", "19", "15", "18", "17", "16", "16", "14", "19", "21", "19", "20", "21", "22"], "time": [3272, 4220, 6153, 6551, 6703, 8270, 9741, 10850, 11625, 11908, 12394, 12861, 12927, 14093, 16076, 16479, 16995, 17944, 20349, 20765, 21731, 23564, 24649, 24985, 26315, 27730, 28968, 29438, 31655, 33006, 34026, 35123, 35971, 36905, 37037, 37371, 38239, 40043, 41260]}, "edge": {"target": [], "time": []}}, "mouseout": {"state": {"target": ["0", "23", "24", "25", "30", "25", "26", "28", "28", "30", "30", "25", "25", "30", "32", "0", "7", "1", "2", "7", "4", "4", "3", "8", "13", "12", "13", "14", "19", "15", "18", "17", "16", "16", "14", "19", "21", "19", "20", "19", "21", "22"], "time": [3205, 3972, 6104, 6284, 6640, 7756, 9710, 10812, 11525, 11675, 12259, 12494, 12876, 14060, 15207, 16090, 16494, 17891, 19896, 20701, 21106, 21682, 23465, 23800, 24948, 26131, 27681, 28918, 29204, 31604, 32405, 33234, 34540, 35888, 36872, 36974, 37241, 38189, 38996, 39925, 40725, 44080]}, "edge": {"target": [], "time": []}}}, "displayed_time": "50.07", "trialTime": 52102, "trial_type": "mouselab-mdp", "trial_index": 3, "time_elapsed": 166296, "internal_node_id": "0.0-2.0-2.0-0.0"}}, {"uniqueid": "w77759469:a34571206", "current_trial": 4, "dateTime": 1693580297247, "trialdata": {"revealed_states": [], "clicked_states": ["23", "24", "12", "13", "25", "1", "2", "3", "4", "7", "8", "10"], "num_clicks_accrued": [0, 0, 0, 0, 0, 0, 0, 0, 0, 0, 0, 0, 0], "stateRewards": ["", 10, -10, 10, 10, 10, -10, 10, 10, 10, 10, 10, 10, -10, 10, 10, -10, -10, 10, 10, -10, -10, -10, 10, -10, -10, 10, -10, -10, -10, 10, 10, 10, 10], "withholdReward": false, "trial_id": "practice_2", "block": "test", "trialIndex": 1, "score": 27.5, "costs": -6, "simulationMode": [null, null, null, null, null], "rewards": [10, -10, 10, 10, 10], "path": ["0", "0", "1", "2", "3", "8", "10"], "rt": [26776, 216, 115, 418, 100], "actions": ["up", "up", "up", "left", "down"], "actionTimes": [28958, 29685, 30319, 31255, 31871], "queries": {"click": {"state": {"target": ["23", "24", "12", "13", "25", "1", "2", "3", "4", "7", "8", "10"], "time": [4600, 6193, 8053, 9454, 12855, 15122, 16841, 18959, 21420, 22843, 24595, 26063]}, "edge": {"target": [], "time": []}}, "mouseover": {"state": {"target": ["0", "23", "24", "0", "12", "13", "18", "16", "18", "23", "24", "25", "25", "24", "12", "2", "2", "1", "2", "3", "4", "4", "7", "11", "8", "10", "23"], "time": [4018, 4335, 5200, 6736, 6787, 8838, 11109, 11191, 11374, 12240, 12255, 12287, 12589, 13106, 13239, 13687, 14755, 14875, 15504, 18681, 19444, 21162, 21946, 24181, 24282, 25346, 27319]}, "edge": {"target": [], "time": []}}, "mouseout": {"state": {"target": ["1", "0", "0", "23", "24", "23", "0", "12", "13", "13", "18", "16", "18", "23", "24", "25", "25", "24", "12", "2", "2", "1", "2", "2", "3", "4", "4", "7", "11", "8", "8", "10", "10", "23"], "time": [1519, 2369, 4101, 5133, 6217, 6723, 6773, 8755, 9471, 10807, 11141, 11273, 12188, 12253, 12274, 12308, 13087, 13120, 13603, 13737, 14824, 15139, 17627, 18646, 18977, 19544, 21913, 23910, 24214, 24612, 25312, 26080, 27252, 27332]}, "edge": {"target": [], "time": []}}}, "displayed_time": "32.39", "trialTime": 34182, "trial_type": "mouselab-mdp", "trial_index": 4, "time_elapsed": 201058, "internal_node_id": "0.0-2.0-2.0-1.0"}}, {"uniqueid": "w77759469:a34571206", "current_trial": 5, "dateTime": 1693580317397, "trialdata": {"view_history": [{"page_index": 0, "viewing_time": 14146}, {"page_index": 1, "viewing_time": 5998}], "rt": 20145, "trial_id": "mouselab_instructions_2_misaligned", "trial_type": "instructions", "trial_index": 5, "time_elapsed": 221209, "internal_node_id": "0.0-2.0-3.0"}}, {"uniqueid": "w77759469:a34571206", "current_trial": 6, "dateTime": 1693580346487, "trialdata": {"rt": 29084, "response": {"Q0": "The cost for clicking on nodes may vary between nodes.", "Q1": "The better I perform the higher my bonus will be.", "Q2": "No, the structure of the web will be different each time.", "Q3": "To get the highest total score.", "Q4": "Only before moving the spider.", "Q5": "3 seconds"}, "question_order": [0, 1, 2, 3, 4, 5], "correct": {"Q0": "The cost for clicking on nodes may vary between nodes.", "Q1": "The better I perform the higher my bonus will be.", "Q2": "No, the amount of cash at each node of the web may be different each time.", "Q3": "To get the highest total score.", "Q4": "Only before moving the spider.", "Q5": "3 seconds"}, "trial_id": "mouselab_quiz_misaligned", "trial_type": "survey-multi-choice", "trial_index": 6, "time_elapsed": 250299, "internal_node_id": "0.0-2.0-4.0"}}, {"uniqueid": "w77759469:a34571206", "current_trial": 7, "dateTime": 1693580352771, "trialdata": {"success": true, "trial_type": "fullscreen", "trial_index": 7, "time_elapsed": 256583, "internal_node_id": "0.0-2.1-0.1-0.1"}}, {"uniqueid": "w77759469:a34571206", "current_trial": 8, "dateTime": 1693580361943, "trialdata": {"view_history": [{"page_index": 0, "viewing_time": 4645}, {"page_index": 1, "viewing_time": 2369}, {"page_index": 2, "viewing_time": 1101}, {"page_index": 3, "viewing_time": 1052}], "rt": 9168, "trial_id": "mouselab_instructions_1_misaligned", "trial_type": "instructions", "trial_index": 8, "time_elapsed": 265754, "internal_node_id": "0.0-2.1-1.1"}}, {"uniqueid": "w77759469:a34571206", "current_trial": 9, "dateTime": 1693580372772, "trialdata": {"revealed_states": [], "clicked_states": ["12"], "num_clicks_accrued": [0, 0, 0, 0, 0, 0, 0, 0, 0, 0, 0, 0, 0], "stateRewards": ["", -10, 10, -10, -10, -10, 10, -10, -10, 10, 10, 10, -10, 10, 10, -10, 10, 10, 10, 10, -10, -10, -10, 10, -10, -10, -10, 10, 10, -10, 10, 10, 10, -10], "withholdReward": false, "trial_id": "practice_1", "block": "test", "trialIndex": 2, "score": 13, "costs": -0.5, "simulationMode": [null, null, null, null, null, null], "rewards": [-10, 10, 10, 10, -10], "path": ["0", "0", "12", "13", "14", "19", "21"], "rt": [2451, 557, 540, 348, 45, 100], "actions": ["right", "right", "right", "right", "down", "down"], "actionTimes": [4793, 5352, 6408, 7265, 7832, 8469], "queries": {"click": {"state": {"target": ["12"], "time": [4148]}, "edge": {"target": [], "time": []}}, "mouseover": {"state": {"target": ["12", "13", "13", "12", "13"], "time": [3574, 3648, 3785, 3867, 4498]}, "edge": {"target": [], "time": []}}, "mouseout": {"state": {"target": ["12", "12", "0", "12", "13", "13", "12", "13"], "time": [130, 333, 3151, 3634, 3701, 3834, 4483, 9736]}, "edge": {"target": [], "time": []}}}, "displayed_time": "8.98", "trialTime": 10214, "trial_type": "mouselab-mdp", "trial_index": 9, "time_elapsed": 276583, "internal_node_id": "0.0-2.1-2.1-0.1"}}, {"uniqueid": "w77759469:a34571206", "current_trial": 10, "dateTime": 1693580386680, "trialdata": {"revealed_states": [], "clicked_states": ["3", "4"], "num_clicks_accrued": [0, 0, 0, 0, 0, 0, 0, 0, 0, 0, 0, 0, 0], "stateRewards": ["", 10, -10, 10, 10, 10, -10, 10, 10, 10, 10, 10, 10, -10, 10, 10, -10, -10, 10, 10, -10, -10, -10, 10, -10, -10, 10, -10, -10, -10, 10, 10, 10, 10], "withholdReward": false, "trial_id": "practice_2", "block": "test", "trialIndex": 3, "score": 32.5, "costs": -1, "simulationMode": [null, null, null, null, null], "rewards": [10, -10, 10, 10, 10], "path": ["0", "0", "1", "2", "3", "4", "7"], "rt": [5670, 261, 22, 883, 327], "actions": ["up", "up", "up", "right", "down"], "actionTimes": [7212, 7990, 8528, 9945, 10774], "queries": {"click": {"state": {"target": ["3", "4"], "time": [2367, 5889]}, "edge": {"target": [], "time": []}}, "mouseover": {"state": {"target": ["1", "2", "3", "3", "2", "7", "4", "7", "12", "2", "4", "7", "12"], "time": [1805, 1841, 1886, 2224, 2721, 2771, 3022, 3707, 5225, 5291, 5659, 6285, 6338]}, "edge": {"target": [], "time": []}}, "mouseout": {"state": {"target": ["0", "1", "2", "3", "3", "2", "7", "4", "7", "12", "2", "3", "4", "7", "12"], "time": [1791, 1839, 1871, 2089, 2673, 2737, 2838, 3674, 3720, 5257, 5324, 5337, 6273, 6307, 6370]}, "edge": {"target": [], "time": []}}}, "displayed_time": "11.29", "trialTime": 13321, "trial_type": "mouselab-mdp", "trial_index": 10, "time_elapsed": 290491, "internal_node_id": "0.0-2.1-2.1-1.1"}}, {"uniqueid": "w77759469:a34571206", "current_trial": 11, "dateTime": 1693580396280, "trialdata": {"view_history": [{"page_index": 0, "viewing_time": 7525}, {"page_index": 1, "viewing_time": 2069}], "rt": 9595, "trial_id": "mouselab_instructions_2_misaligned", "trial_type": "instructions", "trial_index": 11, "time_elapsed": 300092, "internal_node_id": "0.0-2.1-3.1"}}, {"uniqueid": "w77759469:a34571206", "current_trial": 12, "dateTime": 1693580417791, "trialdata": {"rt": 21505, "response": {"Q0": "The cost for clicking on nodes may vary between nodes.", "Q1": "The better I perform the higher my bonus will be.", "Q2": "No, the amount of cash at each node of the web may be different each time.", "Q3": "To get the highest total score.", "Q4": "Only before moving the spider.", "Q5": "3 seconds"}, "question_order": [0, 1, 2, 3, 4, 5], "correct": {"Q0": "The cost for clicking on nodes may vary between nodes.", "Q1": "The better I perform the higher my bonus will be.", "Q2": "No, the amount of cash at each node of the web may be different each time.", "Q3": "To get the highest total score.", "Q4": "Only before moving the spider.", "Q5": "3 seconds"}, "trial_id": "mouselab_quiz_misaligned", "trial_type": "survey-multi-choice", "trial_index": 12, "time_elapsed": 321603, "internal_node_id": "0.0-2.1-4.1"}}, {"uniqueid": "w77759469:a34571206", "current_trial": 13, "dateTime": 1693580422845, "trialdata": {"rt": 5047, "response": {"Q0": "No"}, "question_order": [0], "trial_id": "repeat_check", "trial_type": "survey-multi-choice", "trial_index": 13, "time_elapsed": 326657, "internal_node_id": "0.0-4.0-0.0"}}, {"uniqueid": "w77759469:a34571206", "current_trial": 14, "dateTime": 1693580430666, "trialdata": {"rt": 7812, "stimulus": "\n<h1> Get ready to start the game! </h1>\n\nThank you for reading the instructions. Get ready start with the 40 rounds of this game.\n<br><br>\nIf you need to take a break, feel free to take one after the end of a round, before continuing to the next one.\n<br><br>\nRemember, the more money the spider gets, the bigger your bonus will be!\n<br><br>\n<div style='text-align: center;'>Press <code>space</code> to begin.</div>\n\n<br><br>\n(If, at any point, the <code>space</code> key does not take you to the next page, click once on the text and try again.)", "response": " ", "trial_id": "mdp_ready", "trial_type": "html-keyboard-response", "trial_index": 14, "time_elapsed": 334478, "internal_node_id": "0.0-6.0-0.0"}}, {"uniqueid": "w77759469:a34571206", "current_trial": 15, "dateTime": 1693580448639, "trialdata": {"revealed_states": [], "clicked_states": ["3", "4", "8"], "num_clicks_accrued": [0, 0, 0, 0, 0, 0, 0, 0, 0, 0, 0, 0, 0], "stateRewards": ["", -2, 1, -7, 9, 8, 25, 61, -7, -17, 69, -81, 1, 4, -4, -11, 16, 67, 44, 3, 6, -45, -54, -2, 3, 6, -11, -15, 32, -47, 3, -39, -6, -88], "withholdReward": false, "trial_id": "mdp_trial_1", "block": "test", "trialIndex": 4, "score": 57.95, "costs": -4.05, "simulationMode": [null, null, null, null, null], "rewards": [-2, 1, -7, 9, 61], "path": ["0", "0", "1", "2", "3", "4", "7"], "rt": [5081, 19, 41, 1212, 104], "actions": ["up", "up", "up", "right", "down"], "actionTimes": [7148, 7676, 8249, 9969, 10587], "queries": {"click": {"state": {"target": ["3", "4", "8"], "time": [3006, 3884, 5707]}, "edge": {"target": [], "time": []}}, "mouseover": {"state": {"target": ["1", "3", "4", "7", "1", "8", "10", "0"], "time": [2522, 2841, 3456, 4405, 5242, 5590, 5923, 5972]}, "edge": {"target": [], "time": []}}, "mouseout": {"state": {"target": ["0", "1", "3", "4", "7", "1", "8", "10", "0"], "time": [2508, 2538, 3370, 4387, 4421, 5256, 5906, 5937, 5989]}, "edge": {"target": [], "time": []}}}, "displayed_time": "16.08", "trialTime": 17367, "trial_type": "mouselab-mdp", "trial_index": 15, "time_elapsed": 352450, "internal_node_id": "0.0-6.0-1.0-0.0"}}, {"uniqueid": "w77759469:a34571206", "current_trial": 16, "dateTime": 1693580467027, "trialdata": {"revealed_states": [], "clicked_states": ["14", "19", "3", "4", "25", "30"], "num_clicks_accrued": [0, 0, 0, 0, 0, 0, 0, 0, 0, 0, 0, 0, 0], "stateRewards": ["", -2, -4, 4, -11, -63, -60, -7, 2, -14, 81, -43, -1, -1, -5, 7, 10, 69, 40, 8, -83, 52, 60, 1, 2, 5, -5, 16, 64, 14, -3, 29, 7, -51], "withholdReward": false, "trial_id": "mdp_trial_2", "block": "test", "trialIndex": 5, "score": 11.5, "costs": -7.5, "simulationMode": [null, null, null, null, null], "rewards": [1, 2, 5, -5, 16], "path": ["0", "0", "23", "24", "25", "26", "27"], "rt": [9557, 12, 71, 16, 566], "actions": ["left", "left", "left", "up", "up"], "actionTimes": [11456, 11992, 12585, 13111, 14213], "queries": {"click": {"state": {"target": ["14", "19", "3", "4", "25", "30"], "time": [3387, 4620, 6187, 6770, 8072, 8638]}, "edge": {"target": [], "time": []}}, "mouseover": {"state": {"target": ["12", "19", "20", "14", "19", "5", "3", "4", "7", "2", "24", "30", "25", "30"], "time": [2391, 2439, 2507, 2792, 3806, 5860, 6060, 6607, 7155, 7175, 7240, 7307, 7942, 8438]}, "edge": {"target": [], "time": []}}, "mouseout": {"state": {"target": ["12", "12", "19", "20", "14", "19", "5", "3", "4", "7", "2", "24", "30", "25", "30"], "time": [1233, 2405, 2474, 2626, 3772, 4909, 5942, 6349, 7141, 7173, 7190, 7257, 7608, 8387, 8921]}, "edge": {"target": [], "time": []}}}, "displayed_time": "15.91", "trialTime": 17759, "trial_type": "mouselab-mdp", "trial_index": 16, "time_elapsed": 370839, "internal_node_id": "0.0-6.0-1.0-1.0"}}, {"uniqueid": "w77759469:a34571206", "current_trial": 17, "dateTime": 1693580485499, "trialdata": {"revealed_states": [], "clicked_states": ["25", "3", "14"], "num_clicks_accrued": [0, 0, 0, 0, 0, 0, 0, 0, 0, 0, 0, 0, 0], "stateRewards": ["", 1, 3, 3, -10, 52, 68, 59, 12, 7, 49, 21, -2, -3, -4, -2, -2, 63, 63, -4, 44, 43, -76, -2, -3, -6, 13, 48, 36, 12, -5, -36, -33, -11], "withholdReward": false, "trial_id": "mdp_trial_3", "block": "test", "trialIndex": 6, "score": 23.15, "costs": -2.8499999999999996, "simulationMode": [null, null, null, null, null], "rewards": [1, 3, 3, 12, 7], "path": ["0", "0", "1", "2", "3", "8", "9"], "rt": [5481, 35, 71, 26, 71], "actions": ["up", "up", "up", "left", "up"], "actionTimes": [7812, 8384, 8971, 9508, 10099], "queries": {"click": {"state": {"target": ["25", "3", "14"], "time": [3940, 4790, 6394]}, "edge": {"target": [], "time": []}}, "mouseover": {"state": {"target": ["23", "24", "25", "28", "2", "4", "3", "7", "4", "6", "14", "14", "22"], "time": [3491, 3539, 3711, 4229, 4279, 4346, 4630, 5246, 5581, 5614, 5897, 6182, 6812]}, "edge": {"target": [], "time": []}}, "mouseout": {"state": {"target": ["0", "0", "23", "24", "25", "28", "2", "4", "3", "7", "3", "4", "6", "14", "14", "14", "22"], "time": [1824, 3477, 3505, 3555, 4211, 4246, 4294, 4460, 5162, 5362, 5580, 5613, 5794, 5964, 6413, 6762, 6845]}, "edge": {"target": [], "time": []}}}, "displayed_time": "16.34", "trialTime": 17873, "trial_type": "mouselab-mdp", "trial_index": 17, "time_elapsed": 389310, "internal_node_id": "0.0-6.0-1.0-2.0"}}, {"uniqueid": "w77759469:a34571206", "current_trial": 18, "dateTime": 1693580504831, "trialdata": {"revealed_states": [], "clicked_states": ["3", "25", "14"], "num_clicks_accrued": [0, 0, 0, 0, 0, 0, 0, 0, 0, 0, 0, 0, 0], "stateRewards": ["", 1, 4, 7, -16, -84, -6, -46, -12, -7, -49, -26, -1, 2, -4, 2, 22, 37, -64, 1, 88, -13, -10, 1, -4, -2, 5, 2, -10, -34, 9, 66, 55, 38], "withholdReward": false, "trial_id": "mdp_trial_4", "block": "test", "trialIndex": 7, "score": -52.85, "costs": -2.8499999999999996, "simulationMode": [null, null, null, null, null], "rewards": [1, 4, 7, -16, -46], "path": ["0", "0", "1", "2", "3", "4", "7"], "rt": [6282, 24, 113, 35, 131], "actions": ["up", "up", "up", "right", "down"], "actionTimes": [8357, 8906, 9540, 10098, 10761], "queries": {"click": {"state": {"target": ["3", "25", "14"], "time": [4441, 6440, 7372]}, "edge": {"target": [], "time": []}}, "mouseover": {"state": {"target": ["1", "2", "3", "2", "1", "24", "25", "13", "14"], "time": [3038, 3092, 3157, 4919, 4972, 5424, 6313, 7114, 7160]}, "edge": {"target": [], "time": []}}, "mouseout": {"state": {"target": ["12", "18", "18", "0", "1", "2", "3", "2", "1", "24", "25", "13", "14", "14"], "time": [456, 489, 905, 3008, 3076, 3122, 4889, 4939, 5307, 5726, 6692, 7129, 7505, 7660]}, "edge": {"target": [], "time": []}}}, "displayed_time": "16.08", "trialTime": 18676, "trial_type": "mouselab-mdp", "trial_index": 18, "time_elapsed": 408642, "internal_node_id": "0.0-6.0-1.0-3.0"}}, {"uniqueid": "w77759469:a34571206", "current_trial": 19, "dateTime": 1693580522769, "trialdata": {"revealed_states": [], "clicked_states": ["3", "14", "25"], "num_clicks_accrued": [0, 0, 0, 0, 0, 0, 0, 0, 0, 0, 0, 0, 0], "stateRewards": ["", -1, 4, -8, 12, 14, 69, -8, 5, -72, -14, 56, -1, -1, -1, 9, 67, 19, 11, -9, -88, -58, 3, 2, -4, -8, 4, 62, 77, -74, 5, -31, 65, 88], "withholdReward": false, "trial_id": "mdp_trial_5", "block": "test", "trialIndex": 8, "score": 70.15, "costs": -2.8499999999999996, "simulationMode": [null, null, null, null, null], "rewards": [-1, -1, -1, 9, 67], "path": ["0", "0", "12", "13", "14", "15", "16"], "rt": [8197, 91, 65, 934, 98], "actions": ["right", "right", "right", "up", "up"], "actionTimes": [9748, 10351, 10925, 12378, 12992], "queries": {"click": {"state": {"target": ["3", "14", "25"], "time": [2817, 4052, 5079]}, "edge": {"target": [], "time": []}}, "mouseover": {"state": {"target": ["1", "2", "3", "4", "19", "14", "22", "30", "25", "32", "15", "14", "19", "21", "19"], "time": [2207, 2236, 2606, 3302, 3527, 3850, 4417, 4520, 4850, 5468, 8194, 8607, 8645, 8710, 9126]}, "edge": {"target": [], "time": []}}, "mouseout": {"state": {"target": ["0", "1", "2", "3", "4", "19", "14", "22", "30", "25", "25", "32", "15", "14", "19", "21"], "time": [1021, 2223, 2270, 3252, 3386, 3548, 4403, 4437, 4819, 5163, 5437, 5487, 8592, 8642, 8674, 8991]}, "edge": {"target": [], "time": []}}}, "displayed_time": "15.56", "trialTime": 17299, "trial_type": "mouselab-mdp", "trial_index": 19, "time_elapsed": 426580, "internal_node_id": "0.0-6.0-1.0-4.0"}}, {"uniqueid": "w77759469:a34571206", "current_trial": 20, "dateTime": 1693580540379, "trialdata": {"revealed_states": [], "clicked_states": ["14", "3", "25"], "num_clicks_accrued": [0, 0, 0, 0, 0, 0, 0, 0, 0, 0, 0, 0, 0], "stateRewards": ["", 1, 2, -3, -6, 50, -7, 7, -7, -80, 21, -1, 2, 2, 4, -1, 33, 84, 1, 14, -53, 81, 6, -2, -2, -3, -9, -87, -38, -59, -5, -74, -3, -71], "withholdReward": false, "trial_id": "mdp_trial_6", "block": "test", "trialIndex": 9, "score": 100.15, "costs": -2.8499999999999996, "simulationMode": [null, null, null, null, null], "rewards": [2, 2, 4, 14, 81], "path": ["0", "0", "12", "13", "14", "19", "21"], "rt": [3828, 9, 59, 376, 97], "actions": ["right", "right", "right", "down", "down"], "actionTimes": [5519, 6046, 6627, 7526, 8133], "queries": {"click": {"state": {"target": ["14", "3", "25"], "time": [2563, 3347, 4313]}, "edge": {"target": [], "time": []}}, "mouseover": {"state": {"target": ["12", "13", "14", "14", "18", "4", "3", "10", "28", "25", "25", "26", "28"], "time": [2086, 2118, 2135, 2469, 2916, 2983, 3233, 3731, 3766, 3813, 4181, 4767, 5034]}, "edge": {"target": [], "time": []}}, "mouseout": {"state": {"target": ["19", "22", "0", "12", "13", "14", "14", "18", "4", "3", "3", "10", "28", "25", "25", "26", "28"], "time": [433, 516, 1300, 2101, 2134, 2167, 2900, 2933, 3083, 3362, 3717, 3750, 3784, 4115, 4617, 5017, 5049]}, "edge": {"target": [], "time": []}}}, "displayed_time": "15.70", "trialTime": 16961, "trial_type": "mouselab-mdp", "trial_index": 20, "time_elapsed": 444190, "internal_node_id": "0.0-6.0-1.0-5.0"}}, {"uniqueid": "w77759469:a34571206", "current_trial": 21, "dateTime": 1693580557586, "trialdata": {"revealed_states": [], "clicked_states": ["14", "3", "25"], "num_clicks_accrued": [0, 0, 0, 0, 0, 0, 0, 0, 0, 0, 0, 0, 0], "stateRewards": ["", -2, -1, -3, -1, -78, -6, 2, -1, 22, -88, 32, 2, 2, -7, -8, -51, -17, 54, 2, -44, 54, 75, 2, -2, -8, -15, -29, 12, -67, 15, -1, -47, -47], "withholdReward": false, "trial_id": "mdp_trial_7", "block": "test", "trialIndex": 10, "score": -87.85, "costs": -2.8499999999999996, "simulationMode": [null, null, null, null, null], "rewards": [-2, -1, -3, -1, -78], "path": ["0", "0", "1", "2", "3", "4", "5"], "rt": [3618, 9, 35, 712, 154], "actions": ["up", "up", "up", "right", "up"], "actionTimes": [5149, 5682, 6240, 7467, 8145], "queries": {"click": {"state": {"target": ["14", "3", "25"], "time": [2730, 3437, 4149]}, "edge": {"target": [], "time": []}}, "mouseover": {"state": {"target": ["22", "19", "13", "14", "3", "24", "25", "31"], "time": [2068, 2289, 2388, 2587, 3168, 3818, 4051, 4469]}, "edge": {"target": [], "time": []}}, "mouseout": {"state": {"target": ["0", "22", "19", "13", "14", "3", "24", "25", "25", "31"], "time": [2052, 2098, 2322, 2454, 2829, 3718, 3834, 4164, 4451, 4487]}, "edge": {"target": [], "time": []}}}, "displayed_time": "15.54", "trialTime": 16527, "trial_type": "mouselab-mdp", "trial_index": 21, "time_elapsed": 461398, "internal_node_id": "0.0-6.0-1.0-6.0"}}, {"uniqueid": "w77759469:a34571206", "current_trial": 22, "dateTime": 1693580575625, "trialdata": {"revealed_states": [], "clicked_states": ["13", "1", "24", "3", "14", "25", "4", "8", "26", "30"], "num_clicks_accrued": [0, 0, 0, 0, 0, 0, 0, 0, 0, 0, 0, 0, 0], "stateRewards": ["", 2, -1, 4, -9, -43, 7, 54, -13, 38, -40, -83, -1, 2, -8, -10, 34, -33, 11, -14, -79, 65, 26, 1, 2, 4, 10, 21, 1, 86, 4, -53, 28, -29], "withholdReward": false, "trial_id": "mdp_trial_8", "block": "test", "trialIndex": 11, "score": 28.5, "costs": -9.5, "simulationMode": [null, null, null, null, null], "rewards": [1, 2, 4, 10, 21], "path": ["0", "0", "23", "24", "25", "26", "27"], "rt": [11002, 33, 67, 486, 122], "actions": ["left", "left", "left", "up", "up"], "actionTimes": [13127, 13687, 14270, 15267, 15893], "queries": {"click": {"state": {"target": ["13", "1", "24", "3", "14", "25", "4", "8", "26", "30"], "time": [3871, 4643, 5480, 7460, 8367, 9095, 9996, 10946, 11796, 12495]}, "edge": {"target": [], "time": []}}, "mouseover": {"state": {"target": ["12", "13", "12", "1", "24", "18", "7", "3", "3", "18", "14", "13", "12", "23", "25", "7", "4", "6", "4", "8", "28", "26", "30", "32", "30"], "time": [3208, 3680, 4194, 4327, 5378, 6652, 7064, 7098, 7305, 8032, 8115, 8665, 8684, 8715, 8781, 9432, 9481, 9732, 9899, 10283, 11267, 11598, 12050, 12120, 12366]}, "edge": {"target": [], "time": []}}, "mouseout": {"state": {"target": ["0", "0", "12", "13", "12", "1", "24", "18", "7", "3", "3", "18", "14", "13", "12", "23", "25", "7", "4", "6", "4", "3", "8", "28", "26", "25", "30", "32", "30"], "time": [1377, 3193, 3527, 4176, 4210, 4941, 5699, 7049, 7081, 7199, 7669, 8047, 8650, 8683, 8698, 8732, 9110, 9449, 9632, 9866, 10216, 10266, 11197, 11568, 11983, 12033, 12083, 12216, 12716]}, "edge": {"target": [], "time": []}}}, "displayed_time": "16.41", "trialTime": 17382, "trial_type": "mouselab-mdp", "trial_index": 22, "time_elapsed": 479436, "internal_node_id": "0.0-6.0-1.0-7.0"}}, {"uniqueid": "w77759469:a34571206", "current_trial": 23, "dateTime": 1693580593326, "trialdata": {"revealed_states": [], "clicked_states": ["3", "25", "14", "4", "8", "15", "19"], "num_clicks_accrued": [0, 0, 0, 0, 0, 0, 0, 0, 0, 0, 0, 0, 0], "stateRewards": ["", 1, 1, 6, -14, -40, 37, 16, -13, 33, -68, 49, 2, 4, 3, 6, 55, 27, 32, 10, -65, 20, -87, 2, 1, -6, -5, -42, 12, 29, -8, 16, 76, -33], "withholdReward": false, "trial_id": "mdp_trial_9", "block": "test", "trialIndex": 12, "score": 29.950000000000003, "costs": -9.049999999999999, "simulationMode": [null, null, null, null, null], "rewards": [2, 4, 3, 10, 20], "path": ["0", "0", "12", "13", "14", "19", "21"], "rt": [7684, 620, 180, 89, 132], "actions": ["right", "right", "right", "down", "down"], "actionTimes": [9911, 11056, 11747, 12359, 12987], "queries": {"click": {"state": {"target": ["3", "25", "14", "4", "8", "15", "19"], "time": [2960, 3926, 4806, 5609, 6211, 8274, 9013]}, "edge": {"target": [], "time": []}}, "mouseover": {"state": {"target": ["0", "1", "2", "3", "3", "10", "28", "25", "24", "23", "0", "12", "13", "14", "4", "8", "18", "15", "14", "19"], "time": [2414, 2562, 2596, 2629, 2797, 3429, 3476, 3813, 4114, 4147, 4163, 4181, 4227, 4693, 5446, 5947, 7211, 8167, 8634, 8850]}, "edge": {"target": [], "time": []}}, "mouseout": {"state": {"target": ["21", "0", "0", "1", "2", "3", "3", "10", "28", "25", "24", "23", "0", "12", "13", "14", "3", "4", "3", "8", "8", "18", "15", "14", "19", "19"], "time": [496, 1697, 2548, 2579, 2613, 2681, 3176, 3463, 3509, 4113, 4146, 4161, 4180, 4193, 4496, 5045, 5145, 5861, 5929, 6830, 7026, 7230, 8567, 8716, 9028, 9350]}, "edge": {"target": [], "time": []}}}, "displayed_time": "16.23", "trialTime": 17073, "trial_type": "mouselab-mdp", "trial_index": 23, "time_elapsed": 497137, "internal_node_id": "0.0-6.0-1.0-8.0"}}, {"uniqueid": "w77759469:a34571206", "current_trial": 24, "dateTime": 1693580610063, "trialdata": {"revealed_states": [], "clicked_states": ["14", "25", "3", "15", "19", "30", "26"], "num_clicks_accrued": [0, 0, 0, 0, 0, 0, 0, 0, 0, 0, 0, 0, 0], "stateRewards": ["", 2, -4, -8, -15, 71, -43, -41, 7, -17, 20, 67, -1, -1, -4, 6, 37, -24, -47, 9, 34, 57, 45, 1, 2, -4, -5, -23, 88, -5, 13, -40, 43, 44], "withholdReward": false, "trial_id": "mdp_trial_10", "block": "test", "trialIndex": 13, "score": 45.95, "costs": -9.049999999999999, "simulationMode": [null, null, null, null, null], "rewards": [1, 2, -4, 13, 43], "path": ["0", "0", "23", "24", "25", "30", "32"], "rt": [7109, 58, 87, 62, 141], "actions": ["left", "left", "left", "down", "down"], "actionTimes": [8519, 9090, 9705, 10269, 10932], "queries": {"click": {"state": {"target": ["14", "25", "3", "15", "19", "30", "26"], "time": [2247, 3011, 3678, 4712, 5382, 6330, 7078]}, "edge": {"target": [], "time": []}}, "mouseover": {"state": {"target": ["12", "13", "14", "14", "13", "12", "23", "24", "25", "28", "10", "3", "3", "2", "7", "15", "19", "22", "31", "30", "30", "26", "25", "24"], "time": [1804, 1821, 1848, 2033, 2547, 2570, 2602, 2648, 2914, 3263, 3299, 3349, 3466, 3982, 4132, 4466, 5150, 5683, 5783, 5801, 6217, 6863, 7397, 7480]}, "edge": {"target": [], "time": []}}, "mouseout": {"state": {"target": ["0", "12", "13", "14", "14", "13", "12", "23", "24", "25", "28", "10", "3", "3", "2", "7", "15", "15", "14", "19", "22", "31", "30", "30", "26", "25", "24"], "time": [1801, 1819, 1834, 1882, 2532, 2569, 2588, 2631, 2698, 3231, 3282, 3315, 3415, 3949, 4004, 4182, 4877, 5046, 5116, 5650, 5717, 5800, 5838, 6564, 7363, 7417, 7497]}, "edge": {"target": [], "time": []}}}, "displayed_time": "15.41", "trialTime": 16071, "trial_type": "mouselab-mdp", "trial_index": 24, "time_elapsed": 513874, "internal_node_id": "0.0-6.0-1.0-9.0"}}, {"uniqueid": "w77759469:a34571206", "current_trial": 25, "dateTime": 1693580627401, "trialdata": {"revealed_states": [], "clicked_states": ["25", "3", "14", "30", "26"], "num_clicks_accrued": [0, 0, 0, 0, 0, 0, 0, 0, 0, 0, 0, 0, 0], "stateRewards": ["", 1, -2, -3, 14, -42, -87, -37, -11, -50, 33, -44, -2, 4, -7, 13, 48, -75, -66, 12, 23, -2, 82, 1, -4, 3, 12, 51, -15, -26, -11, -52, -29, 82], "withholdReward": false, "trial_id": "mdp_trial_11", "block": "test", "trialIndex": 14, "score": 57.05, "costs": -5.949999999999999, "simulationMode": [null, null, null, null, null], "rewards": [1, -4, 3, 12, 51], "path": ["0", "0", "23", "24", "25", "26", "27"], "rt": [5551, 571, 176, 171, 67], "actions": ["left", "left", "left", "up", "up"], "actionTimes": [6976, 8075, 8758, 9439, 10035], "queries": {"click": {"state": {"target": ["25", "3", "14", "30", "26"], "time": [3074, 3879, 4714, 5545, 6163]}, "edge": {"target": [], "time": []}}, "mouseover": {"state": {"target": ["24", "25", "28", "8", "3", "7", "13", "14", "13", "31", "30", "26", "24"], "time": [2559, 2838, 3416, 3532, 3698, 4148, 4216, 4617, 5101, 5183, 5221, 5849, 6616]}, "edge": {"target": [], "time": []}}, "mouseout": {"state": {"target": ["17", "14", "22", "0", "0", "24", "25", "28", "8", "3", "7", "13", "14", "13", "31", "30", "25", "26", "24"], "time": [128, 162, 175, 713, 2163, 2576, 3368, 3451, 3650, 4132, 4167, 4250, 5100, 5116, 5200, 5766, 5817, 6567, 6650]}, "edge": {"target": [], "time": []}}}, "displayed_time": "15.43", "trialTime": 16714, "trial_type": "mouselab-mdp", "trial_index": 25, "time_elapsed": 531213, "internal_node_id": "0.0-6.0-1.0-10.0"}}, {"uniqueid": "w77759469:a34571206", "current_trial": 26, "dateTime": 1693580644663, "trialdata": {"revealed_states": [], "clicked_states": ["25", "3", "14", "26", "30"], "num_clicks_accrued": [0, 0, 0, 0, 0, 0, 0, 0, 0, 0, 0, 0, 0], "stateRewards": ["", -1, 2, -2, 13, -56, -28, 10, 14, 53, -80, -29, 1, -3, -3, -14, 14, 9, -40, -9, 18, 18, 48, 1, 1, 1, -9, 64, -39, -9, 7, -52, -78, 7], "withholdReward": false, "trial_id": "mdp_trial_12", "block": "test", "trialIndex": 15, "score": 11.05, "costs": -5.949999999999999, "simulationMode": [null, null, null, null, null], "rewards": [1, 1, 1, 7, 7], "path": ["0", "0", "23", "24", "25", "30", "33"], "rt": [5255, 39, 104, 475, 186], "actions": ["left", "left", "left", "down", "left"], "actionTimes": [6629, 7192, 7803, 8792, 9488], "queries": {"click": {"state": {"target": ["25", "3", "14", "26", "30"], "time": [1909, 2772, 3820, 5028, 5639]}, "edge": {"target": [], "time": []}}, "mouseover": {"state": {"target": ["23", "24", "25", "28", "8", "3", "7", "18", "14", "14", "13", "13", "12", "23", "26", "25", "30", "30"], "time": [1401, 1440, 1645, 2260, 2428, 2528, 3361, 3378, 3414, 3709, 4377, 4644, 4676, 4708, 4779, 5276, 5295, 5476]}, "edge": {"target": [], "time": []}}, "mouseout": {"state": {"target": ["0", "23", "24", "25", "28", "8", "3", "7", "18", "14", "14", "13", "13", "12", "23", "26", "25", "30", "30"], "time": [1400, 1426, 1478, 2175, 2357, 2457, 3342, 3375, 3397, 3441, 4324, 4408, 4675, 4690, 4728, 5227, 5293, 5357, 5959]}, "edge": {"target": [], "time": []}}}, "displayed_time": "15.38", "trialTime": 16580, "trial_type": "mouselab-mdp", "trial_index": 26, "time_elapsed": 548474, "internal_node_id": "0.0-6.0-1.0-11.0"}}, {"uniqueid": "w77759469:a34571206", "current_trial": 27, "dateTime": 1693580661342, "trialdata": {"revealed_states": [], "clicked_states": ["14", "3", "25", "19", "15", "17"], "num_clicks_accrued": [0, 0, 0, 0, 0, 0, 0, 0, 0, 0, 0, 0, 0], "stateRewards": ["", 1, -2, -8, -3, 31, -84, -55, -14, 15, -58, 17, -2, -3, 7, 7, -12, 48, 67, 4, -44, -68, 46, 2, 3, -5, -7, 76, 27, 5, 11, 57, 52, 59], "withholdReward": false, "trial_id": "mdp_trial_13", "block": "test", "trialIndex": 16, "score": 48.9, "costs": -8.1, "simulationMode": [null, null, null, null, null], "rewards": [-2, -3, 7, 7, 48], "path": ["0", "0", "12", "13", "14", "15", "17"], "rt": [9203, 80, 102, 246, 506], "actions": ["right", "right", "right", "up", "right"], "actionTimes": [10320, 10912, 11536, 12298, 13324], "queries": {"click": {"state": {"target": ["14", "3", "25", "19", "15", "17"], "time": [2074, 3040, 3791, 4625, 5520, 6356]}, "edge": {"target": [], "time": []}}, "mouseover": {"state": {"target": ["0", "12", "14", "14", "15", "6", "4", "3", "28", "25", "24", "23", "19", "20", "19", "15", "15", "17", "17", "17", "18", "16", "18", "18"], "time": [1295, 1361, 1611, 1944, 2344, 2411, 2493, 2893, 3395, 3444, 4111, 4127, 4180, 4208, 4511, 4993, 5259, 5793, 5957, 6261, 6728, 6994, 8493, 9733]}, "edge": {"target": [], "time": []}}, "mouseout": {"state": {"target": ["31", "12", "0", "0", "12", "14", "14", "15", "6", "4", "3", "28", "25", "24", "23", "19", "20", "19", "14", "15", "15", "17", "17", "17", "18", "16", "18", "18", "12"], "time": [142, 360, 711, 1326, 1394, 1644, 2220, 2360, 2442, 2610, 3056, 3410, 3894, 4126, 4144, 4193, 4227, 4641, 4977, 5047, 5758, 5908, 6063, 6521, 6761, 8161, 9416, 14653, 14669]}, "edge": {"target": [], "time": []}}}, "displayed_time": "15.13", "trialTime": 15998, "trial_type": "mouselab-mdp", "trial_index": 27, "time_elapsed": 565154, "internal_node_id": "0.0-6.0-1.0-12.0"}}, {"uniqueid": "w77759469:a34571206", "current_trial": 28, "dateTime": 1693580678608, "trialdata": {"revealed_states": [], "clicked_states": ["14", "25", "3", "8", "4", "9"], "num_clicks_accrued": [0, 0, 0, 0, 0, 0, 0, 0, 0, 0, 0, 0, 0], "stateRewards": ["", -2, -4, -2, -13, -15, 87, -19, -6, -80, 30, 12, 1, 1, -8, 2, 55, 56, 15, 11, -68, -7, 55, -2, 3, -3, -3, 48, 62, 4, 1, -3, 69, -33], "withholdReward": false, "trial_id": "mdp_trial_14", "block": "test", "trialIndex": 17, "score": 7.899999999999999, "costs": -8.1, "simulationMode": [null, null, null, null, null], "rewards": [-2, -4, -2, -6, 30], "path": ["0", "0", "1", "2", "3", "8", "10"], "rt": [9899, 464, 145, 179, 395], "actions": ["up", "up", "up", "left", "down"], "actionTimes": [11438, 12426, 13076, 13762, 14679], "queries": {"click": {"state": {"target": ["14", "25", "3", "8", "4", "9"], "time": [2638, 3723, 4489, 5455, 6206, 7438]}, "edge": {"target": [], "time": []}}, "mouseover": {"state": {"target": ["12", "13", "14", "15", "0", "23", "28", "24", "25", "28", "10", "2", "3", "10", "28", "8", "4", "4", "6", "9", "9", "11", "10"], "time": [2191, 2255, 2471, 2974, 3207, 3241, 3394, 3461, 3541, 4044, 4091, 4125, 4325, 4942, 5024, 5208, 5830, 6059, 6478, 7276, 7412, 8225, 8942]}, "edge": {"target": [], "time": []}}, "mouseout": {"state": {"target": ["0", "12", "13", "14", "15", "0", "23", "28", "24", "25", "28", "10", "2", "3", "10", "28", "8", "3", "4", "4", "6", "9", "9", "9", "11", "10", "10"], "time": [1639, 2208, 2438, 2746, 3074, 3225, 3259, 3407, 3474, 3994, 4058, 4108, 4175, 4908, 4959, 5128, 5776, 5810, 5875, 6429, 6826, 7290, 7455, 8177, 8895, 16318, 16351]}, "edge": {"target": [], "time": []}}}, "displayed_time": "15.55", "trialTime": 16601, "trial_type": "mouselab-mdp", "trial_index": 28, "time_elapsed": 582420, "internal_node_id": "0.0-6.0-1.0-13.0"}}, {"uniqueid": "w77759469:a34571206", "current_trial": 29, "dateTime": 1693580695420, "trialdata": {"revealed_states": [], "clicked_states": ["14", "25", "3", "15", "19", "22"], "num_clicks_accrued": [0, 0, 0, 0, 0, 0, 0, 0, 0, 0, 0, 0, 0], "stateRewards": ["", -2, 3, -5, -7, 66, 43, -60, -4, -70, -75, 4, -1, 2, 2, -13, 54, 11, -40, -1, 77, 32, 15, -2, 3, -8, -9, -35, 83, -27, 6, -74, -34, 44], "withholdReward": false, "trial_id": "mdp_trial_15", "block": "test", "trialIndex": 18, "score": 8.9, "costs": -8.1, "simulationMode": [null, null, null, null, null], "rewards": [-1, 2, 2, -1, 15], "path": ["0", "0", "12", "13", "14", "19", "22"], "rt": [10140, 139, 140, 193, 283], "actions": ["right", "right", "right", "down", "left"], "actionTimes": [11515, 12170, 12819, 13522, 14326], "queries": {"click": {"state": {"target": ["14", "25", "3", "15", "19", "22"], "time": [2704, 4271, 5115, 6239, 7139, 8133]}, "edge": {"target": [], "time": []}}, "mouseover": {"state": {"target": ["0", "12", "13", "14", "15", "7", "18", "24", "25", "28", "10", "3", "3", "4", "6", "18", "15", "14", "19", "19", "22", "21"], "time": [2257, 2303, 2335, 2386, 3236, 3702, 3854, 3956, 4023, 4670, 4703, 4735, 4988, 5389, 5436, 5773, 6041, 6808, 6842, 6992, 7708, 8625]}, "edge": {"target": [], "time": []}}, "mouseout": {"state": {"target": ["23", "0", "12", "13", "14", "15", "7", "18", "24", "25", "28", "10", "3", "3", "4", "6", "18", "15", "15", "14", "19", "19", "22", "21"], "time": [638, 2272, 2319, 2351, 3170, 3591, 3736, 3870, 3972, 4635, 4686, 4718, 4770, 5246, 5419, 5523, 5862, 6260, 6791, 6824, 6895, 7608, 8542, 8659]}, "edge": {"target": [], "time": []}}}, "displayed_time": "15.38", "trialTime": 16134, "trial_type": "mouselab-mdp", "trial_index": 29, "time_elapsed": 599232, "internal_node_id": "0.0-6.0-1.0-14.0"}}, {"uniqueid": "w77759469:a34571206", "current_trial": 30, "dateTime": 1693580713198, "trialdata": {"revealed_states": [], "clicked_states": ["14", "3", "25", "19", "15"], "num_clicks_accrued": [0, 0, 0, 0, 0, 0, 0, 0, 0, 0, 0, 0, 0], "stateRewards": ["", -2, 2, -5, -6, 10, -66, -58, -10, -11, -63, -70, -1, -4, -5, 7, 66, -64, -43, -3, 45, -37, 4, -2, -2, -6, -4, -30, 33, 43, 15, -32, -65, -59], "withholdReward": false, "trial_id": "mdp_trial_16", "block": "test", "trialIndex": 19, "score": -72.95, "costs": -5.949999999999999, "simulationMode": [null, null, null, null, null], "rewards": [-1, -4, -5, 7, -64], "path": ["0", "0", "12", "13", "14", "15", "17"], "rt": [5795, 452, 199, 113, 99], "actions": ["right", "right", "right", "up", "right"], "actionTimes": [7909, 8883, 9594, 10215, 10834], "queries": {"click": {"state": {"target": ["14", "3", "25", "19", "15"], "time": [3226, 3992, 4756, 6662, 7276]}, "edge": {"target": [], "time": []}}, "mouseover": {"state": {"target": ["1", "2", "3", "2", "12", "13", "14", "18", "7", "3", "10", "24", "25", "30", "22", "19", "14", "15", "15", "16"], "time": [2346, 2379, 2412, 2563, 2697, 2979, 3026, 3562, 3595, 3779, 4329, 4396, 4609, 5005, 5963, 6243, 6877, 6944, 7076, 7782]}, "edge": {"target": [], "time": []}}, "mouseout": {"state": {"target": ["12", "12", "0", "1", "2", "3", "2", "12", "13", "14", "18", "7", "3", "10", "24", "25", "25", "30", "22", "19", "14", "15", "15", "16", "0"], "time": [896, 1027, 2314, 2359, 2394, 2547, 2612, 2947, 3013, 3545, 3578, 3612, 4295, 4345, 4429, 4772, 4985, 5021, 6215, 6849, 6909, 7017, 7712, 7794, 16802]}, "edge": {"target": [], "time": []}}}, "displayed_time": "16.13", "trialTime": 17124, "trial_type": "mouselab-mdp", "trial_index": 30, "time_elapsed": 617009, "internal_node_id": "0.0-6.0-1.0-15.0"}}, {"uniqueid": "w77759469:a34571206", "current_trial": 31, "dateTime": 1693580730472, "trialdata": {"revealed_states": [], "clicked_states": ["14", "3", "25", "15", "19", "18"], "num_clicks_accrued": [0, 0, 0, 0, 0, 0, 0, 0, 0, 0, 0, 0, 0], "stateRewards": ["", -2, -2, -3, -6, -15, -11, 41, -12, -63, -76, 2, -2, -3, 8, 9, -36, -2, -18, -16, -32, -85, -17, -2, 1, 5, -16, 82, 35, -88, -1, 80, -82, -20], "withholdReward": false, "trial_id": "mdp_trial_17", "block": "test", "trialIndex": 20, "score": -32.1, "costs": -8.1, "simulationMode": [null, null, null, null, null], "rewards": [-2, -3, 8, 9, -36], "path": ["0", "0", "12", "13", "14", "15", "16"], "rt": [9332, 25, 157, 67, 122], "actions": ["right", "right", "right", "up", "up"], "actionTimes": [10952, 11496, 12163, 12743, 13379], "queries": {"click": {"state": {"target": ["14", "3", "25", "15", "19", "18"], "time": [2381, 3496, 4796, 5899, 6637, 7595]}, "edge": {"target": [], "time": []}}, "mouseover": {"state": {"target": ["13", "14", "7", "3", "3", "25", "25", "25", "24", "17", "15", "14", "19", "21", "14", "16", "18"], "time": [2168, 2217, 2782, 2815, 3383, 3899, 4200, 4651, 5134, 5634, 5750, 6201, 6512, 7001, 7118, 7383, 7517]}, "edge": {"target": [], "time": []}}, "mouseout": {"state": {"target": ["0", "13", "14", "7", "3", "3", "25", "25", "25", "24", "14", "17", "15", "14", "19", "21", "19", "14", "15", "16", "18"], "time": [1785, 2185, 2735, 2799, 2865, 3517, 3935, 4249, 5116, 5149, 5333, 5700, 6167, 6217, 6934, 7068, 7100, 7132, 7188, 7414, 7611]}, "edge": {"target": [], "time": []}}}, "displayed_time": "15.63", "trialTime": 16576, "trial_type": "mouselab-mdp", "trial_index": 31, "time_elapsed": 634283, "internal_node_id": "0.0-6.0-1.0-16.0"}}, {"uniqueid": "w77759469:a34571206", "current_trial": 32, "dateTime": 1693580754500, "trialdata": {"revealed_states": [], "clicked_states": ["14", "25", "3", "15", "19", "22", "21", "20"], "num_clicks_accrued": [0, 0, 0, 0, 0, 0, 0, 0, 0, 0, 0, 0, 0], "stateRewards": ["", -1, 1, -6, -1, 80, 23, 2, -11, 73, -81, 59, 1, 3, 5, -1, -26, 28, -3, 16, -59, -13, -50, -2, -2, 2, 15, -50, 86, 17, -4, 37, 35, 44], "withholdReward": false, "trial_id": "mdp_trial_18", "block": "test", "trialIndex": 21, "score": -49.4, "costs": -12.4, "simulationMode": [null, null, null, null, null], "rewards": [-2, -2, 2, 15, -50], "path": ["0", "0", "23", "24", "25", "26", "27"], "rt": [17645, 94, 101, 513, 101], "actions": ["left", "left", "left", "up", "up"], "actionTimes": [18817, 19437, 20055, 21085, 21707], "queries": {"click": {"state": {"target": ["14", "25", "3", "15", "19", "22", "21", "20"], "time": [2956, 3602, 4403, 5435, 6858, 7592, 11614, 14815]}, "edge": {"target": [], "time": []}}, "mouseover": {"state": {"target": ["0", "1", "2", "7", "13", "14", "14", "13", "12", "24", "25", "28", "10", "3", "4", "15", "19", "22", "21", "20", "20"], "time": [1239, 1924, 1960, 2076, 2194, 2293, 2860, 3155, 3176, 3259, 3321, 3923, 3974, 4272, 5028, 5195, 6698, 7363, 8145, 12112, 13294]}, "edge": {"target": [], "time": []}}, "mouseout": {"state": {"target": ["0", "0", "1", "2", "7", "13", "14", "14", "13", "12", "24", "25", "28", "10", "3", "4", "15", "14", "19", "22", "22", "21", "20", "20"], "time": [642, 1860, 1959, 1990, 2105, 2276, 2378, 3142, 3175, 3189, 3275, 3874, 3954, 3995, 4961, 5078, 5729, 6079, 7212, 7764, 8112, 11633, 12179, 15149]}, "edge": {"target": [], "time": []}}}, "displayed_time": "22.22", "trialTime": 23371, "trial_type": "mouselab-mdp", "trial_index": 32, "time_elapsed": 658312, "internal_node_id": "0.0-6.0-1.0-17.0"}}, {"uniqueid": "w77759469:a34571206", "current_trial": 33, "dateTime": 1693580771837, "trialdata": {"revealed_states": [], "clicked_states": ["14", "3", "25", "30", "26", "31"], "num_clicks_accrued": [0, 0, 0, 0, 0, 0, 0, 0, 0, 0, 0, 0, 0], "stateRewards": ["", 1, 2, -8, 9, 18, -83, -11, 6, -64, -48, 17, -2, -2, -5, -3, -24, -3, -86, -2, 48, -41, -22, -2, 4, 7, 8, 81, 13, -48, 10, 61, 19, 57], "withholdReward": false, "trial_id": "mdp_trial_19", "block": "test", "trialIndex": 22, "score": 71.9, "costs": -8.1, "simulationMode": [null, null, null, null, null], "rewards": [-2, 4, 7, 10, 61], "path": ["0", "0", "23", "24", "25", "30", "31"], "rt": [9618, 11, 52, 112, 120], "actions": ["left", "left", "left", "down", "right"], "actionTimes": [11439, 11971, 12546, 13191, 13834], "queries": {"click": {"state": {"target": ["14", "3", "25", "30", "26", "31"], "time": [3785, 4503, 5319, 6052, 6802, 7867]}, "edge": {"target": [], "time": []}}, "mouseover": {"state": {"target": ["12", "13", "14", "7", "3", "10", "30", "25", "30", "26", "28", "24", "32", "32", "31", "32"], "time": [2624, 3372, 3705, 4138, 4224, 4838, 4921, 5172, 5905, 6539, 7123, 7323, 7372, 7570, 7739, 8453]}, "edge": {"target": [], "time": []}}, "mouseout": {"state": {"target": ["0", "0", "12", "13", "14", "7", "3", "10", "30", "25", "30", "25", "26", "28", "24", "32", "32", "31"], "time": [1171, 2607, 3339, 3405, 4071, 4155, 4822, 4856, 5105, 5872, 6438, 6487, 7087, 7321, 7340, 7391, 7587, 8255]}, "edge": {"target": [], "time": []}}}, "displayed_time": "15.83", "trialTime": 16671, "trial_type": "mouselab-mdp", "trial_index": 33, "time_elapsed": 675649, "internal_node_id": "0.0-6.0-1.0-18.0"}}, {"uniqueid": "w77759469:a34571206", "current_trial": 34, "dateTime": 1693580789814, "trialdata": {"revealed_states": [], "clicked_states": ["25", "14", "3", "4", "8", "5"], "num_clicks_accrued": [0, 0, 0, 0, 0, 0, 0, 0, 0, 0, 0, 0, 0], "stateRewards": ["", -2, -3, -3, 9, 79, 67, 22, -15, -56, 27, -85, -2, 4, -4, -15, -20, -32, 60, 15, 71, 57, 17, 1, 2, -8, 15, -37, -81, 82, 15, 21, -3, 2], "withholdReward": false, "trial_id": "mdp_trial_20", "block": "test", "trialIndex": 23, "score": 71.9, "costs": -8.1, "simulationMode": [null, null, null, null, null], "rewards": [-2, -3, -3, 9, 79], "path": ["0", "0", "1", "2", "3", "4", "5"], "rt": [7914, 67, 20, 616, 218], "actions": ["up", "up", "up", "right", "up"], "actionTimes": [10422, 10998, 11533, 12678, 13415], "queries": {"click": {"state": {"target": ["25", "14", "3", "4", "8", "5"], "time": [3326, 4043, 4808, 5661, 6341, 7208]}, "edge": {"target": [], "time": []}}, "mouseover": {"state": {"target": ["0", "23", "24", "25", "23", "12", "13", "14", "18", "7", "3", "4", "4", "8", "6", "5", "1", "23"], "time": [2958, 3024, 3055, 3125, 3614, 3665, 3693, 3928, 4260, 4329, 4662, 5146, 5526, 6195, 6928, 7069, 7594, 7629]}, "edge": {"target": [], "time": []}}, "mouseout": {"state": {"target": ["32", "0", "12", "0", "0", "23", "24", "25", "23", "12", "13", "14", "18", "7", "3", "4", "4", "3", "8", "3", "4", "6", "5", "5", "1", "23"], "time": [1724, 1791, 2025, 2707, 3009, 3038, 3089, 3560, 3633, 3680, 3763, 4229, 4294, 4362, 5127, 5178, 6110, 6177, 6779, 6828, 6879, 6978, 7224, 7529, 7613, 7645]}, "edge": {"target": [], "time": []}}}, "displayed_time": "16.52", "trialTime": 17310, "trial_type": "mouselab-mdp", "trial_index": 34, "time_elapsed": 693625, "internal_node_id": "0.0-6.0-1.0-19.0"}}, {"uniqueid": "w77759469:a34571206", "current_trial": 35, "dateTime": 1693580806540, "trialdata": {"revealed_states": [], "clicked_states": ["14", "3", "25"], "num_clicks_accrued": [0, 0, 0, 0, 0, 0, 0, 0, 0, 0, 0, 0, 0], "stateRewards": ["", -2, 2, 3, -7, -31, -33, 29, -8, -57, 50, -83, -1, -1, 5, 13, -23, -62, 25, 5, -66, -85, 14, 1, -2, -1, 16, 71, 33, -19, -14, 5, -43, 79], "withholdReward": false, "trial_id": "mdp_trial_21", "block": "test", "trialIndex": 24, "score": -79.85, "costs": -2.8499999999999996, "simulationMode": [null, null, null, null, null], "rewards": [-1, -1, 5, 5, -85], "path": ["0", "0", "12", "13", "14", "19", "21"], "rt": [3076, 68, 78, 18, 85], "actions": ["right", "right", "right", "down", "down"], "actionTimes": [4282, 4874, 5464, 5977, 6596], "queries": {"click": {"state": {"target": ["14", "3", "25"], "time": [1884, 2817, 3568]}, "edge": {"target": [], "time": []}}, "mouseover": {"state": {"target": ["12", "13", "14", "18", "7", "3", "10", "28", "25"], "time": [1471, 1518, 1572, 2368, 2402, 2686, 3190, 3224, 3337]}, "edge": {"target": [], "time": []}}, "mouseout": {"state": {"target": ["0", "12", "13", "14", "18", "7", "3", "10", "28", "25"], "time": [1320, 1487, 1534, 1903, 2387, 2437, 3176, 3209, 3237, 3987]}, "edge": {"target": [], "time": []}}}, "displayed_time": "15.22", "trialTime": 16072, "trial_type": "mouselab-mdp", "trial_index": 35, "time_elapsed": 710351, "internal_node_id": "0.0-6.0-1.0-20.0"}}, {"uniqueid": "w77759469:a34571206", "current_trial": 36, "dateTime": 1693580825147, "trialdata": {"revealed_states": [], "clicked_states": ["14", "3", "25", "4", "8", "11"], "num_clicks_accrued": [0, 0, 0, 0, 0, 0, 0, 0, 0, 0, 0, 0, 0], "stateRewards": ["", -1, 1, -2, 5, 73, 15, 61, 8, 7, 38, 76, 2, 2, -4, -6, -6, -26, 43, -5, -45, -85, -35, -2, 1, -4, 15, -10, 69, 72, -11, 84, -49, -38], "withholdReward": false, "trial_id": "mdp_trial_22", "block": "test", "trialIndex": 25, "score": 73.9, "costs": -8.1, "simulationMode": [null, null, null, null, null], "rewards": [-1, 1, -2, 8, 76], "path": ["0", "0", "1", "2", "3", "8", "11"], "rt": [10787, 136, 151, 415, 297], "actions": ["up", "up", "up", "left", "left"], "actionTimes": [12057, 12708, 13372, 14285, 15120], "queries": {"click": {"state": {"target": ["14", "3", "25", "4", "8", "11"], "time": [2492, 3330, 4081, 5262, 5877, 6977]}, "edge": {"target": [], "time": []}}, "mouseover": {"state": {"target": ["13", "14", "3", "3", "10", "28", "25", "28", "10", "4", "4", "8", "11", "11", "10"], "time": [1997, 2331, 2913, 3213, 3580, 3630, 3996, 4635, 4780, 4880, 5149, 5712, 6413, 6885, 7329]}, "edge": {"target": [], "time": []}}, "mouseout": {"state": {"target": ["24", "0", "13", "14", "3", "3", "10", "28", "25", "28", "10", "3", "4", "4", "3", "8", "11", "11", "10"], "time": [412, 1781, 2030, 2818, 2929, 3547, 3596, 3663, 4097, 4730, 4796, 4847, 4896, 5509, 5613, 6084, 6479, 7279, 10703]}, "edge": {"target": [], "time": []}}}, "displayed_time": "15.64", "trialTime": 17927, "trial_type": "mouselab-mdp", "trial_index": 36, "time_elapsed": 728959, "internal_node_id": "0.0-6.0-1.0-21.0"}}, {"uniqueid": "w77759469:a34571206", "current_trial": 37, "dateTime": 1693580845193, "trialdata": {"revealed_states": [], "clicked_states": ["14", "3", "25", "4", "8", "26", "30", "15", "19", "32"], "num_clicks_accrued": [0, 0, 0, 0, 0, 0, 0, 0, 0, 0, 0, 0, 0], "stateRewards": ["", 2, 2, 3, -15, 23, -14, 73, -7, -32, -20, -6, 1, 1, -5, -12, 73, 6, -84, 11, -81, -57, 13, -2, -1, -4, -8, -52, -58, 49, 13, 5, -41, -41], "withholdReward": false, "trial_id": "mdp_trial_23", "block": "test", "trialIndex": 26, "score": -49.3, "costs": -14.3, "simulationMode": [null, null, null, null, null], "rewards": [-2, -1, -4, 13, -41], "path": ["0", "0", "23", "24", "25", "30", "33"], "rt": [13008, 120, 98, 83, 206], "actions": ["left", "left", "left", "down", "left"], "actionTimes": [14425, 15075, 15685, 16288, 17014], "queries": {"click": {"state": {"target": ["14", "3", "25", "4", "8", "26", "30", "15", "19", "32"], "time": [2260, 3160, 3932, 4699, 5644, 7927, 8527, 9412, 9925, 11097]}, "edge": {"target": [], "time": []}}, "mouseover": {"state": {"target": ["0", "12", "13", "14", "13", "7", "2", "3", "10", "28", "25", "2", "4", "8", "8", "11", "26", "26", "25", "30", "31", "12", "13", "15", "14", "19", "22", "32", "31"], "time": [1433, 1913, 1962, 2029, 2563, 2663, 2828, 3015, 3550, 3579, 3796, 4313, 4447, 5266, 5514, 6614, 7249, 7797, 8246, 8279, 8864, 8916, 8946, 9280, 9612, 9686, 10244, 10885, 11400]}, "edge": {"target": [], "time": []}}, "mouseout": {"state": {"target": ["0", "23", "0", "12", "13", "14", "13", "7", "2", "3", "10", "28", "25", "2", "4", "4", "4", "3", "8", "8", "8", "11", "26", "26", "26", "25", "30", "31", "12", "13", "15", "14", "19", "19", "22", "32", "32", "31"], "time": [694, 742, 1868, 1947, 1979, 2530, 2580, 2745, 2913, 3501, 3565, 3645, 4214, 4329, 4716, 4982, 5197, 5234, 5292, 5951, 6231, 6746, 7266, 7947, 8230, 8263, 8845, 8880, 8945, 8963, 9578, 9632, 10094, 10203, 10261, 11117, 11318, 11418]}, "edge": {"target": [], "time": []}}}, "displayed_time": "17.52", "trialTime": 19345, "trial_type": "mouselab-mdp", "trial_index": 37, "time_elapsed": 749005, "internal_node_id": "0.0-6.0-1.0-22.0"}}, {"uniqueid": "w77759469:a34571206", "current_trial": 38, "dateTime": 1693580863647, "trialdata": {"revealed_states": [], "clicked_states": ["3", "25", "14", "26", "30", "31"], "num_clicks_accrued": [0, 0, 0, 0, 0, 0, 0, 0, 0, 0, 0, 0, 0], "stateRewards": ["", 2, 4, 4, 9, -88, -10, 44, 16, -54, 64, 78, 1, 2, 5, 16, 80, 36, 7, -4, 9, -47, -70, -1, -3, 6, -16, 11, 80, 28, 8, -1, 34, -17], "withholdReward": false, "trial_id": "mdp_trial_24", "block": "test", "trialIndex": 27, "score": -15.1, "costs": -8.1, "simulationMode": [null, null, null, null, null], "rewards": [-1, -3, 6, 8, -17], "path": ["0", "0", "23", "24", "25", "30", "33"], "rt": [7854, 131, 122, 71, 205], "actions": ["left", "left", "left", "down", "left"], "actionTimes": [10886, 11535, 12178, 12749, 13464], "queries": {"click": {"state": {"target": ["3", "25", "14", "26", "30", "31"], "time": [3751, 4416, 5133, 6083, 6700, 7735]}, "edge": {"target": [], "time": []}}, "mouseover": {"state": {"target": ["1", "2", "3", "3", "10", "28", "25", "24", "23", "14", "13", "26", "26", "30", "31", "31"], "time": [3067, 3104, 3323, 3620, 4052, 4086, 4141, 4719, 4737, 4841, 5451, 5769, 5969, 6452, 7111, 7586]}, "edge": {"target": [], "time": []}}, "mouseout": {"state": {"target": ["0", "1", "2", "3", "3", "10", "28", "25", "24", "23", "14", "13", "26", "26", "25", "30", "31", "31"], "time": [3049, 3102, 3134, 3386, 4035, 4068, 4100, 4702, 4736, 4754, 5437, 5469, 5836, 6369, 6419, 7092, 7220, 7953]}, "edge": {"target": [], "time": []}}}, "displayed_time": "17.04", "trialTime": 17759, "trial_type": "mouselab-mdp", "trial_index": 38, "time_elapsed": 767458, "internal_node_id": "0.0-6.0-1.0-23.0"}}, {"uniqueid": "w77759469:a34571206", "current_trial": 39, "dateTime": 1693580880830, "trialdata": {"revealed_states": [], "clicked_states": ["14", "3", "25", "15", "19", "22"], "num_clicks_accrued": [0, 0, 0, 0, 0, 0, 0, 0, 0, 0, 0, 0, 0], "stateRewards": ["", -2, -1, -6, -14, -55, 78, -13, 11, 14, -71, 59, 2, 2, 6, -6, 9, 38, 14, 7, 85, 11, 68, 1, -4, -1, -3, -63, -85, 9, -2, 63, -86, -10], "withholdReward": false, "trial_id": "mdp_trial_25", "block": "test", "trialIndex": 28, "score": 76.9, "costs": -8.1, "simulationMode": [null, null, null, null, null], "rewards": [2, 2, 6, 7, 68], "path": ["0", "0", "12", "13", "14", "19", "22"], "rt": [8587, 69, 156, 172, 213], "actions": ["right", "right", "right", "down", "left"], "actionTimes": [9794, 10399, 11069, 11749, 12473], "queries": {"click": {"state": {"target": ["14", "3", "25", "15", "19", "22"], "time": [1989, 2700, 3485, 4689, 5423, 6023]}, "edge": {"target": [], "time": []}}, "mouseover": {"state": {"target": ["12", "13", "14", "7", "4", "3", "10", "28", "25", "28", "1", "18", "15", "14", "19", "19", "22", "21"], "time": [1491, 1672, 1753, 2319, 2341, 2381, 3021, 3053, 3393, 4025, 4159, 4258, 4525, 5042, 5074, 5342, 5891, 6447]}, "edge": {"target": [], "time": []}}, "mouseout": {"state": {"target": ["31", "0", "12", "13", "14", "7", "4", "3", "10", "28", "25", "28", "1", "18", "15", "15", "14", "19", "19", "22", "22", "21"], "time": [422, 1388, 1638, 1705, 2269, 2339, 2362, 3002, 3035, 3072, 3937, 4042, 4208, 4275, 4838, 5026, 5060, 5107, 5842, 6188, 6366, 6501]}, "edge": {"target": [], "time": []}}}, "displayed_time": "15.21", "trialTime": 16522, "trial_type": "mouselab-mdp", "trial_index": 39, "time_elapsed": 784642, "internal_node_id": "0.0-6.0-1.0-24.0"}}, {"uniqueid": "w77759469:a34571206", "current_trial": 40, "dateTime": 1693580900083, "trialdata": {"revealed_states": [], "clicked_states": ["12", "13", "23", "24", "25", "26", "30", "1", "2", "3", "8", "4", "14", "15", "19"], "num_clicks_accrued": [0, 0, 0, 0, 0, 0, 0, 0, 0, 0, 0, 0, 0], "stateRewards": ["", -1, 3, -5, -2, -13, -9, -34, -7, -81, 32, 35, -2, -2, 1, -14, -32, 81, 7, 4, 82, 56, -8, -1, 3, -8, 6, -24, -24, -53, 2, 38, 61, 54], "withholdReward": false, "trial_id": "mdp_trial_26", "block": "test", "trialIndex": 29, "score": 37.55, "costs": -12.450000000000001, "simulationMode": [null, null, null, null, null], "rewards": [-1, 3, -8, 2, 54], "path": ["0", "0", "23", "24", "25", "30", "33"], "rt": [11521, 67, 173, 195, 288], "actions": ["left", "left", "left", "down", "left"], "actionTimes": [14240, 14822, 15505, 16210, 17019], "queries": {"click": {"state": {"target": ["12", "13", "23", "24", "25", "26", "30", "1", "2", "3", "8", "4", "14", "15", "19"], "time": [3458, 3894, 4622, 5110, 5721, 6322, 7194, 8444, 8845, 9562, 9979, 10598, 11463, 12013, 12746]}, "edge": {"target": [], "time": []}}, "mouseover": {"state": {"target": ["12", "13", "23", "23", "24", "25", "26", "30", "2", "1", "1", "2", "3", "8", "4", "14", "15", "19", "21", "24"], "time": [3261, 3759, 4252, 4510, 4961, 5624, 6194, 6875, 8081, 8126, 8300, 8739, 9415, 9898, 10388, 11331, 11782, 12517, 12995, 13333]}, "edge": {"target": [], "time": []}}, "mouseout": {"state": {"target": ["21", "0", "12", "13", "23", "23", "24", "25", "26", "26", "25", "30", "2", "1", "1", "2", "3", "8", "3", "4", "14", "15", "14", "19", "21", "24"], "time": [1593, 3226, 3709, 4176, 4283, 4918, 5592, 6158, 6489, 6777, 6841, 7516, 8125, 8138, 8665, 9247, 9796, 10264, 10331, 10832, 11611, 12433, 12482, 12964, 13166, 13366]}, "edge": {"target": [], "time": []}}}, "displayed_time": "17.52", "trialTime": 18583, "trial_type": "mouselab-mdp", "trial_index": 40, "time_elapsed": 803894, "internal_node_id": "0.0-6.0-1.0-25.0"}}, {"uniqueid": "w77759469:a34571206", "current_trial": 41, "dateTime": 1693580917059, "trialdata": {"revealed_states": [], "clicked_states": ["12", "13", "14", "1", "2", "3", "23", "24", "25", "26", "30"], "num_clicks_accrued": [0, 0, 0, 0, 0, 0, 0, 0, 0, 0, 0, 0, 0], "stateRewards": ["", -1, 3, 1, -7, 56, 76, 57, 3, 11, -9, 14, 1, -2, 2, 8, -77, -3, 79, -5, 88, 24, -66, -2, -1, 7, -7, -30, 14, -76, 11, -36, 28, -6], "withholdReward": false, "trial_id": "mdp_trial_27", "block": "test", "trialIndex": 30, "score": 2.75, "costs": -6.249999999999999, "simulationMode": [null, null, null, null, null], "rewards": [-2, -1, 7, 11, -6], "path": ["0", "0", "23", "24", "25", "30", "33"], "rt": [8198, 68, 100, 94, 178], "actions": ["left", "left", "left", "down", "left"], "actionTimes": [9312, 9902, 10487, 11098, 11804], "queries": {"click": {"state": {"target": ["12", "13", "14", "1", "2", "3", "23", "24", "25", "26", "30"], "time": [1843, 2259, 2691, 3561, 4126, 5128, 5976, 6393, 6878, 7727, 8597]}, "edge": {"target": [], "time": []}}, "mouseover": {"state": {"target": ["12", "13", "14", "1", "2", "3", "23", "24", "25", "26", "28", "32", "30"], "time": [1631, 2130, 2547, 3447, 3962, 4997, 5778, 6245, 6777, 7545, 7953, 8158, 8434]}, "edge": {"target": [], "time": []}}, "mouseout": {"state": {"target": ["24", "23", "0", "12", "13", "14", "13", "12", "1", "2", "3", "3", "23", "24", "24", "25", "26", "28", "32", "30"], "time": [496, 547, 714, 2079, 2514, 2980, 3028, 3047, 3911, 4331, 5241, 5428, 5993, 6492, 6736, 7199, 7902, 8085, 8333, 8983]}, "edge": {"target": [], "time": []}}}, "displayed_time": "15.13", "trialTime": 16303, "trial_type": "mouselab-mdp", "trial_index": 41, "time_elapsed": 820871, "internal_node_id": "0.0-6.0-1.0-26.0"}}, {"uniqueid": "w77759469:a34571206", "current_trial": 42, "dateTime": 1693580933889, "trialdata": {"revealed_states": [], "clicked_states": ["12", "13", "14", "23", "24", "25", "1", "2", "3", "15", "19"], "num_clicks_accrued": [0, 0, 0, 0, 0, 0, 0, 0, 0, 0, 0, 0, 0], "stateRewards": ["", 1, 3, -2, 15, 51, 15, -19, 11, 67, -45, -73, 2, 4, -2, -13, 36, 9, -28, 10, -30, 31, 16, 1, 2, -1, -16, 14, -22, 36, -1, 88, -5, 45], "withholdReward": false, "trial_id": "mdp_trial_28", "block": "test", "trialIndex": 31, "score": 38.75, "costs": -6.249999999999999, "simulationMode": [null, null, null, null, null], "rewards": [2, 4, -2, 10, 31], "path": ["0", "0", "12", "13", "14", "19", "21"], "rt": [7750, 65, 115, 452, 221], "actions": ["right", "right", "right", "down", "down"], "actionTimes": [9336, 9910, 10547, 11502, 12239], "queries": {"click": {"state": {"target": ["12", "13", "14", "23", "24", "25", "1", "2", "3", "15", "19"], "time": [2171, 2524, 3045, 3949, 4324, 4794, 5360, 5842, 6388, 7354, 7976]}, "edge": {"target": [], "time": []}}, "mouseover": {"state": {"target": ["12", "13", "14", "19", "24", "23", "24", "25", "1", "2", "3", "18", "14", "15", "14", "19", "22", "31", "30"], "time": [2042, 2442, 2843, 3329, 3576, 3843, 4193, 4634, 5145, 5711, 6161, 6874, 7145, 7243, 7658, 7862, 8345, 8444, 8745]}, "edge": {"target": [], "time": []}}, "mouseout": {"state": {"target": ["31", "23", "0", "12", "13", "14", "19", "24", "23", "24", "25", "1", "2", "3", "18", "14", "15", "15", "14", "19", "22", "31", "30"], "time": [819, 856, 1994, 2375, 2810, 3309, 3377, 3776, 4143, 4572, 5060, 5644, 6088, 6778, 6908, 7178, 7497, 7628, 7745, 8138, 8360, 8512, 8961]}, "edge": {"target": [], "time": []}}}, "displayed_time": "15.59", "trialTime": 16150, "trial_type": "mouselab-mdp", "trial_index": 42, "time_elapsed": 837700, "internal_node_id": "0.0-6.0-1.0-27.0"}}, {"uniqueid": "w77759469:a34571206", "current_trial": 43, "dateTime": 1693580950527, "trialdata": {"revealed_states": [], "clicked_states": ["12", "13", "14", "23", "24", "25", "1", "2", "3", "4", "8"], "num_clicks_accrued": [0, 0, 0, 0, 0, 0, 0, 0, 0, 0, 0, 0, 0], "stateRewards": ["", -1, 4, 3, 12, -27, 34, -33, 3, -63, 1, 6, 2, 2, -6, -11, -77, -85, 68, -6, 51, 81, -60, -2, -2, 1, 15, 20, 15, 68, -10, -14, 6, -4], "withholdReward": false, "trial_id": "mdp_trial_29", "block": "test", "trialIndex": 32, "score": -21.25, "costs": -6.249999999999999, "simulationMode": [null, null, null, null, null], "rewards": [-1, 4, 3, 12, -33], "path": ["0", "0", "1", "2", "3", "4", "7"], "rt": [8137, 34, 154, 138, 106], "actions": ["up", "up", "up", "right", "down"], "actionTimes": [9320, 9879, 10532, 11194, 11831], "queries": {"click": {"state": {"target": ["12", "13", "14", "23", "24", "25", "1", "2", "3", "4", "8"], "time": [1534, 2602, 2984, 3799, 4683, 5120, 6055, 6524, 7190, 8039, 8608]}, "edge": {"target": [], "time": []}}, "mouseover": {"state": {"target": ["0", "12", "13", "13", "14", "19", "22", "23", "24", "24", "25", "1", "1", "2", "3", "4", "8", "10"], "time": [1222, 1322, 1750, 2470, 2837, 3221, 3437, 3536, 4042, 4553, 4974, 5490, 5959, 6408, 6963, 7992, 8425, 8940]}, "edge": {"target": [], "time": []}}, "mouseout": {"state": {"target": ["0", "12", "13", "13", "14", "19", "22", "23", "24", "24", "25", "1", "1", "2", "3", "4", "3", "8", "10", "4"], "time": [1257, 1718, 1805, 2803, 3191, 3421, 3453, 3815, 4124, 4908, 5394, 5527, 6167, 6817, 7925, 8276, 8359, 8892, 9009, 9043]}, "edge": {"target": [], "time": []}}}, "displayed_time": "15.19", "trialTime": 15858, "trial_type": "mouselab-mdp", "trial_index": 43, "time_elapsed": 854338, "internal_node_id": "0.0-6.0-1.0-28.0"}}, {"uniqueid": "w77759469:a34571206", "current_trial": 44, "dateTime": 1693580975005, "trialdata": {"revealed_states": [], "clicked_states": ["12", "13", "14", "23", "24", "25", "1", "2", "3", "30", "26", "8", "4", "15", "19", "6"], "num_clicks_accrued": [0, 0, 0, 0, 0, 0, 0, 0, 0, 0, 0, 0, 0], "stateRewards": ["", -1, -4, 8, 8, -68, 47, 24, -7, -61, 49, -69, -1, -1, 8, -7, 42, 1, -45, -11, 10, -63, -6, 1, 4, 6, -16, 79, -37, -58, -12, 81, 18, -53], "withholdReward": false, "trial_id": "mdp_trial_30", "block": "test", "trialIndex": 33, "score": 43.4, "costs": -14.600000000000001, "simulationMode": [null, null, null, null, null], "rewards": [-1, -4, 8, 8, 47], "path": ["0", "0", "1", "2", "3", "4", "6"], "rt": [17070, 167, 128, 149, 184], "actions": ["up", "up", "up", "right", "right"], "actionTimes": [18329, 19004, 19648, 20303, 21006], "queries": {"click": {"state": {"target": ["12", "13", "14", "23", "24", "25", "1", "2", "3", "30", "26", "8", "4", "15", "19", "6"], "time": [2573, 3512, 3989, 4672, 5158, 6057, 6823, 7321, 7814, 9355, 10044, 11489, 12012, 13090, 14175, 15180]}, "edge": {"target": [], "time": []}}, "mouseover": {"state": {"target": ["0", "0", "12", "13", "14", "23", "24", "25", "25", "28", "1", "2", "3", "24", "30", "25", "26", "28", "10", "8", "3", "4", "14", "15", "19", "19", "22", "18", "6"], "time": [1507, 1794, 2458, 3392, 3841, 4390, 5041, 5442, 5923, 6443, 6790, 7174, 7712, 8446, 9232, 9747, 9814, 10482, 10663, 11365, 11732, 11782, 12799, 12916, 13348, 13964, 14582, 14632, 15099]}, "edge": {"target": [], "time": []}}, "mouseout": {"state": {"target": ["0", "0", "0", "12", "13", "14", "13", "23", "24", "25", "25", "28", "1", "2", "3", "24", "30", "25", "26", "28", "10", "8", "3", "4", "14", "15", "15", "19", "19", "22", "18", "4", "6"], "time": [1342, 1560, 2409, 2825, 3791, 4224, 4290, 4999, 5406, 5564, 6392, 6458, 7110, 7468, 8187, 8480, 9698, 9781, 10062, 10631, 10681, 11698, 11749, 12447, 12829, 13107, 13298, 13432, 14466, 14599, 14649, 15028, 15466]}, "edge": {"target": [], "time": []}}}, "displayed_time": "21.52", "trialTime": 23797, "trial_type": "mouselab-mdp", "trial_index": 44, "time_elapsed": 878816, "internal_node_id": "0.0-6.0-1.0-29.0"}}, {"uniqueid": "w77759469:a34571206", "current_trial": 45, "dateTime": 1693581003496, "trialdata": {"revealed_states": [], "clicked_states": ["1", "2", "3", "23", "24", "25", "12", "13", "14", "4", "6", "8", "11", "26", "30", "19", "15"], "num_clicks_accrued": [0, 0, 0, 0, 0, 0, 0, 0, 0, 0, 0, 0, 0], "stateRewards": ["", 2, 3, 6, -5, -74, -53, 17, -12, 46, 44, 18, -2, 4, 1, -8, 22, -23, -49, 9, -45, 55, 81, 1, -1, -7, -16, -83, -71, -45, 2, 51, 82, 61], "withholdReward": false, "trial_id": "mdp_trial_31", "block": "test", "trialIndex": 34, "score": 29.249999999999996, "costs": -16.750000000000004, "simulationMode": [null, null, null, null, null], "rewards": [1, -1, -7, 2, 51], "path": ["0", "0", "23", "24", "25", "30", "31"], "rt": [20196, 521, 291, 197, 167], "actions": ["left", "left", "left", "down", "right"], "actionTimes": [23025, 24050, 24848, 25554, 26240], "queries": {"click": {"state": {"target": ["1", "2", "3", "23", "24", "25", "12", "13", "14", "4", "6", "8", "11", "26", "30", "19", "15"], "time": [3608, 4228, 4908, 6343, 6859, 7426, 8409, 8957, 9476, 10390, 11277, 14129, 15282, 18348, 19351, 20501, 21187]}, "edge": {"target": [], "time": []}}, "mouseover": {"state": {"target": ["1", "2", "3", "23", "23", "24", "25", "12", "13", "12", "13", "14", "6", "4", "6", "3", "8", "8", "11", "26", "26", "25", "30", "31", "19", "15", "13"], "time": [3346, 3910, 4644, 5444, 6079, 6622, 7165, 7762, 7795, 8062, 8710, 9245, 9860, 10110, 10663, 11611, 11645, 12028, 14899, 16033, 17217, 18884, 18985, 19803, 20151, 20831, 21583]}, "edge": {"target": [], "time": []}}, "mouseout": {"state": {"target": ["7", "12", "0", "1", "1", "0", "1", "2", "3", "23", "23", "24", "25", "24", "12", "13", "12", "13", "14", "6", "4", "6", "4", "3", "8", "8", "11", "26", "26", "25", "30", "31", "19", "15", "13"], "time": [186, 306, 638, 1923, 2307, 2846, 3843, 4576, 5183, 5527, 6599, 7105, 7695, 7728, 7778, 8028, 8678, 9202, 9742, 9971, 10609, 11563, 11593, 11628, 11710, 14784, 15917, 16633, 18851, 18918, 19801, 19817, 20520, 21550, 21601]}, "edge": {"target": [], "time": []}}}, "displayed_time": "26.76", "trialTime": 27807, "trial_type": "mouselab-mdp", "trial_index": 45, "time_elapsed": 907308, "internal_node_id": "0.0-6.0-1.0-30.0"}}, {"uniqueid": "w77759469:a34571206", "current_trial": 46, "dateTime": 1693581021136, "trialdata": {"revealed_states": [], "clicked_states": ["12", "13", "14", "1", "2", "3", "23", "24", "25", "26", "30", "19", "15", "4", "8"], "num_clicks_accrued": [0, 0, 0, 0, 0, 0, 0, 0, 0, 0, 0, 0, 0], "stateRewards": ["", 1, 4, -4, 14, 35, 51, 19, -13, 54, 78, -74, -2, -1, -3, 13, -11, -42, -73, -15, -24, -3, -69, 2, -1, 5, 16, -27, 73, 58, 9, -60, 5, -60], "withholdReward": false, "trial_id": "mdp_trial_32", "block": "test", "trialIndex": 35, "score": 53.55, "costs": -12.450000000000001, "simulationMode": [null, null, null, null, null], "rewards": [1, 4, -4, 14, 51], "path": ["0", "0", "1", "2", "3", "4", "6"], "rt": [11903, 41, 65, 344, 125], "actions": ["up", "up", "up", "right", "right"], "actionTimes": [12967, 13515, 14091, 14969, 15605], "queries": {"click": {"state": {"target": ["12", "13", "14", "1", "2", "3", "23", "24", "25", "26", "30", "19", "15", "4", "8"], "time": [1786, 2314, 2884, 3782, 4315, 4885, 5687, 6239, 6772, 7604, 8455, 9489, 10056, 10955, 11506]}, "edge": {"target": [], "time": []}}, "mouseover": {"state": {"target": ["12", "13", "14", "1", "2", "3", "23", "24", "25", "26", "30", "0", "12", "13", "19", "14", "15", "4", "3", "8", "3"], "time": [1605, 2018, 2601, 3510, 4068, 4567, 5390, 5956, 6540, 7332, 8176, 8841, 8875, 8907, 9241, 9708, 9758, 10737, 11173, 11255, 12475]}, "edge": {"target": [], "time": []}}, "mouseout": {"state": {"target": ["0", "12", "13", "14", "13", "1", "2", "3", "2", "23", "24", "25", "26", "25", "30", "0", "12", "13", "19", "14", "15", "4", "3", "8", "3"], "time": [588, 1969, 2567, 3202, 3235, 4003, 4503, 5157, 5191, 5925, 6506, 7291, 7791, 7874, 8755, 8857, 8890, 8924, 9507, 9724, 10323, 11159, 11222, 12424, 12515]}, "edge": {"target": [], "time": []}}}, "displayed_time": "16.11", "trialTime": 16960, "trial_type": "mouselab-mdp", "trial_index": 46, "time_elapsed": 924948, "internal_node_id": "0.0-6.0-1.0-31.0"}}, {"uniqueid": "w77759469:a34571206", "current_trial": 47, "dateTime": 1693581037658, "trialdata": {"revealed_states": [], "clicked_states": [], "num_clicks_accrued": [0, 0, 0, 0, 0, 0, 0, 0, 0, 0, 0, 0, 0], "stateRewards": ["", 1, -2, -8, -13, 4, 34, -84, -4, -49, 88, -70, -1, 3, -4, 10, -77, 13, -34, 15, -21, -16, 27, 1, -2, 8, -8, -6, 38, -26, 6, -15, 66, -3], "withholdReward": false, "trial_id": "mdp_trial_33", "block": "test", "trialIndex": 36, "score": -3, "costs": 0, "simulationMode": [null, null, null, null, null], "rewards": [-1, 3, -4, 15, -16], "path": ["0", "0", "12", "13", "14", "19", "21"], "rt": [924, 363, 113, 52, 39], "actions": ["right", "right", "right", "down", "down"], "actionTimes": [2410, 3285, 3917, 4489, 5066], "queries": {"click": {"state": {"target": [], "time": []}, "edge": {"target": [], "time": []}}, "mouseover": {"state": {"target": [], "time": []}, "edge": {"target": [], "time": []}}, "mouseout": {"state": {"target": ["0"], "time": [1940]}, "edge": {"target": [], "time": []}}}, "displayed_time": "15.50", "trialTime": 15836, "trial_type": "mouselab-mdp", "trial_index": 47, "time_elapsed": 941468, "internal_node_id": "0.0-6.0-1.0-32.0"}}, {"uniqueid": "w77759469:a34571206", "current_trial": 48, "dateTime": 1693581055536, "trialdata": {"revealed_states": [], "clicked_states": ["25"], "num_clicks_accrued": [0, 0, 0, 0, 0, 0, 0, 0, 0, 0, 0, 0, 0], "stateRewards": ["", 2, 4, -3, 16, -58, 30, -35, 11, -60, 47, 27, -2, -1, -7, -16, 23, -70, 68, -10, -65, -43, -34, -2, 1, 7, 9, -63, 34, -31, -8, -12, -86, 59], "withholdReward": false, "trial_id": "mdp_trial_34", "block": "test", "trialIndex": 37, "score": -16.95, "costs": -0.95, "simulationMode": [null, null, null, null, null], "rewards": [-2, 1, 7, 9, -31], "path": ["0", "0", "23", "24", "25", "26", "29"], "rt": [2301, 23, 62, 100, 43], "actions": ["left", "left", "left", "up", "left"], "actionTimes": [4930, 5473, 6061, 6683, 7261], "queries": {"click": {"state": {"target": ["25"], "time": [4030]}, "edge": {"target": [], "time": []}}, "mouseover": {"state": {"target": ["23", "24", "25"], "time": [3434, 3532, 3916]}, "edge": {"target": [], "time": []}}, "mouseout": {"state": {"target": ["0", "23", "24"], "time": [2133, 3484, 3583]}, "edge": {"target": [], "time": []}}}, "displayed_time": "16.64", "trialTime": 17131, "trial_type": "mouselab-mdp", "trial_index": 48, "time_elapsed": 959347, "internal_node_id": "0.0-6.0-1.0-33.0"}}, {"uniqueid": "w77759469:a34571206", "current_trial": 49, "dateTime": 1693581072578, "trialdata": {"revealed_states": [], "clicked_states": ["25", "3", "14"], "num_clicks_accrued": [0, 0, 0, 0, 0, 0, 0, 0, 0, 0, 0, 0, 0], "stateRewards": ["", -2, 2, 8, -6, -25, 3, 87, 2, -62, -2, 74, -2, -1, 2, -1, 79, 49, -37, -14, 5, 67, -9, -1, 2, -2, 5, 15, 38, 32, -14, -38, -38, 30], "withholdReward": false, "trial_id": "mdp_trial_35", "block": "test", "trialIndex": 38, "score": 81.15, "costs": -2.8499999999999996, "simulationMode": [null, null, null, null, null], "rewards": [-2, 2, 8, 2, 74], "path": ["0", "0", "1", "2", "3", "8", "11"], "rt": [3165, 101, 65, 38, 37], "actions": ["up", "up", "up", "left", "left"], "actionTimes": [4252, 4877, 5466, 6033, 6584], "queries": {"click": {"state": {"target": ["25", "3", "14"], "time": [1807, 2422, 3271]}, "edge": {"target": [], "time": []}}, "mouseover": {"state": {"target": ["12", "12", "23", "24", "24", "25", "28", "10", "3", "7", "18", "14"], "time": [1116, 1189, 1273, 1322, 1608, 1693, 2090, 2123, 2156, 2708, 2741, 3156]}, "edge": {"target": [], "time": []}}, "mouseout": {"state": {"target": ["0", "12", "1", "0", "12", "12", "23", "24", "24", "25", "28", "10", "3", "3", "7", "18", "14", "14"], "time": [15, 140, 504, 1115, 1138, 1226, 1290, 1338, 1625, 2054, 2105, 2138, 2440, 2690, 2724, 2790, 3289, 3522]}, "edge": {"target": [], "time": []}}}, "displayed_time": "15.10", "trialTime": 16292, "trial_type": "mouselab-mdp", "trial_index": 49, "time_elapsed": 976389, "internal_node_id": "0.0-6.0-1.0-34.0"}}, {"uniqueid": "w77759469:a34571206", "current_trial": 50, "dateTime": 1693581091070, "trialdata": {"revealed_states": [], "clicked_states": ["14", "25", "3"], "num_clicks_accrued": [0, 0, 0, 0, 0, 0, 0, 0, 0, 0, 0, 0, 0], "stateRewards": ["", -2, 4, -3, -13, 63, -36, 62, 11, 78, 34, -51, 2, -2, 8, -6, -40, -18, 31, 9, 64, 39, 79, 1, 4, -4, 15, -12, 76, 73, -10, -77, 86, -4], "withholdReward": false, "trial_id": "mdp_trial_36", "block": "test", "trialIndex": 39, "score": 93.15, "costs": -2.8499999999999996, "simulationMode": [null, null, null, null, null], "rewards": [2, -2, 8, 9, 79], "path": ["0", "0", "12", "13", "14", "19", "22"], "rt": [3340, 12, 54, 374, 172], "actions": ["right", "right", "right", "down", "left"], "actionTimes": [4892, 5428, 6003, 6908, 7590], "queries": {"click": {"state": {"target": ["14", "25", "3"], "time": [2166, 3416, 4214]}, "edge": {"target": [], "time": []}}, "mouseover": {"state": {"target": ["12", "13", "14", "13", "23", "25", "26", "8", "3", "2", "1"], "time": [1830, 1880, 1933, 2471, 2514, 3335, 3749, 3816, 4068, 4516, 4566]}, "edge": {"target": [], "time": []}}, "mouseout": {"state": {"target": ["19", "0", "12", "13", "14", "13", "23", "25", "26", "8", "3", "2"], "time": [467, 1666, 1867, 1900, 2469, 2491, 2532, 3438, 3764, 3838, 4501, 4552]}, "edge": {"target": [], "time": []}}}, "displayed_time": "15.56", "trialTime": 17715, "trial_type": "mouselab-mdp", "trial_index": 50, "time_elapsed": 994881, "internal_node_id": "0.0-6.0-1.0-35.0"}}, {"uniqueid": "w77759469:a34571206", "current_trial": 51, "dateTime": 1693581107982, "trialdata": {"revealed_states": [], "clicked_states": ["14", "3", "25"], "num_clicks_accrued": [0, 0, 0, 0, 0, 0, 0, 0, 0, 0, 0, 0, 0], "stateRewards": ["", -1, -3, -7, -7, -76, 30, -49, 11, -70, 56, 2, 1, 4, -3, -14, -59, -83, -25, -9, -21, -67, -73, -2, 4, 4, -9, -11, -32, 60, 9, -87, 22, -64], "withholdReward": false, "trial_id": "mdp_trial_37", "block": "test", "trialIndex": 40, "score": 54.15, "costs": -2.8499999999999996, "simulationMode": [null, null, null, null, null], "rewards": [-2, 4, 4, -9, 60], "path": ["0", "0", "23", "24", "25", "26", "29"], "rt": [2834, 128, 164, 99, 86], "actions": ["left", "left", "left", "up", "left"], "actionTimes": [3976, 4629, 5314, 5930, 6534], "queries": {"click": {"state": {"target": ["14", "3", "25"], "time": [1695, 2430, 3232]}, "edge": {"target": [], "time": []}}, "mouseover": {"state": {"target": ["12", "14", "7", "3", "10", "28", "25", "23"], "time": [1231, 1479, 2049, 2315, 2746, 2799, 3133, 3473]}, "edge": {"target": [], "time": []}}, "mouseout": {"state": {"target": ["1", "0", "12", "14", "7", "3", "10", "28", "25"], "time": [150, 1215, 1264, 1715, 2065, 2716, 2766, 2999, 3407]}, "edge": {"target": [], "time": []}}}, "displayed_time": "15.15", "trialTime": 16097, "trial_type": "mouselab-mdp", "trial_index": 51, "time_elapsed": 1011793, "internal_node_id": "0.0-6.0-1.0-36.0"}}, {"uniqueid": "w77759469:a34571206", "current_trial": 52, "dateTime": 1693581124707, "trialdata": {"revealed_states": [], "clicked_states": ["14", "3", "25"], "num_clicks_accrued": [0, 0, 0, 0, 0, 0, 0, 0, 0, 0, 0, 0, 0], "stateRewards": ["", -1, -4, -6, -15, 21, -67, -63, 9, 51, 69, -14, -1, 3, 8, -8, 39, 72, 63, 15, 19, 47, 15, 1, 4, 5, 16, -18, 34, 35, -14, -80, 40, 1], "withholdReward": false, "trial_id": "mdp_trial_38", "block": "test", "trialIndex": 41, "score": 69.15, "costs": -2.8499999999999996, "simulationMode": [null, null, null, null, null], "rewards": [-1, 3, 8, 15, 47], "path": ["0", "0", "12", "13", "14", "19", "21"], "rt": [3996, 119, 202, 160, 49], "actions": ["right", "right", "right", "down", "down"], "actionTimes": [4928, 5565, 6281, 6941, 7514], "queries": {"click": {"state": {"target": ["14", "3", "25"], "time": [2256, 3286, 4176]}, "edge": {"target": [], "time": []}}, "mouseover": {"state": {"target": ["13", "14", "14", "7", "3", "3", "28", "25"], "time": [1439, 1472, 2156, 2621, 2657, 3173, 3681, 4048]}, "edge": {"target": [], "time": []}}, "mouseout": {"state": {"target": ["23", "0", "13", "14", "14", "7", "3", "3", "3", "28", "25"], "time": [239, 1410, 1455, 1523, 2573, 2640, 2806, 3390, 3612, 3697, 4379]}, "edge": {"target": [], "time": []}}}, "displayed_time": "14.94", "trialTime": 15942, "trial_type": "mouselab-mdp", "trial_index": 52, "time_elapsed": 1028519, "internal_node_id": "0.0-6.0-1.0-37.0"}}, {"uniqueid": "w77759469:a34571206", "current_trial": 53, "dateTime": 1693581142204, "trialdata": {"revealed_states": [], "clicked_states": ["14", "3", "25"], "num_clicks_accrued": [0, 0, 0, 0, 0, 0, 0, 0, 0, 0, 0, 0, 0], "stateRewards": ["", 1, 1, -3, 7, 49, 78, 26, -5, 26, 48, -43, -1, -3, 2, -5, 4, -1, -60, 10, -35, 51, 81, -2, 1, -7, -5, -39, -86, -54, 4, -3, 74, 77], "withholdReward": false, "trial_id": "mdp_trial_39", "block": "test", "trialIndex": 42, "score": -5.85, "costs": -2.8499999999999996, "simulationMode": [null, null, null, null, null], "rewards": [-1, -3, 2, -5, 4], "path": ["0", "0", "12", "13", "14", "15", "16"], "rt": [2820, 140, 173, 135, 184], "actions": ["right", "right", "right", "up", "up"], "actionTimes": [4012, 4675, 5360, 6005, 6703], "queries": {"click": {"state": {"target": ["14", "3", "25"], "time": [1682, 2479, 3233]}, "edge": {"target": [], "time": []}}, "mouseover": {"state": {"target": ["14", "14", "18", "7", "3", "10", "25"], "time": [1252, 1486, 2018, 2051, 2352, 2818, 3102]}, "edge": {"target": [], "time": []}}, "mouseout": {"state": {"target": ["24", "0", "14", "14", "18", "7", "3", "10", "25"], "time": [384, 1212, 1286, 1741, 2033, 2085, 2784, 2833, 3416]}, "edge": {"target": [], "time": []}}}, "displayed_time": "15.21", "trialTime": 16704, "trial_type": "mouselab-mdp", "trial_index": 53, "time_elapsed": 1046016, "internal_node_id": "0.0-6.0-1.0-38.0"}}, {"uniqueid": "w77759469:a34571206", "current_trial": 54, "dateTime": 1693581159491, "trialdata": {"revealed_states": [], "clicked_states": ["3", "25", "14", "19"], "num_clicks_accrued": [0, 0, 0, 0, 0, 0, 0, 0, 0, 0, 0, 0, 0], "stateRewards": ["", 1, -3, -1, 9, -34, -40, 22, -7, 45, 53, -11, 2, 4, 5, 15, 21, 37, -49, -3, 80, -28, -34, 1, -3, 1, 1, -40, -6, -5, -16, -85, -86, 59], "withholdReward": false, "trial_id": "mdp_trial_40", "block": "test", "trialIndex": 43, "score": -27.4, "costs": -4.3999999999999995, "simulationMode": [null, null, null, null, null], "rewards": [2, 4, 5, 15, -49], "path": ["0", "0", "12", "13", "14", "15", "18"], "rt": [4407, 110, 156, 154, 149], "actions": ["right", "right", "right", "up", "left"], "actionTimes": [5556, 6193, 6872, 7537, 8195], "queries": {"click": {"state": {"target": ["3", "25", "14", "19"], "time": [2126, 3259, 4001, 4779]}, "edge": {"target": [], "time": []}}, "mouseover": {"state": {"target": ["1", "1", "1", "2", "3", "10", "28", "25", "25", "24", "23", "13", "14", "14", "19"], "time": [1182, 1345, 1498, 1576, 1864, 2430, 2463, 2513, 3088, 3596, 3614, 3661, 3697, 3929, 4514]}, "edge": {"target": [], "time": []}}, "mouseout": {"state": {"target": ["30", "30", "23", "0", "1", "1", "1", "2", "3", "10", "28", "25", "25", "24", "23", "13", "14", "14", "14", "19"], "time": [13, 312, 362, 1168, 1296, 1446, 1562, 1781, 2396, 2445, 2479, 2746, 3580, 3613, 3629, 3679, 3895, 4019, 4346, 5114]}, "edge": {"target": [], "time": []}}}, "displayed_time": "15.15", "trialTime": 16510, "trial_type": "mouselab-mdp", "trial_index": 54, "time_elapsed": 1063302, "internal_node_id": "0.0-6.0-1.0-39.0"}}, {"uniqueid": "w77759469:a34571206", "current_trial": 55, "dateTime": 1693581192463, "trialdata": {"rt": 32966, "response": {"Q0": "$-2 to $2", "Q1": "$-16 to $16", "Q2": "$-88 to $88", "Q3": "The cost for clicking on nodes varied between nodes.", "Q4": "Slightly motivated"}, "question_order": [0, 1, 2, 3, 4], "trial_id": "final_quiz_control", "trial_type": "survey-multi-choice", "trial_index": 55, "time_elapsed": 1096274, "internal_node_id": "0.0-6.0-2.0"}}, {"uniqueid": "w77759469:a34571206", "current_trial": 56, "dateTime": 1693581273028, "trialdata": {"rt": 80632, "response": {"Q0": "Click on 4th step in each triple way to determine if that is positive or negative", "Q1": "Then I started to check two alternatives and the end result in some of the sessions", "Q2": "Clicking is slow and the last one is annoying"}, "trial_id": "self_report_control", "trial_type": "survey-text", "trial_index": 56, "time_elapsed": 1176840, "internal_node_id": "0.0-6.0-3.0"}}, {"uniqueid": "w77759469:a34571206", "current_trial": 57, "dateTime": 1693581301311, "trialdata": {"rt": 28274, "response": {"Q0": "Strongly disagree", "Q1": "Neither disagree nor agree", "Q2": "Neither disagree nor agree", "Q3": "Agree", "Q4": "Strongly disagree", "Q5": "Agree", "Q6": "Disagree"}, "question_order": [0, 1, 2, 3, 4, 5, 6], "trial_id": "self_report_2", "trial_type": "survey-multi-choice", "trial_index": 57, "time_elapsed": 1205123, "internal_node_id": "0.0-6.0-4.0"}}, {"uniqueid": "w77759469:a34571206", "current_trial": 58, "dateTime": 1693581328959, "trialdata": {"rt": 27639, "response": {"gender": "male", "age": "27", "colorblind": "0", "effort": "0"}, "trial_type": "survey-html-form", "trial_index": 58, "time_elapsed": 1232771, "internal_node_id": "0.0-6.0-5.0"}}, {"uniqueid": "w77759469:a34571206", "current_trial": 59, "dateTime": 1693581371595, "trialdata": {"rt": 42628, "response": {"Q0": "Game was hard to understand in the beginning", "Q1": "No", "Q2": "Nice game, thanks for your effort!"}, "trial_type": "survey-text", "trial_index": 59, "time_elapsed": 1275407, "internal_node_id": "0.0-6.0-6.0"}}, {"uniqueid": "w77759469:a34571206", "current_trial": 60, "dateTime": 1693581401548, "trialdata": {"rt": 29945, "stimulus": "<h1>Completion Code Instructions (1/2)</h1>\n<br><br><br><br>\nYou have reached the end of the experiment! The completion code consists of two parts: (1) a code with 2 characters (2) a code with 6 characters. On this page, you will receive the second part of the code. The first part of the completion code will be on the next page.\n<br><br>\nThe second part of your completion code is: <b>EWEK22</b>\n<br><br>\nPlease note this down. Then, press 'Next' in order to find the first part of your completion code. Once the data has been saved, you will receive this code either in this window or in the original browser window where you started the experiment.\n <br><br>\n<h2 style='color: red;'>Note: this is <strong>NOT</strong> the full completion code. Copy this down and click 'Next' to get the full completion code on the next page.</h2>", "response": 0, "trial_type": "html-button-response", "trial_index": 60, "time_elapsed": 1305360, "internal_node_id": "0.0-6.0-7.0"}}, {"uniqueid": "w77759469:a34571206", "current_trial": 61, "dateTime": 1693581402560, "trialdata": {"success": true, "trial_type": "fullscreen", "trial_index": 61, "time_elapsed": 1306371, "internal_node_id": "0.0-7.0"}}], "questiondata": {"params": {"CODE": "C6DMOQA6", "MIN_TIME": 14, "inspectCost": 1, "startTime": "Fri Sep 01 2023 16:54:55 GMT+0200 (Central European Summer Time)", "bonusRate": 0.002, "variance": "1_2_4_8_44", "branching": "31123"}, "final_score": 784.7}, "eventdata": [{"eventtype": "initialized", "value": null, "timestamp": 1693580095094, "interval": 0}, {"eventtype": "window_resize", "value": [1024, 767], "timestamp": 1693580095094, "interval": 0}, {"eventtype": "window_resize", "value": [1024, 767], "timestamp": 1693580095435, "interval": 341}, {"eventtype": "window_resize", "value": [2560, 1440], "timestamp": 1693580099188, "interval": 3753}, {"eventtype": "focus", "value": "off", "timestamp": 1693580347138, "interval": 247950}, {"eventtype": "window_resize", "value": [1024, 767], "timestamp": 1693580347364, "interval": 226}, {"eventtype": "focus", "value": "on", "timestamp": 1693580351025, "interval": 3661}, {"eventtype": "window_resize", "value": [2560, 1440], "timestamp": 1693580352015, "interval": 990}, {"eventtype": "window_resize", "value": [1024, 767], "timestamp": 1693581401842, "interval": 1049827}], "useragent": "Mozilla/5.0 (Macintosh; Intel Mac OS X 10_15_7) AppleWebKit/537.36 (KHTML, like Gecko) Chrome/116.0.0.0 Safari/537.36", "mode": "live", "id": "w77759469:a34571206", "status": "user data saved", "Beginhit": "2023-09-01 14:54:53.858366", "Beginexp": "2023-09-01 14:55:00.039034", "Endhit": "2023-09-01 15:16:43.127797", "psiturkStatus": 3, "browser": "<redacted>", "platform": "macos", "language": "en-US"}