{"condition": 0, "counterbalance": 0, "assignmentId": "a38991496", "workerId": "w88673838", "hitId": "h87552468", "currenttrial": 61, "bonus": 0, "data": [{"uniqueid": "w88673838:a38991496", "current_trial": 0, "dateTime": 1693564620457, "trialdata": {"success": true, "trial_type": "fullscreen", "trial_index": 0, "time_elapsed": 4327, "internal_node_id": "0.0-0.0"}}, {"uniqueid": "w88673838:a38991496", "current_trial": 1, "dateTime": 1693564636727, "trialdata": {"view_history": [{"page_index": 0, "viewing_time": 16263}], "rt": 16264, "trial_id": "exp_instructions_control", "trial_type": "instructions", "trial_index": 1, "time_elapsed": 20597, "internal_node_id": "0.0-1.0"}}, {"uniqueid": "w88673838:a38991496", "current_trial": 2, "dateTime": 1693564765209, "trialdata": {"view_history": [{"page_index": 0, "viewing_time": 49498}, {"page_index": 1, "viewing_time": 49912}, {"page_index": 2, "viewing_time": 11940}, {"page_index": 3, "viewing_time": 17132}], "rt": 128481, "trial_id": "mouselab_instructions_1_control", "trial_type": "instructions", "trial_index": 2, "time_elapsed": 149079, "internal_node_id": "0.0-2.0-1.0"}}, {"uniqueid": "w88673838:a38991496", "current_trial": 3, "dateTime": 1693564778053, "trialdata": {"revealed_states": [], "clicked_states": [], "num_clicks_accrued": [0, 0, 0, 0, 0, 0, 0, 0, 0, 0, 0, 0, 0], "stateRewards": ["", 10, -10, -10, 10, 10, -10, 10, 10, -10, -10, 10, -10, 10, 10, 10, 10, 10, -10, 10, 10, -10, -10, -10, 10, -10, 10, 10, 10, 10, 10, -10, 10, -10], "withholdReward": false, "trial_id": "practice_1", "block": "test", "trialIndex": 0, "score": -6.5, "costs": 0, "simulationMode": [null, null, null, null, null], "rewards": [10, -10, -10, 10, -10], "path": ["0", "0", "1", "2", "3", "8", "9"], "rt": [3743, 433, 214, 231, 321], "actions": ["up", "up", "up", "left", "up"], "actionTimes": [4801, 5733, 6460, 7197, 8020], "queries": {"click": {"state": {"target": [], "time": []}, "edge": {"target": [], "time": []}}, "mouseover": {"state": {"target": ["31", "30", "33"], "time": [1114, 1128, 1165]}, "edge": {"target": [], "time": []}}, "mouseout": {"state": {"target": ["0", "31", "30", "33"], "time": [608, 1125, 1152, 1177]}, "edge": {"target": [], "time": []}}}, "displayed_time": "8.53", "trialTime": 11581, "trial_type": "mouselab-mdp", "trial_index": 3, "time_elapsed": 161922, "internal_node_id": "0.0-2.0-2.0-0.0"}}, {"uniqueid": "w88673838:a38991496", "current_trial": 4, "dateTime": 1693564788108, "trialdata": {"revealed_states": [], "clicked_states": [], "num_clicks_accrued": [0, 0, 0, 0, 0, 0, 0, 0, 0, 0, 0, 0, 0], "stateRewards": ["", 10, -10, 10, -10, -10, -10, 10, 10, -10, 10, -10, -10, -10, 10, -10, -10, 10, -10, 10, 10, 10, -10, -10, 10, -10, -10, 10, -10, 10, 10, 10, 10, -10], "withholdReward": false, "trial_id": "practice_2", "block": "test", "trialIndex": 1, "score": -26.5, "costs": 0, "simulationMode": [null, null, null, null, null], "rewards": [-10, -10, 10, -10, -10], "path": ["0", "0", "12", "13", "14", "15", "16"], "rt": [1181, 156, 162, 112, 86], "actions": ["right", "right", "right", "up", "up"], "actionTimes": [4446, 5108, 5780, 6396, 6996], "queries": {"click": {"state": {"target": [], "time": []}, "edge": {"target": [], "time": []}}, "mouseover": {"state": {"target": ["23", "24"], "time": [3325, 3375]}, "edge": {"target": [], "time": []}}, "mouseout": {"state": {"target": ["33", "30", "31", "0", "23", "24"], "time": [2368, 2389, 2441, 3295, 3348, 3388]}, "edge": {"target": [], "time": []}}}, "displayed_time": "7.51", "trialTime": 9812, "trial_type": "mouselab-mdp", "trial_index": 4, "time_elapsed": 171977, "internal_node_id": "0.0-2.0-2.0-1.0"}}, {"uniqueid": "w88673838:a38991496", "current_trial": 5, "dateTime": 1693564823620, "trialdata": {"view_history": [{"page_index": 0, "viewing_time": 28308}, {"page_index": 1, "viewing_time": 7200}], "rt": 35509, "trial_id": "mouselab_instructions_2_control", "trial_type": "instructions", "trial_index": 5, "time_elapsed": 207490, "internal_node_id": "0.0-2.0-3.0"}}, {"uniqueid": "w88673838:a38991496", "current_trial": 6, "dateTime": 1693564867277, "trialdata": {"rt": 43652, "response": {"Q0": "There is no cost for clicking on nodes.", "Q1": "The better I perform the higher my bonus will be.", "Q2": "No, the amount of cash at each node of the web may be different each time.", "Q3": "To click on the least number of nodes.", "Q4": "Only before moving the spider.", "Q5": "3 seconds"}, "question_order": [0, 1, 2, 3, 4, 5], "correct": {"Q0": "The cost for clicking on nodes may vary between nodes.", "Q1": "The better I perform the higher my bonus will be.", "Q2": "No, the amount of cash at each node of the web may be different each time.", "Q3": "To get the highest total score.", "Q4": "Only before moving the spider.", "Q5": "3 seconds"}, "trial_id": "mouselab_quiz_control", "trial_type": "survey-multi-choice", "trial_index": 6, "time_elapsed": 251147, "internal_node_id": "0.0-2.0-4.0"}}, {"uniqueid": "w88673838:a38991496", "current_trial": 7, "dateTime": 1693564876309, "trialdata": {"success": true, "trial_type": "fullscreen", "trial_index": 7, "time_elapsed": 260179, "internal_node_id": "0.0-2.1-0.1-0.1"}}, {"uniqueid": "w88673838:a38991496", "current_trial": 8, "dateTime": 1693564921852, "trialdata": {"view_history": [{"page_index": 0, "viewing_time": 9184}, {"page_index": 1, "viewing_time": 6752}, {"page_index": 2, "viewing_time": 12388}, {"page_index": 3, "viewing_time": 17216}], "rt": 45540, "trial_id": "mouselab_instructions_1_control", "trial_type": "instructions", "trial_index": 8, "time_elapsed": 305722, "internal_node_id": "0.0-2.1-1.1"}}, {"uniqueid": "w88673838:a38991496", "current_trial": 9, "dateTime": 1693564934531, "trialdata": {"revealed_states": [], "clicked_states": ["2", "8"], "num_clicks_accrued": [0, 0, 0, 0, 0, 0, 0, 0, 0, 0, 0, 0, 0], "stateRewards": ["", 10, -10, -10, 10, 10, -10, 10, 10, -10, -10, 10, -10, 10, 10, 10, 10, 10, -10, 10, 10, -10, -10, -10, 10, -10, 10, 10, 10, 10, 10, -10, 10, -10], "withholdReward": false, "trial_id": "practice_1", "block": "test", "trialIndex": 2, "score": -7.5, "costs": -1, "simulationMode": [null, null, null, null, null], "rewards": [10, -10, -10, 10, -10], "path": ["0", "0", "1", "2", "3", "8", "9"], "rt": [5792, 120, 86, 59, 144], "actions": ["up", "up", "up", "left", "up"], "actionTimes": [7584, 8206, 8797, 9357, 10014], "queries": {"click": {"state": {"target": ["2", "8"], "time": [2969, 4316]}, "edge": {"target": [], "time": []}}, "mouseover": {"state": {"target": ["1", "2", "8", "1"], "time": [2473, 2660, 3737, 5672]}, "edge": {"target": [], "time": []}}, "mouseout": {"state": {"target": ["0", "1", "2", "8", "1"], "time": [2408, 2555, 3631, 5471, 6593]}, "edge": {"target": [], "time": []}}}, "displayed_time": "10.53", "trialTime": 12405, "trial_type": "mouselab-mdp", "trial_index": 9, "time_elapsed": 318399, "internal_node_id": "0.0-2.1-2.1-0.1"}}, {"uniqueid": "w88673838:a38991496", "current_trial": 10, "dateTime": 1693564945731, "trialdata": {"revealed_states": [], "clicked_states": ["19"], "num_clicks_accrued": [0, 0, 0, 0, 0, 0, 0, 0, 0, 0, 0, 0, 0], "stateRewards": ["", 10, -10, 10, -10, -10, -10, 10, 10, -10, 10, -10, -10, -10, 10, -10, -10, 10, -10, 10, 10, 10, -10, -10, 10, -10, -10, 10, -10, 10, 10, 10, 10, -10], "withholdReward": false, "trial_id": "practice_2", "block": "test", "trialIndex": 3, "score": 13, "costs": -0.5, "simulationMode": [null, null, null, null, null], "rewards": [-10, -10, 10, 10, 10], "path": ["0", "0", "12", "13", "14", "19", "21"], "rt": [2784, 102, 66, 84, 162], "actions": ["right", "right", "right", "down", "down"], "actionTimes": [5081, 5694, 6270, 6862, 7527], "queries": {"click": {"state": {"target": ["19"], "time": [3411]}, "edge": {"target": [], "time": []}}, "mouseover": {"state": {"target": ["12", "13", "14", "19", "22"], "time": [2644, 2673, 2709, 3047, 4070]}, "edge": {"target": [], "time": []}}, "mouseout": {"state": {"target": ["2", "1", "0", "12", "13", "14", "19", "22"], "time": [1526, 1657, 2630, 2670, 2696, 2724, 3910, 4110]}, "edge": {"target": [], "time": []}}}, "displayed_time": "8.03", "trialTime": 10943, "trial_type": "mouselab-mdp", "trial_index": 10, "time_elapsed": 329600, "internal_node_id": "0.0-2.1-2.1-1.1"}}, {"uniqueid": "w88673838:a38991496", "current_trial": 11, "dateTime": 1693564950528, "trialdata": {"view_history": [{"page_index": 0, "viewing_time": 3483}, {"page_index": 1, "viewing_time": 1308}], "rt": 4791, "trial_id": "mouselab_instructions_2_control", "trial_type": "instructions", "trial_index": 11, "time_elapsed": 334398, "internal_node_id": "0.0-2.1-3.1"}}, {"uniqueid": "w88673838:a38991496", "current_trial": 12, "dateTime": 1693564971060, "trialdata": {"rt": 20530, "response": {"Q0": "The cost for clicking on nodes may vary between nodes.", "Q1": "The better I perform the higher my bonus will be.", "Q2": "No, the amount of cash at each node of the web may be different each time.", "Q3": "To get the highest total score.", "Q4": "Only before moving the spider.", "Q5": "3 seconds"}, "question_order": [0, 1, 2, 3, 4, 5], "correct": {"Q0": "The cost for clicking on nodes may vary between nodes.", "Q1": "The better I perform the higher my bonus will be.", "Q2": "No, the amount of cash at each node of the web may be different each time.", "Q3": "To get the highest total score.", "Q4": "Only before moving the spider.", "Q5": "3 seconds"}, "trial_id": "mouselab_quiz_control", "trial_type": "survey-multi-choice", "trial_index": 12, "time_elapsed": 354930, "internal_node_id": "0.0-2.1-4.1"}}, {"uniqueid": "w88673838:a38991496", "current_trial": 13, "dateTime": 1693564977055, "trialdata": {"rt": 5988, "response": {"Q0": "No"}, "question_order": [0], "trial_id": "repeat_check", "trial_type": "survey-multi-choice", "trial_index": 13, "time_elapsed": 360925, "internal_node_id": "0.0-4.0-0.0"}}, {"uniqueid": "w88673838:a38991496", "current_trial": 14, "dateTime": 1693564989418, "trialdata": {"rt": 12356, "stimulus": "\n<h1> Get ready to start the game! </h1>\n\nThank you for reading the instructions. Get ready start with the 40 rounds of this game.\n<br><br>\nIf you need to take a break, feel free to take one after the end of a round, before continuing to the next one.\n<br><br>\nRemember, the more money the spider gets, the bigger your bonus will be!\n<br><br>\n<div style='text-align: center;'>Press <code>space</code> to begin.</div>\n\n<br><br>\n(If, at any point, the <code>space</code> key does not take you to the next page, click once on the text and try again.)", "response": " ", "trial_id": "mdp_ready", "trial_type": "html-keyboard-response", "trial_index": 14, "time_elapsed": 373288, "internal_node_id": "0.0-6.0-0.0"}}, {"uniqueid": "w88673838:a38991496", "current_trial": 15, "dateTime": 1693565011403, "trialdata": {"revealed_states": [], "clicked_states": ["25"], "num_clicks_accrued": [0, 0, 0, 0, 0, 0, 0, 0, 0, 0, 0, 0, 0], "stateRewards": ["", 2, -2, -8, 9, -20, 55, -58, 14, 42, 2, 36, 1, -3, -5, 5, -58, 57, 60, 16, 57, 30, -70, -2, 1, 3, 10, 59, 23, 77, -13, -26, 88, -72], "withholdReward": false, "trial_id": "mdp_trial_1", "block": "test", "trialIndex": 4, "score": 75.6, "costs": -1.4, "simulationMode": [null, null, null, null, null], "rewards": [-2, 1, 3, -13, 88], "path": ["0", "0", "23", "24", "25", "30", "32"], "rt": [3317, 133, 75, 89, 133], "actions": ["left", "left", "left", "down", "down"], "actionTimes": [7203, 7849, 8432, 9032, 9676], "queries": {"click": {"state": {"target": ["25"], "time": [5162]}, "edge": {"target": [], "time": []}}, "mouseover": {"state": {"target": ["23", "24", "25"], "time": [4437, 4475, 4652]}, "edge": {"target": [], "time": []}}, "mouseout": {"state": {"target": ["13", "0", "23", "24", "25"], "time": [1103, 1661, 4461, 4516, 5462]}, "edge": {"target": [], "time": []}}}, "displayed_time": "17.89", "trialTime": 21705, "trial_type": "mouselab-mdp", "trial_index": 15, "time_elapsed": 395271, "internal_node_id": "0.0-6.0-1.0-0.0"}}, {"uniqueid": "w88673838:a38991496", "current_trial": 16, "dateTime": 1693565029338, "trialdata": {"revealed_states": [], "clicked_states": [], "num_clicks_accrued": [0, 0, 0, 0, 0, 0, 0, 0, 0, 0, 0, 0, 0], "stateRewards": ["", 1, 1, -2, 7, -31, -6, 76, 1, -36, -16, -53, 2, 1, 7, 13, -47, -10, 47, -7, 72, 46, -56, -2, -2, -2, 11, -80, 44, 38, 16, 67, 85, -78], "withholdReward": false, "trial_id": "mdp_trial_2", "block": "test", "trialIndex": 5, "score": 49, "costs": 0, "simulationMode": [null, null, null, null, null], "rewards": [2, 1, 7, -7, 46], "path": ["0", "0", "12", "13", "14", "19", "21"], "rt": [797, 126, 64, 41, 83], "actions": ["right", "right", "right", "down", "down"], "actionTimes": [2496, 3136, 3712, 4264, 4864], "queries": {"click": {"state": {"target": [], "time": []}, "edge": {"target": [], "time": []}}, "mouseover": {"state": {"target": [], "time": []}, "edge": {"target": [], "time": []}}, "mouseout": {"state": {"target": [], "time": []}, "edge": {"target": [], "time": []}}}, "displayed_time": "15.70", "trialTime": 17633, "trial_type": "mouselab-mdp", "trial_index": 16, "time_elapsed": 413207, "internal_node_id": "0.0-6.0-1.0-1.0"}}, {"uniqueid": "w88673838:a38991496", "current_trial": 17, "dateTime": 1693565048906, "trialdata": {"revealed_states": [], "clicked_states": [], "num_clicks_accrued": [0, 0, 0, 0, 0, 0, 0, 0, 0, 0, 0, 0, 0], "stateRewards": ["", -1, 2, 6, 11, 21, -21, -21, -6, 48, -71, 88, -1, -3, 3, 7, 64, 2, 9, -4, 37, -67, 72, 2, 2, -8, -8, -10, 71, -40, -3, 73, 80, 47], "withholdReward": false, "trial_id": "mdp_trial_3", "block": "test", "trialIndex": 6, "score": -70, "costs": 0, "simulationMode": [null, null, null, null, null], "rewards": [-1, 2, 6, -6, -71], "path": ["0", "0", "1", "2", "3", "8", "10"], "rt": [891, 89, 19, 78, 154], "actions": ["up", "up", "up", "left", "down"], "actionTimes": [3255, 3854, 4382, 4974, 5638], "queries": {"click": {"state": {"target": [], "time": []}, "edge": {"target": [], "time": []}}, "mouseover": {"state": {"target": [], "time": []}, "edge": {"target": [], "time": []}}, "mouseout": {"state": {"target": ["0", "12"], "time": [17773, 17868]}, "edge": {"target": [], "time": []}}}, "displayed_time": "16.37", "trialTime": 19254, "trial_type": "mouselab-mdp", "trial_index": 17, "time_elapsed": 432775, "internal_node_id": "0.0-6.0-1.0-2.0"}}, {"uniqueid": "w88673838:a38991496", "current_trial": 18, "dateTime": 1693565066690, "trialdata": {"revealed_states": [], "clicked_states": [], "num_clicks_accrued": [0, 0, 0, 0, 0, 0, 0, 0, 0, 0, 0, 0, 0], "stateRewards": ["", 1, 2, 3, 16, 63, -25, 16, -4, -14, 82, -66, -1, -3, -3, -11, -14, 19, 46, 3, -34, -82, 66, -2, -3, 4, -5, -63, 77, -37, -1, -45, -41, 84], "withholdReward": false, "trial_id": "mdp_trial_4", "block": "test", "trialIndex": 7, "score": 38, "costs": 0, "simulationMode": [null, null, null, null, null], "rewards": [1, 2, 3, 16, 16], "path": ["0", "0", "1", "2", "3", "4", "7"], "rt": [951, 77, 20, 75, 122], "actions": ["up", "up", "up", "right", "down"], "actionTimes": [2370, 2960, 3489, 4065, 4697], "queries": {"click": {"state": {"target": [], "time": []}, "edge": {"target": [], "time": []}}, "mouseover": {"state": {"target": [], "time": []}, "edge": {"target": [], "time": []}}, "mouseout": {"state": {"target": ["0"], "time": [895]}, "edge": {"target": [], "time": []}}}, "displayed_time": "15.42", "trialTime": 17458, "trial_type": "mouselab-mdp", "trial_index": 18, "time_elapsed": 450559, "internal_node_id": "0.0-6.0-1.0-3.0"}}, {"uniqueid": "w88673838:a38991496", "current_trial": 19, "dateTime": 1693565083136, "trialdata": {"revealed_states": [], "clicked_states": [], "num_clicks_accrued": [0, 0, 0, 0, 0, 0, 0, 0, 0, 0, 0, 0, 0], "stateRewards": ["", -1, -2, 4, 9, 10, -75, 39, 16, -43, 88, -19, -1, 1, 2, 4, -31, 10, 73, 12, 41, -64, -81, -2, 2, -6, 1, -81, -1, -26, 3, -59, -3, -20], "withholdReward": false, "trial_id": "mdp_trial_5", "block": "test", "trialIndex": 8, "score": -2, "costs": 0, "simulationMode": [null, null, null, null, null], "rewards": [-1, -2, 4, 16, -19], "path": ["0", "0", "1", "2", "3", "8", "11"], "rt": [742, 32, 124, 58, 72], "actions": ["up", "up", "up", "left", "left"], "actionTimes": [1806, 2349, 2973, 3533, 4110], "queries": {"click": {"state": {"target": [], "time": []}, "edge": {"target": [], "time": []}}, "mouseover": {"state": {"target": [], "time": []}, "edge": {"target": [], "time": []}}, "mouseout": {"state": {"target": [], "time": []}, "edge": {"target": [], "time": []}}}, "displayed_time": "15.07", "trialTime": 16117, "trial_type": "mouselab-mdp", "trial_index": 19, "time_elapsed": 467005, "internal_node_id": "0.0-6.0-1.0-4.0"}}, {"uniqueid": "w88673838:a38991496", "current_trial": 20, "dateTime": 1693565099410, "trialdata": {"revealed_states": [], "clicked_states": [], "num_clicks_accrued": [0, 0, 0, 0, 0, 0, 0, 0, 0, 0, 0, 0, 0], "stateRewards": ["", 2, 2, 3, -15, 23, -14, 73, -7, -32, -20, -6, 1, 1, -5, -12, 73, 6, -84, 11, -81, -57, 13, -2, -1, -4, -8, -52, -58, 49, 13, 5, -41, -41], "withholdReward": false, "trial_id": "mdp_trial_6", "block": "test", "trialIndex": 9, "score": -32, "costs": 0, "simulationMode": [null, null, null, null, null], "rewards": [2, 2, 3, -7, -32], "path": ["0", "0", "1", "2", "3", "8", "9"], "rt": [762, 348, 111, 33, 129], "actions": ["up", "up", "up", "left", "up"], "actionTimes": [1450, 2306, 2921, 3457, 4089], "queries": {"click": {"state": {"target": [], "time": []}, "edge": {"target": [], "time": []}}, "mouseover": {"state": {"target": [], "time": []}, "edge": {"target": [], "time": []}}, "mouseout": {"state": {"target": [], "time": []}, "edge": {"target": [], "time": []}}}, "displayed_time": "14.69", "trialTime": 15970, "trial_type": "mouselab-mdp", "trial_index": 20, "time_elapsed": 483279, "internal_node_id": "0.0-6.0-1.0-5.0"}}, {"uniqueid": "w88673838:a38991496", "current_trial": 21, "dateTime": 1693565115842, "trialdata": {"revealed_states": [], "clicked_states": [], "num_clicks_accrued": [0, 0, 0, 0, 0, 0, 0, 0, 0, 0, 0, 0, 0], "stateRewards": ["", 1, 1, -6, -2, 7, 77, 3, 16, -16, 66, 31, -1, 3, -8, -6, 33, -50, -48, 7, -60, -66, 36, 2, -3, 3, -7, -12, -61, -79, -4, 8, 74, -70], "withholdReward": false, "trial_id": "mdp_trial_7", "block": "test", "trialIndex": 10, "score": 71, "costs": 0, "simulationMode": [null, null, null, null, null], "rewards": [1, 1, -6, -2, 77], "path": ["0", "0", "1", "2", "3", "4", "6"], "rt": [659, 75, 712, 406, 167], "actions": ["up", "up", "up", "right", "right"], "actionTimes": [1415, 1999, 3223, 4144, 4823], "queries": {"click": {"state": {"target": [], "time": []}, "edge": {"target": [], "time": []}}, "mouseover": {"state": {"target": [], "time": []}, "edge": {"target": [], "time": []}}, "mouseout": {"state": {"target": ["0", "7", "4"], "time": [15562, 15903, 15930]}, "edge": {"target": [], "time": []}}}, "displayed_time": "14.76", "trialTime": 16120, "trial_type": "mouselab-mdp", "trial_index": 21, "time_elapsed": 499711, "internal_node_id": "0.0-6.0-1.0-6.0"}}, {"uniqueid": "w88673838:a38991496", "current_trial": 22, "dateTime": 1693565132050, "trialdata": {"revealed_states": [], "clicked_states": [], "num_clicks_accrued": [0, 0, 0, 0, 0, 0, 0, 0, 0, 0, 0, 0, 0], "stateRewards": ["", 1, 1, -5, 10, -31, 73, 14, -8, -23, 63, -70, -1, 2, 8, 7, 25, -59, 27, -10, -40, -71, -15, -2, 3, -8, -5, -19, 77, -34, 7, 67, 63, 19], "withholdReward": false, "trial_id": "mdp_trial_8", "block": "test", "trialIndex": 11, "score": -24, "costs": 0, "simulationMode": [null, null, null, null, null], "rewards": [1, 1, -5, 10, -31], "path": ["0", "0", "1", "2", "3", "4", "5"], "rt": [592, 19, 2, 35, 36], "actions": ["up", "up", "up", "right", "up"], "actionTimes": [1569, 2104, 2611, 3167, 3744], "queries": {"click": {"state": {"target": [], "time": []}, "edge": {"target": [], "time": []}}, "mouseover": {"state": {"target": [], "time": []}, "edge": {"target": [], "time": []}}, "mouseout": {"state": {"target": ["2", "1"], "time": [180, 354]}, "edge": {"target": [], "time": []}}}, "displayed_time": "14.98", "trialTime": 15872, "trial_type": "mouselab-mdp", "trial_index": 22, "time_elapsed": 515919, "internal_node_id": "0.0-6.0-1.0-7.0"}}, {"uniqueid": "w88673838:a38991496", "current_trial": 23, "dateTime": 1693565148144, "trialdata": {"revealed_states": [], "clicked_states": [], "num_clicks_accrued": [0, 0, 0, 0, 0, 0, 0, 0, 0, 0, 0, 0, 0], "stateRewards": ["", -2, 2, -4, -4, -59, 88, 62, -3, 69, -15, -34, 1, -2, -5, 7, -54, -20, 78, -16, -74, -53, -21, 2, -4, 2, 13, -8, -44, 26, 9, 72, 4, 17], "withholdReward": false, "trial_id": "mdp_trial_9", "block": "test", "trialIndex": 12, "score": 5, "costs": 0, "simulationMode": [null, null, null, null, null], "rewards": [2, -4, 2, 13, -8], "path": ["0", "0", "23", "24", "25", "26", "27"], "rt": [660, 105, 76, 105, 84], "actions": ["left", "left", "left", "up", "up"], "actionTimes": [1653, 2269, 2852, 3468, 4061], "queries": {"click": {"state": {"target": [], "time": []}, "edge": {"target": [], "time": []}}, "mouseover": {"state": {"target": [], "time": []}, "edge": {"target": [], "time": []}}, "mouseout": {"state": {"target": [], "time": []}, "edge": {"target": [], "time": []}}}, "displayed_time": "14.99", "trialTime": 15701, "trial_type": "mouselab-mdp", "trial_index": 23, "time_elapsed": 532013, "internal_node_id": "0.0-6.0-1.0-8.0"}}, {"uniqueid": "w88673838:a38991496", "current_trial": 24, "dateTime": 1693565164321, "trialdata": {"revealed_states": [], "clicked_states": [], "num_clicks_accrued": [0, 0, 0, 0, 0, 0, 0, 0, 0, 0, 0, 0, 0], "stateRewards": ["", 1, -2, 4, 7, -43, -83, -60, -5, -86, -80, 83, -1, -2, 6, 11, -15, 21, 13, 9, 29, -49, 11, -1, 4, -6, -11, 87, 40, 63, -8, -39, -11, 62], "withholdReward": false, "trial_id": "mdp_trial_10", "block": "test", "trialIndex": 13, "score": 49, "costs": 0, "simulationMode": [null, null, null, null, null], "rewards": [-1, 4, -6, -11, 63], "path": ["0", "0", "23", "24", "25", "26", "29"], "rt": [1340, 26, 47, 78, 44], "actions": ["left", "left", "left", "up", "left"], "actionTimes": [2417, 2960, 3529, 4120, 4673], "queries": {"click": {"state": {"target": [], "time": []}, "edge": {"target": [], "time": []}}, "mouseover": {"state": {"target": [], "time": []}, "edge": {"target": [], "time": []}}, "mouseout": {"state": {"target": [], "time": []}, "edge": {"target": [], "time": []}}}, "displayed_time": "15.08", "trialTime": 15840, "trial_type": "mouselab-mdp", "trial_index": 24, "time_elapsed": 548189, "internal_node_id": "0.0-6.0-1.0-9.0"}}, {"uniqueid": "w88673838:a38991496", "current_trial": 25, "dateTime": 1693565194984, "trialdata": {"revealed_states": [], "clicked_states": [], "num_clicks_accrued": [0, 0, 0, 0, 0, 0, 0, 0, 0, 0, 0, 0, 0], "stateRewards": ["", 2, -1, 5, 8, 75, -35, -77, 1, -9, -81, -58, 1, 2, -7, 5, 77, -16, 19, 16, -10, -18, 40, -2, 3, 7, -5, 64, 1, -62, 10, 27, 10, 65], "withholdReward": false, "trial_id": "mdp_trial_11", "block": "test", "trialIndex": 14, "score": 4, "costs": 0, "simulationMode": [null, null, null, null, null], "rewards": [-2, 3, 7, -5, 1], "path": ["0", "0", "23", "24", "25", "26", "28"], "rt": [597, 571, 212, 83, 97], "actions": ["left", "left", "left", "up", "right"], "actionTimes": [1656, 2736, 3456, 4049, 4648], "queries": {"click": {"state": {"target": [], "time": []}, "edge": {"target": [], "time": []}}, "mouseover": {"state": {"target": [], "time": []}, "edge": {"target": [], "time": []}}, "mouseout": {"state": {"target": [], "time": []}, "edge": {"target": [], "time": []}}}, "displayed_time": "15.06", "trialTime": 30312, "trial_type": "mouselab-mdp", "trial_index": 25, "time_elapsed": 578853, "internal_node_id": "0.0-6.0-1.0-10.0"}}, {"uniqueid": "w88673838:a38991496", "current_trial": 26, "dateTime": 1693565211049, "trialdata": {"revealed_states": [], "clicked_states": [], "num_clicks_accrued": [0, 0, 0, 0, 0, 0, 0, 0, 0, 0, 0, 0, 0], "stateRewards": ["", 1, 4, 7, -16, -84, -6, -46, -12, -7, -49, -26, -1, 2, -4, 2, 22, 37, -64, 1, 88, -13, -10, 1, -4, -2, 5, 2, -10, -34, 9, 66, 55, 38], "withholdReward": false, "trial_id": "mdp_trial_12", "block": "test", "trialIndex": 15, "score": 21, "costs": 0, "simulationMode": [null, null, null, null, null], "rewards": [-1, 2, -4, 2, 22], "path": ["0", "0", "12", "13", "14", "15", "16"], "rt": [1061, 47, 2, 64, 11], "actions": ["right", "right", "right", "up", "up"], "actionTimes": [1931, 2491, 3005, 3587, 4107], "queries": {"click": {"state": {"target": [], "time": []}, "edge": {"target": [], "time": []}}, "mouseover": {"state": {"target": [], "time": []}, "edge": {"target": [], "time": []}}, "mouseout": {"state": {"target": [], "time": []}, "edge": {"target": [], "time": []}}}, "displayed_time": "14.87", "trialTime": 15732, "trial_type": "mouselab-mdp", "trial_index": 26, "time_elapsed": 594918, "internal_node_id": "0.0-6.0-1.0-11.0"}}, {"uniqueid": "w88673838:a38991496", "current_trial": 27, "dateTime": 1693565226929, "trialdata": {"revealed_states": [], "clicked_states": [], "num_clicks_accrued": [0, 0, 0, 0, 0, 0, 0, 0, 0, 0, 0, 0, 0], "stateRewards": ["", -2, -1, -5, 10, -36, -70, 68, -9, 86, 71, -10, 2, -4, 7, -7, 66, 44, -66, -13, -69, 43, 15, -2, 2, 6, -13, 62, 57, 50, -10, -69, 42, -72], "withholdReward": false, "trial_id": "mdp_trial_13", "block": "test", "trialIndex": 16, "score": -68, "costs": 0, "simulationMode": [null, null, null, null, null], "rewards": [2, -4, 7, -7, -66], "path": ["0", "0", "12", "13", "14", "15", "18"], "rt": [573, 624, 128, 121, 71], "actions": ["right", "right", "right", "up", "left"], "actionTimes": [1295, 2438, 3070, 3702, 4278], "queries": {"click": {"state": {"target": [], "time": []}, "edge": {"target": [], "time": []}}, "mouseover": {"state": {"target": [], "time": []}, "edge": {"target": [], "time": []}}, "mouseout": {"state": {"target": [], "time": []}, "edge": {"target": [], "time": []}}}, "displayed_time": "14.72", "trialTime": 15503, "trial_type": "mouselab-mdp", "trial_index": 27, "time_elapsed": 610798, "internal_node_id": "0.0-6.0-1.0-12.0"}}, {"uniqueid": "w88673838:a38991496", "current_trial": 28, "dateTime": 1693565242854, "trialdata": {"revealed_states": [], "clicked_states": [], "num_clicks_accrued": [0, 0, 0, 0, 0, 0, 0, 0, 0, 0, 0, 0, 0], "stateRewards": ["", 2, 4, -6, -13, -75, -81, 30, 7, 5, 59, -65, -1, -1, 7, 14, -38, 36, -41, 1, -54, -5, 64, 2, -1, 5, 6, -19, 79, 11, 16, -33, -50, 58], "withholdReward": false, "trial_id": "mdp_trial_14", "block": "test", "trialIndex": 17, "score": 55, "costs": 0, "simulationMode": [null, null, null, null, null], "rewards": [-1, -1, 7, 14, 36], "path": ["0", "0", "12", "13", "14", "15", "17"], "rt": [637, 65, 565, 90, 11], "actions": ["right", "right", "right", "up", "right"], "actionTimes": [1584, 2152, 3224, 3816, 4336], "queries": {"click": {"state": {"target": [], "time": []}, "edge": {"target": [], "time": []}}, "mouseover": {"state": {"target": [], "time": []}, "edge": {"target": [], "time": []}}, "mouseout": {"state": {"target": [], "time": []}, "edge": {"target": [], "time": []}}}, "displayed_time": "14.95", "trialTime": 15592, "trial_type": "mouselab-mdp", "trial_index": 28, "time_elapsed": 626724, "internal_node_id": "0.0-6.0-1.0-13.0"}}, {"uniqueid": "w88673838:a38991496", "current_trial": 29, "dateTime": 1693565260174, "trialdata": {"revealed_states": [], "clicked_states": [], "num_clicks_accrued": [0, 0, 0, 0, 0, 0, 0, 0, 0, 0, 0, 0, 0], "stateRewards": ["", -2, -1, -2, -15, 87, 57, 29, -10, 77, -80, -7, 1, -3, 6, 14, -11, 87, -59, 4, -71, 16, -11, 2, 2, -7, 2, -47, 61, 50, 14, -20, 17, 81], "withholdReward": false, "trial_id": "mdp_trial_15", "block": "test", "trialIndex": 18, "score": 28, "costs": 0, "simulationMode": [null, null, null, null, null], "rewards": [2, 2, -7, 14, 17], "path": ["0", "0", "23", "24", "25", "30", "32"], "rt": [625, 17, 61, 72, 58], "actions": ["left", "left", "left", "down", "down"], "actionTimes": [1679, 2198, 2774, 3358, 3918], "queries": {"click": {"state": {"target": [], "time": []}, "edge": {"target": [], "time": []}}, "mouseover": {"state": {"target": [], "time": []}, "edge": {"target": [], "time": []}}, "mouseout": {"state": {"target": [], "time": []}, "edge": {"target": [], "time": []}}}, "displayed_time": "15.06", "trialTime": 16998, "trial_type": "mouselab-mdp", "trial_index": 29, "time_elapsed": 644044, "internal_node_id": "0.0-6.0-1.0-14.0"}}, {"uniqueid": "w88673838:a38991496", "current_trial": 30, "dateTime": 1693565276144, "trialdata": {"revealed_states": [], "clicked_states": [], "num_clicks_accrued": [0, 0, 0, 0, 0, 0, 0, 0, 0, 0, 0, 0, 0], "stateRewards": ["", 2, 3, -2, -8, -8, -41, 74, 15, -23, -80, 1, 1, 3, 3, -15, -63, -78, 67, 13, 75, -41, 86, 2, -2, 6, -3, -8, -49, 50, -6, 83, 74, 80], "withholdReward": false, "trial_id": "mdp_trial_16", "block": "test", "trialIndex": 19, "score": 80, "costs": 0, "simulationMode": [null, null, null, null, null], "rewards": [2, -2, 6, -6, 80], "path": ["0", "0", "23", "24", "25", "30", "33"], "rt": [727, 2, 43, 83, 137], "actions": ["left", "left", "left", "down", "left"], "actionTimes": [1660, 2172, 2731, 3332, 3971], "queries": {"click": {"state": {"target": [], "time": []}, "edge": {"target": [], "time": []}}, "mouseover": {"state": {"target": [], "time": []}, "edge": {"target": [], "time": []}}, "mouseout": {"state": {"target": [], "time": []}, "edge": {"target": [], "time": []}}}, "displayed_time": "14.94", "trialTime": 15628, "trial_type": "mouselab-mdp", "trial_index": 30, "time_elapsed": 660013, "internal_node_id": "0.0-6.0-1.0-15.0"}}, {"uniqueid": "w88673838:a38991496", "current_trial": 31, "dateTime": 1693565294928, "trialdata": {"revealed_states": [], "clicked_states": [], "num_clicks_accrued": [0, 0, 0, 0, 0, 0, 0, 0, 0, 0, 0, 0, 0], "stateRewards": ["", 1, 2, -3, -6, 50, -7, 7, -7, -80, 21, -1, 2, 2, 4, -1, 33, 84, 1, 14, -53, 81, 6, -2, -2, -3, -9, -87, -38, -59, -5, -74, -3, -71], "withholdReward": false, "trial_id": "mdp_trial_17", "block": "test", "trialIndex": 20, "score": -86, "costs": 0, "simulationMode": [null, null, null, null, null], "rewards": [-2, -2, -3, -5, -74], "path": ["0", "0", "23", "24", "25", "30", "31"], "rt": [539, 457, 83, 96, 112], "actions": ["left", "left", "left", "down", "right"], "actionTimes": [1272, 2239, 2824, 3424, 4040], "queries": {"click": {"state": {"target": [], "time": []}, "edge": {"target": [], "time": []}}, "mouseover": {"state": {"target": [], "time": []}, "edge": {"target": [], "time": []}}, "mouseout": {"state": {"target": [], "time": []}, "edge": {"target": [], "time": []}}}, "displayed_time": "14.73", "trialTime": 18416, "trial_type": "mouselab-mdp", "trial_index": 31, "time_elapsed": 678797, "internal_node_id": "0.0-6.0-1.0-16.0"}}, {"uniqueid": "w88673838:a38991496", "current_trial": 32, "dateTime": 1693565310557, "trialdata": {"revealed_states": [], "clicked_states": [], "num_clicks_accrued": [0, 0, 0, 0, 0, 0, 0, 0, 0, 0, 0, 0, 0], "stateRewards": ["", -1, -3, -7, -4, -85, -70, 79, 8, 84, -66, 42, 2, -2, -3, -16, -54, -66, 68, -3, 21, -14, 7, -2, -1, -3, -8, 75, 80, 86, -7, -84, 73, -16], "withholdReward": false, "trial_id": "mdp_trial_18", "block": "test", "trialIndex": 21, "score": -20, "costs": 0, "simulationMode": [null, null, null, null, null], "rewards": [2, -2, -3, -3, -14], "path": ["0", "0", "12", "13", "14", "19", "21"], "rt": [623, 3, 49, 28, 81], "actions": ["right", "right", "right", "down", "down"], "actionTimes": [1300, 1815, 2380, 2932, 3532], "queries": {"click": {"state": {"target": [], "time": []}, "edge": {"target": [], "time": []}}, "mouseover": {"state": {"target": [], "time": []}, "edge": {"target": [], "time": []}}, "mouseout": {"state": {"target": [], "time": []}, "edge": {"target": [], "time": []}}}, "displayed_time": "14.68", "trialTime": 15284, "trial_type": "mouselab-mdp", "trial_index": 32, "time_elapsed": 694427, "internal_node_id": "0.0-6.0-1.0-17.0"}}, {"uniqueid": "w88673838:a38991496", "current_trial": 33, "dateTime": 1693565326573, "trialdata": {"revealed_states": [], "clicked_states": [], "num_clicks_accrued": [0, 0, 0, 0, 0, 0, 0, 0, 0, 0, 0, 0, 0], "stateRewards": ["", 1, -1, 1, -14, -10, 67, -28, -11, 72, 40, -65, -1, 1, 1, -2, 8, -55, 34, -10, 61, 33, -15, 2, -4, 7, 4, -75, 63, -21, -16, 61, 19, 21], "withholdReward": false, "trial_id": "mdp_trial_19", "block": "test", "trialIndex": 22, "score": -24, "costs": 0, "simulationMode": [null, null, null, null, null], "rewards": [-1, 1, 1, -10, -15], "path": ["0", "0", "12", "13", "14", "19", "22"], "rt": [599, 29, 81, 71, 129], "actions": ["right", "right", "right", "down", "left"], "actionTimes": [1609, 2145, 2729, 3305, 3937], "queries": {"click": {"state": {"target": [], "time": []}, "edge": {"target": [], "time": []}}, "mouseover": {"state": {"target": [], "time": []}, "edge": {"target": [], "time": []}}, "mouseout": {"state": {"target": [], "time": []}, "edge": {"target": [], "time": []}}}, "displayed_time": "15.01", "trialTime": 15689, "trial_type": "mouselab-mdp", "trial_index": 33, "time_elapsed": 710443, "internal_node_id": "0.0-6.0-1.0-18.0"}}, {"uniqueid": "w88673838:a38991496", "current_trial": 34, "dateTime": 1693565343023, "trialdata": {"revealed_states": [], "clicked_states": [], "num_clicks_accrued": [0, 0, 0, 0, 0, 0, 0, 0, 0, 0, 0, 0, 0], "stateRewards": ["", 2, -3, 5, 11, -79, 54, 11, -9, -78, 33, 22, -2, -1, 2, 14, 43, 34, 1, 10, 49, -65, 39, -1, 1, -1, 3, -16, -2, 11, 2, 12, 48, -65], "withholdReward": false, "trial_id": "mdp_trial_20", "block": "test", "trialIndex": 23, "score": 58, "costs": 0, "simulationMode": [null, null, null, null, null], "rewards": [-2, -1, 2, 10, 49], "path": ["0", "0", "12", "13", "14", "19", "20"], "rt": [579, 470, 105, 84, 177], "actions": ["right", "right", "right", "down", "right"], "actionTimes": [1772, 2755, 3363, 3956, 4635], "queries": {"click": {"state": {"target": [], "time": []}, "edge": {"target": [], "time": []}}, "mouseover": {"state": {"target": [], "time": []}, "edge": {"target": [], "time": []}}, "mouseout": {"state": {"target": [], "time": []}, "edge": {"target": [], "time": []}}}, "displayed_time": "15.20", "trialTime": 16140, "trial_type": "mouselab-mdp", "trial_index": 34, "time_elapsed": 726892, "internal_node_id": "0.0-6.0-1.0-19.0"}}, {"uniqueid": "w88673838:a38991496", "current_trial": 35, "dateTime": 1693565359207, "trialdata": {"revealed_states": [], "clicked_states": [], "num_clicks_accrued": [0, 0, 0, 0, 0, 0, 0, 0, 0, 0, 0, 0, 0], "stateRewards": ["", -2, 2, 8, -6, -25, 3, 87, 2, -62, -2, 74, -2, -1, 2, -1, 79, 49, -37, -14, 5, 67, -9, -1, 2, -2, 5, 15, 38, 32, -14, -38, -38, 30], "withholdReward": false, "trial_id": "mdp_trial_21", "block": "test", "trialIndex": 24, "score": 84, "costs": 0, "simulationMode": [null, null, null, null, null], "rewards": [-2, 2, 8, 2, 74], "path": ["0", "0", "1", "2", "3", "8", "11"], "rt": [740, 125, 71, 73, 102], "actions": ["up", "up", "up", "left", "left"], "actionTimes": [1808, 2440, 3024, 3600, 4215], "queries": {"click": {"state": {"target": [], "time": []}, "edge": {"target": [], "time": []}}, "mouseover": {"state": {"target": [], "time": []}, "edge": {"target": [], "time": []}}, "mouseout": {"state": {"target": [], "time": []}, "edge": {"target": [], "time": []}}}, "displayed_time": "15.07", "trialTime": 15823, "trial_type": "mouselab-mdp", "trial_index": 35, "time_elapsed": 743076, "internal_node_id": "0.0-6.0-1.0-20.0"}}, {"uniqueid": "w88673838:a38991496", "current_trial": 36, "dateTime": 1693565375254, "trialdata": {"revealed_states": [], "clicked_states": [], "num_clicks_accrued": [0, 0, 0, 0, 0, 0, 0, 0, 0, 0, 0, 0, 0], "stateRewards": ["", 1, -4, -4, 8, 1, -79, 68, -10, -79, 8, -74, -1, -3, -6, 14, 43, 23, 9, 5, -51, 63, 61, -2, 4, 6, -10, 69, -32, 57, 15, -80, -80, -77], "withholdReward": false, "trial_id": "mdp_trial_22", "block": "test", "trialIndex": 25, "score": -78, "costs": 0, "simulationMode": [null, null, null, null, null], "rewards": [1, -4, -4, 8, -79], "path": ["0", "0", "1", "2", "3", "4", "6"], "rt": [585, 461, 56, 24, 45], "actions": ["up", "up", "up", "right", "right"], "actionTimes": [1518, 2494, 3062, 3590, 4142], "queries": {"click": {"state": {"target": [], "time": []}, "edge": {"target": [], "time": []}}, "mouseover": {"state": {"target": [], "time": []}, "edge": {"target": [], "time": []}}, "mouseout": {"state": {"target": [], "time": []}, "edge": {"target": [], "time": []}}}, "displayed_time": "14.94", "trialTime": 15702, "trial_type": "mouselab-mdp", "trial_index": 36, "time_elapsed": 759123, "internal_node_id": "0.0-6.0-1.0-21.0"}}, {"uniqueid": "w88673838:a38991496", "current_trial": 37, "dateTime": 1693565391564, "trialdata": {"revealed_states": [], "clicked_states": [], "num_clicks_accrued": [0, 0, 0, 0, 0, 0, 0, 0, 0, 0, 0, 0, 0], "stateRewards": ["", 1, 4, 5, 8, -55, -11, 8, 16, -37, 77, -22, -2, 3, -8, -10, 45, 87, -67, 4, 17, -33, -22, -1, -3, 7, 6, -39, -85, 75, -1, 7, -48, 45], "withholdReward": false, "trial_id": "mdp_trial_23", "block": "test", "trialIndex": 26, "score": -11, "costs": 0, "simulationMode": [null, null, null, null, null], "rewards": [1, 4, 5, 16, -37], "path": ["0", "0", "1", "2", "3", "8", "9"], "rt": [653, 6, 22, 74, 102], "actions": ["up", "up", "up", "left", "up"], "actionTimes": [1766, 2277, 2813, 3398, 4013], "queries": {"click": {"state": {"target": [], "time": []}, "edge": {"target": [], "time": []}}, "mouseover": {"state": {"target": [], "time": []}, "edge": {"target": [], "time": []}}, "mouseout": {"state": {"target": [], "time": []}, "edge": {"target": [], "time": []}}}, "displayed_time": "15.12", "trialTime": 15965, "trial_type": "mouselab-mdp", "trial_index": 37, "time_elapsed": 775434, "internal_node_id": "0.0-6.0-1.0-22.0"}}, {"uniqueid": "w88673838:a38991496", "current_trial": 38, "dateTime": 1693565407310, "trialdata": {"revealed_states": [], "clicked_states": [], "num_clicks_accrued": [0, 0, 0, 0, 0, 0, 0, 0, 0, 0, 0, 0, 0], "stateRewards": ["", -2, -4, -2, 10, -8, -15, -47, 7, -84, 53, 5, -1, 2, -7, 3, 83, 31, 47, -1, 30, -8, 69, 2, -4, -1, 8, -7, 12, -8, -8, -13, 30, -84], "withholdReward": false, "trial_id": "mdp_trial_24", "block": "test", "trialIndex": 27, "score": 52, "costs": 0, "simulationMode": [null, null, null, null, null], "rewards": [-2, -4, -2, 7, 53], "path": ["0", "0", "1", "2", "3", "8", "10"], "rt": [493, 424, 86, 84, 81], "actions": ["up", "up", "up", "left", "down"], "actionTimes": [1311, 2239, 2838, 3431, 4014], "queries": {"click": {"state": {"target": [], "time": []}, "edge": {"target": [], "time": []}}, "mouseover": {"state": {"target": [], "time": []}, "edge": {"target": [], "time": []}}, "mouseout": {"state": {"target": [], "time": []}, "edge": {"target": [], "time": []}}}, "displayed_time": "14.82", "trialTime": 15391, "trial_type": "mouselab-mdp", "trial_index": 38, "time_elapsed": 791179, "internal_node_id": "0.0-6.0-1.0-23.0"}}, {"uniqueid": "w88673838:a38991496", "current_trial": 39, "dateTime": 1693565423815, "trialdata": {"revealed_states": [], "clicked_states": [], "num_clicks_accrued": [0, 0, 0, 0, 0, 0, 0, 0, 0, 0, 0, 0, 0], "stateRewards": ["", -1, 2, 7, 8, 75, 67, -11, 6, 52, -17, 38, -1, 4, -8, 14, 74, -37, -17, -12, 52, 55, 71, -2, -1, -5, 2, 21, 6, -88, -14, 64, -61, -47], "withholdReward": false, "trial_id": "mdp_trial_25", "block": "test", "trialIndex": 28, "score": 91, "costs": 0, "simulationMode": [null, null, null, null, null], "rewards": [-1, 2, 7, 8, 75], "path": ["0", "0", "1", "2", "3", "4", "5"], "rt": [477, 358, 101, 33, 57], "actions": ["up", "up", "up", "right", "up"], "actionTimes": [1345, 2217, 2824, 3368, 3952], "queries": {"click": {"state": {"target": [], "time": []}, "edge": {"target": [], "time": []}}, "mouseover": {"state": {"target": [], "time": []}, "edge": {"target": [], "time": []}}, "mouseout": {"state": {"target": [], "time": []}, "edge": {"target": [], "time": []}}}, "displayed_time": "14.87", "trialTime": 16130, "trial_type": "mouselab-mdp", "trial_index": 39, "time_elapsed": 807684, "internal_node_id": "0.0-6.0-1.0-24.0"}}, {"uniqueid": "w88673838:a38991496", "current_trial": 40, "dateTime": 1693565439871, "trialdata": {"revealed_states": [], "clicked_states": [], "num_clicks_accrued": [0, 0, 0, 0, 0, 0, 0, 0, 0, 0, 0, 0, 0], "stateRewards": ["", -1, -1, 4, -16, -75, 81, -51, -7, -84, 73, -30, -2, 1, -3, -16, -77, 33, 14, 1, 45, 87, -66, 2, 2, -5, -7, -19, -17, 79, -3, 8, 49, 47], "withholdReward": false, "trial_id": "mdp_trial_26", "block": "test", "trialIndex": 29, "score": -65, "costs": 0, "simulationMode": [null, null, null, null, null], "rewards": [-1, -1, 4, -16, -51], "path": ["0", "0", "1", "2", "3", "4", "7"], "rt": [745, 96, 41, 21, 85], "actions": ["up", "up", "up", "right", "down"], "actionTimes": [1386, 1986, 2530, 3078, 3666], "queries": {"click": {"state": {"target": [], "time": []}, "edge": {"target": [], "time": []}}, "mouseover": {"state": {"target": [], "time": []}, "edge": {"target": [], "time": []}}, "mouseout": {"state": {"target": [], "time": []}, "edge": {"target": [], "time": []}}}, "displayed_time": "14.64", "trialTime": 15691, "trial_type": "mouselab-mdp", "trial_index": 40, "time_elapsed": 823740, "internal_node_id": "0.0-6.0-1.0-25.0"}}, {"uniqueid": "w88673838:a38991496", "current_trial": 41, "dateTime": 1693565455751, "trialdata": {"revealed_states": [], "clicked_states": [], "num_clicks_accrued": [0, 0, 0, 0, 0, 0, 0, 0, 0, 0, 0, 0, 0], "stateRewards": ["", 1, 1, 4, 11, 83, -66, 18, -16, -23, 5, 25, 1, -3, 1, -12, 18, 24, -86, -11, -64, 36, 40, 2, 1, -6, 13, 55, 29, 72, -2, 81, -72, -41], "withholdReward": false, "trial_id": "mdp_trial_27", "block": "test", "trialIndex": 30, "score": 65, "costs": 0, "simulationMode": [null, null, null, null, null], "rewards": [2, 1, -6, 13, 55], "path": ["0", "0", "23", "24", "25", "26", "27"], "rt": [628, 80, 125, 105, 44], "actions": ["left", "left", "left", "up", "up"], "actionTimes": [1469, 2060, 2693, 3309, 3861], "queries": {"click": {"state": {"target": [], "time": []}, "edge": {"target": [], "time": []}}, "mouseover": {"state": {"target": [], "time": []}, "edge": {"target": [], "time": []}}, "mouseout": {"state": {"target": [], "time": []}, "edge": {"target": [], "time": []}}}, "displayed_time": "14.84", "trialTime": 15517, "trial_type": "mouselab-mdp", "trial_index": 41, "time_elapsed": 839620, "internal_node_id": "0.0-6.0-1.0-26.0"}}, {"uniqueid": "w88673838:a38991496", "current_trial": 42, "dateTime": 1693565471652, "trialdata": {"revealed_states": [], "clicked_states": [], "num_clicks_accrued": [0, 0, 0, 0, 0, 0, 0, 0, 0, 0, 0, 0, 0], "stateRewards": ["", 1, 1, -5, 8, -6, 45, 16, -6, -7, -22, -38, -1, -4, 8, -11, -16, 21, -45, -15, -59, -32, 42, -1, 3, 6, 11, -7, 34, -27, -8, 85, 43, -9], "withholdReward": false, "trial_id": "mdp_trial_28", "block": "test", "trialIndex": 31, "score": -24, "costs": 0, "simulationMode": [null, null, null, null, null], "rewards": [-1, -4, 8, -11, -16], "path": ["0", "0", "12", "13", "14", "15", "16"], "rt": [484, 488, 89, 81, 494], "actions": ["right", "right", "right", "up", "up"], "actionTimes": [1245, 2245, 2845, 3437, 4445], "queries": {"click": {"state": {"target": [], "time": []}, "edge": {"target": [], "time": []}}, "mouseover": {"state": {"target": [], "time": []}, "edge": {"target": [], "time": []}}, "mouseout": {"state": {"target": [], "time": []}, "edge": {"target": [], "time": []}}}, "displayed_time": "14.76", "trialTime": 15524, "trial_type": "mouselab-mdp", "trial_index": 42, "time_elapsed": 855522, "internal_node_id": "0.0-6.0-1.0-27.0"}}, {"uniqueid": "w88673838:a38991496", "current_trial": 43, "dateTime": 1693565487670, "trialdata": {"revealed_states": [], "clicked_states": [], "num_clicks_accrued": [0, 0, 0, 0, 0, 0, 0, 0, 0, 0, 0, 0, 0], "stateRewards": ["", 2, -1, 8, -2, -16, 69, -39, -7, -13, -27, -86, 2, -2, 2, 13, -34, -16, -20, -5, 19, 81, 32, -2, -1, 2, -14, 20, 80, 58, 4, 70, 12, 73], "withholdReward": false, "trial_id": "mdp_trial_29", "block": "test", "trialIndex": 32, "score": 15, "costs": 0, "simulationMode": [null, null, null, null, null], "rewards": [-2, -1, 2, 4, 12], "path": ["0", "0", "23", "24", "25", "30", "32"], "rt": [428, 387, 68, 80, 60], "actions": ["left", "left", "left", "down", "down"], "actionTimes": [995, 1891, 2467, 3051, 3618], "queries": {"click": {"state": {"target": [], "time": []}, "edge": {"target": [], "time": []}}, "mouseover": {"state": {"target": [], "time": []}, "edge": {"target": [], "time": []}}, "mouseout": {"state": {"target": [], "time": []}, "edge": {"target": [], "time": []}}}, "displayed_time": "14.57", "trialTime": 15626, "trial_type": "mouselab-mdp", "trial_index": 43, "time_elapsed": 871538, "internal_node_id": "0.0-6.0-1.0-28.0"}}, {"uniqueid": "w88673838:a38991496", "current_trial": 44, "dateTime": 1693565504605, "trialdata": {"revealed_states": [], "clicked_states": [], "num_clicks_accrued": [0, 0, 0, 0, 0, 0, 0, 0, 0, 0, 0, 0, 0], "stateRewards": ["", -2, -1, 3, -3, 71, -58, -21, 7, -10, -75, -37, 2, 4, -1, -12, -79, -29, -48, 3, -41, -10, -30, -1, -2, 1, -15, 13, 66, 22, -1, -42, -86, -55], "withholdReward": false, "trial_id": "mdp_trial_30", "block": "test", "trialIndex": 33, "score": -2, "costs": 0, "simulationMode": [null, null, null, null, null], "rewards": [2, 4, -1, 3, -10], "path": ["0", "0", "12", "13", "14", "19", "21"], "rt": [612, 24, 15, 38, 69], "actions": ["right", "right", "right", "down", "down"], "actionTimes": [1660, 2196, 2732, 3276, 3869], "queries": {"click": {"state": {"target": [], "time": []}, "edge": {"target": [], "time": []}}, "mouseover": {"state": {"target": [], "time": []}, "edge": {"target": [], "time": []}}, "mouseout": {"state": {"target": [], "time": []}, "edge": {"target": [], "time": []}}}, "displayed_time": "15.05", "trialTime": 16557, "trial_type": "mouselab-mdp", "trial_index": 44, "time_elapsed": 888474, "internal_node_id": "0.0-6.0-1.0-29.0"}}, {"uniqueid": "w88673838:a38991496", "current_trial": 45, "dateTime": 1693565520605, "trialdata": {"revealed_states": [], "clicked_states": [], "num_clicks_accrued": [0, 0, 0, 0, 0, 0, 0, 0, 0, 0, 0, 0, 0], "stateRewards": ["", 1, -1, 1, 13, 31, -56, 72, 2, 41, 5, 63, -2, -3, -2, 3, -71, -26, 52, 13, -31, 24, -67, 2, -2, 5, 4, 66, 43, 72, 9, 86, -26, 44], "withholdReward": false, "trial_id": "mdp_trial_31", "block": "test", "trialIndex": 34, "score": 81, "costs": 0, "simulationMode": [null, null, null, null, null], "rewards": [2, -2, 5, 4, 72], "path": ["0", "0", "23", "24", "25", "26", "29"], "rt": [604, 88, 71, 132, 84], "actions": ["left", "left", "left", "up", "left"], "actionTimes": [1513, 2105, 2688, 3321, 3913], "queries": {"click": {"state": {"target": [], "time": []}, "edge": {"target": [], "time": []}}, "mouseover": {"state": {"target": [], "time": []}, "edge": {"target": [], "time": []}}, "mouseout": {"state": {"target": ["0"], "time": [15237]}, "edge": {"target": [], "time": []}}}, "displayed_time": "14.91", "trialTime": 15593, "trial_type": "mouselab-mdp", "trial_index": 45, "time_elapsed": 904474, "internal_node_id": "0.0-6.0-1.0-30.0"}}, {"uniqueid": "w88673838:a38991496", "current_trial": 46, "dateTime": 1693565536603, "trialdata": {"revealed_states": [], "clicked_states": [], "num_clicks_accrued": [0, 0, 0, 0, 0, 0, 0, 0, 0, 0, 0, 0, 0], "stateRewards": ["", -2, 2, 3, -7, -31, -33, 29, -8, -57, 50, -83, -1, -1, 5, 13, -23, -62, 25, 5, -66, -85, 14, 1, -2, -1, 16, 71, 33, -19, -14, 5, -43, 79], "withholdReward": false, "trial_id": "mdp_trial_32", "block": "test", "trialIndex": 35, "score": 47, "costs": 0, "simulationMode": [null, null, null, null, null], "rewards": [1, -2, -1, 16, 33], "path": ["0", "0", "23", "24", "25", "26", "28"], "rt": [462, 16, 51, 59, 13], "actions": ["left", "left", "left", "up", "right"], "actionTimes": [1358, 1877, 2445, 3013, 3541], "queries": {"click": {"state": {"target": [], "time": []}, "edge": {"target": [], "time": []}}, "mouseover": {"state": {"target": [], "time": []}, "edge": {"target": [], "time": []}}, "mouseout": {"state": {"target": ["0"], "time": [447]}, "edge": {"target": [], "time": []}}}, "displayed_time": "14.90", "trialTime": 15589, "trial_type": "mouselab-mdp", "trial_index": 46, "time_elapsed": 920473, "internal_node_id": "0.0-6.0-1.0-31.0"}}, {"uniqueid": "w88673838:a38991496", "current_trial": 47, "dateTime": 1693565552582, "trialdata": {"revealed_states": [], "clicked_states": [], "num_clicks_accrued": [0, 0, 0, 0, 0, 0, 0, 0, 0, 0, 0, 0, 0], "stateRewards": ["", -2, -4, 4, -11, -63, -60, -7, 2, -14, 81, -43, -1, -1, -5, 7, 10, 69, 40, 8, -83, 52, 60, 1, 2, 5, -5, 16, 64, 14, -3, 29, 7, -51], "withholdReward": false, "trial_id": "mdp_trial_33", "block": "test", "trialIndex": 36, "score": 40, "costs": 0, "simulationMode": [null, null, null, null, null], "rewards": [-1, -1, -5, 7, 40], "path": ["0", "0", "12", "13", "14", "15", "18"], "rt": [672, 48, 43, 43, 59], "actions": ["right", "right", "right", "up", "left"], "actionTimes": [1531, 2083, 2651, 3211, 3786], "queries": {"click": {"state": {"target": [], "time": []}, "edge": {"target": [], "time": []}}, "mouseover": {"state": {"target": [], "time": []}, "edge": {"target": [], "time": []}}, "mouseout": {"state": {"target": ["0"], "time": [581]}, "edge": {"target": [], "time": []}}}, "displayed_time": "14.86", "trialTime": 15611, "trial_type": "mouselab-mdp", "trial_index": 47, "time_elapsed": 936451, "internal_node_id": "0.0-6.0-1.0-32.0"}}, {"uniqueid": "w88673838:a38991496", "current_trial": 48, "dateTime": 1693565568747, "trialdata": {"revealed_states": [], "clicked_states": [], "num_clicks_accrued": [0, 0, 0, 0, 0, 0, 0, 0, 0, 0, 0, 0, 0], "stateRewards": ["", 1, 2, -6, -13, -51, 22, -4, -12, -44, -12, 6, -2, -2, -2, -14, -46, -4, -77, -2, 36, -79, 41, 2, -4, 2, -6, -55, 59, 70, -5, 39, -19, 24], "withholdReward": false, "trial_id": "mdp_trial_34", "block": "test", "trialIndex": 37, "score": -24, "costs": 0, "simulationMode": [null, null, null, null, null], "rewards": [-2, -2, -2, -14, -4], "path": ["0", "0", "12", "13", "14", "15", "17"], "rt": [520, 8, 651, 59, 46], "actions": ["right", "right", "right", "up", "right"], "actionTimes": [1434, 1946, 3122, 3690, 4250], "queries": {"click": {"state": {"target": [], "time": []}, "edge": {"target": [], "time": []}}, "mouseover": {"state": {"target": [], "time": []}, "edge": {"target": [], "time": []}}, "mouseout": {"state": {"target": ["0"], "time": [632]}, "edge": {"target": [], "time": []}}}, "displayed_time": "14.92", "trialTime": 15754, "trial_type": "mouselab-mdp", "trial_index": 48, "time_elapsed": 952617, "internal_node_id": "0.0-6.0-1.0-33.0"}}, {"uniqueid": "w88673838:a38991496", "current_trial": 49, "dateTime": 1693565584485, "trialdata": {"revealed_states": [], "clicked_states": [], "num_clicks_accrued": [0, 0, 0, 0, 0, 0, 0, 0, 0, 0, 0, 0, 0], "stateRewards": ["", 1, 2, 7, 13, 88, -71, 27, 3, 60, 5, -53, -2, 2, -6, -1, -30, 79, 47, -4, -14, 46, 68, 1, 1, 8, 10, -14, 86, 48, -11, -67, -44, 5], "withholdReward": false, "trial_id": "mdp_trial_35", "block": "test", "trialIndex": 38, "score": 4, "costs": 0, "simulationMode": [null, null, null, null, null], "rewards": [1, 1, 8, -11, 5], "path": ["0", "0", "23", "24", "25", "30", "33"], "rt": [485, 86, 21, 81, 110], "actions": ["left", "left", "left", "down", "left"], "actionTimes": [1244, 1844, 2379, 2972, 3588], "queries": {"click": {"state": {"target": [], "time": []}, "edge": {"target": [], "time": []}}, "mouseover": {"state": {"target": [], "time": []}, "edge": {"target": [], "time": []}}, "mouseout": {"state": {"target": ["0"], "time": [486]}, "edge": {"target": [], "time": []}}}, "displayed_time": "14.76", "trialTime": 15356, "trial_type": "mouselab-mdp", "trial_index": 49, "time_elapsed": 968354, "internal_node_id": "0.0-6.0-1.0-34.0"}}, {"uniqueid": "w88673838:a38991496", "current_trial": 50, "dateTime": 1693565600421, "trialdata": {"revealed_states": [], "clicked_states": [], "num_clicks_accrued": [0, 0, 0, 0, 0, 0, 0, 0, 0, 0, 0, 0, 0], "stateRewards": ["", -1, 4, -5, 9, 29, -75, -42, -16, 24, -28, -41, 2, -3, 1, 10, 60, 47, 55, -1, -53, 22, -40, 2, -3, -6, 4, -26, 44, 54, 15, -76, 42, 14], "withholdReward": false, "trial_id": "mdp_trial_36", "block": "test", "trialIndex": 39, "score": -68, "costs": 0, "simulationMode": [null, null, null, null, null], "rewards": [2, -3, -6, 15, -76], "path": ["0", "0", "23", "24", "25", "30", "31"], "rt": [463, 60, 40, 41, 88], "actions": ["left", "left", "left", "down", "right"], "actionTimes": [1388, 1963, 2515, 3075, 3683], "queries": {"click": {"state": {"target": [], "time": []}, "edge": {"target": [], "time": []}}, "mouseover": {"state": {"target": [], "time": []}, "edge": {"target": [], "time": []}}, "mouseout": {"state": {"target": ["0"], "time": [653]}, "edge": {"target": [], "time": []}}}, "displayed_time": "14.93", "trialTime": 15508, "trial_type": "mouselab-mdp", "trial_index": 50, "time_elapsed": 984290, "internal_node_id": "0.0-6.0-1.0-35.0"}}, {"uniqueid": "w88673838:a38991496", "current_trial": 51, "dateTime": 1693565616317, "trialdata": {"revealed_states": [], "clicked_states": [], "num_clicks_accrued": [0, 0, 0, 0, 0, 0, 0, 0, 0, 0, 0, 0, 0], "stateRewards": ["", 2, 4, 7, -6, -76, -81, 2, 5, -66, -3, 36, -2, -4, 6, -2, -69, 4, -49, -6, 67, 38, -67, 2, 1, 1, 6, -68, -21, 52, -16, -16, 6, -70], "withholdReward": false, "trial_id": "mdp_trial_37", "block": "test", "trialIndex": 40, "score": -73, "costs": 0, "simulationMode": [null, null, null, null, null], "rewards": [-2, -4, 6, -6, -67], "path": ["0", "0", "12", "13", "14", "19", "22"], "rt": [877, 5, 45, 38, 62], "actions": ["right", "right", "right", "down", "left"], "actionTimes": [1699, 2218, 2778, 3330, 3915], "queries": {"click": {"state": {"target": [], "time": []}, "edge": {"target": [], "time": []}}, "mouseover": {"state": {"target": [], "time": []}, "edge": {"target": [], "time": []}}, "mouseout": {"state": {"target": ["0"], "time": [560]}, "edge": {"target": [], "time": []}}}, "displayed_time": "14.82", "trialTime": 15507, "trial_type": "mouselab-mdp", "trial_index": 51, "time_elapsed": 1000186, "internal_node_id": "0.0-6.0-1.0-36.0"}}, {"uniqueid": "w88673838:a38991496", "current_trial": 52, "dateTime": 1693565631997, "trialdata": {"revealed_states": [], "clicked_states": [], "num_clicks_accrued": [0, 0, 0, 0, 0, 0, 0, 0, 0, 0, 0, 0, 0], "stateRewards": ["", 1, 1, 6, -14, -40, 37, 16, -13, 33, -68, 49, 2, 4, 3, 6, 55, 27, 32, 10, -65, 20, -87, 2, 1, -6, -5, -42, 12, 29, -8, 16, 76, -33], "withholdReward": false, "trial_id": "mdp_trial_38", "block": "test", "trialIndex": 41, "score": -46, "costs": 0, "simulationMode": [null, null, null, null, null], "rewards": [2, 4, 3, 10, -65], "path": ["0", "0", "12", "13", "14", "19", "20"], "rt": [578, 562, 96, 72, 133], "actions": ["right", "right", "right", "down", "right"], "actionTimes": [1305, 2376, 2976, 3553, 4200], "queries": {"click": {"state": {"target": [], "time": []}, "edge": {"target": [], "time": []}}, "mouseover": {"state": {"target": [], "time": []}, "edge": {"target": [], "time": []}}, "mouseout": {"state": {"target": ["0"], "time": [472]}, "edge": {"target": [], "time": []}}}, "displayed_time": "14.73", "trialTime": 15273, "trial_type": "mouselab-mdp", "trial_index": 52, "time_elapsed": 1015866, "internal_node_id": "0.0-6.0-1.0-37.0"}}, {"uniqueid": "w88673838:a38991496", "current_trial": 53, "dateTime": 1693565647923, "trialdata": {"revealed_states": [], "clicked_states": [], "num_clicks_accrued": [0, 0, 0, 0, 0, 0, 0, 0, 0, 0, 0, 0, 0], "stateRewards": ["", -2, 1, 6, -2, -10, -78, -69, 14, -15, 7, -1, 1, -1, -2, 13, 77, 32, 87, 5, -74, 30, -26, 1, 3, 4, 12, 39, 54, -43, 2, 10, 23, 13], "withholdReward": false, "trial_id": "mdp_trial_39", "block": "test", "trialIndex": 42, "score": 18, "costs": 0, "simulationMode": [null, null, null, null, null], "rewards": [-2, 1, 6, 14, -1], "path": ["0", "0", "1", "2", "3", "8", "11"], "rt": [442, 23, 33, 506, 214], "actions": ["up", "up", "up", "left", "left"], "actionTimes": [1376, 1903, 2447, 3479, 4199], "queries": {"click": {"state": {"target": [], "time": []}, "edge": {"target": [], "time": []}}, "mouseover": {"state": {"target": [], "time": []}, "edge": {"target": [], "time": []}}, "mouseout": {"state": {"target": ["0"], "time": [661]}, "edge": {"target": [], "time": []}}}, "displayed_time": "14.94", "trialTime": 15551, "trial_type": "mouselab-mdp", "trial_index": 53, "time_elapsed": 1031792, "internal_node_id": "0.0-6.0-1.0-38.0"}}, {"uniqueid": "w88673838:a38991496", "current_trial": 54, "dateTime": 1693565664962, "trialdata": {"revealed_states": [], "clicked_states": [], "num_clicks_accrued": [0, 0, 0, 0, 0, 0, 0, 0, 0, 0, 0, 0, 0], "stateRewards": ["", -2, 2, -5, -6, 10, -66, -58, -10, -11, -63, -70, -1, -4, -5, 7, 66, -64, -43, -3, 45, -37, 4, -2, -2, -6, -4, -30, 33, 43, 15, -32, -65, -59], "withholdReward": false, "trial_id": "mdp_trial_40", "block": "test", "trialIndex": 43, "score": -77, "costs": 0, "simulationMode": [null, null, null, null, null], "rewards": [-2, 2, -5, -6, -66], "path": ["0", "0", "1", "2", "3", "4", "6"], "rt": [550, 365, 43, 4, 427], "actions": ["up", "up", "up", "right", "right"], "actionTimes": [1983, 2855, 3399, 3920, 4863], "queries": {"click": {"state": {"target": [], "time": []}, "edge": {"target": [], "time": []}}, "mouseover": {"state": {"target": [], "time": []}, "edge": {"target": [], "time": []}}, "mouseout": {"state": {"target": ["0"], "time": [1166]}, "edge": {"target": [], "time": []}}}, "displayed_time": "15.44", "trialTime": 16646, "trial_type": "mouselab-mdp", "trial_index": 54, "time_elapsed": 1048831, "internal_node_id": "0.0-6.0-1.0-39.0"}}, {"uniqueid": "w88673838:a38991496", "current_trial": 55, "dateTime": 1693565710015, "trialdata": {"rt": 45044, "response": {"Q0": "$-2 to $2", "Q1": "$-16 to $16", "Q2": "$-32 to $32", "Q3": "The cost for clicking on nodes varied between nodes.", "Q4": "Slightly motivated"}, "question_order": [0, 1, 2, 3, 4], "trial_id": "final_quiz_control", "trial_type": "survey-multi-choice", "trial_index": 55, "time_elapsed": 1093885, "internal_node_id": "0.0-6.0-2.0"}}, {"uniqueid": "w88673838:a38991496", "current_trial": 56, "dateTime": 1693565780052, "trialdata": {"rt": 69950, "response": {"Q0": "Up and left, up and right, up and left to right, up and right to left. Repeat down below.", "Q1": "Nope.", "Q2": "It was not difficult."}, "trial_id": "self_report_control", "trial_type": "survey-text", "trial_index": 56, "time_elapsed": 1163921, "internal_node_id": "0.0-6.0-3.0"}}, {"uniqueid": "w88673838:a38991496", "current_trial": 57, "dateTime": 1693565802000, "trialdata": {"rt": 21943, "response": {"gender": "female", "age": "38", "colorblind": "0", "effort": "0"}, "trial_type": "survey-html-form", "trial_index": 57, "time_elapsed": 1185870, "internal_node_id": "0.0-6.0-4.0"}}, {"uniqueid": "w88673838:a38991496", "current_trial": 58, "dateTime": 1693565829723, "trialdata": {"rt": 27718, "response": {"Q0": "No, I understood fine.", "Q1": "Nope.", "Q2": "Thank you."}, "trial_type": "survey-text", "trial_index": 58, "time_elapsed": 1213593, "internal_node_id": "0.0-6.0-5.0"}}, {"uniqueid": "w88673838:a38991496", "current_trial": 59, "dateTime": 1693565847933, "trialdata": {"rt": 18204, "stimulus": "<h1>Completion Code Instructions (1/2)</h1>\n<br><br><br><br>\nYou have reached the end of the experiment! The completion code consists of two parts: (1) a code with 2 characters (2) a code with 6 characters. On this page, you will receive the second part of the code. The first part of the completion code will be on the next page.\n<br><br>\nThe second part of your completion code is: <b>EWEK22</b>\n<br><br>\nPlease note this down. Then, press 'Finish HIT' in order to find the first part of your completion code. Once the data has been saved, you will receive this code either in this window or in the original browser window where you started the experiment.\n", "response": 0, "trial_type": "html-button-response", "trial_index": 59, "time_elapsed": 1231802, "internal_node_id": "0.0-6.0-6.0"}}, {"uniqueid": "w88673838:a38991496", "current_trial": 60, "dateTime": 1693565848940, "trialdata": {"success": true, "trial_type": "fullscreen", "trial_index": 60, "time_elapsed": 1232810, "internal_node_id": "0.0-7.0"}}], "questiondata": {"params": {"CODE": "C6DMOQA6", "MIN_TIME": 14, "inspectCost": 1, "startTime": "Fri Sep 01 2023 12:36:51 GMT+0200 (South Africa Standard Time)", "bonusRate": 0.002, "variance": "1_2_4_8_44", "branching": "31123"}}, "eventdata": [{"eventtype": "initialized", "value": null, "timestamp": 1693564610846, "interval": 0}, {"eventtype": "window_resize", "value": [1024, 767], "timestamp": 1693564610846, "interval": 0}, {"eventtype": "window_resize", "value": [1024, 767], "timestamp": 1693564611647, "interval": 801}, {"eventtype": "window_resize", "value": [1280, 1024], "timestamp": 1693564619677, "interval": 8030}, {"eventtype": "focus", "value": "off", "timestamp": 1693564872660, "interval": 252983}, {"eventtype": "focus", "value": "on", "timestamp": 1693564872661, "interval": 1}, {"eventtype": "window_resize", "value": [1024, 767], "timestamp": 1693564872869, "interval": 208}, {"eventtype": "window_resize", "value": [1280, 1024], "timestamp": 1693564875531, "interval": 2662}, {"eventtype": "window_resize", "value": [1024, 767], "timestamp": 1693565848176, "interval": 972645}], "useragent": "Mozilla/5.0 (Windows NT 10.0; Win64; x64) AppleWebKit/537.36 (KHTML, like Gecko) Chrome/116.0.0.0 Safari/537.36", "mode": "live", "id": "w88673838:a38991496", "status": "user data saved", "Beginhit": "2023-09-01 10:36:47.637501", "Beginexp": "2023-09-01 10:37:02.107888", "Endhit": "2023-09-01 10:57:31.835693", "psiturkStatus": 3, "browser": "<redacted>", "platform": "windows", "language": "en-US"}