{"condition": 1, "counterbalance": 0, "assignmentId": "a48086277", "workerId": "w67070140", "hitId": "h83503833", "currenttrial": 56, "bonus": 0, "data": [{"uniqueid": "w67070140:a48086277", "current_trial": 0, "dateTime": 1693660286319, "trialdata": {"success": true, "trial_type": "fullscreen", "trial_index": 0, "time_elapsed": 5969, "internal_node_id": "0.0-0.0"}}, {"uniqueid": "w67070140:a48086277", "current_trial": 1, "dateTime": 1693660297790, "trialdata": {"view_history": [{"page_index": 0, "viewing_time": 11464}], "rt": 11465, "trial_id": "exp_instructions_misaligned", "trial_type": "instructions", "trial_index": 1, "time_elapsed": 17440, "internal_node_id": "0.0-1.0"}}, {"uniqueid": "w67070140:a48086277", "current_trial": 2, "dateTime": 1693660497959, "trialdata": {"view_history": [{"page_index": 0, "viewing_time": 69969}, {"page_index": 1, "viewing_time": 75211}, {"page_index": 2, "viewing_time": 25786}, {"page_index": 3, "viewing_time": 29195}], "rt": 200161, "trial_id": "mouselab_instructions_1_misaligned", "trial_type": "instructions", "trial_index": 2, "time_elapsed": 217609, "internal_node_id": "0.0-2.0-1.0"}}, {"uniqueid": "w67070140:a48086277", "current_trial": 3, "dateTime": 1693660525177, "trialdata": {"revealed_states": [], "clicked_states": [], "num_clicks_accrued": [0, 0, 0, 0, 0, 0, 0, 0, 0, 0, 0, 0, 0], "stateRewards": ["", -10, -10, 10, -10, -10, 10, -10, -10, 10, -10, 10, -10, 10, -10, -10, 10, 10, -10, -10, 10, -10, -10, -10, 10, 10, -10, 10, 10, -10, -10, -10, 10, -10], "withholdReward": false, "trial_id": "practice_1", "block": "test", "trialIndex": 0, "score": 13.5, "costs": 0, "simulationMode": [null, null, null, null, null], "rewards": [-10, 10, 10, -10, 10], "path": ["0", "0", "23", "24", "25", "30", "32"], "rt": [7274, 2451, 1151, 3786, 428], "actions": ["left", "left", "left", "down", "down"], "actionTimes": [11536, 14507, 16181, 20507, 21459], "queries": {"click": {"state": {"target": [], "time": []}, "edge": {"target": [], "time": []}}, "mouseover": {"state": {"target": ["23"], "time": [9515]}, "edge": {"target": [], "time": []}}, "mouseout": {"state": {"target": ["23", "24", "26", "26"], "time": [10814, 16429, 16546, 18447]}, "edge": {"target": [], "time": []}}}, "displayed_time": "21.98", "trialTime": 25753, "trial_type": "mouselab-mdp", "trial_index": 3, "time_elapsed": 244826, "internal_node_id": "0.0-2.0-2.0-0.0"}}, {"uniqueid": "w67070140:a48086277", "current_trial": 4, "dateTime": 1693660543213, "trialdata": {"revealed_states": [], "clicked_states": ["30", "27"], "num_clicks_accrued": [0, 0, 0, 0, 0, 0, 0, 0, 0, 0, 0, 0, 0], "stateRewards": ["", 10, -10, 10, 10, 10, 10, 10, 10, -10, -10, 10, 10, -10, 10, -10, -10, -10, 10, 10, 10, -10, 10, -10, 10, -10, 10, -10, -10, 10, 10, 10, -10, -10], "withholdReward": false, "trial_id": "practice_2", "block": "test", "trialIndex": 1, "score": -7.5, "costs": -1, "simulationMode": [null, null, null, null, null], "rewards": [-10, 10, -10, 10, -10], "path": ["0", "0", "23", "24", "25", "30", "32"], "rt": [6472, 205, 331, 168, 1372], "actions": ["left", "left", "left", "down", "down"], "actionTimes": [9023, 9740, 10599, 11297, 13206], "queries": {"click": {"state": {"target": ["30", "27"], "time": [4105, 5652]}, "edge": {"target": [], "time": []}}, "mouseover": {"state": {"target": ["23", "24", "30", "25", "26", "27", "26", "27", "10", "2", "7", "15", "17", "14", "14"], "time": [3250, 3400, 3616, 4495, 4539, 4753, 5182, 5401, 6172, 6209, 6226, 6275, 6307, 6799, 7216]}, "edge": {"target": [], "time": []}}, "mouseout": {"state": {"target": ["23", "0", "23", "24", "30", "25", "26", "27", "26", "27", "10", "2", "7", "15", "17", "14", "14", "20"], "time": [1550, 3165, 3334, 3416, 4440, 4521, 4618, 4967, 5351, 6133, 6191, 6225, 6244, 6291, 6325, 6883, 7783, 15603]}, "edge": {"target": [], "time": []}}}, "displayed_time": "13.72", "trialTime": 17143, "trial_type": "mouselab-mdp", "trial_index": 4, "time_elapsed": 262862, "internal_node_id": "0.0-2.0-2.0-1.0"}}, {"uniqueid": "w67070140:a48086277", "current_trial": 5, "dateTime": 1693660590244, "trialdata": {"view_history": [{"page_index": 0, "viewing_time": 39870}, {"page_index": 1, "viewing_time": 7026}], "rt": 46896, "trial_id": "mouselab_instructions_2_misaligned", "trial_type": "instructions", "trial_index": 5, "time_elapsed": 309894, "internal_node_id": "0.0-2.0-3.0"}}, {"uniqueid": "w67070140:a48086277", "current_trial": 6, "dateTime": 1693660624167, "trialdata": {"rt": 33908, "response": {"Q0": "The cost for clicking on nodes may vary between nodes.", "Q1": "The better I perform the higher my bonus will be.", "Q2": "No, the amount of cash at each node of the web may be different each time.", "Q3": "To get the highest total score.", "Q4": "Only before moving the spider.", "Q5": "3 seconds"}, "question_order": [0, 1, 2, 3, 4, 5], "correct": {"Q0": "The cost for clicking on nodes may vary between nodes.", "Q1": "The better I perform the higher my bonus will be.", "Q2": "No, the amount of cash at each node of the web may be different each time.", "Q3": "To get the highest total score.", "Q4": "Only before moving the spider.", "Q5": "3 seconds"}, "trial_id": "mouselab_quiz_misaligned", "trial_type": "survey-multi-choice", "trial_index": 6, "time_elapsed": 343817, "internal_node_id": "0.0-2.0-4.0"}}, {"uniqueid": "w67070140:a48086277", "current_trial": 7, "dateTime": 1693660628740, "trialdata": {"rt": 4566, "response": {"Q0": "No"}, "question_order": [0], "trial_id": "repeat_check", "trial_type": "survey-multi-choice", "trial_index": 7, "time_elapsed": 348390, "internal_node_id": "0.0-4.0-0.0"}}, {"uniqueid": "w67070140:a48086277", "current_trial": 8, "dateTime": 1693660647700, "trialdata": {"rt": 18951, "stimulus": "\n<h1> Get ready to start the game! </h1>\n\nThank you for reading the instructions. Get ready start with the 40 rounds of this game.\n<br><br>\nIf you need to take a break, feel free to take one after the end of a round, before continuing to the next one.\n<br><br>\nRemember, the more money the spider gets, the bigger your bonus will be!\n<br><br>\n<div style='text-align: center;'>Press <code>space</code> to begin.</div>\n\n<br><br>\n(If, at any point, the <code>space</code> key does not take you to the next page, click once on the text and try again.)", "response": " ", "trial_id": "mdp_ready", "trial_type": "html-keyboard-response", "trial_index": 8, "time_elapsed": 367349, "internal_node_id": "0.0-6.0-0.0"}}, {"uniqueid": "w67070140:a48086277", "current_trial": 9, "dateTime": 1693660667785, "trialdata": {"revealed_states": [], "clicked_states": ["14", "15"], "num_clicks_accrued": [0, 0, 0, 0, 0, 0, 0, 0, 0, 0, 0, 0, 0], "stateRewards": ["", 2, -1, 3, -12, -83, 6, -33, 9, 28, 24, -50, -2, -1, -2, -5, -87, 37, 82, 12, 80, -5, 10, -2, -3, -6, 9, 22, -1, 16, 9, 77, -62, 58], "withholdReward": false, "trial_id": "mdp_trial_1", "block": "test", "trialIndex": 2, "score": -39.5, "costs": -2.5, "simulationMode": [null, null, null, null, null], "rewards": [2, -1, 3, 9, -50], "path": ["0", "0", "1", "2", "3", "8", "11"], "rt": [5077, 297, 459, 2912, 217], "actions": ["up", "up", "up", "left", "left"], "actionTimes": [7395, 8216, 9192, 12626, 13362], "queries": {"click": {"state": {"target": ["14", "15"], "time": [4264, 5933]}, "edge": {"target": [], "time": []}}, "mouseover": {"state": {"target": ["13", "14", "15", "18"], "time": [2345, 2760, 5095, 6500]}, "edge": {"target": [], "time": []}}, "mouseout": {"state": {"target": ["0", "13", "14", "15"], "time": [1543, 2497, 4849, 6482]}, "edge": {"target": [], "time": []}}}, "displayed_time": "16.32", "trialTime": 19012, "trial_type": "mouselab-mdp", "trial_index": 9, "time_elapsed": 387434, "internal_node_id": "0.0-6.0-1.0-0.0"}}, {"uniqueid": "w67070140:a48086277", "current_trial": 10, "dateTime": 1693660697641, "trialdata": {"revealed_states": [], "clicked_states": ["25", "33", "29", "17", "20"], "num_clicks_accrued": [0, 0, 0, 0, 0, 0, 0, 0, 0, 0, 0, 0, 0], "stateRewards": ["", 2, -1, -1, -9, -81, -30, 55, -6, 78, 25, 62, 2, 4, -1, 9, -85, 1, -19, 1, -60, 12, -34, 1, 4, -1, -13, -24, -16, -83, -8, 16, 43, 9], "withholdReward": false, "trial_id": "mdp_trial_2", "block": "test", "trialIndex": 3, "score": -4.550000000000001, "costs": -9.55, "simulationMode": [null, null, null, null, null, null], "rewards": [1, 4, -1, -8, 9], "path": ["0", "0", "23", "24", "25", "30", "33"], "rt": [18843, 280, 165, 689, 339, 488], "actions": ["left", "left", "left", "left", "down", "left"], "actionTimes": [21947, 22230, 22931, 24145, 24994, 25995], "queries": {"click": {"state": {"target": ["25", "33", "29", "17", "20"], "time": [5152, 6531, 10897, 15296, 20250]}, "edge": {"target": [], "time": []}}, "mouseover": {"state": {"target": ["23", "25", "30", "33", "29", "28", "28", "26", "29", "27", "2", "7", "13", "14", "14", "15", "17", "15", "16", "15", "20"], "time": [3987, 4687, 5618, 6100, 7283, 8451, 10154, 10194, 10353, 11536, 13356, 13389, 13486, 13518, 14255, 14400, 14671, 15886, 16149, 16172, 16303]}, "edge": {"target": [], "time": []}}, "mouseout": {"state": {"target": ["18", "12", "23", "25", "30", "33", "29", "28", "28", "26", "29", "27", "2", "7", "13", "14", "14", "15", "17", "15", "16", "15"], "time": [2001, 2169, 4052, 5536, 6067, 6975, 8408, 8475, 10172, 10254, 11438, 11555, 13372, 13405, 13502, 13536, 14337, 14603, 15702, 15901, 16170, 16187]}, "edge": {"target": [], "time": []}}}, "displayed_time": "26.50", "trialTime": 28842, "trial_type": "mouselab-mdp", "trial_index": 10, "time_elapsed": 417290, "internal_node_id": "0.0-6.0-1.0-1.0"}}, {"uniqueid": "w67070140:a48086277", "current_trial": 11, "dateTime": 1693660718153, "trialdata": {"revealed_states": [], "clicked_states": ["9", "11"], "num_clicks_accrued": [0, 0, 0, 0, 0, 0, 0, 0, 0, 0, 0, 0, 0], "stateRewards": ["", 1, 1, -3, 2, 22, -25, -11, -5, 50, 49, 3, 1, -1, 8, 14, -85, -30, 57, -6, -39, -16, 59, -2, -1, 5, 5, 59, -16, 8, 4, 67, 56, -9], "withholdReward": false, "trial_id": "mdp_trial_3", "block": "test", "trialIndex": 4, "score": 39.7, "costs": -4.3, "simulationMode": [null, null, null, null, null], "rewards": [1, 1, -3, -5, 50], "path": ["0", "0", "1", "2", "3", "8", "9"], "rt": [8150, 30, 98, 944, 120], "actions": ["up", "up", "up", "left", "up"], "actionTimes": [11063, 11611, 12228, 13690, 14334], "queries": {"click": {"state": {"target": ["9", "11"], "time": [5474, 8275]}, "edge": {"target": [], "time": []}}, "mouseover": {"state": {"target": ["10", "8", "8", "9", "11", "8", "5", "5"], "time": [3910, 3984, 4113, 4662, 6378, 8677, 9145, 9448]}, "edge": {"target": [], "time": []}}, "mouseout": {"state": {"target": ["20", "19", "0", "10", "8", "8", "9", "11", "8", "5"], "time": [1578, 1626, 3761, 3943, 4013, 4312, 6146, 8662, 8733, 9296]}, "edge": {"target": [], "time": []}}}, "displayed_time": "16.92", "trialTime": 19579, "trial_type": "mouselab-mdp", "trial_index": 11, "time_elapsed": 437803, "internal_node_id": "0.0-6.0-1.0-2.0"}}, {"uniqueid": "w67070140:a48086277", "current_trial": 12, "dateTime": 1693660737818, "trialdata": {"revealed_states": [], "clicked_states": ["17"], "num_clicks_accrued": [0, 0, 0, 0, 0, 0, 0, 0, 0, 0, 0, 0, 0], "stateRewards": ["", 2, -3, 5, 11, -79, 54, 11, -9, -78, 33, 22, -2, -1, 2, 14, 43, 34, 1, 10, 49, -65, 39, -1, 1, -1, 3, -16, -2, 11, 2, 12, 48, -65], "withholdReward": false, "trial_id": "mdp_trial_4", "block": "test", "trialIndex": 5, "score": 44.85, "costs": -2.15, "simulationMode": [null, null, null, null, null], "rewards": [-2, -1, 2, 14, 34], "path": ["0", "0", "12", "13", "14", "15", "17"], "rt": [5778, 341, 86, 543, 85], "actions": ["right", "right", "right", "up", "right"], "actionTimes": [8756, 9592, 10209, 11274, 11884], "queries": {"click": {"state": {"target": ["17"], "time": [3950]}, "edge": {"target": [], "time": []}}, "mouseover": {"state": {"target": ["18", "16", "17", "16", "16"], "time": [3046, 3465, 3581, 6207, 6584]}, "edge": {"target": [], "time": []}}, "mouseout": {"state": {"target": ["5", "3", "2", "0", "18", "16", "17", "16"], "time": [1897, 1945, 1963, 3000, 3383, 3513, 4500, 6321]}, "edge": {"target": [], "time": []}}}, "displayed_time": "16.98", "trialTime": 18663, "trial_type": "mouselab-mdp", "trial_index": 12, "time_elapsed": 457468, "internal_node_id": "0.0-6.0-1.0-3.0"}}, {"uniqueid": "w67070140:a48086277", "current_trial": 13, "dateTime": 1693660767077, "trialdata": {"revealed_states": [], "clicked_states": ["21", "22", "17", "18", "6"], "num_clicks_accrued": [0, 0, 0, 0, 0, 0, 0, 0, 0, 0, 0, 0, 0], "stateRewards": ["", -2, 2, 5, -14, -56, 64, 84, -5, 52, 39, 85, -2, 1, 7, 8, 21, 29, -78, -9, -10, -69, 10, -2, -1, -7, 15, 72, 20, 41, -2, 52, 80, 22], "withholdReward": false, "trial_id": "mdp_trial_5", "block": "test", "trialIndex": 6, "score": 44.25, "costs": -10.75, "simulationMode": [null, null, null, null, null], "rewards": [-2, 2, 5, -14, 64], "path": ["0", "0", "1", "2", "3", "4", "6"], "rt": [21077, 21, 981, 108, 113], "actions": ["up", "up", "up", "right", "right"], "actionTimes": [22755, 23297, 24807, 25436, 26070], "queries": {"click": {"state": {"target": ["21", "22", "17", "18", "6"], "time": [3389, 7519, 11926, 15385, 19008]}, "edge": {"target": [], "time": []}}, "mouseover": {"state": {"target": ["28", "26", "33", "30", "21", "22", "19", "20", "20", "17", "15", "18", "6"], "time": [1773, 1826, 2509, 2790, 2924, 4397, 9040, 9090, 9260, 11809, 12934, 13248, 16575]}, "edge": {"target": [], "time": []}}, "mouseout": {"state": {"target": ["16", "13", "12", "0", "28", "26", "33", "30", "21", "22", "19", "20", "20", "17", "15", "18"], "time": [606, 739, 973, 1039, 1825, 1909, 2788, 2806, 4310, 9007, 9057, 9143, 11424, 12900, 12983, 16314]}, "edge": {"target": [], "time": []}}}, "displayed_time": "26.59", "trialTime": 28332, "trial_type": "mouselab-mdp", "trial_index": 13, "time_elapsed": 486726, "internal_node_id": "0.0-6.0-1.0-4.0"}}, {"uniqueid": "w67070140:a48086277", "current_trial": 14, "dateTime": 1693660804196, "trialdata": {"revealed_states": [], "clicked_states": ["9", "7", "11", "27", "29", "28", "33"], "num_clicks_accrued": [0, 0, 0, 0, 0, 0, 0, 0, 0, 0, 0, 0, 0], "stateRewards": ["", -2, -4, -8, 8, 63, -50, -19, -7, -17, -31, 31, 1, 3, -5, 12, -35, -63, -29, -4, -17, -75, -79, -2, -3, -2, 8, -3, -85, 10, -2, -82, -82, 56], "withholdReward": false, "trial_id": "mdp_trial_6", "block": "test", "trialIndex": 7, "score": -5.049999999999997, "costs": -15.05, "simulationMode": [null, null, null, null, null], "rewards": [-2, -4, -8, -7, 31], "path": ["0", "0", "1", "2", "3", "8", "11"], "rt": [27229, 794, 49, 23, 15], "actions": ["up", "up", "up", "left", "left"], "actionTimes": [29392, 30733, 31293, 31851, 32385], "queries": {"click": {"state": {"target": ["9", "7", "11", "27", "29", "28", "33"], "time": [3165, 6421, 10025, 15197, 18488, 22220, 26120]}, "edge": {"target": [], "time": []}}, "mouseover": {"state": {"target": ["1", "9", "3", "7", "2", "10", "11", "27", "27", "29", "26", "28", "25", "33"], "time": [2610, 2959, 3697, 3752, 8506, 8576, 8927, 14796, 14977, 16737, 19256, 21580, 25692, 25759]}, "edge": {"target": [], "time": []}}, "mouseout": {"state": {"target": ["6", "7", "1", "1", "9", "3", "7", "2", "10", "11", "27", "27", "29", "26", "28", "25", "33", "30"], "time": [1142, 1212, 1444, 2645, 3645, 3734, 8487, 8544, 8642, 12764, 14863, 16689, 19213, 19321, 25676, 25727, 35610, 35782]}, "edge": {"target": [], "time": []}}}, "displayed_time": "32.91", "trialTime": 36137, "trial_type": "mouselab-mdp", "trial_index": 14, "time_elapsed": 523845, "internal_node_id": "0.0-6.0-1.0-5.0"}}, {"uniqueid": "w67070140:a48086277", "current_trial": 15, "dateTime": 1693660830964, "trialdata": {"revealed_states": [], "clicked_states": ["21", "22", "20", "18"], "num_clicks_accrued": [0, 0, 0, 0, 0, 0, 0, 0, 0, 0, 0, 0, 0], "stateRewards": ["", -2, 1, -7, -8, -37, -76, -87, 11, 30, -63, 80, -1, 4, 2, -1, 42, 17, 52, -3, -75, -80, -68, 2, -3, -5, -15, -48, 82, 24, -7, 5, -22, -71], "withholdReward": false, "trial_id": "mdp_trial_7", "block": "test", "trialIndex": 8, "score": 47.4, "costs": -8.6, "simulationMode": [null, null, null, null, null], "rewards": [-1, 4, 2, -1, 52], "path": ["0", "0", "12", "13", "14", "15", "18"], "rt": [17542, 375, 222, 268, 171], "actions": ["right", "right", "right", "up", "left"], "actionTimes": [20571, 21457, 22187, 22969, 23677], "queries": {"click": {"state": {"target": ["21", "22", "20", "18"], "time": [5385, 9214, 12761, 16606]}, "edge": {"target": [], "time": []}}, "mouseover": {"state": {"target": ["19", "19", "21", "22", "19", "20", "17", "15", "18", "1", "1"], "time": [4647, 4731, 5132, 8831, 10788, 12633, 16131, 16200, 16348, 19531, 19900]}, "edge": {"target": [], "time": []}}, "mouseout": {"state": {"target": ["31", "0", "0", "19", "19", "21", "22", "19", "20", "17", "15", "18", "1"], "time": [1565, 2063, 4567, 4707, 4763, 8718, 10769, 10804, 14451, 16167, 16249, 19465, 19568]}, "edge": {"target": [], "time": []}}}, "displayed_time": "24.20", "trialTime": 25793, "trial_type": "mouselab-mdp", "trial_index": 15, "time_elapsed": 550614, "internal_node_id": "0.0-6.0-1.0-6.0"}}, {"uniqueid": "w67070140:a48086277", "current_trial": 16, "dateTime": 1693660852048, "trialdata": {"revealed_states": [], "clicked_states": ["28", "31", "33"], "num_clicks_accrued": [0, 0, 0, 0, 0, 0, 0, 0, 0, 0, 0, 0, 0], "stateRewards": ["", -2, -3, -5, 8, 27, 11, 43, -6, -24, -87, 69, -2, 1, 1, 9, 19, 48, -37, 9, -14, 45, 62, 1, 2, 1, 16, -81, -41, 22, 4, -6, -63, 47], "withholdReward": false, "trial_id": "mdp_trial_8", "block": "test", "trialIndex": 9, "score": 48.55, "costs": -6.449999999999999, "simulationMode": [null, null, null, null, null], "rewards": [1, 2, 1, 4, 47], "path": ["0", "0", "23", "24", "25", "30", "33"], "rt": [13214, 10, 157, 149, 841], "actions": ["left", "left", "left", "down", "left"], "actionTimes": [15331, 15868, 16549, 17209, 18570], "queries": {"click": {"state": {"target": ["28", "31", "33"], "time": [3511, 7410, 11169]}, "edge": {"target": [], "time": []}}, "mouseover": {"state": {"target": ["23", "28", "24", "31", "30", "33", "29"], "time": [2859, 3145, 6871, 7109, 10843, 10907, 12127]}, "edge": {"target": [], "time": []}}, "mouseout": {"state": {"target": ["1", "0", "23", "28", "24", "31", "30", "33", "29"], "time": [1325, 2783, 2910, 5252, 6991, 9087, 10862, 12012, 12160]}, "edge": {"target": [], "time": []}}}, "displayed_time": "19.12", "trialTime": 20135, "trial_type": "mouselab-mdp", "trial_index": 16, "time_elapsed": 571697, "internal_node_id": "0.0-6.0-1.0-7.0"}}, {"uniqueid": "w67070140:a48086277", "current_trial": 17, "dateTime": 1693660870230, "trialdata": {"revealed_states": [], "clicked_states": ["9", "7"], "num_clicks_accrued": [0, 0, 0, 0, 0, 0, 0, 0, 0, 0, 0, 0, 0], "stateRewards": ["", -2, 2, 2, -6, 9, 37, 50, -13, -7, -18, -75, -2, -4, 4, 7, 23, -57, -66, -7, -81, -48, -76, 1, 1, -8, 1, 51, -2, 70, 14, 59, 71, -37], "withholdReward": false, "trial_id": "mdp_trial_9", "block": "test", "trialIndex": 10, "score": 41.7, "costs": -4.3, "simulationMode": [null, null, null, null, null], "rewards": [-2, 2, 2, -6, 50], "path": ["0", "0", "1", "2", "3", "4", "7"], "rt": [8711, 474, 45, 458, 158], "actions": ["up", "up", "up", "right", "down"], "actionTimes": [11581, 12569, 13144, 14142, 14829], "queries": {"click": {"state": {"target": ["9", "7"], "time": [4032, 7387]}, "edge": {"target": [], "time": []}}, "mouseover": {"state": {"target": ["10", "8", "9", "5", "5", "7"], "time": [3593, 3674, 3792, 4786, 5311, 6007]}, "edge": {"target": [], "time": []}}, "mouseout": {"state": {"target": ["26", "28", "23", "0", "10", "8", "9", "5", "5"], "time": [1724, 1794, 2007, 3486, 3641, 3740, 4687, 4857, 5775]}, "edge": {"target": [], "time": []}}}, "displayed_time": "16.88", "trialTime": 17252, "trial_type": "mouselab-mdp", "trial_index": 17, "time_elapsed": 589879, "internal_node_id": "0.0-6.0-1.0-8.0"}}, {"uniqueid": "w67070140:a48086277", "current_trial": 18, "dateTime": 1693660888136, "trialdata": {"revealed_states": [], "clicked_states": ["29"], "num_clicks_accrued": [0, 0, 0, 0, 0, 0, 0, 0, 0, 0, 0, 0, 0], "stateRewards": ["", -1, 4, -5, 9, 29, -75, -42, -16, 24, -28, -41, 2, -3, 1, 10, 60, 47, 55, -1, -53, 22, -40, 2, -3, -6, 4, -26, 44, 54, 15, -76, 42, 14], "withholdReward": false, "trial_id": "mdp_trial_10", "block": "test", "trialIndex": 11, "score": 48.85, "costs": -2.15, "simulationMode": [null, null, null, null, null], "rewards": [2, -3, -6, 4, 54], "path": ["0", "0", "23", "24", "25", "26", "29"], "rt": [5482, 29, 294, 471, 305], "actions": ["left", "left", "left", "up", "left"], "actionTimes": [7212, 7755, 8581, 9571, 10396], "queries": {"click": {"state": {"target": ["29"], "time": [3279]}, "edge": {"target": [], "time": []}}, "mouseover": {"state": {"target": ["23", "26", "29"], "time": [2745, 2842, 3090]}, "edge": {"target": [], "time": []}}, "mouseout": {"state": {"target": ["7", "0", "0", "23", "26", "29"], "time": [776, 940, 2707, 2777, 2992, 4066]}, "edge": {"target": [], "time": []}}}, "displayed_time": "15.74", "trialTime": 16839, "trial_type": "mouselab-mdp", "trial_index": 18, "time_elapsed": 607785, "internal_node_id": "0.0-6.0-1.0-9.0"}}, {"uniqueid": "w67070140:a48086277", "current_trial": 19, "dateTime": 1693660908316, "trialdata": {"revealed_states": [], "clicked_states": ["16"], "num_clicks_accrued": [0, 0, 0, 0, 0, 0, 0, 0, 0, 0, 0, 0, 0], "stateRewards": ["", 1, 2, 8, -2, 23, -69, -18, -16, 54, -21, 71, -1, -4, 7, 11, 43, -6, 88, 6, -55, 72, 43, 1, -3, -2, -1, 68, -31, -54, 4, -8, 25, -2], "withholdReward": false, "trial_id": "mdp_trial_11", "block": "test", "trialIndex": 12, "score": 53.85, "costs": -2.15, "simulationMode": [null, null, null, null, null], "rewards": [-1, -4, 7, 11, 43], "path": ["0", "0", "12", "13", "14", "15", "16"], "rt": [5077, 577, 213, 100, 1578], "actions": ["right", "right", "right", "up", "up"], "actionTimes": [7005, 8118, 8844, 9466, 11573], "queries": {"click": {"state": {"target": ["16"], "time": [2877]}, "edge": {"target": [], "time": []}}, "mouseover": {"state": {"target": ["18", "18", "16", "17"], "time": [2180, 2345, 2680, 3695]}, "edge": {"target": [], "time": []}}, "mouseout": {"state": {"target": ["25", "24", "23", "0", "18", "18", "16", "17", "14"], "time": [811, 845, 1143, 1946, 2211, 2362, 3618, 12626, 12676]}, "edge": {"target": [], "time": []}}}, "displayed_time": "15.94", "trialTime": 19122, "trial_type": "mouselab-mdp", "trial_index": 19, "time_elapsed": 627965, "internal_node_id": "0.0-6.0-1.0-10.0"}}, {"uniqueid": "w67070140:a48086277", "current_trial": 20, "dateTime": 1693660925974, "trialdata": {"revealed_states": [], "clicked_states": ["33", "10"], "num_clicks_accrued": [0, 0, 0, 0, 0, 0, 0, 0, 0, 0, 0, 0, 0], "stateRewards": ["", 1, 4, -4, 14, 35, 51, 19, -13, 54, 78, -74, -2, -1, -3, 13, -11, -42, -73, -15, -24, -3, -69, 2, -1, 5, 16, -27, 73, 58, 9, -60, 5, -60], "withholdReward": false, "trial_id": "mdp_trial_12", "block": "test", "trialIndex": 13, "score": 61.7, "costs": -4.3, "simulationMode": [null, null, null, null, null], "rewards": [1, 4, -4, -13, 78], "path": ["0", "0", "1", "2", "3", "8", "10"], "rt": [10166, 316, 104, 376, 339], "actions": ["up", "up", "up", "left", "down"], "actionTimes": [11968, 12805, 13425, 14322, 15191], "queries": {"click": {"state": {"target": ["33", "10"], "time": [3190, 7718]}, "edge": {"target": [], "time": []}}, "mouseover": {"state": {"target": ["24", "29", "33", "24", "1", "2", "10", "5", "5"], "time": [2418, 2567, 3035, 4543, 6587, 7234, 7452, 8507, 8828]}, "edge": {"target": [], "time": []}}, "mouseout": {"state": {"target": ["0", "24", "29", "33", "24", "1", "2", "10", "5"], "time": [2367, 2433, 2823, 3209, 4561, 6653, 7336, 8423, 8541]}, "edge": {"target": [], "time": []}}}, "displayed_time": "15.81", "trialTime": 16571, "trial_type": "mouselab-mdp", "trial_index": 20, "time_elapsed": 645623, "internal_node_id": "0.0-6.0-1.0-11.0"}}, {"uniqueid": "w67070140:a48086277", "current_trial": 21, "dateTime": 1693660949499, "trialdata": {"revealed_states": [], "clicked_states": ["6", "9", "11", "20"], "num_clicks_accrued": [0, 0, 0, 0, 0, 0, 0, 0, 0, 0, 0, 0, 0], "stateRewards": ["", -1, -2, -8, 8, -27, -82, 19, -14, -62, 4, 1, -2, 2, 6, 10, 73, -51, -2, 2, 73, -48, 54, -1, 2, -4, 11, -25, 47, 86, 15, 33, 43, -42], "withholdReward": false, "trial_id": "mdp_trial_13", "block": "test", "trialIndex": 14, "score": 72.4, "costs": -8.6, "simulationMode": [null, null, null, null, null], "rewards": [-2, 2, 6, 2, 73], "path": ["0", "0", "12", "13", "14", "19", "20"], "rt": [16329, 344, 226, 287, 233], "actions": ["right", "right", "right", "down", "right"], "actionTimes": [18246, 19114, 19862, 20667, 21418], "queries": {"click": {"state": {"target": ["6", "9", "11", "20"], "time": [2941, 6529, 10213, 14136]}, "edge": {"target": [], "time": []}}, "mouseover": {"state": {"target": ["7", "6", "6", "5", "9", "11", "2", "18", "20"], "time": [2417, 2472, 2803, 3770, 6388, 9904, 12274, 13536, 13954]}, "edge": {"target": [], "time": []}}, "mouseout": {"state": {"target": ["5", "4", "0", "7", "6", "6", "5", "9", "11", "2", "18"], "time": [937, 968, 2318, 2433, 2504, 3013, 6154, 9851, 12223, 12293, 13552]}, "edge": {"target": [], "time": []}}}, "displayed_time": "21.94", "trialTime": 22497, "trial_type": "mouselab-mdp", "trial_index": 21, "time_elapsed": 669149, "internal_node_id": "0.0-6.0-1.0-12.0"}}, {"uniqueid": "w67070140:a48086277", "current_trial": 22, "dateTime": 1693660967397, "trialdata": {"revealed_states": [], "clicked_states": ["18", "22"], "num_clicks_accrued": [0, 0, 0, 0, 0, 0, 0, 0, 0, 0, 0, 0, 0], "stateRewards": ["", -1, 2, -2, 5, 80, -61, -27, 12, 44, -26, -75, -2, -4, 1, -16, 42, -49, -50, 4, -44, 2, 80, -2, -2, 5, -2, 59, 10, 24, 7, -48, -86, -44], "withholdReward": false, "trial_id": "mdp_trial_14", "block": "test", "trialIndex": 15, "score": 74.7, "costs": -4.3, "simulationMode": [null, null, null, null, null], "rewards": [-2, -4, 1, 4, 80], "path": ["0", "0", "12", "13", "14", "19", "22"], "rt": [9016, 485, 140, 172, 331], "actions": ["right", "right", "right", "down", "left"], "actionTimes": [10825, 11810, 12462, 13146, 14005], "queries": {"click": {"state": {"target": ["18", "22"], "time": [2836, 6815]}, "edge": {"target": [], "time": []}}, "mouseover": {"state": {"target": ["18", "18", "15", "17", "19", "22"], "time": [2455, 2654, 3575, 3610, 6222, 6640]}, "edge": {"target": [], "time": []}}, "mouseout": {"state": {"target": ["20", "19", "22", "0", "18", "18", "15", "17", "19", "22"], "time": [770, 803, 831, 2320, 2556, 3555, 3594, 3632, 6258, 7906]}, "edge": {"target": [], "time": []}}}, "displayed_time": "15.82", "trialTime": 16731, "trial_type": "mouselab-mdp", "trial_index": 22, "time_elapsed": 687047, "internal_node_id": "0.0-6.0-1.0-13.0"}}, {"uniqueid": "w67070140:a48086277", "current_trial": 23, "dateTime": 1693661006433, "trialdata": {"revealed_states": [], "clicked_states": ["27", "29", "28", "18", "16", "17", "11", "9"], "num_clicks_accrued": [0, 0, 0, 0, 0, 0, 0, 0, 0, 0, 0, 0, 0], "stateRewards": ["", 2, 3, 6, -5, -74, -53, 17, -12, 46, 44, 18, -2, 4, 1, -8, 22, -23, -49, 9, -45, 55, 81, 1, -1, -7, -16, -83, -71, -45, 2, 51, 82, 61], "withholdReward": false, "trial_id": "mdp_trial_15", "block": "test", "trialIndex": 16, "score": 27.8, "costs": -17.2, "simulationMode": [null, null, null, null, null], "rewards": [2, 3, 6, -12, 46], "path": ["0", "0", "1", "2", "3", "8", "9"], "rt": [31831, 307, 24, 244, 226], "actions": ["up", "up", "up", "left", "up"], "actionTimes": [33706, 34529, 35082, 35855, 36604], "queries": {"click": {"state": {"target": ["27", "29", "28", "18", "16", "17", "11", "9"], "time": [3011, 6548, 9836, 13684, 17592, 21266, 25291, 29620]}, "edge": {"target": [], "time": []}}, "mouseover": {"state": {"target": ["27", "29", "26", "28", "15", "18", "16", "16", "17", "14", "1", "11", "9", "5"], "time": [2834, 6285, 7324, 7523, 13252, 13416, 14488, 17252, 18235, 24617, 24649, 25033, 29233, 31746]}, "edge": {"target": [], "time": []}}, "mouseout": {"state": {"target": ["27", "29", "26", "28", "15", "18", "16", "16", "17", "14", "1", "11", "9"], "time": [4006, 7305, 7365, 13132, 13383, 14415, 14524, 18152, 22324, 24633, 24667, 29133, 31591]}, "edge": {"target": [], "time": []}}}, "displayed_time": "37.12", "trialTime": 38044, "trial_type": "mouselab-mdp", "trial_index": 23, "time_elapsed": 726082, "internal_node_id": "0.0-6.0-1.0-14.0"}}, {"uniqueid": "w67070140:a48086277", "current_trial": 24, "dateTime": 1693661030710, "trialdata": {"revealed_states": [], "clicked_states": ["11", "9", "5", "6"], "num_clicks_accrued": [0, 0, 0, 0, 0, 0, 0, 0, 0, 0, 0, 0, 0], "stateRewards": ["", 2, -1, 8, -2, -16, 69, -39, -7, -13, -27, -86, 2, -2, 2, 13, -34, -16, -20, -5, 19, 81, 32, -2, -1, 2, -14, 20, 80, 58, 4, 70, 12, 73], "withholdReward": false, "trial_id": "mdp_trial_16", "block": "test", "trialIndex": 17, "score": 67.4, "costs": -8.6, "simulationMode": [null, null, null, null, null], "rewards": [2, -1, 8, -2, 69], "path": ["0", "0", "1", "2", "3", "4", "6"], "rt": [15814, 628, 205, 698, 99], "actions": ["up", "up", "up", "right", "right"], "actionTimes": [18184, 19323, 20049, 21262, 21875], "queries": {"click": {"state": {"target": ["11", "9", "5", "6"], "time": [3502, 6811, 10070, 13949]}, "edge": {"target": [], "time": []}}, "mouseover": {"state": {"target": ["1", "2", "3", "8", "11", "9", "5", "6", "7", "7"], "time": [2893, 2926, 2966, 3091, 3375, 5162, 7451, 13707, 15068, 16171]}, "edge": {"target": [], "time": []}}, "mouseout": {"state": {"target": ["5", "2", "1", "0", "0", "1", "2", "3", "8", "11", "9", "5", "6", "7"], "time": [1208, 1359, 1425, 1611, 2845, 2907, 2945, 3042, 3241, 4912, 7365, 13592, 15017, 15088]}, "edge": {"target": [], "time": []}}}, "displayed_time": "22.42", "trialTime": 23180, "trial_type": "mouselab-mdp", "trial_index": 24, "time_elapsed": 750359, "internal_node_id": "0.0-6.0-1.0-15.0"}}, {"uniqueid": "w67070140:a48086277", "current_trial": 25, "dateTime": 1693661057704, "trialdata": {"revealed_states": [], "clicked_states": ["10", "7", "18", "22", "21"], "num_clicks_accrued": [0, 0, 0, 0, 0, 0, 0, 0, 0, 0, 0, 0, 0], "stateRewards": ["", 1, 3, -2, 15, 51, 15, -19, 11, 67, -45, -73, 2, 4, -2, -13, 36, 9, -28, 10, -30, 31, 16, 1, 2, -1, -16, 14, -22, 36, -1, 88, -5, 45], "withholdReward": false, "trial_id": "mdp_trial_17", "block": "test", "trialIndex": 18, "score": 34.25, "costs": -10.75, "simulationMode": [null, null, null, null, null], "rewards": [2, 4, -2, 10, 31], "path": ["0", "0", "12", "13", "14", "19", "21"], "rt": [20193, 297, 116, 211, 97], "actions": ["right", "right", "right", "down", "down"], "actionTimes": [22015, 22823, 23460, 24195, 24831], "queries": {"click": {"state": {"target": ["10", "7", "18", "22", "21"], "time": [3013, 6323, 9581, 12792, 16355]}, "edge": {"target": [], "time": []}}, "mouseover": {"state": {"target": ["1", "2", "10", "2", "7", "18", "15", "17", "14", "19", "22", "21", "20"], "time": [2476, 2547, 2841, 4544, 4989, 7878, 10184, 10499, 10800, 10835, 11232, 13443, 17428]}, "edge": {"target": [], "time": []}}, "mouseout": {"state": {"target": ["7", "1", "2", "10", "2", "7", "18", "15", "17", "14", "19", "22", "21"], "time": [825, 2507, 2586, 4507, 4565, 7746, 10148, 10219, 10718, 10819, 11143, 13371, 17093]}, "edge": {"target": [], "time": []}}}, "displayed_time": "25.35", "trialTime": 25939, "trial_type": "mouselab-mdp", "trial_index": 25, "time_elapsed": 777353, "internal_node_id": "0.0-6.0-1.0-16.0"}}, {"uniqueid": "w67070140:a48086277", "current_trial": 26, "dateTime": 1693661097899, "trialdata": {"revealed_states": [], "clicked_states": ["27", "28", "29", "16", "18", "17", "11", "9"], "num_clicks_accrued": [0, 0, 0, 0, 0, 0, 0, 0, 0, 0, 0, 0, 0], "stateRewards": ["", 1, -3, -1, 9, -34, -40, 22, -7, 45, 53, -11, 2, 4, 5, 15, 21, 37, -49, -3, 80, -28, -34, 1, -3, 1, 1, -40, -6, -5, -16, -85, -86, 59], "withholdReward": false, "trial_id": "mdp_trial_18", "block": "test", "trialIndex": 19, "score": 17.8, "costs": -17.2, "simulationMode": [null, null, null, null, null], "rewards": [1, -3, -1, -7, 45], "path": ["0", "0", "1", "2", "3", "8", "9"], "rt": [32503, 156, 359, 218, 269], "actions": ["up", "up", "up", "left", "up"], "actionTimes": [34903, 35574, 36462, 37223, 38009], "queries": {"click": {"state": {"target": ["27", "28", "29", "16", "18", "17", "11", "9"], "time": [3484, 7265, 11278, 15044, 18824, 22045, 26620, 30347]}, "edge": {"target": [], "time": []}}, "mouseover": {"state": {"target": ["28", "27", "28", "26", "29", "6", "16", "18", "15", "17", "17", "17", "18", "10", "11", "9", "5"], "time": [3005, 3341, 6836, 10853, 11123, 14224, 14924, 18390, 19276, 19312, 21238, 21704, 26089, 26175, 26406, 29955, 31557]}, "edge": {"target": [], "time": []}}, "mouseout": {"state": {"target": ["20", "19", "22", "0", "28", "27", "28", "26", "29", "6", "16", "18", "15", "17", "17", "17", "18", "10", "11", "9", "5"], "time": [1372, 1424, 1472, 1753, 3088, 6774, 10787, 11007, 11298, 14239, 18304, 19259, 19295, 19331, 21278, 23372, 26110, 26239, 29873, 30373, 31578]}, "edge": {"target": [], "time": []}}}, "displayed_time": "38.52", "trialTime": 39114, "trial_type": "mouselab-mdp", "trial_index": 26, "time_elapsed": 817548, "internal_node_id": "0.0-6.0-1.0-17.0"}}, {"uniqueid": "w67070140:a48086277", "current_trial": 27, "dateTime": 1693661115288, "trialdata": {"revealed_states": [], "clicked_states": ["33", "18"], "num_clicks_accrued": [0, 0, 0, 0, 0, 0, 0, 0, 0, 0, 0, 0, 0], "stateRewards": ["", 2, -3, -2, 14, -4, 85, 46, 15, -28, 41, 31, -1, -1, -1, 5, 62, 79, 57, 12, -73, -64, 86, -1, 1, -3, -5, 68, 11, -32, 8, -80, -21, -56], "withholdReward": false, "trial_id": "mdp_trial_19", "block": "test", "trialIndex": 20, "score": 54.7, "costs": -4.3, "simulationMode": [null, null, null, null, null], "rewards": [-1, -1, -1, 5, 57], "path": ["0", "0", "12", "13", "14", "15", "18"], "rt": [8958, 395, 121, 190, 113], "actions": ["right", "right", "right", "up", "left"], "actionTimes": [10963, 11894, 12543, 13254, 13884], "queries": {"click": {"state": {"target": ["33", "18"], "time": [3365, 6623]}, "edge": {"target": [], "time": []}}, "mouseover": {"state": {"target": ["23", "24", "30", "33", "25", "7", "16", "18"], "time": [2638, 2683, 2837, 3220, 4805, 4875, 4976, 5286]}, "edge": {"target": [], "time": []}}, "mouseout": {"state": {"target": ["4", "1", "0", "0", "23", "24", "30", "33", "25", "7", "16"], "time": [1017, 1082, 1269, 2636, 2667, 2700, 3050, 4756, 4824, 4894, 5166]}, "edge": {"target": [], "time": []}}}, "displayed_time": "16.01", "trialTime": 16465, "trial_type": "mouselab-mdp", "trial_index": 27, "time_elapsed": 834937, "internal_node_id": "0.0-6.0-1.0-18.0"}}, {"uniqueid": "w67070140:a48086277", "current_trial": 28, "dateTime": 1693661132808, "trialdata": {"revealed_states": [], "clicked_states": ["28"], "num_clicks_accrued": [0, 0, 0, 0, 0, 0, 0, 0, 0, 0, 0, 0, 0], "stateRewards": ["", 1, -2, -8, -13, 4, 34, -84, -4, -49, 88, -70, -1, 3, -4, 10, -77, 13, -34, 15, -21, -16, 27, 1, -2, 8, -8, -6, 38, -26, 6, -15, 66, -3], "withholdReward": false, "trial_id": "mdp_trial_20", "block": "test", "trialIndex": 21, "score": 34.85, "costs": -2.15, "simulationMode": [null, null, null, null, null], "rewards": [1, -2, 8, -8, 38], "path": ["0", "0", "23", "24", "25", "26", "28"], "rt": [5720, 391, 30, 445, 632], "actions": ["left", "left", "left", "up", "right"], "actionTimes": [7586, 8484, 9044, 10005, 11155], "queries": {"click": {"state": {"target": ["28"], "time": [3062]}, "edge": {"target": [], "time": []}}, "mouseover": {"state": {"target": ["28"], "time": [2939]}, "edge": {"target": [], "time": []}}, "mouseout": {"state": {"target": ["18", "12", "28"], "time": [971, 1121, 6321]}, "edge": {"target": [], "time": []}}}, "displayed_time": "15.88", "trialTime": 16356, "trial_type": "mouselab-mdp", "trial_index": 28, "time_elapsed": 852457, "internal_node_id": "0.0-6.0-1.0-19.0"}}, {"uniqueid": "w67070140:a48086277", "current_trial": 29, "dateTime": 1693661151066, "trialdata": {"revealed_states": [], "clicked_states": ["9"], "num_clicks_accrued": [0, 0, 0, 0, 0, 0, 0, 0, 0, 0, 0, 0, 0], "stateRewards": ["", 2, -2, -8, 9, -20, 55, -58, 14, 42, 2, 36, 1, -3, -5, 5, -58, 57, 60, 16, 57, 30, -70, -2, 1, 3, 10, 59, 23, 77, -13, -26, 88, -72], "withholdReward": false, "trial_id": "mdp_trial_21", "block": "test", "trialIndex": 22, "score": 45.85, "costs": -2.15, "simulationMode": [null, null, null, null, null], "rewards": [2, -2, -8, 14, 42], "path": ["0", "0", "1", "2", "3", "8", "9"], "rt": [4974, 215, 146, 336, 58], "actions": ["up", "up", "up", "left", "up"], "actionTimes": [7675, 8402, 9071, 9932, 10542], "queries": {"click": {"state": {"target": ["9"], "time": [3647]}, "edge": {"target": [], "time": []}}, "mouseover": {"state": {"target": ["1", "8", "9", "4", "6"], "time": [3046, 3150, 3484, 4440, 4809]}, "edge": {"target": [], "time": []}}, "mouseout": {"state": {"target": ["0", "0", "1", "8", "9", "4"], "time": [1814, 2849, 3079, 3183, 4357, 4458]}, "edge": {"target": [], "time": []}}}, "displayed_time": "16.71", "trialTime": 17255, "trial_type": "mouselab-mdp", "trial_index": 29, "time_elapsed": 870715, "internal_node_id": "0.0-6.0-1.0-20.0"}}, {"uniqueid": "w67070140:a48086277", "current_trial": 30, "dateTime": 1693661168573, "trialdata": {"revealed_states": [], "clicked_states": ["17"], "num_clicks_accrued": [0, 0, 0, 0, 0, 0, 0, 0, 0, 0, 0, 0, 0], "stateRewards": ["", -2, -3, -7, 7, -54, -69, -4, -14, -77, 22, 40, -2, -1, 5, 6, -35, 50, -60, 10, -28, 75, 57, 1, -4, -2, 2, 68, 34, -18, 12, 3, -21, -43], "withholdReward": false, "trial_id": "mdp_trial_22", "block": "test", "trialIndex": 23, "score": 55.85, "costs": -2.15, "simulationMode": [null, null, null, null, null], "rewards": [-2, -1, 5, 6, 50], "path": ["0", "0", "12", "13", "14", "15", "17"], "rt": [5230, 31, 109, 286, 78], "actions": ["right", "right", "right", "up", "right"], "actionTimes": [7251, 7801, 8431, 9258, 9857], "queries": {"click": {"state": {"target": ["17"], "time": [3267]}, "edge": {"target": [], "time": []}}, "mouseover": {"state": {"target": ["18", "15", "17", "15", "18"], "time": [2666, 2753, 3017, 4144, 4243]}, "edge": {"target": [], "time": []}}, "mouseout": {"state": {"target": ["6", "0", "0", "18", "15", "17", "15"], "time": [752, 867, 1334, 2717, 2967, 4106, 4186]}, "edge": {"target": [], "time": []}}}, "displayed_time": "16.03", "trialTime": 16366, "trial_type": "mouselab-mdp", "trial_index": 30, "time_elapsed": 888223, "internal_node_id": "0.0-6.0-1.0-21.0"}}, {"uniqueid": "w67070140:a48086277", "current_trial": 31, "dateTime": 1693661186208, "trialdata": {"revealed_states": [], "clicked_states": ["27", "21"], "num_clicks_accrued": [0, 0, 0, 0, 0, 0, 0, 0, 0, 0, 0, 0, 0], "stateRewards": ["", -1, 3, -7, 16, -32, -74, -48, 2, 10, 15, -30, 1, 1, -2, 10, 12, -83, 67, 13, -66, 47, 65, -2, 4, 2, -14, -8, -57, 24, 9, 65, 12, 46], "withholdReward": false, "trial_id": "mdp_trial_23", "block": "test", "trialIndex": 24, "score": 55.7, "costs": -4.3, "simulationMode": [null, null, null, null, null], "rewards": [1, 1, -2, 13, 47], "path": ["0", "0", "12", "13", "14", "19", "21"], "rt": [8511, 251, 187, 102, 144], "actions": ["right", "right", "right", "down", "down"], "actionTimes": [10481, 11265, 11974, 12594, 13255], "queries": {"click": {"state": {"target": ["27", "21"], "time": [2867, 6721]}, "edge": {"target": [], "time": []}}, "mouseover": {"state": {"target": ["28", "27", "12", "22", "21"], "time": [2558, 2742, 6143, 6190, 6525]}, "edge": {"target": [], "time": []}}, "mouseout": {"state": {"target": ["18", "0", "28", "27", "12", "22", "21"], "time": [826, 2476, 2583, 6059, 6158, 6242, 14110]}, "edge": {"target": [], "time": []}}}, "displayed_time": "15.98", "trialTime": 16374, "trial_type": "mouselab-mdp", "trial_index": 31, "time_elapsed": 905857, "internal_node_id": "0.0-6.0-1.0-22.0"}}, {"uniqueid": "w67070140:a48086277", "current_trial": 32, "dateTime": 1693661203931, "trialdata": {"revealed_states": [], "clicked_states": ["32"], "num_clicks_accrued": [0, 0, 0, 0, 0, 0, 0, 0, 0, 0, 0, 0, 0], "stateRewards": ["", 2, 3, -2, -8, -8, -41, 74, 15, -23, -80, 1, 1, 3, 3, -15, -63, -78, 67, 13, 75, -41, 86, 2, -2, 6, -3, -8, -49, 50, -6, 83, 74, 80], "withholdReward": false, "trial_id": "mdp_trial_24", "block": "test", "trialIndex": 25, "score": 71.85, "costs": -2.15, "simulationMode": [null, null, null, null, null], "rewards": [2, -2, 6, -6, 74], "path": ["0", "0", "23", "24", "25", "30", "32"], "rt": [4846, 591, 219, 247, 175], "actions": ["left", "left", "left", "down", "down"], "actionTimes": [7073, 8192, 8955, 9706, 10407], "queries": {"click": {"state": {"target": ["32"], "time": [3243]}, "edge": {"target": [], "time": []}}, "mouseover": {"state": {"target": ["31", "32", "31", "23", "1", "16", "16"], "time": [2763, 3047, 4335, 4371, 4414, 4519, 4920]}, "edge": {"target": [], "time": []}}, "mouseout": {"state": {"target": ["0", "31", "32", "31", "23", "1", "16"], "time": [2697, 2800, 4318, 4353, 4392, 4432, 4537]}, "edge": {"target": [], "time": []}}}, "displayed_time": "16.24", "trialTime": 16651, "trial_type": "mouselab-mdp", "trial_index": 32, "time_elapsed": 923580, "internal_node_id": "0.0-6.0-1.0-23.0"}}, {"uniqueid": "w67070140:a48086277", "current_trial": 33, "dateTime": 1693661234331, "trialdata": {"revealed_states": [], "clicked_states": ["5", "9", "10", "7", "6", "11"], "num_clicks_accrued": [0, 0, 0, 0, 0, 0, 0, 0, 0, 0, 0, 0, 0], "stateRewards": ["", 1, 1, 5, 6, -29, -7, 3, -16, 9, -46, 65, -1, 4, -1, -16, -63, -77, -87, 8, 80, -50, 43, -1, -1, -5, 5, -38, -71, -62, 9, 81, -50, -52], "withholdReward": false, "trial_id": "mdp_trial_25", "block": "test", "trialIndex": 26, "score": 43.1, "costs": -12.9, "simulationMode": [null, null, null, null, null], "rewards": [1, 1, 5, -16, 65], "path": ["0", "0", "1", "2", "3", "8", "11"], "rt": [22401, 463, 285, 158, 199], "actions": ["up", "up", "up", "left", "left"], "actionTimes": [24419, 25417, 26217, 26886, 27610], "queries": {"click": {"state": {"target": ["5", "9", "10", "7", "6", "11"], "time": [3408, 7048, 10656, 13845, 17100, 20405]}, "edge": {"target": [], "time": []}}, "mouseover": {"state": {"target": ["7", "5", "5", "9", "6", "7", "2", "10", "2", "7", "6", "4", "3", "8", "11", "16"], "time": [2610, 3043, 3226, 6809, 8283, 8523, 8582, 9147, 11079, 11577, 15000, 17569, 17602, 17668, 17814, 23313]}, "edge": {"target": [], "time": []}}, "mouseout": {"state": {"target": ["16", "12", "0", "7", "5", "5", "9", "6", "7", "2", "10", "2", "7", "6", "4", "3", "8", "11", "16"], "time": [875, 1089, 1408, 2627, 3140, 6727, 7120, 8327, 8544, 8677, 11062, 11116, 14490, 17567, 17601, 17638, 17730, 22639, 23708]}, "edge": {"target": [], "time": []}}}, "displayed_time": "28.13", "trialTime": 29181, "trial_type": "mouselab-mdp", "trial_index": 33, "time_elapsed": 953981, "internal_node_id": "0.0-6.0-1.0-24.0"}}, {"uniqueid": "w67070140:a48086277", "current_trial": 34, "dateTime": 1693661259179, "trialdata": {"revealed_states": [], "clicked_states": ["17", "33", "20", "29"], "num_clicks_accrued": [0, 0, 0, 0, 0, 0, 0, 0, 0, 0, 0, 0, 0], "stateRewards": ["", 2, 4, -5, 7, 81, 35, 6, 11, 14, -72, 42, -1, 2, 3, -7, -77, -44, -40, -15, -85, 51, -32, -2, -1, -5, 7, -74, 47, 52, 16, -49, 48, -46], "withholdReward": false, "trial_id": "mdp_trial_26", "block": "test", "trialIndex": 27, "score": 42.4, "costs": -8.6, "simulationMode": [null, null, null, null, null], "rewards": [-2, -1, -5, 7, 52], "path": ["0", "0", "23", "24", "25", "26", "29"], "rt": [17368, 20, 451, 396, 188], "actions": ["left", "left", "left", "up", "left"], "actionTimes": [19463, 20013, 20972, 21870, 22584], "queries": {"click": {"state": {"target": ["17", "33", "20", "29"], "time": [3396, 6724, 10399, 13706]}, "edge": {"target": [], "time": []}}, "mouseover": {"state": {"target": ["12", "13", "14", "17", "14", "22", "31", "30", "33", "30", "31", "20", "13", "1", "29", "27", "27"], "time": [2685, 2785, 2852, 3203, 4238, 4610, 5293, 5390, 5656, 7791, 7815, 9255, 10866, 10889, 11056, 14206, 14507]}, "edge": {"target": [], "time": []}}, "mouseout": {"state": {"target": ["0", "0", "12", "13", "14", "17", "17", "14", "22", "31", "30", "33", "30", "31", "20", "13", "1", "29", "27"], "time": [1186, 2636, 2737, 2834, 2874, 3483, 4199, 4256, 5189, 5327, 5593, 7769, 7812, 7838, 10843, 10886, 10908, 14147, 14306]}, "edge": {"target": [], "time": []}}}, "displayed_time": "23.10", "trialTime": 23754, "trial_type": "mouselab-mdp", "trial_index": 34, "time_elapsed": 978829, "internal_node_id": "0.0-6.0-1.0-25.0"}}, {"uniqueid": "w67070140:a48086277", "current_trial": 35, "dateTime": 1693661277210, "trialdata": {"revealed_states": [], "clicked_states": ["9"], "num_clicks_accrued": [0, 0, 0, 0, 0, 0, 0, 0, 0, 0, 0, 0, 0], "stateRewards": ["", -1, 2, -2, 13, -56, -28, 10, 14, 53, -80, -29, 1, -3, -3, -14, 14, 9, -40, -9, 18, 18, 48, 1, 1, 1, -9, 64, -39, -9, 7, -52, -78, 7], "withholdReward": false, "trial_id": "mdp_trial_27", "block": "test", "trialIndex": 28, "score": 63.85, "costs": -2.15, "simulationMode": [null, null, null, null, null], "rewards": [-1, 2, -2, 14, 53], "path": ["0", "0", "1", "2", "3", "8", "9"], "rt": [5420, 75, 224, 305, 43], "actions": ["up", "up", "up", "left", "up"], "actionTimes": [7545, 8153, 8908, 9744, 10321], "queries": {"click": {"state": {"target": ["9"], "time": [3496]}, "edge": {"target": [], "time": []}}, "mouseover": {"state": {"target": ["1", "9", "9", "4", "6", "16", "17"], "time": [2906, 2989, 3323, 4506, 4549, 4750, 5425]}, "edge": {"target": [], "time": []}}, "mouseout": {"state": {"target": ["27", "23", "0", "0", "1", "9", "9", "4", "6", "16"], "time": [991, 1087, 1141, 2875, 2923, 3022, 3583, 4524, 4587, 4787]}, "edge": {"target": [], "time": []}}}, "displayed_time": "16.13", "trialTime": 16690, "trial_type": "mouselab-mdp", "trial_index": 35, "time_elapsed": 996860, "internal_node_id": "0.0-6.0-1.0-26.0"}}, {"uniqueid": "w67070140:a48086277", "current_trial": 36, "dateTime": 1693661301353, "trialdata": {"revealed_states": [], "clicked_states": ["20", "18"], "num_clicks_accrued": [0, 0, 0, 0, 0, 0, 0, 0, 0, 0, 0, 0, 0], "stateRewards": ["", 2, 4, -3, 16, -58, 30, -35, 11, -60, 47, 27, -2, -1, -7, -16, 23, -70, 68, -10, -65, -43, -34, -2, 1, 7, 9, -63, 34, -31, -8, -12, -86, 59], "withholdReward": false, "trial_id": "mdp_trial_28", "block": "test", "trialIndex": 29, "score": 37.7, "costs": -4.3, "simulationMode": [null, null, null, null, null], "rewards": [-2, -1, -7, -16, 68], "path": ["0", "0", "12", "13", "14", "15", "18"], "rt": [8500, 197, 151, 536, 230], "actions": ["right", "right", "right", "up", "left"], "actionTimes": [16759, 17469, 18178, 19206, 19951], "queries": {"click": {"state": {"target": ["20", "18"], "time": [9361, 12636]}, "edge": {"target": [], "time": []}}, "mouseover": {"state": {"target": ["17", "20", "14", "18", "15", "17", "17"], "time": [8851, 9150, 9936, 9998, 13412, 13860, 15364]}, "edge": {"target": [], "time": []}}, "mouseout": {"state": {"target": ["17", "14", "13", "12", "0", "17", "20", "14", "18", "15", "17"], "time": [6815, 6865, 6982, 7151, 8652, 8934, 9386, 9955, 13378, 13510, 13918]}, "edge": {"target": [], "time": []}}}, "displayed_time": "22.26", "trialTime": 22859, "trial_type": "mouselab-mdp", "trial_index": 36, "time_elapsed": 1021002, "internal_node_id": "0.0-6.0-1.0-27.0"}}, {"uniqueid": "w67070140:a48086277", "current_trial": 37, "dateTime": 1693661369762, "trialdata": {"revealed_states": [], "clicked_states": ["28", "10", "7", "18", "22", "31", "32", "27", "11", "9", "6", "5", "16", "17", "21"], "num_clicks_accrued": [0, 0, 0, 0, 0, 0, 0, 0, 0, 0, 0, 0, 0], "stateRewards": ["", 2, 4, 7, -6, -76, -81, 2, 5, -66, -3, 36, -2, -4, 6, -2, -69, 4, -49, -6, 67, 38, -67, 2, 1, 1, 6, -68, -21, 52, -16, -16, 6, -70], "withholdReward": false, "trial_id": "mdp_trial_29", "block": "test", "trialIndex": 30, "score": -0.2499999999999929, "costs": -32.24999999999999, "simulationMode": [null, null, null, null, null], "rewards": [-2, -4, 6, -6, 38], "path": ["0", "0", "12", "13", "14", "19", "21"], "rt": [56576, 259, 24, 529, 134], "actions": ["right", "right", "right", "down", "down"], "actionTimes": [61005, 61793, 62349, 63416, 64075], "queries": {"click": {"state": {"target": ["28", "10", "7", "18", "22", "31", "32", "27", "11", "9", "6", "5", "16", "17", "21"], "time": [5403, 8802, 12059, 15386, 18622, 21875, 25709, 30272, 34305, 38643, 41850, 45331, 48671, 52817, 56605]}, "edge": {"target": [], "time": []}}, "mouseover": {"state": {"target": ["10", "10", "28", "10", "2", "7", "18", "13", "22", "22", "31", "32", "33", "29", "27", "11", "9", "9", "11", "9", "5", "6", "5", "16", "17", "20", "20", "21", "21", "20"], "time": [4458, 4828, 5212, 6200, 9367, 9483, 12651, 16992, 17055, 17433, 19413, 25497, 29063, 29347, 29916, 33664, 33715, 33982, 34097, 34971, 39217, 39699, 42486, 48497, 52080, 55573, 55846, 56079, 56397, 59025]}, "edge": {"target": [], "time": []}}, "mouseout": {"state": {"target": ["17", "2", "10", "11", "28", "0", "0", "10", "10", "28", "10", "2", "7", "18", "13", "22", "22", "31", "32", "33", "29", "27", "11", "9", "9", "11", "9", "5", "6", "5", "16", "16", "17", "20", "20", "21", "21"], "time": [930, 1013, 1029, 1712, 3348, 3447, 4455, 4614, 5015, 5898, 9345, 9425, 12530, 16973, 17034, 17145, 19181, 25295, 28996, 29133, 29831, 30347, 33685, 33740, 34033, 34893, 38767, 39266, 41990, 47842, 48690, 52031, 55492, 55612, 56046, 56112, 58817]}, "edge": {"target": [], "time": []}}}, "displayed_time": "64.58", "trialTime": 67230, "trial_type": "mouselab-mdp", "trial_index": 37, "time_elapsed": 1089411, "internal_node_id": "0.0-6.0-1.0-28.0"}}, {"uniqueid": "w67070140:a48086277", "current_trial": 38, "dateTime": 1693661390198, "trialdata": {"revealed_states": [], "clicked_states": [], "num_clicks_accrued": [0, 0, 0, 0, 0, 0, 0, 0, 0, 0, 0, 0, 0], "stateRewards": ["", 1, -1, 1, 13, 31, -56, 72, 2, 41, 5, 63, -2, -3, -2, 3, -71, -26, 52, 13, -31, 24, -67, 2, -2, 5, 4, 66, 43, 72, 9, 86, -26, 44], "withholdReward": false, "trial_id": "mdp_trial_30", "block": "test", "trialIndex": 31, "score": -12, "costs": 0, "simulationMode": [null, null, null, null, null], "rewards": [2, -2, 5, 9, -26], "path": ["0", "0", "23", "24", "25", "30", "32"], "rt": [6414, 256, 194, 238, 107], "actions": ["left", "left", "left", "down", "down"], "actionTimes": [10455, 11235, 11951, 12750, 13384], "queries": {"click": {"state": {"target": [], "time": []}, "edge": {"target": [], "time": []}}, "mouseover": {"state": {"target": [], "time": []}, "edge": {"target": [], "time": []}}, "mouseout": {"state": {"target": ["20", "19", "12", "0"], "time": [2384, 2417, 2467, 4063]}, "edge": {"target": [], "time": []}}}, "displayed_time": "18.05", "trialTime": 19271, "trial_type": "mouselab-mdp", "trial_index": 38, "time_elapsed": 1109847, "internal_node_id": "0.0-6.0-1.0-29.0"}}, {"uniqueid": "w67070140:a48086277", "current_trial": 39, "dateTime": 1693661408090, "trialdata": {"revealed_states": [], "clicked_states": ["20"], "num_clicks_accrued": [0, 0, 0, 0, 0, 0, 0, 0, 0, 0, 0, 0, 0], "stateRewards": ["", 2, 3, 8, 14, 69, -27, 17, 2, -71, -65, -10, 2, -3, 7, 8, 65, -10, 65, -12, 73, -12, 13, -2, -2, 6, 10, -79, -69, -18, 10, -85, 67, 74], "withholdReward": false, "trial_id": "mdp_trial_31", "block": "test", "trialIndex": 32, "score": 64.85, "costs": -2.15, "simulationMode": [null, null, null, null, null], "rewards": [2, -3, 7, -12, 73], "path": ["0", "0", "12", "13", "14", "19", "20"], "rt": [4863, 46, 381, 201, 178], "actions": ["right", "right", "right", "down", "right"], "actionTimes": [6411, 6960, 7882, 8611, 9307], "queries": {"click": {"state": {"target": ["20"], "time": [2501]}, "edge": {"target": [], "time": []}}, "mouseover": {"state": {"target": ["0", "13", "19", "20", "21"], "time": [1594, 1993, 2061, 2363, 3129]}, "edge": {"target": [], "time": []}}, "mouseout": {"state": {"target": ["0", "0", "13", "19", "20", "21", "21"], "time": [826, 1946, 2015, 2079, 3072, 5880, 11162]}, "edge": {"target": [], "time": []}}}, "displayed_time": "15.56", "trialTime": 16622, "trial_type": "mouselab-mdp", "trial_index": 39, "time_elapsed": 1127739, "internal_node_id": "0.0-6.0-1.0-30.0"}}, {"uniqueid": "w67070140:a48086277", "current_trial": 40, "dateTime": 1693661427581, "trialdata": {"revealed_states": [], "clicked_states": ["10", "6"], "num_clicks_accrued": [0, 0, 0, 0, 0, 0, 0, 0, 0, 0, 0, 0, 0], "stateRewards": ["", -2, -4, 6, 14, -34, 49, 36, -8, -3, 32, -4, 1, -2, 1, -8, -20, -71, -57, -7, -86, -62, -16, -2, -3, -5, 11, 23, -21, 53, 5, -5, 85, 73], "withholdReward": false, "trial_id": "mdp_trial_32", "block": "test", "trialIndex": 33, "score": 58.7, "costs": -4.3, "simulationMode": [null, null, null, null, null], "rewards": [-2, -4, 6, 14, 49], "path": ["0", "0", "1", "2", "3", "4", "6"], "rt": [8731, 482, 344, 140, 109], "actions": ["up", "up", "up", "right", "right"], "actionTimes": [10271, 11279, 12184, 12848, 13553], "queries": {"click": {"state": {"target": ["10", "6"], "time": [2388, 6301]}, "edge": {"target": [], "time": []}}, "mouseover": {"state": {"target": ["10", "2", "7", "6"], "time": [2235, 2910, 2975, 3345]}, "edge": {"target": [], "time": []}}, "mouseout": {"state": {"target": ["0", "10", "2", "7", "6", "7", "1", "0"], "time": [664, 2889, 2951, 3017, 16400, 16481, 16864, 16899]}, "edge": {"target": [], "time": []}}}, "displayed_time": "15.54", "trialTime": 18166, "trial_type": "mouselab-mdp", "trial_index": 40, "time_elapsed": 1147230, "internal_node_id": "0.0-6.0-1.0-31.0"}}, {"uniqueid": "w67070140:a48086277", "current_trial": 41, "dateTime": 1693661448931, "trialdata": {"revealed_states": [], "clicked_states": ["11", "6"], "num_clicks_accrued": [0, 0, 0, 0, 0, 0, 0, 0, 0, 0, 0, 0, 0], "stateRewards": ["", -2, 3, -1, 2, -72, 63, 20, -1, 62, -66, 39, -2, 3, -6, 14, 22, 47, 1, 8, -49, -1, -41, 2, 2, -6, -16, -64, -60, -34, 16, 54, 22, -7], "withholdReward": false, "trial_id": "mdp_trial_33", "block": "test", "trialIndex": 34, "score": 60.7, "costs": -4.3, "simulationMode": [null, null, null, null, null], "rewards": [-2, 3, -1, 2, 63], "path": ["0", "0", "1", "2", "3", "4", "6"], "rt": [9701, 69, 64, 176, 28], "actions": ["up", "up", "up", "right", "right"], "actionTimes": [14233, 14842, 15409, 16100, 16659], "queries": {"click": {"state": {"target": ["11", "6"], "time": [6852, 10414]}, "edge": {"target": [], "time": []}}, "mouseover": {"state": {"target": ["1", "8", "11", "3", "6", "6", "5"], "time": [6340, 6437, 6754, 8475, 8572, 9344, 11218]}, "edge": {"target": [], "time": []}}, "mouseout": {"state": {"target": ["0", "1", "8", "11", "3", "6", "6"], "time": [3573, 6360, 6607, 8413, 8498, 8623, 11172]}, "edge": {"target": [], "time": []}}}, "displayed_time": "18.54", "trialTime": 20107, "trial_type": "mouselab-mdp", "trial_index": 41, "time_elapsed": 1168581, "internal_node_id": "0.0-6.0-1.0-32.0"}}, {"uniqueid": "w67070140:a48086277", "current_trial": 42, "dateTime": 1693661467483, "trialdata": {"revealed_states": [], "clicked_states": ["29", "28"], "num_clicks_accrued": [0, 0, 0, 0, 0, 0, 0, 0, 0, 0, 0, 0, 0], "stateRewards": ["", 2, -4, 1, -12, -59, -53, -74, 16, -88, -66, 66, 1, -2, 8, -9, -14, 22, 25, -1, -39, 47, -14, -1, -1, -2, 1, -4, 52, -26, 15, -7, 46, 43], "withholdReward": false, "trial_id": "mdp_trial_34", "block": "test", "trialIndex": 35, "score": 44.7, "costs": -4.3, "simulationMode": [null, null, null, null, null], "rewards": [-1, -1, -2, 1, 52], "path": ["0", "0", "23", "24", "25", "26", "28"], "rt": [9041, 600, 1324, 65, 90], "actions": ["left", "left", "left", "up", "right"], "actionTimes": [11301, 12431, 14278, 14898, 15510], "queries": {"click": {"state": {"target": ["29", "28"], "time": [3464, 7497]}, "edge": {"target": [], "time": []}}, "mouseover": {"state": {"target": ["28", "29", "28", "28"], "time": [3031, 3312, 7078, 7363]}, "edge": {"target": [], "time": []}}, "mouseout": {"state": {"target": ["5", "2", "1", "0", "28", "29", "28"], "time": [1015, 1113, 1329, 2927, 3051, 3484, 7146]}, "edge": {"target": [], "time": []}}}, "displayed_time": "16.27", "trialTime": 17366, "trial_type": "mouselab-mdp", "trial_index": 42, "time_elapsed": 1187132, "internal_node_id": "0.0-6.0-1.0-33.0"}}, {"uniqueid": "w67070140:a48086277", "current_trial": 43, "dateTime": 1693661485538, "trialdata": {"revealed_states": [], "clicked_states": ["20"], "num_clicks_accrued": [0, 0, 0, 0, 0, 0, 0, 0, 0, 0, 0, 0, 0], "stateRewards": ["", 1, -3, -6, -5, 47, 80, -29, 11, -71, 10, -29, -2, 3, -6, 12, 2, -78, -6, 8, 34, -16, -5, -1, 3, 3, -13, 84, -36, -62, -3, -27, 66, 15], "withholdReward": false, "trial_id": "mdp_trial_35", "block": "test", "trialIndex": 36, "score": 34.85, "costs": -2.15, "simulationMode": [null, null, null, null, null], "rewards": [-2, 3, -6, 8, 34], "path": ["0", "0", "12", "13", "14", "19", "20"], "rt": [5641, 87, 25, 452, 14], "actions": ["right", "right", "right", "down", "right"], "actionTimes": [7716, 8331, 8888, 9856, 10395], "queries": {"click": {"state": {"target": ["20"], "time": [3123]}, "edge": {"target": [], "time": []}}, "mouseover": {"state": {"target": ["12", "14", "20", "20"], "time": [2485, 2571, 2735, 2971]}, "edge": {"target": [], "time": []}}, "mouseout": {"state": {"target": ["28", "23", "0", "12", "14", "20", "20"], "time": [784, 871, 2411, 2512, 2595, 2784, 7086]}, "edge": {"target": [], "time": []}}}, "displayed_time": "16.08", "trialTime": 16859, "trial_type": "mouselab-mdp", "trial_index": 43, "time_elapsed": 1205187, "internal_node_id": "0.0-6.0-1.0-34.0"}}, {"uniqueid": "w67070140:a48086277", "current_trial": 44, "dateTime": 1693661534227, "trialdata": {"revealed_states": [], "clicked_states": ["18", "20", "33", "31", "28", "29", "6", "9", "11", "7", "10"], "num_clicks_accrued": [0, 0, 0, 0, 0, 0, 0, 0, 0, 0, 0, 0, 0], "stateRewards": ["", 2, -4, 4, 9, 69, 9, -75, 12, -86, 66, 25, -1, 3, 2, -13, -88, -3, 1, 4, -69, 49, -84, 2, -1, 4, 2, -18, -81, -52, -15, -69, -54, 25], "withholdReward": false, "trial_id": "mdp_trial_36", "block": "test", "trialIndex": 37, "score": 56.35000000000001, "costs": -23.649999999999995, "simulationMode": [null, null, null, null, null], "rewards": [2, -4, 4, 12, 66], "path": ["0", "0", "1", "2", "3", "8", "10"], "rt": [40768, 189, 616, 276, 181], "actions": ["up", "up", "up", "left", "down"], "actionTimes": [43047, 43753, 44899, 45687, 46395], "queries": {"click": {"state": {"target": ["18", "20", "33", "31", "28", "29", "6", "9", "11", "7", "10"], "time": [2929, 6171, 9494, 13472, 16930, 20797, 24249, 27610, 31414, 35453, 39147]}, "edge": {"target": [], "time": []}}, "mouseover": {"state": {"target": ["18", "18", "14", "20", "25", "33", "30", "31", "31", "24", "28", "24", "25", "29", "26", "6", "4", "9", "11", "27", "11", "8", "7", "7", "2", "10", "3", "5", "5"], "time": [2323, 2758, 4547, 4684, 7075, 7430, 11848, 11982, 12340, 16621, 16789, 20339, 20404, 20655, 23293, 23889, 24767, 25409, 28306, 30957, 31292, 32578, 32645, 32975, 38808, 38988, 40241, 40316, 42355]}, "edge": {"target": [], "time": []}}, "mouseout": {"state": {"target": ["20", "0", "0", "18", "18", "14", "20", "25", "33", "30", "31", "31", "24", "28", "24", "25", "29", "26", "6", "4", "9", "11", "27", "11", "8", "7", "7", "2", "10", "3", "5"], "time": [792, 1075, 2321, 2555, 4439, 4569, 6975, 7093, 9614, 11909, 12140, 16489, 16637, 20207, 20372, 20440, 23254, 23316, 24743, 24786, 28267, 28328, 30991, 32554, 32598, 32665, 38791, 38855, 40199, 40268, 40339]}, "edge": {"target": [], "time": []}}}, "displayed_time": "46.92", "trialTime": 47403, "trial_type": "mouselab-mdp", "trial_index": 44, "time_elapsed": 1253877, "internal_node_id": "0.0-6.0-1.0-35.0"}}, {"uniqueid": "w67070140:a48086277", "current_trial": 45, "dateTime": 1693661557851, "trialdata": {"revealed_states": [], "clicked_states": ["7", "18", "10", "28"], "num_clicks_accrued": [0, 0, 0, 0, 0, 0, 0, 0, 0, 0, 0, 0, 0], "stateRewards": ["", -2, -1, -1, 5, -54, -87, 35, 2, -8, 20, -22, 1, 3, 6, 13, -75, -32, -55, -3, 56, 62, -22, -1, -4, -1, -7, -51, 84, 70, 7, -15, 5, 55], "withholdReward": false, "trial_id": "mdp_trial_37", "block": "test", "trialIndex": 38, "score": 62.4, "costs": -8.6, "simulationMode": [null, null, null, null, null], "rewards": [-1, -4, -1, -7, 84], "path": ["0", "0", "23", "24", "25", "26", "28"], "rt": [14999, 1049, 160, 261, 137], "actions": ["left", "left", "left", "up", "right"], "actionTimes": [17389, 18977, 19668, 20451, 21112], "queries": {"click": {"state": {"target": ["7", "18", "10", "28"], "time": [3469, 6826, 10050, 13457]}, "edge": {"target": [], "time": []}}, "mouseover": {"state": {"target": ["18", "18", "7", "18", "10", "28", "24", "31"], "time": [2852, 3119, 3318, 4019, 8051, 11406, 15802, 15882]}, "edge": {"target": [], "time": []}}, "mouseout": {"state": {"target": ["5", "2", "1", "0", "18", "18", "7", "18", "10", "28", "24", "31"], "time": [1283, 1334, 1402, 2721, 3006, 3186, 3929, 7849, 11334, 15782, 15843, 21937]}, "edge": {"target": [], "time": []}}}, "displayed_time": "21.65", "trialTime": 22422, "trial_type": "mouselab-mdp", "trial_index": 45, "time_elapsed": 1277500, "internal_node_id": "0.0-6.0-1.0-36.0"}}, {"uniqueid": "w67070140:a48086277", "current_trial": 46, "dateTime": 1693661576296, "trialdata": {"revealed_states": [], "clicked_states": ["29", "33"], "num_clicks_accrued": [0, 0, 0, 0, 0, 0, 0, 0, 0, 0, 0, 0, 0], "stateRewards": ["", -1, -4, -3, 1, -45, -67, -24, 14, 32, 22, 22, -1, 1, -5, -7, 72, 84, -79, -5, 19, -40, -2, -1, -2, 8, -3, 84, -25, -28, 11, 64, -66, 77], "withholdReward": false, "trial_id": "mdp_trial_38", "block": "test", "trialIndex": 39, "score": -54.3, "costs": -4.3, "simulationMode": [null, null, null, null, null], "rewards": [-1, -2, 8, 11, -66], "path": ["0", "0", "23", "24", "25", "30", "32"], "rt": [8425, 88, 312, 229, 73], "actions": ["left", "left", "left", "down", "down"], "actionTimes": [10715, 11310, 12155, 12915, 13509], "queries": {"click": {"state": {"target": ["29", "33"], "time": [3525, 6755]}, "edge": {"target": [], "time": []}}, "mouseover": {"state": {"target": ["23", "29", "33", "32"], "time": [2882, 3415, 4314, 7532]}, "edge": {"target": [], "time": []}}, "mouseout": {"state": {"target": ["0", "23", "29", "33"], "time": [1616, 2899, 4042, 7349]}, "edge": {"target": [], "time": []}}}, "displayed_time": "16.29", "trialTime": 17281, "trial_type": "mouselab-mdp", "trial_index": 46, "time_elapsed": 1295946, "internal_node_id": "0.0-6.0-1.0-37.0"}}, {"uniqueid": "w67070140:a48086277", "current_trial": 47, "dateTime": 1693661622382, "trialdata": {"revealed_states": [], "clicked_states": ["20", "22", "21", "16", "27", "29", "28", "6", "11", "9"], "num_clicks_accrued": [0, 0, 0, 0, 0, 0, 0, 0, 0, 0, 0, 0, 0], "stateRewards": ["", 2, 3, -1, 6, 44, -4, -59, -14, -3, 64, 16, 1, -3, 3, 6, 3, 49, 19, 3, -49, -14, -86, 1, 2, -3, -8, -33, 14, 32, -13, -77, -47, -67], "withholdReward": false, "trial_id": "mdp_trial_39", "block": "test", "trialIndex": 40, "score": 2.5000000000000036, "costs": -21.499999999999996, "simulationMode": [null, null, null, null, null], "rewards": [1, 2, -3, -8, 32], "path": ["0", "0", "23", "24", "25", "26", "29"], "rt": [37842, 916, 68, 435, 48], "actions": ["left", "left", "left", "up", "left"], "actionTimes": [39602, 41035, 41637, 42591, 43145], "queries": {"click": {"state": {"target": ["20", "22", "21", "16", "27", "29", "28", "6", "11", "9"], "time": [2801, 6046, 9328, 12507, 15783, 19750, 23272, 28012, 31910, 35713]}, "edge": {"target": [], "time": []}}, "mouseover": {"state": {"target": ["12", "13", "14", "20", "19", "22", "21", "19", "16", "18", "27", "29", "26", "28", "1", "18", "15", "18", "18", "7", "4", "6", "4", "3", "11", "9"], "time": [2196, 2266, 2415, 2616, 3256, 3339, 6520, 10014, 10168, 13195, 13987, 19564, 20568, 20648, 26084, 26155, 26346, 26831, 27184, 27482, 27618, 27732, 31400, 31425, 31532, 35465]}, "edge": {"target": [], "time": []}}, "mouseout": {"state": {"target": ["32", "31", "12", "13", "14", "20", "19", "22", "21", "19", "16", "18", "27", "29", "26", "28", "1", "18", "15", "18", "18", "7", "4", "6", "6", "4", "3", "11", "9"], "time": [730, 763, 2229, 2329, 2481, 2919, 3296, 6462, 9972, 10037, 13150, 13852, 18901, 20543, 20624, 26047, 26099, 26194, 26765, 26935, 27447, 27538, 27664, 28032, 31379, 31424, 31447, 35382, 35851]}, "edge": {"target": [], "time": []}}}, "displayed_time": "43.68", "trialTime": 44948, "trial_type": "mouselab-mdp", "trial_index": 47, "time_elapsed": 1342032, "internal_node_id": "0.0-6.0-1.0-38.0"}}, {"uniqueid": "w67070140:a48086277", "current_trial": 48, "dateTime": 1693661645359, "trialdata": {"revealed_states": [], "clicked_states": ["22", "28", "5", "11"], "num_clicks_accrued": [0, 0, 0, 0, 0, 0, 0, 0, 0, 0, 0, 0, 0], "stateRewards": ["", 1, -2, -2, 10, -31, -77, 35, 9, -47, 8, 48, -2, 1, -4, -3, -26, -50, 43, -11, 76, -38, 17, 1, -1, 6, 10, 15, -9, 12, -8, 85, 11, -55], "withholdReward": false, "trial_id": "mdp_trial_40", "block": "test", "trialIndex": 41, "score": 45.4, "costs": -8.6, "simulationMode": [null, null, null, null, null], "rewards": [1, -2, -2, 9, 48], "path": ["0", "0", "1", "2", "3", "8", "11"], "rt": [15029, 283, 306, 757, 266], "actions": ["up", "up", "up", "left", "left"], "actionTimes": [16983, 17791, 18620, 19897, 20676], "queries": {"click": {"state": {"target": ["22", "28", "5", "11"], "time": [2905, 6336, 9559, 12753]}, "edge": {"target": [], "time": []}}, "mouseover": {"state": {"target": ["12", "13", "22", "13", "18", "1", "28", "10", "5", "11", "9", "25", "30", "33", "25", "28"], "time": [2342, 2424, 2774, 3375, 3538, 4709, 4976, 7132, 7477, 10335, 13644, 15535, 15624, 15991, 16201, 16236]}, "edge": {"target": [], "time": []}}, "mouseout": {"state": {"target": ["9", "2", "1", "0", "12", "13", "22", "13", "18", "1", "28", "10", "5", "11", "9", "25", "30", "33", "25", "28"], "time": [741, 806, 824, 2308, 2392, 2511, 3313, 3436, 4666, 4749, 7110, 7154, 10080, 13372, 15423, 15603, 15744, 16177, 16234, 16267]}, "edge": {"target": [], "time": []}}}, "displayed_time": "21.20", "trialTime": 21819, "trial_type": "mouselab-mdp", "trial_index": 48, "time_elapsed": 1365009, "internal_node_id": "0.0-6.0-1.0-39.0"}}, {"uniqueid": "w67070140:a48086277", "current_trial": 49, "dateTime": 1693661700375, "trialdata": {"rt": 55010, "response": {"Q0": "$-2 to $2", "Q1": "$-32 to $32", "Q2": "$-88 to $88", "Q3": "The cost for clicking on nodes varied between nodes.", "Q4": "Very motivated"}, "question_order": [0, 1, 2, 3, 4], "trial_id": "final_quiz_control", "trial_type": "survey-multi-choice", "trial_index": 49, "time_elapsed": 1420025, "internal_node_id": "0.0-6.0-2.0"}}, {"uniqueid": "w67070140:a48086277", "current_trial": 50, "dateTime": 1693661743284, "trialdata": {"rt": 42933, "response": {"Q0": "I just tried the last nodes, I didn't bother with any nodes before step 5 ", "Q1": "Not really", "Q2": "I didn't bother to improve my performance"}, "trial_id": "self_report_control", "trial_type": "survey-text", "trial_index": 50, "time_elapsed": 1462933, "internal_node_id": "0.0-6.0-3.0"}}, {"uniqueid": "w67070140:a48086277", "current_trial": 51, "dateTime": 1693661776511, "trialdata": {"rt": 33228, "response": {"Q0": "Strongly disagree", "Q1": "Neither disagree nor agree", "Q2": "Neither disagree nor agree", "Q3": "Neither disagree nor agree", "Q4": "Neither disagree nor agree", "Q5": "Neither disagree nor agree", "Q6": "Neither disagree nor agree"}, "question_order": [0, 1, 2, 3, 4, 5, 6], "trial_id": "self_report_2", "trial_type": "survey-multi-choice", "trial_index": 51, "time_elapsed": 1496161, "internal_node_id": "0.0-6.0-4.0"}}, {"uniqueid": "w67070140:a48086277", "current_trial": 52, "dateTime": 1693661794518, "trialdata": {"rt": 18001, "response": {"gender": "female", "age": "25", "colorblind": "0", "effort": "0"}, "trial_type": "survey-html-form", "trial_index": 52, "time_elapsed": 1514168, "internal_node_id": "0.0-6.0-5.0"}}, {"uniqueid": "w67070140:a48086277", "current_trial": 53, "dateTime": 1693661836290, "trialdata": {"rt": 41767, "response": {"Q0": "I didn't realise my total included the total of the nodes; i just noticed that in the last few rounds", "Q1": "no", "Q2": "none"}, "trial_type": "survey-text", "trial_index": 53, "time_elapsed": 1555940, "internal_node_id": "0.0-6.0-6.0"}}, {"uniqueid": "w67070140:a48086277", "current_trial": 54, "dateTime": 1693661868184, "trialdata": {"rt": 31888, "stimulus": "<h1>Completion Code Instructions (1/2)</h1>\n<br><br><br><br>\nYou have reached the end of the experiment! The completion code consists of two parts: (1) a code with 2 characters (2) a code with 6 characters. On this page, you will receive the second part of the code. The first part of the completion code will be on the next page.\n<br><br>\nThe second part of your completion code is: <b>EWEK22</b>\n<br><br>\nPlease note this down. Then, press 'Next' in order to find the first part of your completion code. Once the data has been saved, you will receive this code either in this window or in the original browser window where you started the experiment.\n <br><br>\n<h2 style='color: red;'>Note: this is <strong>NOT</strong> the full completion code. Copy this down and click 'Next' to get the full completion code on the next page.</h2>", "response": 0, "trial_type": "html-button-response", "trial_index": 54, "time_elapsed": 1587834, "internal_node_id": "0.0-6.0-7.0"}}, {"uniqueid": "w67070140:a48086277", "current_trial": 55, "dateTime": 1693661869194, "trialdata": {"success": true, "trial_type": "fullscreen", "trial_index": 55, "time_elapsed": 1588844, "internal_node_id": "0.0-7.0"}}], "questiondata": {"params": {"CODE": "C6DMOQA6", "MIN_TIME": 14, "inspectCost": 1, "startTime": "Sat Sep 02 2023 14:11:19 GMT+0100 (British Summer Time)", "bonusRate": 0.002, "variance": "1_2_4_8_44", "branching": "31123"}, "final_score": 1545.85}, "eventdata": [{"eventtype": "initialized", "value": null, "timestamp": 1693660278854, "interval": 0}, {"eventtype": "window_resize", "value": [1024, 728], "timestamp": 1693660278854, "interval": 0}, {"eventtype": "window_resize", "value": [1024, 728], "timestamp": 1693660279177, "interval": 323}, {"eventtype": "window_resize", "value": [1440, 900], "timestamp": 1693660285563, "interval": 6386}, {"eventtype": "window_resize", "value": [1024, 728], "timestamp": 1693661868457, "interval": 1582894}], "useragent": "Mozilla/5.0 (Macintosh; Intel Mac OS X 10_15_7) AppleWebKit/537.36 (KHTML, like Gecko) Chrome/116.0.0.0 Safari/537.36", "mode": "live", "id": "w67070140:a48086277", "status": "user data saved", "Beginhit": "2023-09-02 13:11:17.97936", "Beginexp": "2023-09-02 13:11:26.568908", "Endhit": "2023-09-02 13:37:49.765655", "psiturkStatus": 3, "browser": "<redacted>", "platform": "macos", "language": "en"}