{"condition": 1, "counterbalance": 0, "assignmentId": "a67894575", "workerId": "w41968413", "hitId": "h92527862", "currenttrial": 56, "bonus": 0, "data": [{"uniqueid": "w41968413:a67894575", "current_trial": 0, "dateTime": 1693569382366, "trialdata": {"success": true, "trial_type": "fullscreen", "trial_index": 0, "time_elapsed": 11456, "internal_node_id": "0.0-0.0"}}, {"uniqueid": "w41968413:a67894575", "current_trial": 1, "dateTime": 1693569410872, "trialdata": {"view_history": [{"page_index": 0, "viewing_time": 28479}], "rt": 28479, "trial_id": "exp_instructions_misaligned", "trial_type": "instructions", "trial_index": 1, "time_elapsed": 39964, "internal_node_id": "0.0-1.0"}}, {"uniqueid": "w41968413:a67894575", "current_trial": 2, "dateTime": 1693569784541, "trialdata": {"view_history": [{"page_index": 0, "viewing_time": 143995}, {"page_index": 1, "viewing_time": 13143}, {"page_index": 0, "viewing_time": 5242}, {"page_index": 1, "viewing_time": 115550}, {"page_index": 2, "viewing_time": 46990}, {"page_index": 3, "viewing_time": 48742}], "rt": 373663, "trial_id": "mouselab_instructions_1_misaligned", "trial_type": "instructions", "trial_index": 2, "time_elapsed": 413632, "internal_node_id": "0.0-2.0-1.0"}}, {"uniqueid": "w41968413:a67894575", "current_trial": 3, "dateTime": 1693569830971, "trialdata": {"revealed_states": [], "clicked_states": ["12", "13", "14", "19", "21"], "num_clicks_accrued": [0, 0, 0, 0, 0, 0, 0, 0, 0, 0, 0, 0, 0], "stateRewards": ["", 10, -10, 10, -10, 10, -10, -10, 10, -10, 10, -10, -10, 10, 10, 10, -10, -10, -10, -10, 10, -10, 10, -10, 10, 10, -10, 10, 10, -10, -10, 10, 10, 10], "withholdReward": false, "trial_id": "practice_1", "block": "test", "trialIndex": 0, "score": 11, "costs": -2.5, "simulationMode": [null, null, null, null, null], "rewards": [10, -10, 10, 10, -10], "path": ["0", "0", "1", "2", "3", "8", "11"], "rt": [30613, 1447, 397, 2301, 378], "actions": ["up", "up", "up", "left", "left"], "actionTimes": [32708, 34689, 35640, 38504, 39430], "queries": {"click": {"state": {"target": ["12", "13", "14", "19", "21"], "time": [6794, 8571, 10152, 11681, 13131]}, "edge": {"target": [], "time": []}}, "mouseover": {"state": {"target": ["0", "12", "13", "14", "19", "21"], "time": [5054, 6752, 8557, 10138, 11667, 13115]}, "edge": {"target": [], "time": []}}, "mouseout": {"state": {"target": ["0", "0", "12", "13", "14", "19"], "time": [4061, 6748, 8553, 8642, 11663, 13111]}, "edge": {"target": [], "time": []}}}, "displayed_time": "39.99", "trialTime": 44578, "trial_type": "mouselab-mdp", "trial_index": 3, "time_elapsed": 460060, "internal_node_id": "0.0-2.0-2.0-0.0"}}, {"uniqueid": "w41968413:a67894575", "current_trial": 4, "dateTime": 1693569855748, "trialdata": {"revealed_states": [], "clicked_states": [], "num_clicks_accrued": [0, 0, 0, 0, 0, 0, 0, 0, 0, 0, 0, 0, 0], "stateRewards": ["", 10, -10, -10, -10, 10, -10, 10, 10, 10, -10, -10, -10, -10, 10, -10, 10, -10, -10, -10, -10, 10, 10, -10, -10, -10, 10, 10, 10, -10, -10, 10, -10, -10], "withholdReward": false, "trial_id": "practice_2", "block": "test", "trialIndex": 1, "score": -26.5, "costs": 0, "simulationMode": [null, null, null, null, null], "rewards": [-10, -10, -10, -10, 10], "path": ["0", "0", "23", "24", "25", "30", "31"], "rt": [3694, 1154, 948, 883, 835], "actions": ["left", "left", "left", "down", "right"], "actionTimes": [10231, 11933, 13437, 14868, 16246], "queries": {"click": {"state": {"target": [], "time": []}, "edge": {"target": [], "time": []}}, "mouseover": {"state": {"target": [], "time": []}, "edge": {"target": [], "time": []}}, "mouseout": {"state": {"target": [], "time": []}, "edge": {"target": [], "time": []}}}, "displayed_time": "16.80", "trialTime": 22899, "trial_type": "mouselab-mdp", "trial_index": 4, "time_elapsed": 484835, "internal_node_id": "0.0-2.0-2.0-1.0"}}, {"uniqueid": "w41968413:a67894575", "current_trial": 5, "dateTime": 1693569928291, "trialdata": {"view_history": [{"page_index": 0, "viewing_time": 53235}, {"page_index": 1, "viewing_time": 19290}], "rt": 72528, "trial_id": "mouselab_instructions_2_misaligned", "trial_type": "instructions", "trial_index": 5, "time_elapsed": 557383, "internal_node_id": "0.0-2.0-3.0"}}, {"uniqueid": "w41968413:a67894575", "current_trial": 6, "dateTime": 1693569980290, "trialdata": {"rt": 51981, "response": {"Q0": "The cost for clicking on nodes may vary between nodes.", "Q1": "The better I perform the higher my bonus will be.", "Q2": "No, the amount of cash at each node of the web may be different each time.", "Q3": "To get the highest total score.", "Q4": "Only before moving the spider.", "Q5": "3 seconds"}, "question_order": [0, 1, 2, 3, 4, 5], "correct": {"Q0": "The cost for clicking on nodes may vary between nodes.", "Q1": "The better I perform the higher my bonus will be.", "Q2": "No, the amount of cash at each node of the web may be different each time.", "Q3": "To get the highest total score.", "Q4": "Only before moving the spider.", "Q5": "3 seconds"}, "trial_id": "mouselab_quiz_misaligned", "trial_type": "survey-multi-choice", "trial_index": 6, "time_elapsed": 609382, "internal_node_id": "0.0-2.0-4.0"}}, {"uniqueid": "w41968413:a67894575", "current_trial": 7, "dateTime": 1693569985944, "trialdata": {"rt": 5643, "response": {"Q0": "No"}, "question_order": [0], "trial_id": "repeat_check", "trial_type": "survey-multi-choice", "trial_index": 7, "time_elapsed": 615035, "internal_node_id": "0.0-4.0-0.0"}}, {"uniqueid": "w41968413:a67894575", "current_trial": 8, "dateTime": 1693569988279, "trialdata": {"rt": 2321, "stimulus": "\n<h1> Get ready to start the game! </h1>\n\nThank you for reading the instructions. Get ready start with the 40 rounds of this game.\n<br><br>\nIf you need to take a break, feel free to take one after the end of a round, before continuing to the next one.\n<br><br>\nRemember, the more money the spider gets, the bigger your bonus will be!\n<br><br>\n<div style='text-align: center;'>Press <code>space</code> to begin.</div>\n\n<br><br>\n(If, at any point, the <code>space</code> key does not take you to the next page, click once on the text and try again.)", "response": " ", "trial_id": "mdp_ready", "trial_type": "html-keyboard-response", "trial_index": 8, "time_elapsed": 617370, "internal_node_id": "0.0-6.0-0.0"}}, {"uniqueid": "w41968413:a67894575", "current_trial": 9, "dateTime": 1693570022911, "trialdata": {"revealed_states": [], "clicked_states": [], "num_clicks_accrued": [0, 0, 0, 0, 0, 0, 0, 0, 0, 0, 0, 0, 0], "stateRewards": ["", -2, 2, -5, 1, 42, -63, -58, -6, 2, 16, 81, -2, 4, 7, -10, 33, 3, -33, -2, -52, -84, -27, 2, -3, -3, 15, -74, -14, -5, -5, -84, 79, -31], "withholdReward": false, "trial_id": "mdp_trial_1", "block": "test", "trialIndex": 2, "score": -9, "costs": 0, "simulationMode": [null, null, null, null, null], "rewards": [-2, 2, -5, -6, 2], "path": ["0", "0", "1", "2", "3", "8", "9"], "rt": [10903, 405, 7144, 1516, 1890], "actions": ["up", "up", "up", "left", "up"], "actionTimes": [15479, 16431, 24141, 26195, 28632], "queries": {"click": {"state": {"target": [], "time": []}, "edge": {"target": [], "time": []}}, "mouseover": {"state": {"target": ["2"], "time": [7966]}, "edge": {"target": [], "time": []}}, "mouseout": {"state": {"target": ["2", "10"], "time": [21712, 22673]}, "edge": {"target": [], "time": []}}}, "displayed_time": "29.20", "trialTime": 33174, "trial_type": "mouselab-mdp", "trial_index": 9, "time_elapsed": 651998, "internal_node_id": "0.0-6.0-1.0-0.0"}}, {"uniqueid": "w41968413:a67894575", "current_trial": 10, "dateTime": 1693570045175, "trialdata": {"revealed_states": [], "clicked_states": [], "num_clicks_accrued": [0, 0, 0, 0, 0, 0, 0, 0, 0, 0, 0, 0, 0], "stateRewards": ["", -2, 1, -7, 9, 8, 25, 61, -7, -17, 69, -81, 1, 4, -4, -11, 16, 67, 44, 3, 6, -45, -54, -2, 3, 6, -11, -15, 32, -47, 3, -39, -6, -88], "withholdReward": false, "trial_id": "mdp_trial_2", "block": "test", "trialIndex": 3, "score": 57, "costs": 0, "simulationMode": [null, null, null, null, null], "rewards": [1, 4, -4, -11, 67], "path": ["0", "0", "12", "13", "14", "15", "17"], "rt": [7190, 455, 660, 1598, 396], "actions": ["right", "right", "right", "up", "right"], "actionTimes": [11312, 12329, 13535, 15693, 16620], "queries": {"click": {"state": {"target": [], "time": []}, "edge": {"target": [], "time": []}}, "mouseover": {"state": {"target": ["0"], "time": [5943]}, "edge": {"target": [], "time": []}}, "mouseout": {"state": {"target": [], "time": []}, "edge": {"target": [], "time": []}}}, "displayed_time": "18.13", "trialTime": 20714, "trial_type": "mouselab-mdp", "trial_index": 10, "time_elapsed": 674263, "internal_node_id": "0.0-6.0-1.0-1.0"}}, {"uniqueid": "w41968413:a67894575", "current_trial": 11, "dateTime": 1693570067014, "trialdata": {"revealed_states": [], "clicked_states": [], "num_clicks_accrued": [0, 0, 0, 0, 0, 0, 0, 0, 0, 0, 0, 0, 0], "stateRewards": ["", 2, 2, 3, -15, 23, -14, 73, -7, -32, -20, -6, 1, 1, -5, -12, 73, 6, -84, 11, -81, -57, 13, -2, -1, -4, -8, -52, -58, 49, 13, 5, -41, -41], "withholdReward": false, "trial_id": "mdp_trial_3", "block": "test", "trialIndex": 4, "score": 65, "costs": 0, "simulationMode": [null, null, null, null, null], "rewards": [2, 2, 3, -15, 73], "path": ["0", "0", "1", "2", "3", "4", "7"], "rt": [8802, 196, 276, 923, 900], "actions": ["up", "up", "up", "right", "down"], "actionTimes": [11897, 12635, 13465, 14943, 16377], "queries": {"click": {"state": {"target": [], "time": []}, "edge": {"target": [], "time": []}}, "mouseover": {"state": {"target": ["0", "0", "0"], "time": [3220, 5503, 6126]}, "edge": {"target": [], "time": []}}, "mouseout": {"state": {"target": ["0", "0"], "time": [4082, 5826]}, "edge": {"target": [], "time": []}}}, "displayed_time": "17.09", "trialTime": 20318, "trial_type": "mouselab-mdp", "trial_index": 11, "time_elapsed": 696103, "internal_node_id": "0.0-6.0-1.0-2.0"}}, {"uniqueid": "w41968413:a67894575", "current_trial": 12, "dateTime": 1693570087445, "trialdata": {"revealed_states": [], "clicked_states": [], "num_clicks_accrued": [0, 0, 0, 0, 0, 0, 0, 0, 0, 0, 0, 0, 0], "stateRewards": ["", -2, 4, -7, -3, -76, 39, -28, 10, 14, 12, 60, 2, -3, 6, -10, 88, -34, -41, -3, 72, -13, -56, 1, 3, 2, 8, -51, 23, -57, 1, 14, -46, -16], "withholdReward": false, "trial_id": "mdp_trial_4", "block": "test", "trialIndex": 5, "score": -11, "costs": 0, "simulationMode": [null, null, null, null, null], "rewards": [2, -3, 6, -3, -13], "path": ["0", "0", "12", "13", "14", "19", "21"], "rt": [6281, 781, 352, 1226, 498], "actions": ["right", "right", "right", "down", "down"], "actionTimes": [9041, 10363, 11265, 13054, 14127], "queries": {"click": {"state": {"target": [], "time": []}, "edge": {"target": [], "time": []}}, "mouseover": {"state": {"target": ["0", "0", "0", "0"], "time": [2804, 4336, 5042, 5622]}, "edge": {"target": [], "time": []}}, "mouseout": {"state": {"target": ["0", "0", "0"], "time": [3423, 4838, 5412]}, "edge": {"target": [], "time": []}}}, "displayed_time": "16.77", "trialTime": 18800, "trial_type": "mouselab-mdp", "trial_index": 12, "time_elapsed": 716534, "internal_node_id": "0.0-6.0-1.0-3.0"}}, {"uniqueid": "w41968413:a67894575", "current_trial": 13, "dateTime": 1693570112651, "trialdata": {"revealed_states": [], "clicked_states": [], "num_clicks_accrued": [0, 0, 0, 0, 0, 0, 0, 0, 0, 0, 0, 0, 0], "stateRewards": ["", -1, 2, 7, 8, 75, 67, -11, 6, 52, -17, 38, -1, 4, -8, 14, 74, -37, -17, -12, 52, 55, 71, -2, -1, -5, 2, 21, 6, -88, -14, 64, -61, -47], "withholdReward": false, "trial_id": "mdp_trial_5", "block": "test", "trialIndex": 6, "score": 38, "costs": 0, "simulationMode": [null, null, null, null, null], "rewards": [-1, 4, -8, -12, 55], "path": ["0", "0", "12", "13", "14", "19", "21"], "rt": [2596, 3988, 319, 654, 216], "actions": ["right", "right", "right", "down", "down"], "actionTimes": [6138, 10702, 11553, 12758, 13537], "queries": {"click": {"state": {"target": [], "time": []}, "edge": {"target": [], "time": []}}, "mouseover": {"state": {"target": [], "time": []}, "edge": {"target": [], "time": []}}, "mouseout": {"state": {"target": [], "time": []}, "edge": {"target": [], "time": []}}}, "displayed_time": "17.55", "trialTime": 23507, "trial_type": "mouselab-mdp", "trial_index": 13, "time_elapsed": 741740, "internal_node_id": "0.0-6.0-1.0-4.0"}}, {"uniqueid": "w41968413:a67894575", "current_trial": 14, "dateTime": 1693570134521, "trialdata": {"revealed_states": [], "clicked_states": [], "num_clicks_accrued": [0, 0, 0, 0, 0, 0, 0, 0, 0, 0, 0, 0, 0], "stateRewards": ["", -1, 2, -6, 6, -82, -19, -39, -16, -83, 11, -33, -2, -2, 4, -6, -82, -1, -19, -6, -10, -67, -41, -2, 1, -7, 16, -23, -78, -52, 14, 31, -71, 74], "withholdReward": false, "trial_id": "mdp_trial_6", "block": "test", "trialIndex": 7, "score": -65, "costs": 0, "simulationMode": [null, null, null, null, null], "rewards": [-2, 1, -7, 14, -71], "path": ["0", "0", "23", "24", "25", "30", "32"], "rt": [1732, 169, 449, 828, 253], "actions": ["left", "left", "left", "down", "down"], "actionTimes": [4797, 5544, 6548, 7934, 8735], "queries": {"click": {"state": {"target": [], "time": []}, "edge": {"target": [], "time": []}}, "mouseover": {"state": {"target": [], "time": []}, "edge": {"target": [], "time": []}}, "mouseout": {"state": {"target": [], "time": []}, "edge": {"target": [], "time": []}}}, "displayed_time": "17.08", "trialTime": 20158, "trial_type": "mouselab-mdp", "trial_index": 14, "time_elapsed": 763609, "internal_node_id": "0.0-6.0-1.0-5.0"}}, {"uniqueid": "w41968413:a67894575", "current_trial": 15, "dateTime": 1693570161237, "trialdata": {"revealed_states": [], "clicked_states": ["25", "31"], "num_clicks_accrued": [0, 0, 0, 0, 0, 0, 0, 0, 0, 0, 0, 0, 0], "stateRewards": ["", -1, -4, 8, 8, -68, 47, 24, -7, -61, 49, -69, -1, -1, 8, -7, 42, 1, -45, -11, 10, -63, -6, 1, 4, 6, -16, 79, -37, -58, -12, 81, 18, -53], "withholdReward": false, "trial_id": "mdp_trial_7", "block": "test", "trialIndex": 8, "score": 76.9, "costs": -3.0999999999999996, "simulationMode": [null, null, null, null, null], "rewards": [1, 4, 6, -12, 81], "path": ["0", "0", "23", "24", "25", "30", "31"], "rt": [10907, 447, 396, 1369, 602], "actions": ["left", "left", "left", "down", "right"], "actionTimes": [13420, 14418, 15373, 17307, 18458], "queries": {"click": {"state": {"target": ["25", "31"], "time": [5512, 6667]}, "edge": {"target": [], "time": []}}, "mouseover": {"state": {"target": ["0", "25", "31", "24"], "time": [4101, 5496, 6650, 7662]}, "edge": {"target": [], "time": []}}, "mouseout": {"state": {"target": ["0", "25", "31"], "time": [5491, 6645, 7656]}, "edge": {"target": [], "time": []}}}, "displayed_time": "19.00", "trialTime": 24993, "trial_type": "mouselab-mdp", "trial_index": 15, "time_elapsed": 790326, "internal_node_id": "0.0-6.0-1.0-6.0"}}, {"uniqueid": "w41968413:a67894575", "current_trial": 16, "dateTime": 1693570182347, "trialdata": {"revealed_states": [], "clicked_states": ["1", "2", "3"], "num_clicks_accrued": [0, 0, 0, 0, 0, 0, 0, 0, 0, 0, 0, 0, 0], "stateRewards": ["", -1, 3, 1, -11, -22, -36, 19, -5, -70, -52, 50, -2, -4, 4, -2, -41, -83, 29, -2, 22, 10, -6, -2, 3, -2, 14, 54, 44, 77, -9, -65, -37, -40], "withholdReward": false, "trial_id": "mdp_trial_8", "block": "test", "trialIndex": 9, "score": -46.05, "costs": -1.0499999999999998, "simulationMode": [null, null, null, null, null], "rewards": [-2, -4, 4, -2, -41], "path": ["0", "0", "12", "13", "14", "15", "16"], "rt": [6106, 180, 324, 689, 200], "actions": ["right", "right", "right", "up", "up"], "actionTimes": [8620, 9345, 10224, 11457, 12206], "queries": {"click": {"state": {"target": ["1", "2", "3"], "time": [3869, 4510, 5286]}, "edge": {"target": [], "time": []}}, "mouseover": {"state": {"target": ["1", "2", "3"], "time": [3851, 4495, 5272]}, "edge": {"target": [], "time": []}}, "mouseout": {"state": {"target": ["0", "1", "2"], "time": [3847, 3969, 5267]}, "edge": {"target": [], "time": []}}}, "displayed_time": "16.52", "trialTime": 19441, "trial_type": "mouselab-mdp", "trial_index": 16, "time_elapsed": 811437, "internal_node_id": "0.0-6.0-1.0-7.0"}}, {"uniqueid": "w41968413:a67894575", "current_trial": 17, "dateTime": 1693570207784, "trialdata": {"revealed_states": [], "clicked_states": ["25", "14", "3"], "num_clicks_accrued": [0, 0, 0, 0, 0, 0, 0, 0, 0, 0, 0, 0, 0], "stateRewards": ["", 1, 1, -3, 7, 49, 78, 26, -5, 26, 48, -43, -1, -3, 2, -5, 4, -1, -60, 10, -35, 51, 81, -2, 1, -7, -5, -39, -86, -54, 4, -3, 74, 77], "withholdReward": false, "trial_id": "mdp_trial_9", "block": "test", "trialIndex": 10, "score": -69.85, "costs": -2.8499999999999996, "simulationMode": [null, null, null, null, null], "rewards": [-1, -3, 2, -5, -60], "path": ["0", "0", "12", "13", "14", "15", "18"], "rt": [7208, 305, 259, 560, 274], "actions": ["right", "right", "right", "up", "left"], "actionTimes": [12047, 12920, 13750, 14853, 15681], "queries": {"click": {"state": {"target": ["25", "14", "3"], "time": [6415, 7541, 8817]}, "edge": {"target": [], "time": []}}, "mouseover": {"state": {"target": ["25", "14", "3"], "time": [6398, 7525, 8803]}, "edge": {"target": [], "time": []}}, "mouseout": {"state": {"target": ["25", "14", "3"], "time": [7520, 7643, 8898]}, "edge": {"target": [], "time": []}}}, "displayed_time": "18.85", "trialTime": 23794, "trial_type": "mouselab-mdp", "trial_index": 17, "time_elapsed": 836873, "internal_node_id": "0.0-6.0-1.0-8.0"}}, {"uniqueid": "w41968413:a67894575", "current_trial": 18, "dateTime": 1693570230479, "trialdata": {"revealed_states": [], "clicked_states": ["1", "23", "12"], "num_clicks_accrued": [0, 0, 0, 0, 0, 0, 0, 0, 0, 0, 0, 0, 0], "stateRewards": ["", 2, 4, 4, 9, -88, -10, 44, 16, -54, 64, 78, 1, 2, 5, 16, 80, 36, 7, -4, 9, -47, -70, -1, -3, 6, -16, 11, 80, 28, 8, -1, 34, -17], "withholdReward": false, "trial_id": "mdp_trial_10", "block": "test", "trialIndex": 11, "score": -68.25, "costs": 0.75, "simulationMode": [null, null, null, null, null], "rewards": [2, 4, 4, 9, -88], "path": ["0", "0", "1", "2", "3", "4", "5"], "rt": [5072, 335, 298, 991, 1524], "actions": ["up", "up", "up", "right", "up"], "actionTimes": [7581, 8477, 9333, 10890, 12975], "queries": {"click": {"state": {"target": ["1", "23", "12"], "time": [3577, 4139, 4901]}, "edge": {"target": [], "time": []}}, "mouseover": {"state": {"target": ["1", "23", "12"], "time": [3562, 4126, 4887]}, "edge": {"target": [], "time": []}}, "mouseout": {"state": {"target": ["0", "1", "23"], "time": [3558, 4120, 4881]}, "edge": {"target": [], "time": []}}}, "displayed_time": "16.52", "trialTime": 21010, "trial_type": "mouselab-mdp", "trial_index": 18, "time_elapsed": 859568, "internal_node_id": "0.0-6.0-1.0-9.0"}}, {"uniqueid": "w41968413:a67894575", "current_trial": 19, "dateTime": 1693570253375, "trialdata": {"revealed_states": [], "clicked_states": ["25", "14", "3"], "num_clicks_accrued": [0, 0, 0, 0, 0, 0, 0, 0, 0, 0, 0, 0, 0], "stateRewards": ["", 2, 3, 8, 11, 25, -80, 6, -4, -56, 84, -23, -2, -4, -3, 4, -51, -9, -61, -15, -64, 67, -35, 1, -1, -7, -6, 83, 59, -15, 12, -79, 56, 41], "withholdReward": false, "trial_id": "mdp_trial_11", "block": "test", "trialIndex": 12, "score": 90.15, "costs": -2.8499999999999996, "simulationMode": [null, null, null, null, null], "rewards": [2, 3, 8, -4, 84], "path": ["0", "0", "1", "2", "3", "8", "10"], "rt": [7654, 290, 307, 1230, 704], "actions": ["up", "up", "up", "left", "down"], "actionTimes": [10289, 11138, 11991, 13777, 15033], "queries": {"click": {"state": {"target": ["25", "14", "3"], "time": [3857, 5121, 6343]}, "edge": {"target": [], "time": []}}, "mouseover": {"state": {"target": ["25", "14", "3"], "time": [3838, 5104, 6326]}, "edge": {"target": [], "time": []}}, "mouseout": {"state": {"target": ["25", "14"], "time": [5100, 6321]}, "edge": {"target": [], "time": []}}}, "displayed_time": "16.64", "trialTime": 21256, "trial_type": "mouselab-mdp", "trial_index": 19, "time_elapsed": 882464, "internal_node_id": "0.0-6.0-1.0-10.0"}}, {"uniqueid": "w41968413:a67894575", "current_trial": 20, "dateTime": 1693570277005, "trialdata": {"revealed_states": [], "clicked_states": [], "num_clicks_accrued": [0, 0, 0, 0, 0, 0, 0, 0, 0, 0, 0, 0, 0], "stateRewards": ["", 1, -2, -8, -13, 4, 34, -84, -4, -49, 88, -70, -1, 3, -4, 10, -77, 13, -34, 15, -21, -16, 27, 1, -2, 8, -8, -6, 38, -26, 6, -15, 66, -3], "withholdReward": false, "trial_id": "mdp_trial_12", "block": "test", "trialIndex": 13, "score": -27, "costs": 0, "simulationMode": [null, null, null, null, null], "rewards": [1, -2, 8, -8, -26], "path": ["0", "0", "23", "24", "25", "26", "29"], "rt": [8716, 748, 308, 322, 234], "actions": ["left", "left", "left", "up", "left"], "actionTimes": [11730, 13027, 13880, 14759, 15537], "queries": {"click": {"state": {"target": [], "time": []}, "edge": {"target": [], "time": []}}, "mouseover": {"state": {"target": ["29"], "time": [6831]}, "edge": {"target": [], "time": []}}, "mouseout": {"state": {"target": [], "time": []}, "edge": {"target": [], "time": []}}}, "displayed_time": "17.02", "trialTime": 21943, "trial_type": "mouselab-mdp", "trial_index": 20, "time_elapsed": 906094, "internal_node_id": "0.0-6.0-1.0-11.0"}}, {"uniqueid": "w41968413:a67894575", "current_trial": 21, "dateTime": 1693570300107, "trialdata": {"revealed_states": [], "clicked_states": ["15", "19", "30"], "num_clicks_accrued": [0, 0, 0, 0, 0, 0, 0, 0, 0, 0, 0, 0, 0], "stateRewards": ["", 2, -4, 1, -12, -59, -53, -74, 16, -88, -66, 66, 1, -2, 8, -9, -14, 22, 25, -1, -39, 47, -14, -1, -1, -2, 1, -4, 52, -26, 15, -7, 46, 43], "withholdReward": false, "trial_id": "mdp_trial_13", "block": "test", "trialIndex": 14, "score": 49.35, "costs": -4.65, "simulationMode": [null, null, null, null, null], "rewards": [-1, -1, -2, 15, 43], "path": ["0", "0", "23", "24", "25", "30", "33"], "rt": [7722, 144, 205, 520, 1213], "actions": ["left", "left", "left", "down", "left"], "actionTimes": [11713, 12409, 13164, 14241, 15999], "queries": {"click": {"state": {"target": ["15", "19", "30"], "time": [5692, 6810, 8012]}, "edge": {"target": [], "time": []}}, "mouseover": {"state": {"target": ["15", "19", "30"], "time": [5676, 6796, 7998]}, "edge": {"target": [], "time": []}}, "mouseout": {"state": {"target": ["15", "19"], "time": [6792, 7993]}, "edge": {"target": [], "time": []}}}, "displayed_time": "18.00", "trialTime": 21426, "trial_type": "mouselab-mdp", "trial_index": 21, "time_elapsed": 929196, "internal_node_id": "0.0-6.0-1.0-12.0"}}, {"uniqueid": "w41968413:a67894575", "current_trial": 22, "dateTime": 1693570324159, "trialdata": {"revealed_states": [], "clicked_states": ["30", "26", "15"], "num_clicks_accrued": [0, 0, 0, 0, 0, 0, 0, 0, 0, 0, 0, 0, 0], "stateRewards": ["", -1, -3, -7, -4, -85, -70, 79, 8, 84, -66, 42, 2, -2, -3, -16, -54, -66, 68, -3, 21, -14, 7, -2, -1, -3, -8, 75, 80, 86, -7, -84, 73, -16], "withholdReward": false, "trial_id": "mdp_trial_14", "block": "test", "trialIndex": 15, "score": 34.35, "costs": -4.65, "simulationMode": [null, null, null, null, null], "rewards": [-1, -3, -7, 8, 42], "path": ["0", "0", "1", "2", "3", "8", "11"], "rt": [5742, 121, 169, 1023, 1161], "actions": ["up", "up", "up", "left", "left"], "actionTimes": [8863, 9535, 10263, 11847, 13557], "queries": {"click": {"state": {"target": ["30", "26", "15"], "time": [4629, 5682, 6859]}, "edge": {"target": [], "time": []}}, "mouseover": {"state": {"target": ["30", "26", "15"], "time": [4611, 5670, 6840]}, "edge": {"target": [], "time": []}}, "mouseout": {"state": {"target": ["30", "26"], "time": [5665, 6835]}, "edge": {"target": [], "time": []}}}, "displayed_time": "17.13", "trialTime": 22270, "trial_type": "mouselab-mdp", "trial_index": 22, "time_elapsed": 953248, "internal_node_id": "0.0-6.0-1.0-13.0"}}, {"uniqueid": "w41968413:a67894575", "current_trial": 23, "dateTime": 1693570346731, "trialdata": {"revealed_states": [], "clicked_states": ["4", "8", "26"], "num_clicks_accrued": [0, 0, 0, 0, 0, 0, 0, 0, 0, 0, 0, 0, 0], "stateRewards": ["", 2, -4, -8, -15, 71, -43, -41, 7, -17, 20, 67, -1, -1, -4, 6, 37, -24, -47, 9, 34, 57, 45, 1, 2, -4, -5, -23, 88, -5, 13, -40, 43, 44], "withholdReward": false, "trial_id": "mdp_trial_15", "block": "test", "trialIndex": 16, "score": 32.35, "costs": -4.65, "simulationMode": [null, null, null, null, null], "rewards": [-1, -1, -4, 6, 37], "path": ["0", "0", "12", "13", "14", "15", "16"], "rt": [6974, 620, 237, 847, 38], "actions": ["right", "right", "right", "up", "up"], "actionTimes": [9282, 10458, 11260, 12665, 13267], "queries": {"click": {"state": {"target": ["4", "8", "26"], "time": [3872, 4601, 5936]}, "edge": {"target": [], "time": []}}, "mouseover": {"state": {"target": ["4", "8", "26"], "time": [3854, 4586, 5917]}, "edge": {"target": [], "time": []}}, "mouseout": {"state": {"target": ["4", "8", "8"], "time": [4582, 4703, 5913]}, "edge": {"target": [], "time": []}}}, "displayed_time": "16.32", "trialTime": 20931, "trial_type": "mouselab-mdp", "trial_index": 23, "time_elapsed": 975820, "internal_node_id": "0.0-6.0-1.0-14.0"}}, {"uniqueid": "w41968413:a67894575", "current_trial": 24, "dateTime": 1693570368374, "trialdata": {"revealed_states": [], "clicked_states": ["8", "4", "30"], "num_clicks_accrued": [0, 0, 0, 0, 0, 0, 0, 0, 0, 0, 0, 0, 0], "stateRewards": ["", -2, -1, -3, -1, -78, -6, 2, -1, 22, -88, 32, 2, 2, -7, -8, -51, -17, 54, 2, -44, 54, 75, 2, -2, -8, -15, -29, 12, -67, 15, -1, -47, -47], "withholdReward": false, "trial_id": "mdp_trial_16", "block": "test", "trialIndex": 17, "score": -44.65, "costs": -4.65, "simulationMode": [null, null, null, null, null], "rewards": [2, -2, -8, 15, -47], "path": ["0", "0", "23", "24", "25", "30", "32"], "rt": [6960, 63, 16, 329, 352], "actions": ["left", "left", "left", "down", "down"], "actionTimes": [9518, 10141, 10716, 11600, 12504], "queries": {"click": {"state": {"target": ["8", "4", "30"], "time": [4133, 5102, 6726]}, "edge": {"target": [], "time": []}}, "mouseover": {"state": {"target": ["8", "4", "30"], "time": [4113, 5088, 6708]}, "edge": {"target": [], "time": []}}, "mouseout": {"state": {"target": ["8", "4"], "time": [5082, 6703]}, "edge": {"target": [], "time": []}}}, "displayed_time": "16.56", "trialTime": 19711, "trial_type": "mouselab-mdp", "trial_index": 24, "time_elapsed": 997463, "internal_node_id": "0.0-6.0-1.0-15.0"}}, {"uniqueid": "w41968413:a67894575", "current_trial": 25, "dateTime": 1693570397925, "trialdata": {"revealed_states": [], "clicked_states": ["20", "16", "29"], "num_clicks_accrued": [0, 0, 0, 0, 0, 0, 0, 0, 0, 0, 0, 0, 0], "stateRewards": ["", -2, 2, 8, -6, -25, 3, 87, 2, -62, -2, 74, -2, -1, 2, -1, 79, 49, -37, -14, 5, 67, -9, -1, 2, -2, 5, 15, 38, 32, -14, -38, -38, 30], "withholdReward": false, "trial_id": "mdp_trial_17", "block": "test", "trialIndex": 18, "score": 1.5500000000000007, "costs": -6.449999999999999, "simulationMode": [null, null, null, null, null], "rewards": [-2, 2, 8, 2, -2], "path": ["0", "0", "1", "2", "3", "8", "10"], "rt": [11160, 121, 1636, 1167, 376], "actions": ["up", "up", "up", "left", "down"], "actionTimes": [14448, 15133, 17322, 19051, 19977], "queries": {"click": {"state": {"target": ["20", "16", "29"], "time": [4355, 7452, 10336]}, "edge": {"target": [], "time": []}}, "mouseover": {"state": {"target": ["20", "16", "29"], "time": [4337, 5547, 8664]}, "edge": {"target": [], "time": []}}, "mouseout": {"state": {"target": ["0", "20", "16", "29"], "time": [4332, 5542, 7561, 25694]}, "edge": {"target": [], "time": []}}}, "displayed_time": "20.53", "trialTime": 27870, "trial_type": "mouselab-mdp", "trial_index": 25, "time_elapsed": 1027013, "internal_node_id": "0.0-6.0-1.0-16.0"}}, {"uniqueid": "w41968413:a67894575", "current_trial": 26, "dateTime": 1693570421062, "trialdata": {"revealed_states": [], "clicked_states": ["32", "25", "31"], "num_clicks_accrued": [0, 0, 0, 0, 0, 0, 0, 0, 0, 0, 0, 0, 0], "stateRewards": ["", 2, -1, 5, 8, 75, -35, -77, 1, -9, -81, -58, 1, 2, -7, 5, 77, -16, 19, 16, -10, -18, 40, -2, 3, 7, -5, 64, 1, -62, 10, 27, 10, 65], "withholdReward": false, "trial_id": "mdp_trial_18", "block": "test", "trialIndex": 19, "score": 22.75, "costs": -5.25, "simulationMode": [null, null, null, null, null], "rewards": [-2, 3, 7, 10, 10], "path": ["0", "0", "23", "24", "25", "30", "32"], "rt": [11631, 120, 755, 311, 169], "actions": ["left", "left", "left", "down", "down"], "actionTimes": [14140, 14824, 16132, 16986, 17711], "queries": {"click": {"state": {"target": ["32", "25", "31"], "time": [3533, 6507, 7635]}, "edge": {"target": [], "time": []}}, "mouseover": {"state": {"target": ["32", "25", "31"], "time": [3514, 4795, 7619]}, "edge": {"target": [], "time": []}}, "mouseout": {"state": {"target": ["32", "25", "31"], "time": [4790, 7612, 7765]}, "edge": {"target": [], "time": []}}}, "displayed_time": "18.25", "trialTime": 21407, "trial_type": "mouselab-mdp", "trial_index": 26, "time_elapsed": 1050151, "internal_node_id": "0.0-6.0-1.0-17.0"}}, {"uniqueid": "w41968413:a67894575", "current_trial": 27, "dateTime": 1693570443651, "trialdata": {"revealed_states": [], "clicked_states": [], "num_clicks_accrued": [0, 0, 0, 0, 0, 0, 0, 0, 0, 0, 0, 0, 0], "stateRewards": ["", -2, 1, -7, -8, -37, -76, -87, 11, 30, -63, 80, -1, 4, 2, -1, 42, 17, 52, -3, -75, -80, -68, 2, -3, -5, -15, -48, 82, 24, -7, 5, -22, -71], "withholdReward": false, "trial_id": "mdp_trial_19", "block": "test", "trialIndex": 20, "score": -60, "costs": 0, "simulationMode": [null, null, null, null, null], "rewards": [-2, 1, -7, 11, -63], "path": ["0", "0", "1", "2", "3", "8", "10"], "rt": [2830, 110, 203, 1730, 1126], "actions": ["up", "up", "up", "left", "down"], "actionTimes": [7719, 8385, 9140, 11427, 13082], "queries": {"click": {"state": {"target": [], "time": []}, "edge": {"target": [], "time": []}}, "mouseover": {"state": {"target": [], "time": []}, "edge": {"target": [], "time": []}}, "mouseout": {"state": {"target": [], "time": []}, "edge": {"target": [], "time": []}}}, "displayed_time": "18.90", "trialTime": 20864, "trial_type": "mouselab-mdp", "trial_index": 27, "time_elapsed": 1072740, "internal_node_id": "0.0-6.0-1.0-18.0"}}, {"uniqueid": "w41968413:a67894575", "current_trial": 28, "dateTime": 1693570466521, "trialdata": {"revealed_states": [], "clicked_states": [], "num_clicks_accrued": [0, 0, 0, 0, 0, 0, 0, 0, 0, 0, 0, 0, 0], "stateRewards": ["", 2, 1, -3, 7, 46, 11, -36, 16, 71, 5, 1, 2, -2, -8, -3, -4, 6, 55, 7, 68, -54, 2, 1, 1, 6, -6, 42, -4, -84, -11, -65, 63, 25], "withholdReward": false, "trial_id": "mdp_trial_20", "block": "test", "trialIndex": 21, "score": -5, "costs": 0, "simulationMode": [null, null, null, null, null], "rewards": [2, -2, -8, -3, 6], "path": ["0", "0", "12", "13", "14", "15", "17"], "rt": [1402, 104, 161, 668, 265], "actions": ["right", "right", "right", "up", "right"], "actionTimes": [5096, 5745, 6470, 7678, 8507], "queries": {"click": {"state": {"target": [], "time": []}, "edge": {"target": [], "time": []}}, "mouseover": {"state": {"target": [], "time": []}, "edge": {"target": [], "time": []}}, "mouseout": {"state": {"target": [], "time": []}, "edge": {"target": [], "time": []}}}, "displayed_time": "17.70", "trialTime": 21162, "trial_type": "mouselab-mdp", "trial_index": 28, "time_elapsed": 1095610, "internal_node_id": "0.0-6.0-1.0-19.0"}}, {"uniqueid": "w41968413:a67894575", "current_trial": 29, "dateTime": 1693570490323, "trialdata": {"revealed_states": [], "clicked_states": ["2", "14", "12"], "num_clicks_accrued": [0, 0, 0, 0, 0, 0, 0, 0, 0, 0, 0, 0, 0], "stateRewards": ["", 1, 4, 7, -16, -84, -6, -46, -12, -7, -49, -26, -1, 2, -4, 2, 22, 37, -64, 1, 88, -13, -10, 1, -4, -2, 5, 2, -10, -34, 9, 66, 55, 38], "withholdReward": false, "trial_id": "mdp_trial_21", "block": "test", "trialIndex": 22, "score": -11.05, "costs": -1.0499999999999998, "simulationMode": [null, null, null, null, null], "rewards": [1, -4, -2, 5, -10], "path": ["0", "0", "23", "24", "25", "26", "28"], "rt": [8841, 281, 386, 1653, 515], "actions": ["left", "left", "left", "up", "right"], "actionTimes": [12553, 13375, 14307, 16518, 17568], "queries": {"click": {"state": {"target": ["2", "14", "12"], "time": [4606, 6094, 7707]}, "edge": {"target": [], "time": []}}, "mouseover": {"state": {"target": ["2", "14", "12"], "time": [4593, 6075, 7693]}, "edge": {"target": [], "time": []}}, "mouseout": {"state": {"target": ["0", "2", "14", "12"], "time": [4588, 4705, 7688, 7824]}, "edge": {"target": [], "time": []}}}, "displayed_time": "18.13", "trialTime": 22042, "trial_type": "mouselab-mdp", "trial_index": 29, "time_elapsed": 1119411, "internal_node_id": "0.0-6.0-1.0-20.0"}}, {"uniqueid": "w41968413:a67894575", "current_trial": 30, "dateTime": 1693570512379, "trialdata": {"revealed_states": [], "clicked_states": ["23", "25", "24"], "num_clicks_accrued": [0, 0, 0, 0, 0, 0, 0, 0, 0, 0, 0, 0, 0], "stateRewards": ["", -2, 3, 8, -9, 59, 41, -50, -1, 82, 66, 33, 2, -2, 7, 8, 1, -38, 12, -16, 24, -37, 67, 1, 4, -2, 5, 35, -83, 28, 8, -27, 69, -64], "withholdReward": false, "trial_id": "mdp_trial_22", "block": "test", "trialIndex": 23, "score": 56.95, "costs": -1.0499999999999998, "simulationMode": [null, null, null, null, null], "rewards": [2, -2, 7, -16, 67], "path": ["0", "0", "12", "13", "14", "19", "22"], "rt": [7684, 23, 21, 937, 1213], "actions": ["right", "right", "right", "down", "left"], "actionTimes": [10808, 11376, 11954, 13442, 15197], "queries": {"click": {"state": {"target": ["23", "25", "24"], "time": [4470, 5703, 6947]}, "edge": {"target": [], "time": []}}, "mouseover": {"state": {"target": ["23", "25", "24"], "time": [4452, 5685, 6929]}, "edge": {"target": [], "time": []}}, "mouseout": {"state": {"target": ["0", "23", "25"], "time": [4447, 5680, 6925]}, "edge": {"target": [], "time": []}}}, "displayed_time": "17.13", "trialTime": 20218, "trial_type": "mouselab-mdp", "trial_index": 30, "time_elapsed": 1141469, "internal_node_id": "0.0-6.0-1.0-21.0"}}, {"uniqueid": "w41968413:a67894575", "current_trial": 31, "dateTime": 1693570537040, "trialdata": {"revealed_states": [], "clicked_states": [], "num_clicks_accrued": [0, 0, 0, 0, 0, 0, 0, 0, 0, 0, 0, 0, 0], "stateRewards": ["", -1, 3, -4, -14, 78, 67, 2, 13, -32, 28, 39, -2, 1, -4, -4, -4, -42, -86, 11, 64, -29, -32, -1, -4, 2, -7, 5, 68, -61, 2, -21, 85, 50], "withholdReward": false, "trial_id": "mdp_trial_23", "block": "test", "trialIndex": 24, "score": 49, "costs": 0, "simulationMode": [null, null, null, null, null], "rewards": [-1, -4, 2, 2, 50], "path": ["0", "0", "23", "24", "25", "30", "33"], "rt": [1125, 401, 273, 1026, 559], "actions": ["left", "left", "left", "down", "left"], "actionTimes": [5825, 6775, 7607, 9170, 10294], "queries": {"click": {"state": {"target": [], "time": []}, "edge": {"target": [], "time": []}}, "mouseover": {"state": {"target": [], "time": []}, "edge": {"target": [], "time": []}}, "mouseout": {"state": {"target": [], "time": []}, "edge": {"target": [], "time": []}}}, "displayed_time": "18.71", "trialTime": 23099, "trial_type": "mouselab-mdp", "trial_index": 31, "time_elapsed": 1166129, "internal_node_id": "0.0-6.0-1.0-22.0"}}, {"uniqueid": "w41968413:a67894575", "current_trial": 32, "dateTime": 1693570559734, "trialdata": {"revealed_states": [], "clicked_states": ["3", "25", "14"], "num_clicks_accrued": [0, 0, 0, 0, 0, 0, 0, 0, 0, 0, 0, 0, 0], "stateRewards": ["", 1, -2, -8, -3, 31, -84, -55, -14, 15, -58, 17, -2, -3, 7, 7, -12, 48, 67, 4, -44, -68, 46, 2, 3, -5, -7, 76, 27, 5, 11, 57, 52, 59], "withholdReward": false, "trial_id": "mdp_trial_24", "block": "test", "trialIndex": 25, "score": 54.15, "costs": -2.8499999999999996, "simulationMode": [null, null, null, null, null], "rewards": [-2, -3, 7, 7, 48], "path": ["0", "0", "12", "13", "14", "15", "17"], "rt": [6377, 248, 302, 782, 272], "actions": ["right", "right", "right", "up", "right"], "actionTimes": [9256, 10052, 10907, 12238, 13069], "queries": {"click": {"state": {"target": ["3", "25", "14"], "time": [3984, 5525, 6784]}, "edge": {"target": [], "time": []}}, "mouseover": {"state": {"target": ["3", "25", "14"], "time": [3966, 5507, 6765]}, "edge": {"target": [], "time": []}}, "mouseout": {"state": {"target": ["3", "25"], "time": [5502, 6760]}, "edge": {"target": [], "time": []}}}, "displayed_time": "16.88", "trialTime": 20876, "trial_type": "mouselab-mdp", "trial_index": 32, "time_elapsed": 1188822, "internal_node_id": "0.0-6.0-1.0-23.0"}}, {"uniqueid": "w41968413:a67894575", "current_trial": 33, "dateTime": 1693570583456, "trialdata": {"revealed_states": [], "clicked_states": ["3", "25", "14"], "num_clicks_accrued": [0, 0, 0, 0, 0, 0, 0, 0, 0, 0, 0, 0, 0], "stateRewards": ["", -2, -3, 4, 1, 33, -53, 15, 9, -12, 61, -6, -2, 4, 6, -11, 47, -43, -7, -11, 46, 23, -28, -1, -1, 3, -10, 11, 76, -76, 10, 18, -38, 87], "withholdReward": false, "trial_id": "mdp_trial_25", "block": "test", "trialIndex": 26, "score": 17.15, "costs": -2.8499999999999996, "simulationMode": [null, null, null, null, null], "rewards": [-2, 4, 6, -11, 23], "path": ["0", "0", "12", "13", "14", "19", "21"], "rt": [5858, 237, 316, 571, 651], "actions": ["right", "right", "right", "down", "down"], "actionTimes": [9044, 9820, 10700, 11829, 13036], "queries": {"click": {"state": {"target": ["3", "25", "14"], "time": [4576, 5884, 6936]}, "edge": {"target": [], "time": []}}, "mouseover": {"state": {"target": ["3", "25", "14"], "time": [4556, 5864, 6922]}, "edge": {"target": [], "time": []}}, "mouseout": {"state": {"target": ["3", "25"], "time": [4684, 5971]}, "edge": {"target": [], "time": []}}}, "displayed_time": "17.20", "trialTime": 21922, "trial_type": "mouselab-mdp", "trial_index": 33, "time_elapsed": 1212545, "internal_node_id": "0.0-6.0-1.0-24.0"}}, {"uniqueid": "w41968413:a67894575", "current_trial": 34, "dateTime": 1693570604868, "trialdata": {"revealed_states": [], "clicked_states": ["25", "14", "3"], "num_clicks_accrued": [0, 0, 0, 0, 0, 0, 0, 0, 0, 0, 0, 0, 0], "stateRewards": ["", 1, -2, 4, 7, -43, -83, -60, -5, -86, -80, 83, -1, -2, 6, 11, -15, 21, 13, 9, 29, -49, 11, -1, 4, -6, -11, 87, 40, 63, -8, -39, -11, 62], "withholdReward": false, "trial_id": "mdp_trial_26", "block": "test", "trialIndex": 27, "score": 24.15, "costs": -2.8499999999999996, "simulationMode": [null, null, null, null, null], "rewards": [-1, -2, 6, 11, 13], "path": ["0", "0", "12", "13", "14", "15", "18"], "rt": [5437, 328, 276, 743, 655], "actions": ["right", "right", "right", "up", "left"], "actionTimes": [8189, 8987, 9815, 11118, 12324], "queries": {"click": {"state": {"target": ["25", "14", "3"], "time": [3902, 5080, 6102]}, "edge": {"target": [], "time": []}}, "mouseover": {"state": {"target": ["25", "14", "3"], "time": [3887, 5063, 6088]}, "edge": {"target": [], "time": []}}, "mouseout": {"state": {"target": ["25", "14"], "time": [5058, 6083]}, "edge": {"target": [], "time": []}}}, "displayed_time": "16.76", "trialTime": 19559, "trial_type": "mouselab-mdp", "trial_index": 34, "time_elapsed": 1233956, "internal_node_id": "0.0-6.0-1.0-25.0"}}, {"uniqueid": "w41968413:a67894575", "current_trial": 35, "dateTime": 1693570629066, "trialdata": {"revealed_states": [], "clicked_states": ["3", "25", "14"], "num_clicks_accrued": [0, 0, 0, 0, 0, 0, 0, 0, 0, 0, 0, 0, 0], "stateRewards": ["", -1, 4, 3, 12, -27, 34, -33, 3, -63, 1, 6, 2, 2, -6, -11, -77, -85, 68, -6, 51, 81, -60, -2, -2, 1, 15, 20, 15, 68, -10, -14, 6, -4], "withholdReward": false, "trial_id": "mdp_trial_27", "block": "test", "trialIndex": 28, "score": 12.15, "costs": -2.8499999999999996, "simulationMode": [null, null, null, null, null], "rewards": [-1, 4, 3, 3, 6], "path": ["0", "0", "1", "2", "3", "8", "11"], "rt": [6231, 68, 272, 680, 2496], "actions": ["up", "up", "up", "left", "left"], "actionTimes": [8514, 9139, 9940, 11172, 14235], "queries": {"click": {"state": {"target": ["3", "25", "14"], "time": [3551, 4504, 5618]}, "edge": {"target": [], "time": []}}, "mouseover": {"state": {"target": ["3", "25", "14"], "time": [3533, 4490, 5599]}, "edge": {"target": [], "time": []}}, "mouseout": {"state": {"target": ["3", "25"], "time": [4484, 5594]}, "edge": {"target": [], "time": []}}}, "displayed_time": "16.29", "trialTime": 22350, "trial_type": "mouselab-mdp", "trial_index": 35, "time_elapsed": 1258154, "internal_node_id": "0.0-6.0-1.0-26.0"}}, {"uniqueid": "w41968413:a67894575", "current_trial": 36, "dateTime": 1693570653286, "trialdata": {"revealed_states": [], "clicked_states": ["25", "14", "3"], "num_clicks_accrued": [0, 0, 0, 0, 0, 0, 0, 0, 0, 0, 0, 0, 0], "stateRewards": ["", -2, -3, 8, 14, -73, 73, 84, -12, -2, -50, -17, 2, 1, -2, -9, -44, -27, -33, 16, -63, -47, -66, -2, 1, 4, -5, -33, -11, 50, 9, 38, -79, 31], "withholdReward": false, "trial_id": "mdp_trial_28", "block": "test", "trialIndex": 29, "score": 98.15, "costs": -2.8499999999999996, "simulationMode": [null, null, null, null, null], "rewards": [-2, -3, 8, 14, 84], "path": ["0", "0", "1", "2", "3", "4", "7"], "rt": [5327, 127, 268, 829, 661], "actions": ["up", "up", "up", "right", "down"], "actionTimes": [9191, 9884, 10672, 12056, 13257], "queries": {"click": {"state": {"target": ["25", "14", "3"], "time": [5999, 6827, 7677]}, "edge": {"target": [], "time": []}}, "mouseover": {"state": {"target": ["25", "14", "3"], "time": [5979, 6810, 7664]}, "edge": {"target": [], "time": []}}, "mouseout": {"state": {"target": ["0", "25", "14", "3"], "time": [5974, 6042, 7659, 20950]}, "edge": {"target": [], "time": []}}}, "displayed_time": "17.87", "trialTime": 22423, "trial_type": "mouselab-mdp", "trial_index": 36, "time_elapsed": 1282374, "internal_node_id": "0.0-6.0-1.0-27.0"}}, {"uniqueid": "w41968413:a67894575", "current_trial": 37, "dateTime": 1693570674874, "trialdata": {"revealed_states": [], "clicked_states": ["3", "25", "14"], "num_clicks_accrued": [0, 0, 0, 0, 0, 0, 0, 0, 0, 0, 0, 0, 0], "stateRewards": ["", 1, 4, -8, -5, -15, -7, 21, 13, -30, 40, -65, 1, 1, 5, -14, 35, 27, -38, -11, 36, -58, -47, -2, 4, -3, 13, -16, -49, 22, 15, -56, -44, -10], "withholdReward": false, "trial_id": "mdp_trial_29", "block": "test", "trialIndex": 30, "score": 29.15, "costs": -2.8499999999999996, "simulationMode": [null, null, null, null, null], "rewards": [1, 1, 5, -11, 36], "path": ["0", "0", "12", "13", "14", "19", "20"], "rt": [4506, 14, 596, 524, 1232], "actions": ["right", "right", "right", "down", "right"], "actionTimes": [6568, 7149, 8299, 9378, 11162], "queries": {"click": {"state": {"target": ["3", "25", "14"], "time": [3240, 4286, 5096]}, "edge": {"target": [], "time": []}}, "mouseover": {"state": {"target": ["3", "25", "14"], "time": [3223, 4271, 5081]}, "edge": {"target": [], "time": []}}, "mouseout": {"state": {"target": ["3", "25", "14"], "time": [4264, 5076, 5197]}, "edge": {"target": [], "time": []}}}, "displayed_time": "16.07", "trialTime": 19775, "trial_type": "mouselab-mdp", "trial_index": 37, "time_elapsed": 1303963, "internal_node_id": "0.0-6.0-1.0-28.0"}}, {"uniqueid": "w41968413:a67894575", "current_trial": 38, "dateTime": 1693570695431, "trialdata": {"revealed_states": [], "clicked_states": ["3", "25", "14"], "num_clicks_accrued": [0, 0, 0, 0, 0, 0, 0, 0, 0, 0, 0, 0, 0], "stateRewards": ["", 1, 1, 7, -11, 80, -20, -53, -14, 3, 31, 27, 2, -1, -8, -10, 33, 41, 86, 9, 78, -37, -13, -1, -2, -6, -8, -80, 75, 4, -16, -49, -74, 24], "withholdReward": false, "trial_id": "mdp_trial_30", "block": "test", "trialIndex": 31, "score": 23.15, "costs": -2.8499999999999996, "simulationMode": [null, null, null, null, null], "rewards": [1, 1, 7, -14, 31], "path": ["0", "0", "1", "2", "3", "8", "10"], "rt": [4202, 439, 263, 853, 353], "actions": ["up", "up", "up", "left", "down"], "actionTimes": [6828, 7836, 8590, 9968, 10871], "queries": {"click": {"state": {"target": ["3", "25", "14"], "time": [3896, 4771, 5528]}, "edge": {"target": [], "time": []}}, "mouseover": {"state": {"target": ["3", "25", "14"], "time": [3877, 4756, 5516]}, "edge": {"target": [], "time": []}}, "mouseout": {"state": {"target": ["0", "3", "25"], "time": [2862, 4750, 5510]}, "edge": {"target": [], "time": []}}}, "displayed_time": "16.64", "trialTime": 18629, "trial_type": "mouselab-mdp", "trial_index": 38, "time_elapsed": 1324519, "internal_node_id": "0.0-6.0-1.0-29.0"}}, {"uniqueid": "w41968413:a67894575", "current_trial": 39, "dateTime": 1693570717019, "trialdata": {"revealed_states": [], "clicked_states": ["3", "25", "14"], "num_clicks_accrued": [0, 0, 0, 0, 0, 0, 0, 0, 0, 0, 0, 0, 0], "stateRewards": ["", -2, 1, -5, 2, -68, 80, 33, 10, 67, -59, 20, -1, -3, 3, 14, 74, -2, 24, -16, 63, 80, 46, -1, 4, 6, 12, 83, -38, -43, -4, 43, 14, -79], "withholdReward": false, "trial_id": "mdp_trial_31", "block": "test", "trialIndex": 32, "score": 101.15, "costs": -2.8499999999999996, "simulationMode": [null, null, null, null, null], "rewards": [-1, 4, 6, 12, 83], "path": ["0", "0", "23", "24", "25", "26", "27"], "rt": [5880, 280, 618, 520, 142], "actions": ["left", "left", "left", "up", "up"], "actionTimes": [8031, 8876, 10060, 11112, 11815], "queries": {"click": {"state": {"target": ["3", "25", "14"], "time": [3137, 4167, 5069]}, "edge": {"target": [], "time": []}}, "mouseover": {"state": {"target": ["3", "25", "14"], "time": [3117, 4153, 5054]}, "edge": {"target": [], "time": []}}, "mouseout": {"state": {"target": ["0", "3", "25", "14"], "time": [3113, 4148, 5048, 5165]}, "edge": {"target": [], "time": []}}}, "displayed_time": "16.16", "trialTime": 19773, "trial_type": "mouselab-mdp", "trial_index": 39, "time_elapsed": 1346107, "internal_node_id": "0.0-6.0-1.0-30.0"}}, {"uniqueid": "w41968413:a67894575", "current_trial": 40, "dateTime": 1693570739512, "trialdata": {"revealed_states": [], "clicked_states": ["3", "25", "14"], "num_clicks_accrued": [0, 0, 0, 0, 0, 0, 0, 0, 0, 0, 0, 0, 0], "stateRewards": ["", 1, 4, -8, -13, -13, -87, -77, -10, -44, 54, 42, 2, -3, -4, 12, -9, -80, 52, 9, 84, -2, -65, 1, -4, -5, -6, 8, 80, 32, 13, -59, -5, -13], "withholdReward": false, "trial_id": "mdp_trial_32", "block": "test", "trialIndex": 33, "score": 85.15, "costs": -2.8499999999999996, "simulationMode": [null, null, null, null, null], "rewards": [2, -3, -4, 9, 84], "path": ["0", "0", "12", "13", "14", "19", "20"], "rt": [6713, 210, 395, 394, 437], "actions": ["right", "right", "right", "down", "right"], "actionTimes": [9362, 10104, 11059, 11988, 12970], "queries": {"click": {"state": {"target": ["3", "25", "14"], "time": [3556, 4083, 5170]}, "edge": {"target": [], "time": []}}, "mouseover": {"state": {"target": ["3", "25", "14"], "time": [3541, 4069, 5153]}, "edge": {"target": [], "time": []}}, "mouseout": {"state": {"target": ["0", "3", "25"], "time": [3536, 4063, 5145]}, "edge": {"target": [], "time": []}}}, "displayed_time": "16.66", "trialTime": 20527, "trial_type": "mouselab-mdp", "trial_index": 40, "time_elapsed": 1368601, "internal_node_id": "0.0-6.0-1.0-31.0"}}, {"uniqueid": "w41968413:a67894575", "current_trial": 41, "dateTime": 1693570760435, "trialdata": {"revealed_states": [], "clicked_states": ["3", "25", "14"], "num_clicks_accrued": [0, 0, 0, 0, 0, 0, 0, 0, 0, 0, 0, 0, 0], "stateRewards": ["", 2, 3, 3, 10, 19, -21, 6, 9, 54, 68, 16, 2, 2, -6, -8, 40, -2, -75, -2, -42, 55, 59, -1, 2, 4, -14, 11, -34, -30, -6, 61, -53, 13], "withholdReward": false, "trial_id": "mdp_trial_33", "block": "test", "trialIndex": 34, "score": 57.15, "costs": -2.8499999999999996, "simulationMode": [null, null, null, null, null], "rewards": [-1, 2, 4, -6, 61], "path": ["0", "0", "23", "24", "25", "30", "31"], "rt": [6635, 206, 373, 185, 836], "actions": ["left", "left", "left", "down", "right"], "actionTimes": [9180, 9930, 10859, 11592, 12996], "queries": {"click": {"state": {"target": ["3", "25", "14"], "time": [3470, 4985, 5730]}, "edge": {"target": [], "time": []}}, "mouseover": {"state": {"target": ["0", "3", "25", "14"], "time": [2602, 3453, 4967, 5720]}, "edge": {"target": [], "time": []}}, "mouseout": {"state": {"target": ["0", "0", "3", "25"], "time": [2584, 2653, 4959, 5717]}, "edge": {"target": [], "time": []}}}, "displayed_time": "16.55", "trialTime": 19044, "trial_type": "mouselab-mdp", "trial_index": 41, "time_elapsed": 1389526, "internal_node_id": "0.0-6.0-1.0-32.0"}}, {"uniqueid": "w41968413:a67894575", "current_trial": 42, "dateTime": 1693570781560, "trialdata": {"revealed_states": [], "clicked_states": ["3", "25", "14"], "num_clicks_accrued": [0, 0, 0, 0, 0, 0, 0, 0, 0, 0, 0, 0, 0], "stateRewards": ["", 1, -1, 8, -3, 38, 85, -20, -4, 8, 23, 73, 2, -4, 6, -13, 44, 7, -28, -11, -77, 45, -69, 1, -1, -7, -11, 75, -51, -87, 7, 36, -53, -26], "withholdReward": false, "trial_id": "mdp_trial_34", "block": "test", "trialIndex": 35, "score": 40.15, "costs": -2.8499999999999996, "simulationMode": [null, null, null, null, null], "rewards": [1, -1, 8, -3, 38], "path": ["0", "0", "1", "2", "3", "4", "5"], "rt": [6010, 559, 205, 652, 1486], "actions": ["up", "up", "up", "right", "up"], "actionTimes": [9182, 10289, 11039, 12245, 14281], "queries": {"click": {"state": {"target": ["3", "25", "14"], "time": [4035, 4870, 5823]}, "edge": {"target": [], "time": []}}, "mouseover": {"state": {"target": ["3", "25", "14"], "time": [4019, 4853, 5811]}, "edge": {"target": [], "time": []}}, "mouseout": {"state": {"target": ["3", "25"], "time": [4090, 5805]}, "edge": {"target": [], "time": []}}}, "displayed_time": "17.18", "trialTime": 19380, "trial_type": "mouselab-mdp", "trial_index": 42, "time_elapsed": 1410648, "internal_node_id": "0.0-6.0-1.0-33.0"}}, {"uniqueid": "w41968413:a67894575", "current_trial": 43, "dateTime": 1693570803568, "trialdata": {"revealed_states": [], "clicked_states": ["3", "25", "14"], "num_clicks_accrued": [0, 0, 0, 0, 0, 0, 0, 0, 0, 0, 0, 0, 0], "stateRewards": ["", 2, -4, 4, 9, 69, 9, -75, 12, -86, 66, 25, -1, 3, 2, -13, -88, -3, 1, 4, -69, 49, -84, 2, -1, 4, 2, -18, -81, -52, -15, -69, -54, 25], "withholdReward": false, "trial_id": "mdp_trial_35", "block": "test", "trialIndex": 36, "score": -47.85, "costs": -2.8499999999999996, "simulationMode": [null, null, null, null, null], "rewards": [2, -1, 4, 2, -52], "path": ["0", "0", "23", "24", "25", "26", "29"], "rt": [5744, 121, 125, 1524, 1022], "actions": ["left", "left", "left", "up", "left"], "actionTimes": [8558, 9257, 9962, 12049, 13627], "queries": {"click": {"state": {"target": ["3", "25", "14"], "time": [3961, 5036, 5946]}, "edge": {"target": [], "time": []}}, "mouseover": {"state": {"target": ["3", "25", "14"], "time": [3940, 5019, 5931]}, "edge": {"target": [], "time": []}}, "mouseout": {"state": {"target": ["0", "3", "25", "14"], "time": [3936, 5012, 5925, 6067]}, "edge": {"target": [], "time": []}}}, "displayed_time": "16.82", "trialTime": 20079, "trial_type": "mouselab-mdp", "trial_index": 43, "time_elapsed": 1432658, "internal_node_id": "0.0-6.0-1.0-34.0"}}, {"uniqueid": "w41968413:a67894575", "current_trial": 44, "dateTime": 1693570824253, "trialdata": {"revealed_states": [], "clicked_states": ["3", "25", "14"], "num_clicks_accrued": [0, 0, 0, 0, 0, 0, 0, 0, 0, 0, 0, 0, 0], "stateRewards": ["", -2, 3, -1, 2, -72, 63, 20, -1, 62, -66, 39, -2, 3, -6, 14, 22, 47, 1, 8, -49, -1, -41, 2, 2, -6, -16, -64, -60, -34, 16, 54, 22, -7], "withholdReward": false, "trial_id": "mdp_trial_36", "block": "test", "trialIndex": 37, "score": 62.15, "costs": -2.8499999999999996, "simulationMode": [null, null, null, null, null], "rewards": [-2, 3, -1, 2, 63], "path": ["0", "0", "1", "2", "3", "4", "6"], "rt": [5943, 87, 128, 1662, 150], "actions": ["up", "up", "up", "right", "right"], "actionTimes": [8544, 9189, 9895, 12108, 12806], "queries": {"click": {"state": {"target": ["3", "25", "14"], "time": [3723, 4742, 5630]}, "edge": {"target": [], "time": []}}, "mouseover": {"state": {"target": ["0", "3", "25", "14"], "time": [2825, 3705, 4728, 5616]}, "edge": {"target": [], "time": []}}, "mouseout": {"state": {"target": ["0", "3", "25"], "time": [3699, 4722, 5610]}, "edge": {"target": [], "time": []}}}, "displayed_time": "16.61", "trialTime": 18806, "trial_type": "mouselab-mdp", "trial_index": 44, "time_elapsed": 1453343, "internal_node_id": "0.0-6.0-1.0-35.0"}}, {"uniqueid": "w41968413:a67894575", "current_trial": 45, "dateTime": 1693570844473, "trialdata": {"revealed_states": [], "clicked_states": ["25", "3", "14"], "num_clicks_accrued": [0, 0, 0, 0, 0, 0, 0, 0, 0, 0, 0, 0, 0], "stateRewards": ["", 2, 3, -1, 16, -78, -11, 46, 2, -20, 79, -67, 2, 3, 2, 11, -83, -42, -58, -11, -67, -22, 55, 2, -1, -1, -16, -83, -82, 23, -11, -29, 13, 13], "withholdReward": false, "trial_id": "mdp_trial_37", "block": "test", "trialIndex": 38, "score": -28.85, "costs": -2.8499999999999996, "simulationMode": [null, null, null, null, null], "rewards": [2, 3, 2, -11, -22], "path": ["0", "0", "12", "13", "14", "19", "21"], "rt": [6609, 255, 361, 529, 197], "actions": ["right", "right", "right", "down", "down"], "actionTimes": [8802, 9598, 10500, 11584, 12334], "queries": {"click": {"state": {"target": ["25", "3", "14"], "time": [3908, 5109, 6176]}, "edge": {"target": [], "time": []}}, "mouseover": {"state": {"target": ["25", "3", "14"], "time": [3889, 5091, 6159]}, "edge": {"target": [], "time": []}}, "mouseout": {"state": {"target": ["25", "3"], "time": [5085, 6154]}, "edge": {"target": [], "time": []}}}, "displayed_time": "16.20", "trialTime": 18286, "trial_type": "mouselab-mdp", "trial_index": 45, "time_elapsed": 1473562, "internal_node_id": "0.0-6.0-1.0-36.0"}}, {"uniqueid": "w41968413:a67894575", "current_trial": 46, "dateTime": 1693570865032, "trialdata": {"revealed_states": [], "clicked_states": ["3", "25", "14"], "num_clicks_accrued": [0, 0, 0, 0, 0, 0, 0, 0, 0, 0, 0, 0, 0], "stateRewards": ["", -1, 2, -7, -12, -62, 12, -13, 5, 77, -71, 83, 1, -4, 7, 15, -42, -87, -4, 5, -25, 44, 88, -1, 4, -5, -8, 14, 51, 8, -5, 83, -24, -19], "withholdReward": false, "trial_id": "mdp_trial_38", "block": "test", "trialIndex": 39, "score": 50.15, "costs": -2.8499999999999996, "simulationMode": [null, null, null, null, null], "rewards": [1, -4, 7, 5, 44], "path": ["0", "0", "12", "13", "14", "19", "21"], "rt": [5940, 138, 255, 282, 157], "actions": ["right", "right", "right", "down", "down"], "actionTimes": [8319, 9044, 9847, 10701, 11429], "queries": {"click": {"state": {"target": ["3", "25", "14"], "time": [4722, 5816, 6647]}, "edge": {"target": [], "time": []}}, "mouseover": {"state": {"target": ["3", "25", "14"], "time": [4703, 5799, 6633]}, "edge": {"target": [], "time": []}}, "mouseout": {"state": {"target": ["0", "3", "25"], "time": [4698, 5791, 6627]}, "edge": {"target": [], "time": []}}}, "displayed_time": "16.38", "trialTime": 18810, "trial_type": "mouselab-mdp", "trial_index": 46, "time_elapsed": 1494121, "internal_node_id": "0.0-6.0-1.0-37.0"}}, {"uniqueid": "w41968413:a67894575", "current_trial": 47, "dateTime": 1693570888033, "trialdata": {"revealed_states": [], "clicked_states": ["14", "25", "3"], "num_clicks_accrued": [0, 0, 0, 0, 0, 0, 0, 0, 0, 0, 0, 0, 0], "stateRewards": ["", -1, -2, -1, -10, -57, 73, -72, -16, 75, -14, -46, -2, -3, -7, -1, -61, -60, 76, -4, 50, 4, 14, 2, 2, -7, 12, -65, -32, 15, -8, -76, -25, -61], "withholdReward": false, "trial_id": "mdp_trial_39", "block": "test", "trialIndex": 40, "score": -36.85, "costs": -2.8499999999999996, "simulationMode": [null, null, null, null, null], "rewards": [-1, -2, -1, -16, -14], "path": ["0", "0", "1", "2", "3", "8", "10"], "rt": [4814, 28, 19, 779, 1114], "actions": ["up", "up", "up", "left", "down"], "actionTimes": [7202, 7797, 8371, 9707, 11369], "queries": {"click": {"state": {"target": ["14", "25", "3"], "time": [3794, 4629, 5431]}, "edge": {"target": [], "time": []}}, "mouseover": {"state": {"target": ["0", "14", "25", "3"], "time": [2452, 3773, 4612, 5415]}, "edge": {"target": [], "time": []}}, "mouseout": {"state": {"target": ["0", "0", "14", "25", "3"], "time": [2431, 2543, 4606, 4792, 19064]}, "edge": {"target": [], "time": []}}}, "displayed_time": "16.40", "trialTime": 21114, "trial_type": "mouselab-mdp", "trial_index": 47, "time_elapsed": 1517121, "internal_node_id": "0.0-6.0-1.0-38.0"}}, {"uniqueid": "w41968413:a67894575", "current_trial": 48, "dateTime": 1693570909083, "trialdata": {"revealed_states": [], "clicked_states": ["14", "25", "3"], "num_clicks_accrued": [0, 0, 0, 0, 0, 0, 0, 0, 0, 0, 0, 0, 0], "stateRewards": ["", -2, 3, -1, -9, 44, 48, -37, -3, 71, -39, 87, -1, 3, -4, 4, -21, 59, -15, -8, -1, 28, -38, 2, 4, 4, 8, -85, -72, -63, 14, 58, 63, -46], "withholdReward": false, "trial_id": "mdp_trial_40", "block": "test", "trialIndex": 41, "score": 36.15, "costs": -2.8499999999999996, "simulationMode": [null, null, null, null, null], "rewards": [-2, 3, -1, -9, 48], "path": ["0", "0", "1", "2", "3", "4", "6"], "rt": [5352, 122, 107, 609, 16], "actions": ["up", "up", "up", "right", "right"], "actionTimes": [8095, 8765, 9394, 10551, 11132], "queries": {"click": {"state": {"target": ["14", "25", "3"], "time": [3896, 4824, 5714]}, "edge": {"target": [], "time": []}}, "mouseover": {"state": {"target": ["14", "25", "3"], "time": [3870, 4809, 5700]}, "edge": {"target": [], "time": []}}, "mouseout": {"state": {"target": ["0", "14", "25"], "time": [3865, 4804, 5693]}, "edge": {"target": [], "time": []}}}, "displayed_time": "16.75", "trialTime": 18882, "trial_type": "mouselab-mdp", "trial_index": 48, "time_elapsed": 1538172, "internal_node_id": "0.0-6.0-1.0-39.0"}}, {"uniqueid": "w41968413:a67894575", "current_trial": 49, "dateTime": 1693570993494, "trialdata": {"rt": 84391, "response": {"Q0": "$-2 to $2", "Q1": "$-16 to $16", "Q2": "$-88 to $88", "Q3": "The cost for clicking on nodes varied between nodes.", "Q4": "Very motivated"}, "question_order": [0, 1, 2, 3, 4], "trial_id": "final_quiz_control", "trial_type": "survey-multi-choice", "trial_index": 49, "time_elapsed": 1622586, "internal_node_id": "0.0-6.0-2.0"}}, {"uniqueid": "w41968413:a67894575", "current_trial": 50, "dateTime": 1693571147370, "trialdata": {"rt": 153856, "response": {"Q0": "I clicked on the same central nodes, to give me a sense of direction.", "Q1": "I used the same strategy after 3 to 4 attempts of randomly selecting nodes.", "Q2": "Honestly I felt it was 50/50, I felt all rounds were random."}, "trial_id": "self_report_control", "trial_type": "survey-text", "trial_index": 50, "time_elapsed": 1776462, "internal_node_id": "0.0-6.0-3.0"}}, {"uniqueid": "w41968413:a67894575", "current_trial": 51, "dateTime": 1693571233704, "trialdata": {"rt": 86322, "response": {"Q0": "Disagree", "Q1": "Disagree", "Q2": "Agree", "Q3": "Agree", "Q4": "Strongly disagree", "Q5": "Strongly agree", "Q6": "Strongly disagree"}, "question_order": [0, 1, 2, 3, 4, 5, 6], "trial_id": "self_report_2", "trial_type": "survey-multi-choice", "trial_index": 51, "time_elapsed": 1862796, "internal_node_id": "0.0-6.0-4.0"}}, {"uniqueid": "w41968413:a67894575", "current_trial": 52, "dateTime": 1693571268367, "trialdata": {"rt": 34648, "response": {"gender": "female", "age": "30", "colorblind": "1", "effort": "0"}, "trial_type": "survey-html-form", "trial_index": 52, "time_elapsed": 1897458, "internal_node_id": "0.0-6.0-5.0"}}, {"uniqueid": "w41968413:a67894575", "current_trial": 53, "dateTime": 1693571302682, "trialdata": {"rt": 34304, "response": {"Q0": "Not at all", "Q1": "No", "Q2": "No"}, "trial_type": "survey-text", "trial_index": 53, "time_elapsed": 1931774, "internal_node_id": "0.0-6.0-6.0"}}, {"uniqueid": "w41968413:a67894575", "current_trial": 54, "dateTime": 1693571309863, "trialdata": {"rt": 7165, "stimulus": "<h1>Completion Code Instructions (1/2)</h1>\n<br><br><br><br>\nYou have reached the end of the experiment! The completion code consists of two parts: (1) a code with 2 characters (2) a code with 6 characters. On this page, you will receive the second part of the code. The first part of the completion code will be on the next page.\n<br><br>\nThe second part of your completion code is: <b>EWEK22</b>\n<br><br>\nPlease note this down. Then, press 'Finish HIT' in order to find the first part of your completion code. Once the data has been saved, you will receive this code either in this window or in the original browser window where you started the experiment.\n", "response": 0, "trial_type": "html-button-response", "trial_index": 54, "time_elapsed": 1938954, "internal_node_id": "0.0-6.0-7.0"}}, {"uniqueid": "w41968413:a67894575", "current_trial": 55, "dateTime": 1693571310879, "trialdata": {"success": true, "trial_type": "fullscreen", "trial_index": 55, "time_elapsed": 1939970, "internal_node_id": "0.0-7.0"}}], "questiondata": {"params": {"CODE": "C6DMOQA6", "MIN_TIME": 14, "inspectCost": 1, "startTime": "Fri Sep 01 2023 13:56:08 GMT+0200 (South Africa Standard Time)", "bonusRate": 0.002, "variance": "1_2_4_8_44", "branching": "31123"}, "final_score": 733.05}, "eventdata": [{"eventtype": "initialized", "value": null, "timestamp": 1693569368152, "interval": 0}, {"eventtype": "window_resize", "value": [1480, 756], "timestamp": 1693569368153, "interval": 1}, {"eventtype": "window_resize", "value": [1480, 756], "timestamp": 1693569368724, "interval": 571}, {"eventtype": "window_resize", "value": [1480, 972], "timestamp": 1693569381726, "interval": 13002}, {"eventtype": "window_resize", "value": [1480, 924], "timestamp": 1693569411086, "interval": 29360}, {"eventtype": "window_resize", "value": [1480, 924], "timestamp": 1693570994310, "interval": 1583224}, {"eventtype": "window_resize", "value": [1480, 924], "timestamp": 1693570996229, "interval": 1919}, {"eventtype": "window_resize", "value": [1480, 924], "timestamp": 1693571001422, "interval": 5193}, {"eventtype": "window_resize", "value": [1480, 924], "timestamp": 1693571003839, "interval": 2417}, {"eventtype": "window_resize", "value": [1480, 924], "timestamp": 1693571091462, "interval": 87623}, {"eventtype": "window_resize", "value": [1480, 924], "timestamp": 1693571093270, "interval": 1808}, {"eventtype": "window_resize", "value": [1480, 924], "timestamp": 1693571094590, "interval": 1320}, {"eventtype": "window_resize", "value": [1480, 924], "timestamp": 1693571095997, "interval": 1407}, {"eventtype": "window_resize", "value": [1480, 924], "timestamp": 1693571147646, "interval": 51649}, {"eventtype": "window_resize", "value": [1480, 924], "timestamp": 1693571237391, "interval": 89745}, {"eventtype": "window_resize", "value": [1480, 924], "timestamp": 1693571237608, "interval": 217}, {"eventtype": "window_resize", "value": [1480, 924], "timestamp": 1693571240302, "interval": 2694}, {"eventtype": "window_resize", "value": [1480, 924], "timestamp": 1693571268782, "interval": 28480}, {"eventtype": "window_resize", "value": [1480, 924], "timestamp": 1693571273327, "interval": 4545}, {"eventtype": "window_resize", "value": [1480, 924], "timestamp": 1693571295822, "interval": 22495}, {"eventtype": "window_resize", "value": [1480, 924], "timestamp": 1693571296567, "interval": 745}, {"eventtype": "window_resize", "value": [1480, 924], "timestamp": 1693571301765, "interval": 5198}, {"eventtype": "window_resize", "value": [1480, 852], "timestamp": 1693571310128, "interval": 8363}, {"eventtype": "window_resize", "value": [1480, 756], "timestamp": 1693571310350, "interval": 222}], "useragent": "Mozilla/5.0 (X11; Linux x86_64) AppleWebKit/537.36 (KHTML, like Gecko) Chrome/116.0.0.0 Safari/537.36", "mode": "live", "id": "w41968413:a67894575", "status": "user data saved", "Beginhit": "2023-09-01 11:56:05.149987", "Beginexp": "2023-09-01 11:56:22.264651", "Endhit": "2023-09-01 12:28:31.921897", "psiturkStatus": 3, "browser": "<redacted>", "platform": "linux", "language": "en-GB"}