{"condition": 1, "counterbalance": 0, "assignmentId": "a59013104", "workerId": "w98567130", "hitId": "h40860059", "currenttrial": 74, "bonus": 0, "data": [{"uniqueid": "w98567130:a59013104", "current_trial": 0, "dateTime": 1693571555164, "trialdata": {"success": true, "trial_type": "fullscreen", "trial_index": 0, "time_elapsed": 4147, "internal_node_id": "0.0-0.0"}}, {"uniqueid": "w98567130:a59013104", "current_trial": 1, "dateTime": 1693571571625, "trialdata": {"view_history": [{"page_index": 0, "viewing_time": 16450}], "rt": 16450, "trial_id": "exp_instructions_misaligned", "trial_type": "instructions", "trial_index": 1, "time_elapsed": 20608, "internal_node_id": "0.0-1.0"}}, {"uniqueid": "w98567130:a59013104", "current_trial": 2, "dateTime": 1693571788456, "trialdata": {"view_history": [{"page_index": 0, "viewing_time": 103483}, {"page_index": 1, "viewing_time": 64889}, {"page_index": 2, "viewing_time": 23005}, {"page_index": 3, "viewing_time": 25451}], "rt": 216829, "trial_id": "mouselab_instructions_1_misaligned", "trial_type": "instructions", "trial_index": 2, "time_elapsed": 237439, "internal_node_id": "0.0-2.0-1.0"}}, {"uniqueid": "w98567130:a59013104", "current_trial": 3, "dateTime": 1693571811422, "trialdata": {"revealed_states": [], "clicked_states": [], "num_clicks_accrued": [0, 0, 0, 0, 0, 0, 0, 0, 0, 0, 0, 0, 0], "stateRewards": ["", -10, -10, 10, 10, -10, -10, 10, -10, -10, -10, -10, -10, 10, 10, -10, 10, -10, -10, -10, -10, 10, 10, 10, 10, 10, -10, 10, 10, 10, -10, 10, -10, 10], "withholdReward": false, "trial_id": "practice_1", "block": "test", "trialIndex": 0, "score": 33.5, "costs": 0, "simulationMode": [null, null, null, null, null], "rewards": [10, 10, 10, -10, 10], "path": ["0", "0", "23", "24", "25", "26", "27"], "rt": [5424, 400, 294, 307, 225], "actions": ["left", "left", "left", "up", "up"], "actionTimes": [11839, 12759, 13569, 14399, 15148], "queries": {"click": {"state": {"target": [], "time": []}, "edge": {"target": [], "time": []}}, "mouseover": {"state": {"target": [], "time": []}, "edge": {"target": [], "time": []}}, "mouseout": {"state": {"target": ["12", "0", "14"], "time": [4894, 18602, 18652]}, "edge": {"target": [], "time": []}}}, "displayed_time": "15.69", "trialTime": 22279, "trial_type": "mouselab-mdp", "trial_index": 3, "time_elapsed": 260405, "internal_node_id": "0.0-2.0-2.0-0.0"}}, {"uniqueid": "w98567130:a59013104", "current_trial": 4, "dateTime": 1693571827566, "trialdata": {"revealed_states": [], "clicked_states": [], "num_clicks_accrued": [0, 0, 0, 0, 0, 0, 0, 0, 0, 0, 0, 0, 0], "stateRewards": ["", -10, 10, 10, -10, 10, 10, -10, -10, -10, 10, 10, 10, 10, -10, -10, -10, 10, 10, -10, 10, 10, 10, -10, 10, -10, 10, -10, -10, -10, 10, -10, 10, -10], "withholdReward": false, "trial_id": "practice_2", "block": "test", "trialIndex": 1, "score": -6.5, "costs": 0, "simulationMode": [null, null, null, null, null], "rewards": [10, 10, -10, -10, -10], "path": ["0", "0", "12", "13", "14", "15", "16"], "rt": [2310, 274, 244, 276, 105], "actions": ["right", "right", "right", "up", "up"], "actionTimes": [6602, 7403, 8172, 8972, 9605], "queries": {"click": {"state": {"target": [], "time": []}, "edge": {"target": [], "time": []}}, "mouseover": {"state": {"target": [], "time": []}, "edge": {"target": [], "time": []}}, "mouseout": {"state": {"target": ["0"], "time": [11724]}, "edge": {"target": [], "time": []}}}, "displayed_time": "10.13", "trialTime": 15683, "trial_type": "mouselab-mdp", "trial_index": 4, "time_elapsed": 276548, "internal_node_id": "0.0-2.0-2.0-1.0"}}, {"uniqueid": "w98567130:a59013104", "current_trial": 5, "dateTime": 1693571871043, "trialdata": {"view_history": [{"page_index": 0, "viewing_time": 32764}, {"page_index": 1, "viewing_time": 10706}], "rt": 43471, "trial_id": "mouselab_instructions_2_misaligned", "trial_type": "instructions", "trial_index": 5, "time_elapsed": 320026, "internal_node_id": "0.0-2.0-3.0"}}, {"uniqueid": "w98567130:a59013104", "current_trial": 6, "dateTime": 1693571937100, "trialdata": {"rt": 66049, "response": {"Q0": "There is no cost for clicking on nodes.", "Q1": "The better I perform the higher my bonus will be.", "Q2": "No, the amount of cash at each node of the web may be different each time.", "Q3": "To get the highest total score.", "Q4": "Only before moving the spider.", "Q5": "3 seconds"}, "question_order": [0, 1, 2, 3, 4, 5], "correct": {"Q0": "The cost for clicking on nodes may vary between nodes.", "Q1": "The better I perform the higher my bonus will be.", "Q2": "No, the amount of cash at each node of the web may be different each time.", "Q3": "To get the highest total score.", "Q4": "Only before moving the spider.", "Q5": "3 seconds"}, "trial_id": "mouselab_quiz_misaligned", "trial_type": "survey-multi-choice", "trial_index": 6, "time_elapsed": 386083, "internal_node_id": "0.0-2.0-4.0"}}, {"uniqueid": "w98567130:a59013104", "current_trial": 7, "dateTime": 1693571949596, "trialdata": {"success": true, "trial_type": "fullscreen", "trial_index": 7, "time_elapsed": 398578, "internal_node_id": "0.0-2.1-0.1-0.1"}}, {"uniqueid": "w98567130:a59013104", "current_trial": 8, "dateTime": 1693572489671, "trialdata": {"view_history": [{"page_index": 0, "viewing_time": 149035}, {"page_index": 1, "viewing_time": 122904}, {"page_index": 2, "viewing_time": 161690}, {"page_index": 3, "viewing_time": 106444}], "rt": 540073, "trial_id": "mouselab_instructions_1_misaligned", "trial_type": "instructions", "trial_index": 8, "time_elapsed": 938653, "internal_node_id": "0.0-2.1-1.1"}}, {"uniqueid": "w98567130:a59013104", "current_trial": 9, "dateTime": 1693572510227, "trialdata": {"revealed_states": [], "clicked_states": [], "num_clicks_accrued": [0, 0, 0, 0, 0, 0, 0, 0, 0, 0, 0, 0, 0], "stateRewards": ["", -10, -10, 10, 10, -10, -10, 10, -10, -10, -10, -10, -10, 10, 10, -10, 10, -10, -10, -10, -10, 10, 10, 10, 10, 10, -10, 10, 10, 10, -10, 10, -10, 10], "withholdReward": false, "trial_id": "practice_1", "block": "test", "trialIndex": 2, "score": 13.5, "costs": 0, "simulationMode": [null, null, null, null, null], "rewards": [-10, 10, 10, -10, 10], "path": ["0", "0", "12", "13", "14", "15", "16"], "rt": [5789, 149, 160, 326, 215], "actions": ["right", "right", "right", "up", "up"], "actionTimes": [11138, 11809, 12502, 13351, 14091], "queries": {"click": {"state": {"target": [], "time": []}, "edge": {"target": [], "time": []}}, "mouseover": {"state": {"target": [], "time": []}, "edge": {"target": [], "time": []}}, "mouseout": {"state": {"target": ["0", "22"], "time": [16920, 17120]}, "edge": {"target": [], "time": []}}}, "displayed_time": "14.61", "trialTime": 20063, "trial_type": "mouselab-mdp", "trial_index": 9, "time_elapsed": 959209, "internal_node_id": "0.0-2.1-2.1-0.1"}}, {"uniqueid": "w98567130:a59013104", "current_trial": 10, "dateTime": 1693572529202, "trialdata": {"revealed_states": [], "clicked_states": [], "num_clicks_accrued": [0, 0, 0, 0, 0, 0, 0, 0, 0, 0, 0, 0, 0], "stateRewards": ["", -10, 10, 10, -10, 10, 10, -10, -10, -10, 10, 10, 10, 10, -10, -10, -10, 10, 10, -10, 10, 10, 10, -10, 10, -10, 10, -10, -10, -10, 10, -10, 10, -10], "withholdReward": false, "trial_id": "practice_2", "block": "test", "trialIndex": 3, "score": 13.5, "costs": 0, "simulationMode": [null, null, null, null, null], "rewards": [-10, 10, 10, -10, 10], "path": ["0", "0", "1", "2", "3", "4", "5"], "rt": [6252, 316, 247, 163, 175], "actions": ["up", "up", "up", "right", "up"], "actionTimes": [10346, 11179, 11939, 12620, 13315], "queries": {"click": {"state": {"target": [], "time": []}, "edge": {"target": [], "time": []}}, "mouseover": {"state": {"target": [], "time": []}, "edge": {"target": [], "time": []}}, "mouseout": {"state": {"target": ["23", "0", "19", "20"], "time": [2988, 15801, 15952, 15984]}, "edge": {"target": [], "time": []}}}, "displayed_time": "13.84", "trialTime": 18526, "trial_type": "mouselab-mdp", "trial_index": 10, "time_elapsed": 978184, "internal_node_id": "0.0-2.1-2.1-1.1"}}, {"uniqueid": "w98567130:a59013104", "current_trial": 11, "dateTime": 1693572739515, "trialdata": {"view_history": [{"page_index": 0, "viewing_time": 205280}, {"page_index": 1, "viewing_time": 5027}], "rt": 210308, "trial_id": "mouselab_instructions_2_misaligned", "trial_type": "instructions", "trial_index": 11, "time_elapsed": 1188497, "internal_node_id": "0.0-2.1-3.1"}}, {"uniqueid": "w98567130:a59013104", "current_trial": 12, "dateTime": 1693572999757, "trialdata": {"rt": 260238, "response": {"Q0": "There is no cost for clicking on nodes.", "Q1": "The better I perform the higher my bonus will be.", "Q2": "No, the amount of cash at each node of the web may be different each time.", "Q3": "To get the highest total score.", "Q4": "Only before moving the spider.", "Q5": "3 seconds"}, "question_order": [0, 1, 2, 3, 4, 5], "correct": {"Q0": "The cost for clicking on nodes may vary between nodes.", "Q1": "The better I perform the higher my bonus will be.", "Q2": "No, the amount of cash at each node of the web may be different each time.", "Q3": "To get the highest total score.", "Q4": "Only before moving the spider.", "Q5": "3 seconds"}, "trial_id": "mouselab_quiz_misaligned", "trial_type": "survey-multi-choice", "trial_index": 12, "time_elapsed": 1448740, "internal_node_id": "0.0-2.1-4.1"}}, {"uniqueid": "w98567130:a59013104", "current_trial": 13, "dateTime": 1693573012972, "trialdata": {"success": true, "trial_type": "fullscreen", "trial_index": 13, "time_elapsed": 1461954, "internal_node_id": "0.0-2.2-0.2-0.2"}}, {"uniqueid": "w98567130:a59013104", "current_trial": 14, "dateTime": 1693573280306, "trialdata": {"view_history": [{"page_index": 0, "viewing_time": 71833}, {"page_index": 1, "viewing_time": 129937}, {"page_index": 2, "viewing_time": 28471}, {"page_index": 3, "viewing_time": 37091}], "rt": 267332, "trial_id": "mouselab_instructions_1_misaligned", "trial_type": "instructions", "trial_index": 14, "time_elapsed": 1729289, "internal_node_id": "0.0-2.2-1.2"}}, {"uniqueid": "w98567130:a59013104", "current_trial": 15, "dateTime": 1693573298109, "trialdata": {"revealed_states": [], "clicked_states": [], "num_clicks_accrued": [0, 0, 0, 0, 0, 0, 0, 0, 0, 0, 0, 0, 0], "stateRewards": ["", -10, -10, 10, 10, -10, -10, 10, -10, -10, -10, -10, -10, 10, 10, -10, 10, -10, -10, -10, -10, 10, 10, 10, 10, 10, -10, 10, 10, 10, -10, 10, -10, 10], "withholdReward": false, "trial_id": "practice_1", "block": "test", "trialIndex": 4, "score": -6.5, "costs": 0, "simulationMode": [null, null, null, null, null], "rewards": [-10, -10, 10, 10, -10], "path": ["0", "0", "1", "2", "3", "4", "5"], "rt": [2572, 305, 230, 180, 373], "actions": ["up", "up", "up", "right", "up"], "actionTimes": [8781, 9602, 10343, 11044, 11941], "queries": {"click": {"state": {"target": [], "time": []}, "edge": {"target": [], "time": []}}, "mouseover": {"state": {"target": [], "time": []}, "edge": {"target": [], "time": []}}, "mouseout": {"state": {"target": ["0", "0"], "time": [5362, 14292]}, "edge": {"target": [], "time": []}}}, "displayed_time": "12.46", "trialTime": 17309, "trial_type": "mouselab-mdp", "trial_index": 15, "time_elapsed": 1747091, "internal_node_id": "0.0-2.2-2.2-0.2"}}, {"uniqueid": "w98567130:a59013104", "current_trial": 16, "dateTime": 1693573315110, "trialdata": {"revealed_states": [], "clicked_states": [], "num_clicks_accrued": [0, 0, 0, 0, 0, 0, 0, 0, 0, 0, 0, 0, 0], "stateRewards": ["", -10, 10, 10, -10, 10, 10, -10, -10, -10, 10, 10, 10, 10, -10, -10, -10, 10, 10, -10, 10, 10, 10, -10, 10, -10, 10, -10, -10, -10, 10, -10, 10, -10], "withholdReward": false, "trial_id": "practice_2", "block": "test", "trialIndex": 5, "score": 13.5, "costs": 0, "simulationMode": [null, null, null, null, null], "rewards": [-10, 10, 10, -10, 10], "path": ["0", "0", "1", "2", "3", "4", "5"], "rt": [2742, 225, 541, 511, 172], "actions": ["up", "up", "up", "right", "up"], "actionTimes": [6771, 7507, 8573, 9608, 10304], "queries": {"click": {"state": {"target": [], "time": []}, "edge": {"target": [], "time": []}}, "mouseover": {"state": {"target": [], "time": []}, "edge": {"target": [], "time": []}}, "mouseout": {"state": {"target": ["14", "0", "22", "21"], "time": [2028, 11995, 12127, 13159]}, "edge": {"target": [], "time": []}}}, "displayed_time": "10.82", "trialTime": 16501, "trial_type": "mouselab-mdp", "trial_index": 16, "time_elapsed": 1764093, "internal_node_id": "0.0-2.2-2.2-1.2"}}, {"uniqueid": "w98567130:a59013104", "current_trial": 17, "dateTime": 1693573354552, "trialdata": {"view_history": [{"page_index": 0, "viewing_time": 32538}, {"page_index": 1, "viewing_time": 6900}], "rt": 39439, "trial_id": "mouselab_instructions_2_misaligned", "trial_type": "instructions", "trial_index": 17, "time_elapsed": 1803535, "internal_node_id": "0.0-2.2-3.2"}}, {"uniqueid": "w98567130:a59013104", "current_trial": 18, "dateTime": 1693573550256, "trialdata": {"rt": 195697, "response": {"Q0": "There is no cost for clicking on nodes.", "Q1": "The better I perform the higher my bonus will be.", "Q2": "No, the amount of cash at each node of the web may be different each time.", "Q3": "To get the highest total score.", "Q4": "Only before moving the spider.", "Q5": "3 seconds"}, "question_order": [0, 1, 2, 3, 4, 5], "correct": {"Q0": "The cost for clicking on nodes may vary between nodes.", "Q1": "The better I perform the higher my bonus will be.", "Q2": "No, the amount of cash at each node of the web may be different each time.", "Q3": "To get the highest total score.", "Q4": "Only before moving the spider.", "Q5": "3 seconds"}, "trial_id": "mouselab_quiz_misaligned", "trial_type": "survey-multi-choice", "trial_index": 18, "time_elapsed": 1999239, "internal_node_id": "0.0-2.2-4.2"}}, {"uniqueid": "w98567130:a59013104", "current_trial": 19, "dateTime": 1693573569507, "trialdata": {"success": true, "trial_type": "fullscreen", "trial_index": 19, "time_elapsed": 2018490, "internal_node_id": "0.0-2.3-0.3-0.3"}}, {"uniqueid": "w98567130:a59013104", "current_trial": 20, "dateTime": 1693573731013, "trialdata": {"view_history": [{"page_index": 0, "viewing_time": 46843}, {"page_index": 1, "viewing_time": 70386}, {"page_index": 2, "viewing_time": 18134}, {"page_index": 3, "viewing_time": 26140}], "rt": 161503, "trial_id": "mouselab_instructions_1_misaligned", "trial_type": "instructions", "trial_index": 20, "time_elapsed": 2179996, "internal_node_id": "0.0-2.3-1.3"}}, {"uniqueid": "w98567130:a59013104", "current_trial": 21, "dateTime": 1693573746512, "trialdata": {"revealed_states": [], "clicked_states": [], "num_clicks_accrued": [0, 0, 0, 0, 0, 0, 0, 0, 0, 0, 0, 0, 0], "stateRewards": ["", -10, -10, 10, 10, -10, -10, 10, -10, -10, -10, -10, -10, 10, 10, -10, 10, -10, -10, -10, -10, 10, 10, 10, 10, 10, -10, 10, 10, 10, -10, 10, -10, 10], "withholdReward": false, "trial_id": "practice_1", "block": "test", "trialIndex": 6, "score": -6.5, "costs": 0, "simulationMode": [null, null, null, null, null], "rewards": [-10, -10, 10, 10, -10], "path": ["0", "0", "1", "2", "3", "4", "5"], "rt": [1660, 261, 186, 333, 310], "actions": ["up", "up", "up", "right", "up"], "actionTimes": [5778, 6561, 7269, 8117, 8943], "queries": {"click": {"state": {"target": [], "time": []}, "edge": {"target": [], "time": []}}, "mouseover": {"state": {"target": [], "time": []}, "edge": {"target": [], "time": []}}, "mouseout": {"state": {"target": ["0", "0", "12", "20"], "time": [1946, 10931, 10945, 11228]}, "edge": {"target": [], "time": []}}}, "displayed_time": "9.47", "trialTime": 14889, "trial_type": "mouselab-mdp", "trial_index": 21, "time_elapsed": 2195494, "internal_node_id": "0.0-2.3-2.3-0.3"}}, {"uniqueid": "w98567130:a59013104", "current_trial": 22, "dateTime": 1693573759091, "trialdata": {"revealed_states": [], "clicked_states": [], "num_clicks_accrued": [0, 0, 0, 0, 0, 0, 0, 0, 0, 0, 0, 0, 0], "stateRewards": ["", -10, 10, 10, -10, 10, 10, -10, -10, -10, 10, 10, 10, 10, -10, -10, -10, 10, 10, -10, 10, 10, 10, -10, 10, -10, 10, -10, -10, -10, 10, -10, 10, -10], "withholdReward": false, "trial_id": "practice_2", "block": "test", "trialIndex": 7, "score": 13.5, "costs": 0, "simulationMode": [null, null, null, null, null], "rewards": [-10, 10, 10, -10, 10], "path": ["0", "0", "1", "2", "3", "4", "5"], "rt": [1572, 197, 189, 241, 241], "actions": ["up", "up", "up", "right", "up"], "actionTimes": [4783, 5504, 6228, 6980, 7746], "queries": {"click": {"state": {"target": [], "time": []}, "edge": {"target": [], "time": []}}, "mouseover": {"state": {"target": [], "time": []}, "edge": {"target": [], "time": []}}, "mouseout": {"state": {"target": ["20", "14", "13", "12", "0", "19"], "time": [1286, 1402, 1603, 2037, 9318, 9368]}, "edge": {"target": [], "time": []}}}, "displayed_time": "8.27", "trialTime": 11929, "trial_type": "mouselab-mdp", "trial_index": 22, "time_elapsed": 2208073, "internal_node_id": "0.0-2.3-2.3-1.3"}}, {"uniqueid": "w98567130:a59013104", "current_trial": 23, "dateTime": 1693573788589, "trialdata": {"view_history": [{"page_index": 0, "viewing_time": 25873}, {"page_index": 1, "viewing_time": 3621}], "rt": 29494, "trial_id": "mouselab_instructions_2_misaligned", "trial_type": "instructions", "trial_index": 23, "time_elapsed": 2237572, "internal_node_id": "0.0-2.3-3.3"}}, {"uniqueid": "w98567130:a59013104", "current_trial": 24, "dateTime": 1693573825570, "trialdata": {"rt": 36977, "response": {"Q0": "The cost for clicking on nodes may vary between nodes.", "Q1": "The better I perform the higher my bonus will be.", "Q2": "No, the amount of cash at each node of the web may be different each time.", "Q3": "To get the highest total score.", "Q4": "Only before moving the spider.", "Q5": "3 seconds"}, "question_order": [0, 1, 2, 3, 4, 5], "correct": {"Q0": "The cost for clicking on nodes may vary between nodes.", "Q1": "The better I perform the higher my bonus will be.", "Q2": "No, the amount of cash at each node of the web may be different each time.", "Q3": "To get the highest total score.", "Q4": "Only before moving the spider.", "Q5": "3 seconds"}, "trial_id": "mouselab_quiz_misaligned", "trial_type": "survey-multi-choice", "trial_index": 24, "time_elapsed": 2274553, "internal_node_id": "0.0-2.3-4.3"}}, {"uniqueid": "w98567130:a59013104", "current_trial": 25, "dateTime": 1693573841836, "trialdata": {"rt": 16253, "response": {"Q0": "No"}, "question_order": [0], "trial_id": "repeat_check", "trial_type": "survey-multi-choice", "trial_index": 25, "time_elapsed": 2290819, "internal_node_id": "0.0-4.0-0.0"}}, {"uniqueid": "w98567130:a59013104", "current_trial": 26, "dateTime": 1693573851564, "trialdata": {"rt": 9720, "stimulus": "\n<h1> Get ready to start the game! </h1>\n\nThank you for reading the instructions. Get ready start with the 40 rounds of this game.\n<br><br>\nIf you need to take a break, feel free to take one after the end of a round, before continuing to the next one.\n<br><br>\nRemember, the more money the spider gets, the bigger your bonus will be!\n<br><br>\n<div style='text-align: center;'>Press <code>space</code> to begin.</div>\n\n<br><br>\n(If, at any point, the <code>space</code> key does not take you to the next page, click once on the text and try again.)", "response": " ", "trial_id": "mdp_ready", "trial_type": "html-keyboard-response", "trial_index": 26, "time_elapsed": 2300547, "internal_node_id": "0.0-6.0-0.0"}}, {"uniqueid": "w98567130:a59013104", "current_trial": 27, "dateTime": 1693573874467, "trialdata": {"revealed_states": [], "clicked_states": [], "num_clicks_accrued": [0, 0, 0, 0, 0, 0, 0, 0, 0, 0, 0, 0, 0], "stateRewards": ["", -1, 3, 8, 9, -53, 20, -84, 2, -28, -62, -31, -1, -2, -7, 2, 51, 58, 45, -4, -17, -41, 36, 2, -2, -7, -15, 29, -54, -37, -16, -43, 65, -17], "withholdReward": false, "trial_id": "mdp_trial_1", "block": "test", "trialIndex": 8, "score": 39, "costs": 0, "simulationMode": [null, null, null, null, null], "rewards": [-1, 3, 8, 9, 20], "path": ["0", "0", "1", "2", "3", "4", "6"], "rt": [1710, 209, 571, 636, 329], "actions": ["up", "up", "up", "right", "right"], "actionTimes": [7013, 7746, 8857, 10005, 10848], "queries": {"click": {"state": {"target": [], "time": []}, "edge": {"target": [], "time": []}}, "mouseover": {"state": {"target": [], "time": []}, "edge": {"target": [], "time": []}}, "mouseout": {"state": {"target": ["0", "6", "17"], "time": [13015, 15064, 20446]}, "edge": {"target": [], "time": []}}}, "displayed_time": "19.31", "trialTime": 22223, "trial_type": "mouselab-mdp", "trial_index": 27, "time_elapsed": 2323450, "internal_node_id": "0.0-6.0-1.0-0.0"}}, {"uniqueid": "w98567130:a59013104", "current_trial": 28, "dateTime": 1693573895055, "trialdata": {"revealed_states": [], "clicked_states": [], "num_clicks_accrued": [0, 0, 0, 0, 0, 0, 0, 0, 0, 0, 0, 0, 0], "stateRewards": ["", -1, -3, -6, -2, -7, 80, -45, -3, -38, -72, 76, 2, 1, 7, 4, -62, 14, -74, 14, -87, -21, -88, -2, 1, -7, -10, 66, 56, -76, 10, -29, -72, -70], "withholdReward": false, "trial_id": "mdp_trial_2", "block": "test", "trialIndex": 9, "score": 68, "costs": 0, "simulationMode": [null, null, null, null, null], "rewards": [-1, -3, -6, -2, 80], "path": ["0", "0", "1", "2", "3", "4", "6"], "rt": [4117, 419, 188, 214, 156], "actions": ["up", "up", "up", "right", "right"], "actionTimes": [8175, 9115, 9817, 10543, 11217], "queries": {"click": {"state": {"target": [], "time": []}, "edge": {"target": [], "time": []}}, "mouseover": {"state": {"target": ["1"], "time": [6325]}, "edge": {"target": [], "time": []}}, "mouseout": {"state": {"target": ["0", "1", "0", "12"], "time": [6259, 6676, 13507, 13530]}, "edge": {"target": [], "time": []}}}, "displayed_time": "18.07", "trialTime": 19978, "trial_type": "mouselab-mdp", "trial_index": 28, "time_elapsed": 2344037, "internal_node_id": "0.0-6.0-1.0-1.0"}}, {"uniqueid": "w98567130:a59013104", "current_trial": 29, "dateTime": 1693573915514, "trialdata": {"revealed_states": [], "clicked_states": [], "num_clicks_accrued": [0, 0, 0, 0, 0, 0, 0, 0, 0, 0, 0, 0, 0], "stateRewards": ["", -2, -4, 6, 14, -34, 49, 36, -8, -3, 32, -4, 1, -2, 1, -8, -20, -71, -57, -7, -86, -62, -16, -2, -3, -5, 11, 23, -21, 53, 5, -5, 85, 73], "withholdReward": false, "trial_id": "mdp_trial_3", "block": "test", "trialIndex": 10, "score": -20, "costs": 0, "simulationMode": [null, null, null, null, null], "rewards": [-2, -4, 6, 14, -34], "path": ["0", "0", "1", "2", "3", "4", "5"], "rt": [2996, 88, 147, 119, 225], "actions": ["up", "up", "up", "right", "up"], "actionTimes": [6057, 6695, 7381, 8017, 8756], "queries": {"click": {"state": {"target": [], "time": []}, "edge": {"target": [], "time": []}}, "mouseover": {"state": {"target": [], "time": []}, "edge": {"target": [], "time": []}}, "mouseout": {"state": {"target": ["13", "12", "0", "0", "0"], "time": [1379, 1495, 1696, 5082, 18624]}, "edge": {"target": [], "time": []}}}, "displayed_time": "17.07", "trialTime": 19880, "trial_type": "mouselab-mdp", "trial_index": 29, "time_elapsed": 2364496, "internal_node_id": "0.0-6.0-1.0-2.0"}}, {"uniqueid": "w98567130:a59013104", "current_trial": 30, "dateTime": 1693573944212, "trialdata": {"revealed_states": [], "clicked_states": ["1"], "num_clicks_accrued": [0, 0, 0, 0, 0, 0, 0, 0, 0, 0, 0, 0, 0], "stateRewards": ["", 2, -1, -1, 7, 11, -40, -22, -2, 69, 37, 8, -2, 4, -8, -12, -2, -72, -3, -12, 17, 63, 12, 1, 3, -7, 6, 25, 61, 61, -9, 28, -17, 27], "withholdReward": false, "trial_id": "mdp_trial_4", "block": "test", "trialIndex": 11, "score": 18.25, "costs": 0.25, "simulationMode": [null, null, null, null, null], "rewards": [2, -1, -1, 7, 11], "path": ["0", "0", "1", "2", "3", "4", "5"], "rt": [4966, 368, 8442, 979, 175], "actions": ["up", "up", "up", "right", "up"], "actionTimes": [9210, 10103, 19078, 20578, 21273], "queries": {"click": {"state": {"target": ["1"], "time": [7080]}, "edge": {"target": [], "time": []}}, "mouseover": {"state": {"target": ["2", "1"], "time": [5384, 6317]}, "edge": {"target": [], "time": []}}, "mouseout": {"state": {"target": ["10", "2", "1", "7", "10"], "time": [1717, 5767, 14180, 18046, 18496]}, "edge": {"target": [], "time": []}}}, "displayed_time": "21.80", "trialTime": 27990, "trial_type": "mouselab-mdp", "trial_index": 30, "time_elapsed": 2393195, "internal_node_id": "0.0-6.0-1.0-3.0"}}, {"uniqueid": "w98567130:a59013104", "current_trial": 31, "dateTime": 1693573970223, "trialdata": {"revealed_states": [], "clicked_states": [], "num_clicks_accrued": [0, 0, 0, 0, 0, 0, 0, 0, 0, 0, 0, 0, 0], "stateRewards": ["", 1, 3, 1, -13, 52, -28, 67, -14, 3, 63, -70, -1, -4, 7, -11, -10, 47, -18, 6, 69, -9, -61, 2, 3, -6, 10, 63, -34, 40, -6, -79, -35, -32], "withholdReward": false, "trial_id": "mdp_trial_5", "block": "test", "trialIndex": 12, "score": 44, "costs": 0, "simulationMode": [null, null, null, null, null], "rewards": [1, 3, 1, -13, 52], "path": ["0", "0", "1", "2", "3", "4", "5"], "rt": [623, 11667, 59, 498, 256], "actions": ["up", "up", "up", "right", "up"], "actionTimes": [4363, 16571, 17142, 18181, 18955], "queries": {"click": {"state": {"target": [], "time": []}, "edge": {"target": [], "time": []}}, "mouseover": {"state": {"target": [], "time": []}, "edge": {"target": [], "time": []}}, "mouseout": {"state": {"target": ["0", "1", "2", "1", "0", "12", "13"], "time": [6966, 7316, 7488, 11764, 14013, 14047, 14113]}, "edge": {"target": [], "time": []}}}, "displayed_time": "19.46", "trialTime": 25344, "trial_type": "mouselab-mdp", "trial_index": 31, "time_elapsed": 2419206, "internal_node_id": "0.0-6.0-1.0-4.0"}}, {"uniqueid": "w98567130:a59013104", "current_trial": 32, "dateTime": 1693573991226, "trialdata": {"revealed_states": [], "clicked_states": [], "num_clicks_accrued": [0, 0, 0, 0, 0, 0, 0, 0, 0, 0, 0, 0, 0], "stateRewards": ["", 1, -1, 1, -14, -10, 67, -28, -11, 72, 40, -65, -1, 1, 1, -2, 8, -55, 34, -10, 61, 33, -15, 2, -4, 7, 4, -75, 63, -21, -16, 61, 19, 21], "withholdReward": false, "trial_id": "mdp_trial_6", "block": "test", "trialIndex": 13, "score": -23, "costs": 0, "simulationMode": [null, null, null, null, null], "rewards": [1, -1, 1, -14, -10], "path": ["0", "0", "1", "2", "3", "4", "5"], "rt": [3403, 189, 154, 195, 154], "actions": ["up", "up", "up", "right", "up"], "actionTimes": [7434, 8159, 8866, 9571, 10247], "queries": {"click": {"state": {"target": [], "time": []}, "edge": {"target": [], "time": []}}, "mouseover": {"state": {"target": [], "time": []}, "edge": {"target": [], "time": []}}, "mouseout": {"state": {"target": ["23", "0", "7", "4", "5", "18", "15", "19"], "time": [1707, 12238, 13197, 13221, 14937, 15036, 15086, 19158]}, "edge": {"target": [], "time": []}}}, "displayed_time": "18.04", "trialTime": 20080, "trial_type": "mouselab-mdp", "trial_index": 32, "time_elapsed": 2440209, "internal_node_id": "0.0-6.0-1.0-5.0"}}, {"uniqueid": "w98567130:a59013104", "current_trial": 33, "dateTime": 1693574016413, "trialdata": {"revealed_states": [], "clicked_states": ["1"], "num_clicks_accrued": [0, 0, 0, 0, 0, 0, 0, 0, 0, 0, 0, 0, 0], "stateRewards": ["", -2, -1, -5, 10, -36, -70, 68, -9, 86, 71, -10, 2, -4, 7, -7, 66, 44, -66, -13, -69, 43, 15, -2, 2, 6, -13, 62, 57, 50, -10, -69, 42, -72], "withholdReward": false, "trial_id": "mdp_trial_7", "block": "test", "trialIndex": 14, "score": -33.75, "costs": 0.25, "simulationMode": [null, null, null, null, null], "rewards": [-2, -1, -5, 10, -36], "path": ["0", "0", "1", "2", "3", "4", "5"], "rt": [3360, 209, 8217, 1027, 174], "actions": ["up", "up", "up", "right", "up"], "actionTimes": [6749, 7478, 16235, 17777, 18478], "queries": {"click": {"state": {"target": ["1"], "time": [4900]}, "edge": {"target": [], "time": []}}, "mouseover": {"state": {"target": ["1"], "time": [4316]}, "edge": {"target": [], "time": []}}, "mouseout": {"state": {"target": ["0", "1", "2", "2"], "time": [3852, 11281, 11764, 21994]}, "edge": {"target": [], "time": []}}}, "displayed_time": "19.00", "trialTime": 24317, "trial_type": "mouselab-mdp", "trial_index": 33, "time_elapsed": 2465396, "internal_node_id": "0.0-6.0-1.0-6.0"}}, {"uniqueid": "w98567130:a59013104", "current_trial": 34, "dateTime": 1693574036455, "trialdata": {"revealed_states": [], "clicked_states": [], "num_clicks_accrued": [0, 0, 0, 0, 0, 0, 0, 0, 0, 0, 0, 0, 0], "stateRewards": ["", 1, 4, 5, -5, 58, -80, 75, 6, 25, -39, 46, 2, -2, 4, 2, 59, 31, -22, -12, -61, 15, 72, 1, -2, -7, 8, 77, 76, -23, -7, 71, -15, -3], "withholdReward": false, "trial_id": "mdp_trial_8", "block": "test", "trialIndex": 15, "score": 41, "costs": 0, "simulationMode": [null, null, null, null, null], "rewards": [1, 4, 5, 6, 25], "path": ["0", "0", "1", "2", "3", "8", "9"], "rt": [3187, 478, 2612, 240, 1749], "actions": ["up", "up", "up", "left", "up"], "actionTimes": [6100, 7101, 10235, 10995, 13270], "queries": {"click": {"state": {"target": [], "time": []}, "edge": {"target": [], "time": []}}, "mouseover": {"state": {"target": [], "time": []}, "edge": {"target": [], "time": []}}, "mouseout": {"state": {"target": ["0", "12"], "time": [15333, 15349]}, "edge": {"target": [], "time": []}}}, "displayed_time": "16.92", "trialTime": 19088, "trial_type": "mouselab-mdp", "trial_index": 34, "time_elapsed": 2485437, "internal_node_id": "0.0-6.0-1.0-7.0"}}, {"uniqueid": "w98567130:a59013104", "current_trial": 35, "dateTime": 1693574057582, "trialdata": {"revealed_states": [], "clicked_states": [], "num_clicks_accrued": [0, 0, 0, 0, 0, 0, 0, 0, 0, 0, 0, 0, 0], "stateRewards": ["", -1, -2, -8, 8, -27, -82, 19, -14, -62, 4, 1, -2, 2, 6, 10, 73, -51, -2, 2, 73, -48, 54, -1, 2, -4, 11, -25, 47, 86, 15, 33, 43, -42], "withholdReward": false, "trial_id": "mdp_trial_9", "block": "test", "trialIndex": 16, "score": -30, "costs": 0, "simulationMode": [null, null, null, null, null], "rewards": [-1, -2, -8, 8, -27], "path": ["0", "0", "1", "2", "3", "4", "5"], "rt": [4335, 258, 115, 103, 133], "actions": ["up", "up", "up", "right", "up"], "actionTimes": [8792, 9576, 10217, 10839, 11481], "queries": {"click": {"state": {"target": [], "time": []}, "edge": {"target": [], "time": []}}, "mouseover": {"state": {"target": [], "time": []}, "edge": {"target": [], "time": []}}, "mouseout": {"state": {"target": ["0"], "time": [14528]}, "edge": {"target": [], "time": []}}}, "displayed_time": "18.46", "trialTime": 20167, "trial_type": "mouselab-mdp", "trial_index": 35, "time_elapsed": 2506565, "internal_node_id": "0.0-6.0-1.0-8.0"}}, {"uniqueid": "w98567130:a59013104", "current_trial": 36, "dateTime": 1693574076806, "trialdata": {"revealed_states": [], "clicked_states": [], "num_clicks_accrued": [0, 0, 0, 0, 0, 0, 0, 0, 0, 0, 0, 0, 0], "stateRewards": ["", 2, 3, 8, 11, 25, -80, 6, -4, -56, 84, -23, -2, -4, -3, 4, -51, -9, -61, -15, -64, 67, -35, 1, -1, -7, -6, 83, 59, -15, 12, -79, 56, 41], "withholdReward": false, "trial_id": "mdp_trial_10", "block": "test", "trialIndex": 17, "score": 49, "costs": 0, "simulationMode": [null, null, null, null, null], "rewards": [2, 3, 8, 11, 25], "path": ["0", "0", "1", "2", "3", "4", "5"], "rt": [1645, 237, 232, 38, 191], "actions": ["up", "up", "up", "right", "up"], "actionTimes": [4285, 5048, 5809, 6366, 7068], "queries": {"click": {"state": {"target": [], "time": []}, "edge": {"target": [], "time": []}}, "mouseover": {"state": {"target": [], "time": []}, "edge": {"target": [], "time": []}}, "mouseout": {"state": {"target": ["14", "18", "0", "0"], "time": [994, 1324, 1757, 9239]}, "edge": {"target": [], "time": []}}}, "displayed_time": "16.65", "trialTime": 18423, "trial_type": "mouselab-mdp", "trial_index": 36, "time_elapsed": 2525788, "internal_node_id": "0.0-6.0-1.0-9.0"}}, {"uniqueid": "w98567130:a59013104", "current_trial": 37, "dateTime": 1693574095680, "trialdata": {"revealed_states": [], "clicked_states": [], "num_clicks_accrued": [0, 0, 0, 0, 0, 0, 0, 0, 0, 0, 0, 0, 0], "stateRewards": ["", 1, -3, -1, 9, -34, -40, 22, -7, 45, 53, -11, 2, 4, 5, 15, 21, 37, -49, -3, 80, -28, -34, 1, -3, 1, 1, -40, -6, -5, -16, -85, -86, 59], "withholdReward": false, "trial_id": "mdp_trial_11", "block": "test", "trialIndex": 18, "score": -28, "costs": 0, "simulationMode": [null, null, null, null, null], "rewards": [1, -3, -1, 9, -34], "path": ["0", "0", "1", "2", "3", "4", "5"], "rt": [1610, 70, 207, 82, 163], "actions": ["up", "up", "up", "right", "up"], "actionTimes": [3985, 4580, 5316, 5906, 6588], "queries": {"click": {"state": {"target": [], "time": []}, "edge": {"target": [], "time": []}}, "mouseover": {"state": {"target": [], "time": []}, "edge": {"target": [], "time": []}}, "mouseout": {"state": {"target": ["12", "0", "13", "19", "20"], "time": [1322, 9188, 9254, 9437, 9654]}, "edge": {"target": [], "time": []}}}, "displayed_time": "16.38", "trialTime": 17953, "trial_type": "mouselab-mdp", "trial_index": 37, "time_elapsed": 2544662, "internal_node_id": "0.0-6.0-1.0-10.0"}}, {"uniqueid": "w98567130:a59013104", "current_trial": 38, "dateTime": 1693574115079, "trialdata": {"revealed_states": [], "clicked_states": [], "num_clicks_accrued": [0, 0, 0, 0, 0, 0, 0, 0, 0, 0, 0, 0, 0], "stateRewards": ["", 2, -1, 3, -12, -83, 6, -33, 9, 28, 24, -50, -2, -1, -2, -5, -87, 37, 82, 12, 80, -5, 10, -2, -3, -6, 9, 22, -1, 16, 9, 77, -62, 58], "withholdReward": false, "trial_id": "mdp_trial_12", "block": "test", "trialIndex": 19, "score": 41, "costs": 0, "simulationMode": [null, null, null, null, null], "rewards": [2, -1, 3, 9, 28], "path": ["0", "0", "1", "2", "3", "8", "9"], "rt": [2124, 233, 118, 62, 97], "actions": ["up", "up", "up", "left", "up"], "actionTimes": [5309, 6064, 6715, 7292, 7911], "queries": {"click": {"state": {"target": [], "time": []}, "edge": {"target": [], "time": []}}, "mouseover": {"state": {"target": ["0"], "time": [4345]}, "edge": {"target": [], "time": []}}, "mouseout": {"state": {"target": ["22", "0", "23", "0", "0"], "time": [1112, 1361, 1479, 4311, 8993]}, "edge": {"target": [], "time": []}}}, "displayed_time": "17.19", "trialTime": 18664, "trial_type": "mouselab-mdp", "trial_index": 38, "time_elapsed": 2564062, "internal_node_id": "0.0-6.0-1.0-11.0"}}, {"uniqueid": "w98567130:a59013104", "current_trial": 39, "dateTime": 1693574136911, "trialdata": {"revealed_states": [], "clicked_states": [], "num_clicks_accrued": [0, 0, 0, 0, 0, 0, 0, 0, 0, 0, 0, 0, 0], "stateRewards": ["", -2, -1, -3, -1, -78, -6, 2, -1, 22, -88, 32, 2, 2, -7, -8, -51, -17, 54, 2, -44, 54, 75, 2, -2, -8, -15, -29, 12, -67, 15, -1, -47, -47], "withholdReward": false, "trial_id": "mdp_trial_13", "block": "test", "trialIndex": 20, "score": -62, "costs": 0, "simulationMode": [null, null, null, null, null], "rewards": [2, 2, -7, -8, -51], "path": ["0", "0", "12", "13", "14", "15", "16"], "rt": [12059, 319, 370, 146, 156], "actions": ["right", "right", "right", "up", "up"], "actionTimes": [15218, 16034, 16934, 17594, 18270], "queries": {"click": {"state": {"target": [], "time": []}, "edge": {"target": [], "time": []}}, "mouseover": {"state": {"target": ["1"], "time": [6147]}, "edge": {"target": [], "time": []}}, "mouseout": {"state": {"target": ["10", "1", "0", "0", "1", "31"], "time": [265, 381, 1181, 5781, 8629, 20509]}, "edge": {"target": [], "time": []}}}, "displayed_time": "18.78", "trialTime": 20990, "trial_type": "mouselab-mdp", "trial_index": 39, "time_elapsed": 2585893, "internal_node_id": "0.0-6.0-1.0-12.0"}}, {"uniqueid": "w98567130:a59013104", "current_trial": 40, "dateTime": 1693574160997, "trialdata": {"revealed_states": [], "clicked_states": [], "num_clicks_accrued": [0, 0, 0, 0, 0, 0, 0, 0, 0, 0, 0, 0, 0], "stateRewards": ["", -2, -1, 3, -3, 71, -58, -21, 7, -10, -75, -37, 2, 4, -1, -12, -79, -29, -48, 3, -41, -10, -30, -1, -2, 1, -15, 13, 66, 22, -1, -42, -86, -55], "withholdReward": false, "trial_id": "mdp_trial_14", "block": "test", "trialIndex": 21, "score": -3, "costs": 0, "simulationMode": [null, null, null, null, null], "rewards": [-2, -1, 3, 7, -10], "path": ["0", "0", "1", "2", "3", "8", "9"], "rt": [1642, 162, 158, 270, 138], "actions": ["up", "up", "up", "left", "up"], "actionTimes": [5999, 6676, 7372, 8167, 8819], "queries": {"click": {"state": {"target": [], "time": []}, "edge": {"target": [], "time": []}}, "mouseover": {"state": {"target": [], "time": []}, "edge": {"target": [], "time": []}}, "mouseout": {"state": {"target": ["23", "0", "12", "0"], "time": [2878, 2893, 3294, 10809]}, "edge": {"target": [], "time": []}}}, "displayed_time": "18.36", "trialTime": 23197, "trial_type": "mouselab-mdp", "trial_index": 40, "time_elapsed": 2609979, "internal_node_id": "0.0-6.0-1.0-13.0"}}, {"uniqueid": "w98567130:a59013104", "current_trial": 41, "dateTime": 1693574181881, "trialdata": {"revealed_states": [], "clicked_states": [], "num_clicks_accrued": [0, 0, 0, 0, 0, 0, 0, 0, 0, 0, 0, 0, 0], "stateRewards": ["", 1, -4, -6, -1, -21, 17, -72, 10, 77, 67, -46, -1, 4, -2, 14, -66, -49, -45, -15, -52, 23, -67, 2, -2, -2, 15, -3, 45, -64, 5, -44, 83, 61], "withholdReward": false, "trial_id": "mdp_trial_15", "block": "test", "trialIndex": 22, "score": -31, "costs": 0, "simulationMode": [null, null, null, null, null], "rewards": [1, -4, -6, -1, -21], "path": ["0", "0", "1", "2", "3", "4", "5"], "rt": [1657, 159, 187, 40, 562], "actions": ["up", "up", "up", "right", "up"], "actionTimes": [6466, 7150, 7878, 8430, 9501], "queries": {"click": {"state": {"target": [], "time": []}, "edge": {"target": [], "time": []}}, "mouseover": {"state": {"target": [], "time": []}, "edge": {"target": [], "time": []}}, "mouseout": {"state": {"target": ["13", "12", "0", "0", "0", "12"], "time": [1071, 1437, 1454, 1754, 10786, 10803]}, "edge": {"target": [], "time": []}}}, "displayed_time": "18.82", "trialTime": 19916, "trial_type": "mouselab-mdp", "trial_index": 41, "time_elapsed": 2630863, "internal_node_id": "0.0-6.0-1.0-14.0"}}, {"uniqueid": "w98567130:a59013104", "current_trial": 42, "dateTime": 1693574202491, "trialdata": {"revealed_states": [], "clicked_states": [], "num_clicks_accrued": [0, 0, 0, 0, 0, 0, 0, 0, 0, 0, 0, 0, 0], "stateRewards": ["", -2, -4, 2, 10, -17, 18, 73, 11, -32, 23, -13, -2, -4, 7, 12, -25, 66, -23, 15, 40, -76, -9, 1, 2, -7, -5, -20, 24, 3, -5, 16, -73, 70], "withholdReward": false, "trial_id": "mdp_trial_16", "block": "test", "trialIndex": 23, "score": -11, "costs": 0, "simulationMode": [null, null, null, null, null], "rewards": [-2, -4, 2, 10, -17], "path": ["0", "0", "1", "2", "3", "4", "5"], "rt": [790, 230, 295, 334, 133], "actions": ["up", "up", "up", "right", "up"], "actionTimes": [4584, 5347, 6179, 7038, 7682], "queries": {"click": {"state": {"target": [], "time": []}, "edge": {"target": [], "time": []}}, "mouseover": {"state": {"target": [], "time": []}, "edge": {"target": [], "time": []}}, "mouseout": {"state": {"target": ["19", "13", "12", "0"], "time": [1513, 1631, 2013, 9163]}, "edge": {"target": [], "time": []}}}, "displayed_time": "17.80", "trialTime": 19376, "trial_type": "mouselab-mdp", "trial_index": 42, "time_elapsed": 2651474, "internal_node_id": "0.0-6.0-1.0-15.0"}}, {"uniqueid": "w98567130:a59013104", "current_trial": 43, "dateTime": 1693574226757, "trialdata": {"revealed_states": [], "clicked_states": ["1", "2", "3", "4", "5"], "num_clicks_accrued": [0, 0, 0, 0, 0, 0, 0, 0, 0, 0, 0, 0, 0], "stateRewards": ["", 2, 1, -3, 7, 46, 11, -36, 16, 71, 5, 1, 2, -2, -8, -3, -4, 6, 55, 7, 68, -54, 2, 1, 1, 6, -6, 42, -4, -84, -11, -65, 63, 25], "withholdReward": false, "trial_id": "mdp_trial_17", "block": "test", "trialIndex": 24, "score": 48.25, "costs": -4.75, "simulationMode": [null, null, null, null, null, null], "rewards": [2, 1, -3, 7, 46], "path": ["0", "0", "1", "2", "3", "4", "5"], "rt": [11260, 639, 164, 135, 143, 146], "actions": ["left", "up", "up", "up", "right", "up"], "actionTimes": [14536, 15182, 15862, 16532, 17192, 17861], "queries": {"click": {"state": {"target": ["1", "2", "3", "4", "5"], "time": [5487, 7511, 9054, 10536, 12069]}, "edge": {"target": [], "time": []}}, "mouseover": {"state": {"target": ["1", "2", "3", "4", "5", "16"], "time": [4147, 6931, 8528, 9850, 11578, 13369]}, "edge": {"target": [], "time": []}}, "mouseout": {"state": {"target": ["15", "18", "0", "1", "2", "3", "4", "5", "16"], "time": [1747, 2130, 3848, 6614, 8330, 9702, 11145, 13129, 13391]}, "edge": {"target": [], "time": []}}}, "displayed_time": "18.40", "trialTime": 23233, "trial_type": "mouselab-mdp", "trial_index": 43, "time_elapsed": 2675740, "internal_node_id": "0.0-6.0-1.0-16.0"}}, {"uniqueid": "w98567130:a59013104", "current_trial": 44, "dateTime": 1693574253991, "trialdata": {"revealed_states": [], "clicked_states": ["1", "2", "3", "4", "5"], "num_clicks_accrued": [0, 0, 0, 0, 0, 0, 0, 0, 0, 0, 0, 0, 0], "stateRewards": ["", 1, 4, 5, 8, -55, -11, 8, 16, -37, 77, -22, -2, 3, -8, -10, 45, 87, -67, 4, 17, -33, -22, -1, -3, 7, 6, -39, -85, 75, -1, 7, -48, 45], "withholdReward": false, "trial_id": "mdp_trial_18", "block": "test", "trialIndex": 25, "score": -15.75, "costs": -4.75, "simulationMode": [null, null, null, null, null, null], "rewards": [1, 4, 5, 16, -37], "path": ["0", "0", "1", "2", "3", "8", "9"], "rt": [10391, 3251, 154, 153, 95, 134], "actions": ["up", "up", "up", "up", "left", "up"], "actionTimes": [14225, 17482, 18157, 18838, 19472, 20119], "queries": {"click": {"state": {"target": ["1", "2", "3", "4", "5"], "time": [6736, 9052, 10484, 11675, 12764]}, "edge": {"target": [], "time": []}}, "mouseover": {"state": {"target": ["1", "2", "3", "4", "5", "2", "1"], "time": [6120, 8552, 10000, 11040, 12074, 15135, 15917]}, "edge": {"target": [], "time": []}}, "mouseout": {"state": {"target": ["28", "12", "0", "1", "2", "3", "4", "5", "4", "2", "1", "12", "13", "14", "20"], "time": [1471, 2193, 6091, 8266, 9669, 11019, 12052, 13511, 15050, 15157, 15950, 21981, 22015, 22047, 22885]}, "edge": {"target": [], "time": []}}}, "displayed_time": "20.64", "trialTime": 26265, "trial_type": "mouselab-mdp", "trial_index": 44, "time_elapsed": 2702973, "internal_node_id": "0.0-6.0-1.0-17.0"}}, {"uniqueid": "w98567130:a59013104", "current_trial": 45, "dateTime": 1693574272181, "trialdata": {"revealed_states": [], "clicked_states": [], "num_clicks_accrued": [0, 0, 0, 0, 0, 0, 0, 0, 0, 0, 0, 0, 0], "stateRewards": ["", -2, 4, 3, 5, -61, 4, 30, 1, -47, 83, 10, 1, 4, 7, -14, 19, -74, -83, 6, -2, -2, -65, -1, -2, 4, -11, 12, -1, -68, 11, -38, -28, 66], "withholdReward": false, "trial_id": "mdp_trial_19", "block": "test", "trialIndex": 26, "score": -51, "costs": 0, "simulationMode": [null, null, null, null, null], "rewards": [-2, 4, 3, 5, -61], "path": ["0", "0", "1", "2", "3", "4", "5"], "rt": [1129, 205, 115, 123, 151], "actions": ["up", "up", "up", "right", "up"], "actionTimes": [3622, 4342, 4985, 5626, 6288], "queries": {"click": {"state": {"target": [], "time": []}, "edge": {"target": [], "time": []}}, "mouseover": {"state": {"target": [], "time": []}, "edge": {"target": [], "time": []}}, "mouseout": {"state": {"target": ["20", "19", "22", "0"], "time": [716, 1041, 1066, 7949]}, "edge": {"target": [], "time": []}}}, "displayed_time": "16.50", "trialTime": 17294, "trial_type": "mouselab-mdp", "trial_index": 45, "time_elapsed": 2721164, "internal_node_id": "0.0-6.0-1.0-18.0"}}, {"uniqueid": "w98567130:a59013104", "current_trial": 46, "dateTime": 1693574297823, "trialdata": {"revealed_states": [], "clicked_states": ["1", "2", "3", "8", "9"], "num_clicks_accrued": [0, 0, 0, 0, 0, 0, 0, 0, 0, 0, 0, 0, 0], "stateRewards": ["", 1, 2, -8, 9, 18, -83, -11, 6, -64, -48, 17, -2, -2, -5, -3, -24, -3, -86, -2, 48, -41, -22, -2, 4, 7, 8, 81, 13, -48, 10, 61, 19, 57], "withholdReward": false, "trial_id": "mdp_trial_20", "block": "test", "trialIndex": 27, "score": 17.25, "costs": -4.75, "simulationMode": [null, null, null, null, null], "rewards": [1, 2, -8, 9, 18], "path": ["0", "0", "1", "2", "3", "4", "5"], "rt": [14394, 170, 98, 349, 187], "actions": ["up", "up", "up", "right", "up"], "actionTimes": [17548, 18236, 18865, 19732, 20436], "queries": {"click": {"state": {"target": ["1", "2", "3", "8", "9"], "time": [5555, 7203, 8616, 10152, 11366]}, "edge": {"target": [], "time": []}}, "mouseover": {"state": {"target": ["1", "2", "3", "11", "8", "9", "4", "7", "18", "15", "14", "13", "12", "0"], "time": [4968, 6767, 8094, 9211, 9733, 10990, 12883, 14124, 14797, 14819, 16247, 16268, 16518, 16552]}, "edge": {"target": [], "time": []}}, "mouseout": {"state": {"target": ["12", "1", "2", "3", "11", "8", "9", "4", "7", "18", "15", "14", "13", "12", "0", "0", "12"], "time": [1934, 6435, 7841, 9187, 9552, 10172, 11388, 14103, 14162, 14815, 14837, 16264, 16297, 16547, 16747, 21895, 21928]}, "edge": {"target": [], "time": []}}}, "displayed_time": "20.95", "trialTime": 24710, "trial_type": "mouselab-mdp", "trial_index": 46, "time_elapsed": 2746806, "internal_node_id": "0.0-6.0-1.0-19.0"}}, {"uniqueid": "w98567130:a59013104", "current_trial": 47, "dateTime": 1693574317559, "trialdata": {"revealed_states": [], "clicked_states": [], "num_clicks_accrued": [0, 0, 0, 0, 0, 0, 0, 0, 0, 0, 0, 0, 0], "stateRewards": ["", 2, -1, -1, -9, -81, -30, 55, -6, 78, 25, 62, 2, 4, -1, 9, -85, 1, -19, 1, -60, 12, -34, 1, 4, -1, -13, -24, -16, -83, -8, 16, 43, 9], "withholdReward": false, "trial_id": "mdp_trial_21", "block": "test", "trialIndex": 28, "score": -90, "costs": 0, "simulationMode": [null, null, null, null, null], "rewards": [2, -1, -1, -9, -81], "path": ["0", "0", "1", "2", "3", "4", "5"], "rt": [5255, 77, 227, 70, 212], "actions": ["up", "up", "up", "right", "up"], "actionTimes": [8240, 8829, 9596, 10187, 10913], "queries": {"click": {"state": {"target": [], "time": []}, "edge": {"target": [], "time": []}}, "mouseover": {"state": {"target": ["1"], "time": [5666]}, "edge": {"target": [], "time": []}}, "mouseout": {"state": {"target": ["20", "19", "1", "14", "19", "21"], "time": [733, 766, 12247, 12397, 12663, 13048]}, "edge": {"target": [], "time": []}}}, "displayed_time": "16.99", "trialTime": 18888, "trial_type": "mouselab-mdp", "trial_index": 47, "time_elapsed": 2766542, "internal_node_id": "0.0-6.0-1.0-20.0"}}, {"uniqueid": "w98567130:a59013104", "current_trial": 48, "dateTime": 1693574337236, "trialdata": {"revealed_states": [], "clicked_states": [], "num_clicks_accrued": [0, 0, 0, 0, 0, 0, 0, 0, 0, 0, 0, 0, 0], "stateRewards": ["", -2, 1, -7, 9, 8, 25, 61, -7, -17, 69, -81, 1, 4, -4, -11, 16, 67, 44, 3, 6, -45, -54, -2, 3, 6, -11, -15, 32, -47, 3, -39, -6, -88], "withholdReward": false, "trial_id": "mdp_trial_22", "block": "test", "trialIndex": 29, "score": 9, "costs": 0, "simulationMode": [null, null, null, null, null], "rewards": [-2, 1, -7, 9, 8], "path": ["0", "0", "1", "2", "3", "4", "5"], "rt": [1710, 530, 230, 99, 171], "actions": ["up", "up", "up", "right", "up"], "actionTimes": [4407, 5461, 6211, 6830, 7524], "queries": {"click": {"state": {"target": [], "time": []}, "edge": {"target": [], "time": []}}, "mouseover": {"state": {"target": [], "time": []}, "edge": {"target": [], "time": []}}, "mouseout": {"state": {"target": ["13", "13"], "time": [9736, 18040]}, "edge": {"target": [], "time": []}}}, "displayed_time": "16.70", "trialTime": 18666, "trial_type": "mouselab-mdp", "trial_index": 48, "time_elapsed": 2786219, "internal_node_id": "0.0-6.0-1.0-21.0"}}, {"uniqueid": "w98567130:a59013104", "current_trial": 49, "dateTime": 1693574356571, "trialdata": {"revealed_states": [], "clicked_states": [], "num_clicks_accrued": [0, 0, 0, 0, 0, 0, 0, 0, 0, 0, 0, 0, 0], "stateRewards": ["", 1, -3, -4, -11, -56, 61, -47, -16, -28, -9, 69, -2, -3, -4, -8, 40, -86, 59, -4, 80, 27, 54, -1, 3, -1, 8, 67, 23, 50, 6, 83, -43, -29], "withholdReward": false, "trial_id": "mdp_trial_23", "block": "test", "trialIndex": 30, "score": -73, "costs": 0, "simulationMode": [null, null, null, null, null], "rewards": [1, -3, -4, -11, -56], "path": ["0", "0", "1", "2", "3", "4", "5"], "rt": [5426, 171, 247, 319, 201], "actions": ["up", "up", "up", "right", "up"], "actionTimes": [8451, 9137, 9913, 10756, 11467], "queries": {"click": {"state": {"target": [], "time": []}, "edge": {"target": [], "time": []}}, "mouseover": {"state": {"target": [], "time": []}, "edge": {"target": [], "time": []}}, "mouseout": {"state": {"target": ["12", "28", "23", "0", "12", "13"], "time": [1031, 1480, 1647, 13112, 13161, 13211]}, "edge": {"target": [], "time": []}}}, "displayed_time": "17.03", "trialTime": 18244, "trial_type": "mouselab-mdp", "trial_index": 49, "time_elapsed": 2805553, "internal_node_id": "0.0-6.0-1.0-22.0"}}, {"uniqueid": "w98567130:a59013104", "current_trial": 50, "dateTime": 1693574377184, "trialdata": {"revealed_states": [], "clicked_states": [], "num_clicks_accrued": [0, 0, 0, 0, 0, 0, 0, 0, 0, 0, 0, 0, 0], "stateRewards": ["", 1, -1, 4, -2, -75, -75, 84, -9, -60, -79, 59, 2, -4, 8, 9, -17, -82, 80, 14, -4, 49, 49, -1, 3, 6, -11, -33, 34, 55, 9, -57, 5, 59], "withholdReward": false, "trial_id": "mdp_trial_24", "block": "test", "trialIndex": 31, "score": -73, "costs": 0, "simulationMode": [null, null, null, null, null], "rewards": [1, -1, 4, -2, -75], "path": ["0", "0", "1", "2", "3", "4", "5"], "rt": [645, 2730, 277, 125, 99], "actions": ["up", "up", "up", "right", "up"], "actionTimes": [4156, 7424, 8222, 8868, 9514], "queries": {"click": {"state": {"target": [], "time": []}, "edge": {"target": [], "time": []}}, "mouseover": {"state": {"target": [], "time": []}, "edge": {"target": [], "time": []}}, "mouseout": {"state": {"target": ["18", "12", "0", "1", "15", "17"], "time": [1240, 1407, 5582, 10789, 11005, 11056]}, "edge": {"target": [], "time": []}}}, "displayed_time": "17.52", "trialTime": 19473, "trial_type": "mouselab-mdp", "trial_index": 50, "time_elapsed": 2826167, "internal_node_id": "0.0-6.0-1.0-23.0"}}, {"uniqueid": "w98567130:a59013104", "current_trial": 51, "dateTime": 1693574400568, "trialdata": {"revealed_states": [], "clicked_states": ["1", "2", "3", "4", "5"], "num_clicks_accrued": [0, 0, 0, 0, 0, 0, 0, 0, 0, 0, 0, 0, 0], "stateRewards": ["", -2, 1, -3, -16, -39, -52, 30, -7, -41, -59, 11, 2, 1, 8, 2, -11, -26, -42, -13, 87, -59, -48, -1, -1, -1, 16, -79, 31, 50, -1, -84, 34, -82], "withholdReward": false, "trial_id": "mdp_trial_25", "block": "test", "trialIndex": 32, "score": -4.75, "costs": -4.75, "simulationMode": [null, null, null, null, null, null], "rewards": [-2, 1, -3, -7, 11], "path": ["0", "0", "1", "2", "3", "8", "11"], "rt": [8647, 453, 274, 114, 118, 391], "actions": ["up", "up", "up", "up", "left", "left"], "actionTimes": [10993, 11452, 12268, 12917, 13555, 14460], "queries": {"click": {"state": {"target": ["1", "2", "3", "4", "5"], "time": [3867, 5018, 6297, 7255, 8488]}, "edge": {"target": [], "time": []}}, "mouseover": {"state": {"target": ["1", "2", "3", "3", "4", "5", "2", "0"], "time": [3404, 4410, 5441, 5747, 6760, 7971, 9199, 9946]}, "edge": {"target": [], "time": []}}, "mouseout": {"state": {"target": ["1", "2", "3", "3", "4", "5", "2", "0", "1"], "time": [4386, 5040, 5659, 6738, 7652, 9176, 9221, 17115, 17865]}, "edge": {"target": [], "time": []}}}, "displayed_time": "16.35", "trialTime": 22327, "trial_type": "mouselab-mdp", "trial_index": 51, "time_elapsed": 2849551, "internal_node_id": "0.0-6.0-1.0-24.0"}}, {"uniqueid": "w98567130:a59013104", "current_trial": 52, "dateTime": 1693574423050, "trialdata": {"revealed_states": [], "clicked_states": ["1", "2", "3", "4", "5"], "num_clicks_accrued": [0, 0, 0, 0, 0, 0, 0, 0, 0, 0, 0, 0, 0], "stateRewards": ["", -1, -4, -3, 1, -45, -67, -24, 14, 32, 22, 22, -1, 1, -5, -7, 72, 84, -79, -5, 19, -40, -2, -1, -2, 8, -3, 84, -25, -28, 11, 64, -66, 77], "withholdReward": false, "trial_id": "mdp_trial_26", "block": "test", "trialIndex": 33, "score": 23.25, "costs": -4.75, "simulationMode": [null, null, null, null, null], "rewards": [-1, -4, -3, 14, 22], "path": ["0", "0", "1", "2", "3", "8", "10"], "rt": [11267, 476, 168, 262, 881], "actions": ["up", "up", "up", "left", "down"], "actionTimes": [14188, 15180, 15871, 16647, 18057], "queries": {"click": {"state": {"target": ["1", "2", "3", "4", "5"], "time": [5895, 7269, 8621, 9709, 10797]}, "edge": {"target": [], "time": []}}, "mouseover": {"state": {"target": ["1", "3", "2", "3", "3", "4", "5", "8", "8", "1"], "time": [5386, 6361, 6813, 7670, 8229, 9229, 10161, 11963, 12317, 13492]}, "edge": {"target": [], "time": []}}, "mouseout": {"state": {"target": ["14", "13", "12", "1", "3", "2", "3", "3", "4", "5", "3", "8", "8", "1"], "time": [936, 1586, 1919, 6336, 6737, 7314, 7693, 8664, 10105, 11405, 11427, 12233, 13469, 13534]}, "edge": {"target": [], "time": []}}}, "displayed_time": "18.57", "trialTime": 21334, "trial_type": "mouselab-mdp", "trial_index": 52, "time_elapsed": 2872033, "internal_node_id": "0.0-6.0-1.0-25.0"}}, {"uniqueid": "w98567130:a59013104", "current_trial": 53, "dateTime": 1693574444591, "trialdata": {"revealed_states": [], "clicked_states": ["1", "2", "3", "8", "10"], "num_clicks_accrued": [0, 0, 0, 0, 0, 0, 0, 0, 0, 0, 0, 0, 0], "stateRewards": ["", 1, 1, -5, 10, -31, 73, 14, -8, -23, 63, -70, -1, 2, 8, 7, 25, -59, 27, -10, -40, -71, -15, -2, 3, -8, -5, -19, 77, -34, 7, 67, 63, 19], "withholdReward": false, "trial_id": "mdp_trial_27", "block": "test", "trialIndex": 34, "score": 47.25, "costs": -4.75, "simulationMode": [null, null, null, null, null], "rewards": [1, 1, -5, -8, 63], "path": ["0", "0", "1", "2", "3", "8", "10"], "rt": [9861, 248, 111, 458, 93], "actions": ["up", "up", "up", "left", "down"], "actionTimes": [12223, 12989, 13668, 14642, 15261], "queries": {"click": {"state": {"target": ["1", "2", "3", "8", "10"], "time": [4756, 5841, 6739, 8258, 9215]}, "edge": {"target": [], "time": []}}, "mouseover": {"state": {"target": ["1", "2", "3", "8", "10", "0"], "time": [4203, 5474, 6204, 7742, 8732, 11500]}, "edge": {"target": [], "time": []}}, "mouseout": {"state": {"target": ["0", "1", "2", "3", "8", "8", "10", "10", "0"], "time": [4168, 5118, 5863, 6775, 8278, 8710, 9229, 10923, 17363]}, "edge": {"target": [], "time": []}}}, "displayed_time": "16.37", "trialTime": 20648, "trial_type": "mouselab-mdp", "trial_index": 53, "time_elapsed": 2893573, "internal_node_id": "0.0-6.0-1.0-26.0"}}, {"uniqueid": "w98567130:a59013104", "current_trial": 54, "dateTime": 1693574463765, "trialdata": {"revealed_states": [], "clicked_states": [], "num_clicks_accrued": [0, 0, 0, 0, 0, 0, 0, 0, 0, 0, 0, 0, 0], "stateRewards": ["", -2, 2, -5, -6, 10, -66, -58, -10, -11, -63, -70, -1, -4, -5, 7, 66, -64, -43, -3, 45, -37, 4, -2, -2, -6, -4, -30, 33, 43, 15, -32, -65, -59], "withholdReward": false, "trial_id": "mdp_trial_28", "block": "test", "trialIndex": 35, "score": -1, "costs": 0, "simulationMode": [null, null, null, null, null], "rewards": [-2, 2, -5, -6, 10], "path": ["0", "0", "1", "2", "3", "4", "5"], "rt": [6754, 248, 146, 12, 211], "actions": ["up", "up", "up", "right", "up"], "actionTimes": [9404, 10177, 10911, 11440, 12190], "queries": {"click": {"state": {"target": [], "time": []}, "edge": {"target": [], "time": []}}, "mouseover": {"state": {"target": ["1"], "time": [4694]}, "edge": {"target": [], "time": []}}, "mouseout": {"state": {"target": ["14", "0", "1", "18"], "time": [1178, 4308, 13541, 13975]}, "edge": {"target": [], "time": []}}}, "displayed_time": "16.65", "trialTime": 18339, "trial_type": "mouselab-mdp", "trial_index": 54, "time_elapsed": 2912747, "internal_node_id": "0.0-6.0-1.0-27.0"}}, {"uniqueid": "w98567130:a59013104", "current_trial": 55, "dateTime": 1693574483396, "trialdata": {"revealed_states": [], "clicked_states": [], "num_clicks_accrued": [0, 0, 0, 0, 0, 0, 0, 0, 0, 0, 0, 0, 0], "stateRewards": ["", 1, 2, -3, 6, -88, 74, -45, 7, -46, 40, -77, 1, -4, 4, 3, 22, -25, -59, 8, -83, 19, -60, -1, -1, -1, -8, 26, -29, 64, -7, -88, -51, -55], "withholdReward": false, "trial_id": "mdp_trial_29", "block": "test", "trialIndex": 36, "score": -82, "costs": 0, "simulationMode": [null, null, null, null, null], "rewards": [1, 2, -3, 6, -88], "path": ["0", "0", "1", "2", "3", "4", "5"], "rt": [2498, 203, 93, 197, 152], "actions": ["up", "up", "up", "right", "up"], "actionTimes": [5456, 6171, 6812, 7531, 8203], "queries": {"click": {"state": {"target": [], "time": []}, "edge": {"target": [], "time": []}}, "mouseover": {"state": {"target": [], "time": []}, "edge": {"target": [], "time": []}}, "mouseout": {"state": {"target": ["13", "0", "15"], "time": [1831, 9580, 9680]}, "edge": {"target": [], "time": []}}}, "displayed_time": "16.96", "trialTime": 18747, "trial_type": "mouselab-mdp", "trial_index": 55, "time_elapsed": 2932378, "internal_node_id": "0.0-6.0-1.0-28.0"}}, {"uniqueid": "w98567130:a59013104", "current_trial": 56, "dateTime": 1693574506396, "trialdata": {"revealed_states": [], "clicked_states": [], "num_clicks_accrued": [0, 0, 0, 0, 0, 0, 0, 0, 0, 0, 0, 0, 0], "stateRewards": ["", -1, -3, 1, -4, -48, -63, -49, -2, -84, -19, 65, 2, -2, -2, -12, -4, 59, 9, 6, 75, 69, -13, -1, -3, -3, -2, -37, -68, -36, 13, 32, 18, -14], "withholdReward": false, "trial_id": "mdp_trial_30", "block": "test", "trialIndex": 37, "score": -55, "costs": 0, "simulationMode": [null, null, null, null, null], "rewards": [-1, -3, 1, -4, -48], "path": ["0", "0", "1", "2", "3", "4", "5"], "rt": [1472, 2044, 134, 37, 242], "actions": ["up", "up", "up", "right", "up"], "actionTimes": [5096, 7655, 8311, 8879, 9635], "queries": {"click": {"state": {"target": [], "time": []}, "edge": {"target": [], "time": []}}, "mouseover": {"state": {"target": [], "time": []}, "edge": {"target": [], "time": []}}, "mouseout": {"state": {"target": ["1", "2", "2", "0", "0", "17", "14", "13", "12"], "time": [1546, 1709, 1941, 1975, 11216, 11244, 15188, 15372, 15522]}, "edge": {"target": [], "time": []}}}, "displayed_time": "17.63", "trialTime": 21948, "trial_type": "mouselab-mdp", "trial_index": 56, "time_elapsed": 2955378, "internal_node_id": "0.0-6.0-1.0-29.0"}}, {"uniqueid": "w98567130:a59013104", "current_trial": 57, "dateTime": 1693574526325, "trialdata": {"revealed_states": [], "clicked_states": ["1"], "num_clicks_accrued": [0, 0, 0, 0, 0, 0, 0, 0, 0, 0, 0, 0, 0], "stateRewards": ["", -2, 3, 3, -14, 62, 36, 49, 16, 11, 17, -84, 2, -1, 6, 2, -82, -73, 49, -6, -87, 48, 50, -1, -2, -1, -16, -11, 37, -44, 4, 55, 73, -10], "withholdReward": false, "trial_id": "mdp_trial_31", "block": "test", "trialIndex": 38, "score": 52.25, "costs": 0.25, "simulationMode": [null, null, null, null, null], "rewards": [-2, 3, 3, -14, 62], "path": ["0", "0", "1", "2", "3", "4", "5"], "rt": [4139, 269, 149, 63, 154], "actions": ["up", "up", "up", "right", "up"], "actionTimes": [7559, 8342, 9018, 9599, 10273], "queries": {"click": {"state": {"target": ["1"], "time": [6251]}, "edge": {"target": [], "time": []}}, "mouseover": {"state": {"target": ["1"], "time": [5585]}, "edge": {"target": [], "time": []}}, "mouseout": {"state": {"target": ["1", "1", "12", "13"], "time": [2067, 11932, 12065, 12098]}, "edge": {"target": [], "time": []}}}, "displayed_time": "17.43", "trialTime": 19027, "trial_type": "mouselab-mdp", "trial_index": 57, "time_elapsed": 2975307, "internal_node_id": "0.0-6.0-1.0-30.0"}}, {"uniqueid": "w98567130:a59013104", "current_trial": 58, "dateTime": 1693574551598, "trialdata": {"revealed_states": [], "clicked_states": [], "num_clicks_accrued": [0, 0, 0, 0, 0, 0, 0, 0, 0, 0, 0, 0, 0], "stateRewards": ["", -1, -4, -1, -11, 43, 69, 39, 4, 17, -20, -82, -2, -1, 4, 8, -79, 24, -79, 11, 36, 64, 41, 2, 4, -1, 11, -79, -47, 75, -3, 63, -36, -19], "withholdReward": false, "trial_id": "mdp_trial_32", "block": "test", "trialIndex": 39, "score": 26, "costs": 0, "simulationMode": [null, null, null, null, null], "rewards": [-1, -4, -1, -11, 43], "path": ["0", "0", "1", "2", "3", "4", "5"], "rt": [1446, 10262, 1997, 282, 230], "actions": ["up", "up", "up", "right", "up"], "actionTimes": [4874, 15660, 18174, 18975, 19724], "queries": {"click": {"state": {"target": [], "time": []}, "edge": {"target": [], "time": []}}, "mouseover": {"state": {"target": [], "time": []}, "edge": {"target": [], "time": []}}, "mouseout": {"state": {"target": ["14", "13", "0", "1", "17"], "time": [1478, 1627, 8110, 11208, 11277]}, "edge": {"target": [], "time": []}}}, "displayed_time": "20.24", "trialTime": 24151, "trial_type": "mouselab-mdp", "trial_index": 58, "time_elapsed": 3000580, "internal_node_id": "0.0-6.0-1.0-31.0"}}, {"uniqueid": "w98567130:a59013104", "current_trial": 59, "dateTime": 1693574573288, "trialdata": {"revealed_states": [], "clicked_states": [], "num_clicks_accrued": [0, 0, 0, 0, 0, 0, 0, 0, 0, 0, 0, 0, 0], "stateRewards": ["", -1, 2, -7, -12, -62, 12, -13, 5, 77, -71, 83, 1, -4, 7, 15, -42, -87, -4, 5, -25, 44, 88, -1, 4, -5, -8, 14, 51, 8, -5, 83, -24, -19], "withholdReward": false, "trial_id": "mdp_trial_33", "block": "test", "trialIndex": 40, "score": -80, "costs": 0, "simulationMode": [null, null, null, null, null], "rewards": [-1, 2, -7, -12, -62], "path": ["0", "0", "1", "2", "3", "4", "5"], "rt": [2058, 220, 152, 80, 176], "actions": ["up", "up", "up", "right", "up"], "actionTimes": [4514, 5248, 5930, 6525, 7220], "queries": {"click": {"state": {"target": [], "time": []}, "edge": {"target": [], "time": []}}, "mouseover": {"state": {"target": [], "time": []}, "edge": {"target": [], "time": []}}, "mouseout": {"state": {"target": ["16", "7", "1", "0", "12", "15", "18", "0"], "time": [758, 842, 1124, 8840, 8874, 8940, 17838, 19587]}, "edge": {"target": [], "time": []}}}, "displayed_time": "16.46", "trialTime": 20580, "trial_type": "mouselab-mdp", "trial_index": 59, "time_elapsed": 3022270, "internal_node_id": "0.0-6.0-1.0-32.0"}}, {"uniqueid": "w98567130:a59013104", "current_trial": 60, "dateTime": 1693574591255, "trialdata": {"revealed_states": [], "clicked_states": [], "num_clicks_accrued": [0, 0, 0, 0, 0, 0, 0, 0, 0, 0, 0, 0, 0], "stateRewards": ["", 1, 1, 6, -14, -40, 37, 16, -13, 33, -68, 49, 2, 4, 3, 6, 55, 27, 32, 10, -65, 20, -87, 2, 1, -6, -5, -42, 12, 29, -8, 16, 76, -33], "withholdReward": false, "trial_id": "mdp_trial_34", "block": "test", "trialIndex": 41, "score": -46, "costs": 0, "simulationMode": [null, null, null, null, null], "rewards": [1, 1, 6, -14, -40], "path": ["0", "0", "1", "2", "3", "4", "5"], "rt": [552, 1174, 189, 129, 142], "actions": ["up", "up", "up", "right", "up"], "actionTimes": [1871, 3597, 4303, 4960, 5621], "queries": {"click": {"state": {"target": [], "time": []}, "edge": {"target": [], "time": []}}, "mouseover": {"state": {"target": [], "time": []}, "edge": {"target": [], "time": []}}, "mouseout": {"state": {"target": ["0", "0", "13", "14"], "time": [141, 6920, 6956, 6983]}, "edge": {"target": [], "time": []}}}, "displayed_time": "15.32", "trialTime": 16803, "trial_type": "mouselab-mdp", "trial_index": 60, "time_elapsed": 3040236, "internal_node_id": "0.0-6.0-1.0-33.0"}}, {"uniqueid": "w98567130:a59013104", "current_trial": 61, "dateTime": 1693574610030, "trialdata": {"revealed_states": [], "clicked_states": [], "num_clicks_accrued": [0, 0, 0, 0, 0, 0, 0, 0, 0, 0, 0, 0, 0], "stateRewards": ["", -1, -2, 8, -6, -79, -6, 87, 9, -5, -66, -38, 2, 2, 5, -6, -82, 74, 85, -8, 67, -30, -15, 1, -2, -2, -2, 87, 64, 49, 7, 2, -38, -9], "withholdReward": false, "trial_id": "mdp_trial_35", "block": "test", "trialIndex": 42, "score": -80, "costs": 0, "simulationMode": [null, null, null, null, null], "rewards": [-1, -2, 8, -6, -79], "path": ["0", "0", "1", "2", "3", "4", "5"], "rt": [1672, 884, 172, 13, 523], "actions": ["up", "up", "up", "right", "up"], "actionTimes": [4820, 6215, 6902, 7426, 8502], "queries": {"click": {"state": {"target": [], "time": []}, "edge": {"target": [], "time": []}}, "mouseover": {"state": {"target": [], "time": []}, "edge": {"target": [], "time": []}}, "mouseout": {"state": {"target": ["19", "22", "0", "0", "14", "14"], "time": [1327, 1460, 1943, 9708, 9808, 9992]}, "edge": {"target": [], "time": []}}}, "displayed_time": "17.15", "trialTime": 17538, "trial_type": "mouselab-mdp", "trial_index": 61, "time_elapsed": 3059013, "internal_node_id": "0.0-6.0-1.0-34.0"}}, {"uniqueid": "w98567130:a59013104", "current_trial": 62, "dateTime": 1693574632684, "trialdata": {"revealed_states": [], "clicked_states": ["1", "2", "3", "4", "5"], "num_clicks_accrued": [0, 0, 0, 0, 0, 0, 0, 0, 0, 0, 0, 0, 0], "stateRewards": ["", -2, 2, -5, 1, 42, -63, -58, -6, 2, 16, 81, -2, 4, 7, -10, 33, 3, -33, -2, -52, -84, -27, 2, -3, -3, 15, -74, -14, -5, -5, -84, 79, -31], "withholdReward": false, "trial_id": "mdp_trial_36", "block": "test", "trialIndex": 43, "score": -13.75, "costs": -4.75, "simulationMode": [null, null, null, null, null], "rewards": [-2, 2, -5, -6, 2], "path": ["0", "0", "1", "2", "3", "8", "9"], "rt": [11268, 759, 255, 204, 158], "actions": ["up", "up", "up", "left", "up"], "actionTimes": [14134, 15415, 16197, 16927, 17598], "queries": {"click": {"state": {"target": ["1", "2", "3", "4", "5"], "time": [4387, 5888, 7199, 8259, 9209]}, "edge": {"target": [], "time": []}}, "mouseover": {"state": {"target": ["1", "2", "3", "4", "5", "8"], "time": [3923, 5340, 6716, 7684, 8598, 10739]}, "edge": {"target": [], "time": []}}, "mouseout": {"state": {"target": ["14", "12", "0", "1", "2", "3", "4", "5", "8", "17"], "time": [989, 1356, 3574, 5023, 6309, 7247, 8572, 9788, 11949, 18552]}, "edge": {"target": [], "time": []}}}, "displayed_time": "18.12", "trialTime": 21378, "trial_type": "mouselab-mdp", "trial_index": 62, "time_elapsed": 3081666, "internal_node_id": "0.0-6.0-1.0-35.0"}}, {"uniqueid": "w98567130:a59013104", "current_trial": 63, "dateTime": 1693574653244, "trialdata": {"revealed_states": [], "clicked_states": [], "num_clicks_accrued": [0, 0, 0, 0, 0, 0, 0, 0, 0, 0, 0, 0, 0], "stateRewards": ["", -1, 2, -6, 6, 43, 78, 78, -2, 55, -29, -17, -2, -4, 1, -15, 13, 7, -79, 8, -28, -68, 36, -1, -3, 3, -16, 84, -18, 87, 10, 32, 13, -81], "withholdReward": false, "trial_id": "mdp_trial_37", "block": "test", "trialIndex": 44, "score": 44, "costs": 0, "simulationMode": [null, null, null, null, null], "rewards": [-1, 2, -6, 6, 43], "path": ["0", "0", "1", "2", "3", "4", "5"], "rt": [200, 415, 288, 135, 210], "actions": ["up", "up", "up", "right", "up"], "actionTimes": [3892, 4831, 5644, 6290, 7019], "queries": {"click": {"state": {"target": [], "time": []}, "edge": {"target": [], "time": []}}, "mouseover": {"state": {"target": [], "time": []}, "edge": {"target": [], "time": []}}, "mouseout": {"state": {"target": ["15", "18", "18", "0", "22"], "time": [1035, 1102, 1152, 8850, 9117]}, "edge": {"target": [], "time": []}}}, "displayed_time": "17.70", "trialTime": 19525, "trial_type": "mouselab-mdp", "trial_index": 63, "time_elapsed": 3102227, "internal_node_id": "0.0-6.0-1.0-36.0"}}, {"uniqueid": "w98567130:a59013104", "current_trial": 64, "dateTime": 1693574672987, "trialdata": {"revealed_states": [], "clicked_states": [], "num_clicks_accrued": [0, 0, 0, 0, 0, 0, 0, 0, 0, 0, 0, 0, 0], "stateRewards": ["", -2, 1, -8, 12, -65, -79, 16, 7, -80, -17, -45, -2, 2, -5, -2, -85, 23, -4, -7, 48, 27, -76, 2, 3, 5, 2, 43, 71, -13, 7, -49, 59, -31], "withholdReward": false, "trial_id": "mdp_trial_38", "block": "test", "trialIndex": 45, "score": -62, "costs": 0, "simulationMode": [null, null, null, null, null], "rewards": [-2, 1, -8, 12, -65], "path": ["0", "0", "1", "2", "3", "4", "5"], "rt": [1939, 117, 181, 123, 137], "actions": ["up", "up", "up", "right", "up"], "actionTimes": [4905, 5532, 6254, 6888, 7563], "queries": {"click": {"state": {"target": [], "time": []}, "edge": {"target": [], "time": []}}, "mouseover": {"state": {"target": [], "time": []}, "edge": {"target": [], "time": []}}, "mouseout": {"state": {"target": ["7", "1", "0", "0", "17", "20", "19"], "time": [813, 1612, 2062, 8897, 8946, 9261, 9645]}, "edge": {"target": [], "time": []}}}, "displayed_time": "16.98", "trialTime": 18436, "trial_type": "mouselab-mdp", "trial_index": 64, "time_elapsed": 3121970, "internal_node_id": "0.0-6.0-1.0-37.0"}}, {"uniqueid": "w98567130:a59013104", "current_trial": 65, "dateTime": 1693574695498, "trialdata": {"revealed_states": [], "clicked_states": [], "num_clicks_accrued": [0, 0, 0, 0, 0, 0, 0, 0, 0, 0, 0, 0, 0], "stateRewards": ["", -2, -1, -6, -14, -55, 78, -13, 11, 14, -71, 59, 2, 2, 6, -6, 9, 38, 14, 7, 85, 11, 68, 1, -4, -1, -3, -63, -85, 9, -2, 63, -86, -10], "withholdReward": false, "trial_id": "mdp_trial_39", "block": "test", "trialIndex": 46, "score": -78, "costs": 0, "simulationMode": [null, null, null, null, null], "rewards": [-2, -1, -6, -14, -55], "path": ["0", "0", "1", "2", "3", "4", "5"], "rt": [762, 125, 199, 104, 144], "actions": ["up", "up", "up", "right", "up"], "actionTimes": [4243, 4899, 5637, 6258, 6926], "queries": {"click": {"state": {"target": [], "time": []}, "edge": {"target": [], "time": []}}, "mouseover": {"state": {"target": [], "time": []}, "edge": {"target": [], "time": []}}, "mouseout": {"state": {"target": ["20", "19", "0", "12", "19", "19"], "time": [2035, 2134, 8134, 8185, 8550, 20696]}, "edge": {"target": [], "time": []}}}, "displayed_time": "17.48", "trialTime": 21159, "trial_type": "mouselab-mdp", "trial_index": 65, "time_elapsed": 3144480, "internal_node_id": "0.0-6.0-1.0-38.0"}}, {"uniqueid": "w98567130:a59013104", "current_trial": 66, "dateTime": 1693574714571, "trialdata": {"revealed_states": [], "clicked_states": [], "num_clicks_accrued": [0, 0, 0, 0, 0, 0, 0, 0, 0, 0, 0, 0, 0], "stateRewards": ["", 2, 2, 3, -15, 23, -14, 73, -7, -32, -20, -6, 1, 1, -5, -12, 73, 6, -84, 11, -81, -57, 13, -2, -1, -4, -8, -52, -58, 49, 13, 5, -41, -41], "withholdReward": false, "trial_id": "mdp_trial_40", "block": "test", "trialIndex": 47, "score": -32, "costs": 0, "simulationMode": [null, null, null, null, null], "rewards": [2, 2, 3, -7, -32], "path": ["0", "0", "1", "2", "3", "8", "9"], "rt": [1097, 82, 162, 114, 171], "actions": ["up", "up", "up", "left", "up"], "actionTimes": [3964, 4572, 5278, 5909, 6601], "queries": {"click": {"state": {"target": [], "time": []}, "edge": {"target": [], "time": []}}, "mouseover": {"state": {"target": [], "time": []}, "edge": {"target": [], "time": []}}, "mouseout": {"state": {"target": ["12", "0", "22", "19"], "time": [1388, 8819, 8854, 8932]}, "edge": {"target": [], "time": []}}}, "displayed_time": "16.87", "trialTime": 17810, "trial_type": "mouselab-mdp", "trial_index": 66, "time_elapsed": 3163554, "internal_node_id": "0.0-6.0-1.0-39.0"}}, {"uniqueid": "w98567130:a59013104", "current_trial": 67, "dateTime": 1693574771829, "trialdata": {"rt": 57221, "response": {"Q0": "$-2 to $2", "Q1": "$-4 to $4", "Q2": "$-88 to $88", "Q3": "There was no cost for clicking on nodes.", "Q4": "Very motivated"}, "question_order": [0, 1, 2, 3, 4], "trial_id": "final_quiz_control", "trial_type": "survey-multi-choice", "trial_index": 67, "time_elapsed": 3220812, "internal_node_id": "0.0-6.0-2.0"}}, {"uniqueid": "w98567130:a59013104", "current_trial": 68, "dateTime": 1693574806370, "trialdata": {"rt": 34526, "response": {"Q0": "I tried to judge where the most money was.", "Q1": "Yes.", "Q2": "It wasn't difficult."}, "trial_id": "self_report_control", "trial_type": "survey-text", "trial_index": 68, "time_elapsed": 3255352, "internal_node_id": "0.0-6.0-3.0"}}, {"uniqueid": "w98567130:a59013104", "current_trial": 69, "dateTime": 1693574855095, "trialdata": {"rt": 48717, "response": {"Q0": "Strongly agree", "Q1": "Neither disagree nor agree", "Q2": "Neither disagree nor agree", "Q3": "Strongly agree", "Q4": "Strongly disagree", "Q5": "Strongly agree", "Q6": "Strongly disagree"}, "question_order": [0, 1, 2, 3, 4, 5, 6], "trial_id": "self_report_2", "trial_type": "survey-multi-choice", "trial_index": 69, "time_elapsed": 3304078, "internal_node_id": "0.0-6.0-4.0"}}, {"uniqueid": "w98567130:a59013104", "current_trial": 70, "dateTime": 1693574889232, "trialdata": {"rt": 34126, "response": {"gender": "female", "age": "48", "colorblind": "0", "effort": "0"}, "trial_type": "survey-html-form", "trial_index": 70, "time_elapsed": 3338215, "internal_node_id": "0.0-6.0-5.0"}}, {"uniqueid": "w98567130:a59013104", "current_trial": 71, "dateTime": 1693574905900, "trialdata": {"rt": 16656, "response": {"Q0": "No.", "Q1": "No.", "Q2": "It was fun."}, "trial_type": "survey-text", "trial_index": 71, "time_elapsed": 3354883, "internal_node_id": "0.0-6.0-6.0"}}, {"uniqueid": "w98567130:a59013104", "current_trial": 72, "dateTime": 1693574947720, "trialdata": {"rt": 41812, "stimulus": "<h1>Completion Code Instructions (1/2)</h1>\n<br><br><br><br>\nYou have reached the end of the experiment! The completion code consists of two parts: (1) a code with 2 characters (2) a code with 6 characters. On this page, you will receive the second part of the code. The first part of the completion code will be on the next page.\n<br><br>\nThe second part of your completion code is: <b>EWEK22</b>\n<br><br>\nPlease note this down. Then, press 'Finish HIT' in order to find the first part of your completion code. Once the data has been saved, you will receive this code either in this window or in the original browser window where you started the experiment.\n", "response": 0, "trial_type": "html-button-response", "trial_index": 72, "time_elapsed": 3396702, "internal_node_id": "0.0-6.0-7.0"}}, {"uniqueid": "w98567130:a59013104", "current_trial": 73, "dateTime": 1693574948732, "trialdata": {"success": true, "trial_type": "fullscreen", "trial_index": 73, "time_elapsed": 3397714, "internal_node_id": "0.0-7.0"}}], "questiondata": {"params": {"CODE": "C6DMOQA6", "MIN_TIME": 14, "inspectCost": 1, "startTime": "Fri Sep 01 2023 13:32:30 GMT+0100 (British Summer Time)", "bonusRate": 0.002, "variance": "1_2_4_8_44", "branching": "31123"}, "final_score": -511.5}, "eventdata": [{"eventtype": "initialized", "value": null, "timestamp": 1693571550062, "interval": 0}, {"eventtype": "window_resize", "value": [1024, 643], "timestamp": 1693571550062, "interval": 0}, {"eventtype": "window_resize", "value": [1024, 643], "timestamp": 1693571550378, "interval": 316}, {"eventtype": "window_resize", "value": [1366, 768], "timestamp": 1693571554403, "interval": 4025}, {"eventtype": "focus", "value": "off", "timestamp": 1693571946107, "interval": 391704}, {"eventtype": "focus", "value": "on", "timestamp": 1693571946108, "interval": 1}, {"eventtype": "window_resize", "value": [1024, 643], "timestamp": 1693571946331, "interval": 223}, {"eventtype": "window_resize", "value": [1366, 768], "timestamp": 1693571948811, "interval": 2480}, {"eventtype": "focus", "value": "off", "timestamp": 1693573007706, "interval": 1058895}, {"eventtype": "focus", "value": "on", "timestamp": 1693573007707, "interval": 1}, {"eventtype": "window_resize", "value": [1024, 643], "timestamp": 1693573007923, "interval": 216}, {"eventtype": "window_resize", "value": [1366, 768], "timestamp": 1693573012187, "interval": 4264}, {"eventtype": "focus", "value": "off", "timestamp": 1693573564666, "interval": 552479}, {"eventtype": "focus", "value": "on", "timestamp": 1693573564667, "interval": 1}, {"eventtype": "window_resize", "value": [1024, 643], "timestamp": 1693573564883, "interval": 216}, {"eventtype": "window_resize", "value": [1366, 768], "timestamp": 1693573568723, "interval": 3840}, {"eventtype": "window_resize", "value": [1024, 643], "timestamp": 1693574948020, "interval": 1379297}], "useragent": "Mozilla/5.0 (X11; CrOS x86_64 14541.0.0) AppleWebKit/537.36 (KHTML, like Gecko) Chrome/115.0.0.0 Safari/537.36", "mode": "live", "id": "w98567130:a59013104", "status": "user data saved", "Beginhit": "2023-09-01 12:32:31.422893", "Beginexp": "2023-09-01 12:32:37.625524", "Endhit": "2023-09-01 13:29:11.712742", "psiturkStatus": 3, "browser": "<redacted>", "platform": "chromeos", "language": "en-US"}