{"condition": 1, "counterbalance": 0, "assignmentId": "a69866322", "workerId": "w20800015", "hitId": "h42543135", "currenttrial": 29, "bonus": 0, "data": [{"uniqueid": "w20800015:a69866322", "current_trial": 0, "dateTime": 1691070967561, "trialdata": {"success": true, "trial_type": "fullscreen", "trial_index": 0, "time_elapsed": 16562, "internal_node_id": "0.0-0.0"}}, {"uniqueid": "w20800015:a69866322", "current_trial": 1, "dateTime": 1691071001508, "trialdata": {"view_history": [{"page_index": 0, "viewing_time": 33925}], "rt": 33927, "trial_id": "exp_instructions_misaligned", "trial_type": "instructions", "trial_index": 1, "time_elapsed": 50510, "internal_node_id": "0.0-1.0"}}, {"uniqueid": "w20800015:a69866322", "current_trial": 2, "dateTime": 1691071008491, "trialdata": {"success": true, "trial_type": "fullscreen", "trial_index": 2, "time_elapsed": 57493, "internal_node_id": "0.0-2.0-0.0"}}, {"uniqueid": "w20800015:a69866322", "current_trial": 3, "dateTime": 1691071388894, "trialdata": {"view_history": [{"page_index": 0, "viewing_time": 115666}, {"page_index": 1, "viewing_time": 190449}, {"page_index": 2, "viewing_time": 33987}, {"page_index": 3, "viewing_time": 40292}], "rt": 380394, "trial_id": "mouselab_instructions_1_misaligned", "trial_type": "instructions", "trial_index": 3, "time_elapsed": 437896, "internal_node_id": "0.0-2.0-1.0"}}, {"uniqueid": "w20800015:a69866322", "current_trial": 4, "dateTime": 1691071453360, "trialdata": {"revealed_states": [], "clicked_states": [], "num_clicks_accrued": [0, 0, 0, 0, 0, 0, 0, 0, 0, 0, 0, 0, 0], "stateRewards": ["", 10, -10, 10, -10, -10, -10, 10, -10, -10, -10, -10, 10, 10, -10, -10, 10, -10, 10, 10, -10, -10, 10, -10, -10, -10, -10, 10, 10, 10, 10, -10, 10, -10], "withholdReward": false, "trial_id": "practice_1", "block": "test", "trialIndex": 0, "score": 13.5, "costs": 0, "simulationMode": [null, null, null, null, null], "rewards": [10, 10, -10, -10, 10], "path": ["0", "0", "12", "13", "14", "15", "16"], "rt": [231, 5012, 734, 4624, 9542], "actions": ["right", "right", "right", "up", "up"], "actionTimes": [12254, 17831, 19138, 24265, 34316], "queries": {"click": {"state": {"target": [], "time": []}, "edge": {"target": [], "time": []}}, "mouseover": {"state": {"target": [], "time": []}, "edge": {"target": [], "time": []}}, "mouseout": {"state": {"target": ["0", "0", "12", "1", "28", "24"], "time": [10428, 48247, 48348, 48446, 48631, 48652]}, "edge": {"target": [], "time": []}}}, "displayed_time": "34.90", "trialTime": 61963, "trial_type": "mouselab-mdp", "trial_index": 4, "time_elapsed": 502361, "internal_node_id": "0.0-2.0-2.0-0.0"}}, {"uniqueid": "w20800015:a69866322", "current_trial": 5, "dateTime": 1691071483295, "trialdata": {"revealed_states": [], "clicked_states": [], "num_clicks_accrued": [0, 0, 0, 0, 0, 0, 0, 0, 0, 0, 0, 0, 0], "stateRewards": ["", 10, 10, 10, -10, -10, 10, 10, 10, -10, -10, 10, 10, 10, 10, 10, -10, 10, 10, -10, -10, 10, 10, -10, -10, -10, -10, 10, 10, 10, -10, 10, -10, -10], "withholdReward": false, "trial_id": "practice_2", "block": "test", "trialIndex": 1, "score": -26.5, "costs": 0, "simulationMode": [null, null, null, null, null], "rewards": [-10, -10, -10, -10, 10], "path": ["0", "0", "23", "24", "25", "26", "27"], "rt": [1461, 469, 545, 971, 544], "actions": ["left", "left", "left", "up", "up"], "actionTimes": [6563, 7561, 8653, 10163, 11283], "queries": {"click": {"state": {"target": [], "time": []}, "edge": {"target": [], "time": []}}, "mouseover": {"state": {"target": [], "time": []}, "edge": {"target": [], "time": []}}, "mouseout": {"state": {"target": ["16"], "time": [3703]}, "edge": {"target": [], "time": []}}}, "displayed_time": "11.83", "trialTime": 29041, "trial_type": "mouselab-mdp", "trial_index": 5, "time_elapsed": 532296, "internal_node_id": "0.0-2.0-2.0-1.0"}}, {"uniqueid": "w20800015:a69866322", "current_trial": 6, "dateTime": 1691071528913, "trialdata": {"view_history": [{"page_index": 0, "viewing_time": 40390}, {"page_index": 1, "viewing_time": 5220}], "rt": 45611, "trial_id": "mouselab_instructions_2_misaligned", "trial_type": "instructions", "trial_index": 6, "time_elapsed": 577914, "internal_node_id": "0.0-2.0-3.0"}}, {"uniqueid": "w20800015:a69866322", "current_trial": 7, "dateTime": 1691071626758, "trialdata": {"rt": 97815, "response": {"Q0": "The cost for clicking on nodes may vary between nodes.", "Q1": "The better I perform the higher my bonus will be.", "Q2": "No, the amount of cash at each node of the web may be different each time.", "Q3": "To click on the least number of nodes.", "Q4": "Only after moving the spider.", "Q5": "3 seconds"}, "question_order": [0, 1, 2, 3, 4, 5], "correct": {"Q0": "The cost for clicking on nodes may vary between nodes.", "Q1": "The better I perform the higher my bonus will be.", "Q2": "No, the amount of cash at each node of the web may be different each time.", "Q3": "To get the highest total score.", "Q4": "Only before moving the spider.", "Q5": "3 seconds"}, "trial_id": "mouselab_quiz_misaligned", "trial_type": "survey-multi-choice", "trial_index": 7, "time_elapsed": 675760, "internal_node_id": "0.0-2.0-4.0"}}, {"uniqueid": "w20800015:a69866322", "current_trial": 8, "dateTime": 1691071637360, "trialdata": {"success": true, "trial_type": "fullscreen", "trial_index": 8, "time_elapsed": 686362, "internal_node_id": "0.0-2.1-0.1"}}, {"uniqueid": "w20800015:a69866322", "current_trial": 9, "dateTime": 1691071665629, "trialdata": {"view_history": [{"page_index": 0, "viewing_time": 4721}, {"page_index": 1, "viewing_time": 16470}, {"page_index": 2, "viewing_time": 4793}, {"page_index": 3, "viewing_time": 2277}], "rt": 28262, "trial_id": "mouselab_instructions_1_misaligned", "trial_type": "instructions", "trial_index": 9, "time_elapsed": 714631, "internal_node_id": "0.0-2.1-1.1"}}, {"uniqueid": "w20800015:a69866322", "current_trial": 10, "dateTime": 1691071691546, "trialdata": {"revealed_states": [], "clicked_states": [], "num_clicks_accrued": [0, 0, 0, 0, 0, 0, 0, 0, 0, 0, 0, 0, 0], "stateRewards": ["", 10, -10, 10, -10, -10, -10, 10, -10, -10, -10, -10, 10, 10, -10, -10, 10, -10, 10, 10, -10, -10, 10, -10, -10, -10, -10, 10, 10, 10, 10, -10, 10, -10], "withholdReward": false, "trial_id": "practice_1", "block": "test", "trialIndex": 2, "score": -26.5, "costs": 0, "simulationMode": [null, null, null, null, null], "rewards": [-10, -10, -10, 10, -10], "path": ["0", "0", "23", "24", "25", "30", "31"], "rt": [1721, 895, 1006, 892, 816], "actions": ["left", "left", "left", "down", "right"], "actionTimes": [6644, 8070, 9585, 11004, 12345], "queries": {"click": {"state": {"target": [], "time": []}, "edge": {"target": [], "time": []}}, "mouseover": {"state": {"target": ["0"], "time": [5848]}, "edge": {"target": [], "time": []}}, "mouseout": {"state": {"target": ["0", "0"], "time": [3697, 5870]}, "edge": {"target": [], "time": []}}}, "displayed_time": "12.88", "trialTime": 24748, "trial_type": "mouselab-mdp", "trial_index": 10, "time_elapsed": 740548, "internal_node_id": "0.0-2.1-2.1-0.1"}}, {"uniqueid": "w20800015:a69866322", "current_trial": 11, "dateTime": 1691071722437, "trialdata": {"revealed_states": [], "clicked_states": [], "num_clicks_accrued": [0, 0, 0, 0, 0, 0, 0, 0, 0, 0, 0, 0, 0], "stateRewards": ["", 10, 10, 10, -10, -10, 10, 10, 10, -10, -10, 10, 10, 10, 10, 10, -10, 10, 10, -10, -10, 10, 10, -10, -10, -10, -10, 10, 10, 10, -10, 10, -10, -10], "withholdReward": false, "trial_id": "practice_2", "block": "test", "trialIndex": 3, "score": 33.5, "costs": 0, "simulationMode": [null, null, null, null, null], "rewards": [10, 10, 10, -10, 10], "path": ["0", "0", "12", "13", "14", "19", "22"], "rt": [1457, 886, 671, 699, 2579], "actions": ["right", "right", "right", "down", "left"], "actionTimes": [15165, 16583, 17801, 19028, 22135], "queries": {"click": {"state": {"target": [], "time": []}, "edge": {"target": [], "time": []}}, "mouseover": {"state": {"target": [], "time": []}, "edge": {"target": [], "time": []}}, "mouseout": {"state": {"target": ["0"], "time": [12470]}, "edge": {"target": [], "time": []}}}, "displayed_time": "22.68", "trialTime": 29612, "trial_type": "mouselab-mdp", "trial_index": 11, "time_elapsed": 771438, "internal_node_id": "0.0-2.1-2.1-1.1"}}, {"uniqueid": "w20800015:a69866322", "current_trial": 12, "dateTime": 1691071732440, "trialdata": {"view_history": [{"page_index": 0, "viewing_time": 7257}, {"page_index": 1, "viewing_time": 2737}], "rt": 9995, "trial_id": "mouselab_instructions_2_misaligned", "trial_type": "instructions", "trial_index": 12, "time_elapsed": 781442, "internal_node_id": "0.0-2.1-3.1"}}, {"uniqueid": "w20800015:a69866322", "current_trial": 13, "dateTime": 1691071763031, "trialdata": {"rt": 30583, "response": {"Q0": "The cost for clicking on nodes may vary between nodes.", "Q1": "The better I perform the higher my bonus will be.", "Q2": "No, the amount of cash at each node of the web may be different each time.", "Q3": "To click on the least number of nodes.", "Q4": "Only after moving the spider.", "Q5": "3 seconds"}, "question_order": [0, 1, 2, 3, 4, 5], "correct": {"Q0": "The cost for clicking on nodes may vary between nodes.", "Q1": "The better I perform the higher my bonus will be.", "Q2": "No, the amount of cash at each node of the web may be different each time.", "Q3": "To get the highest total score.", "Q4": "Only before moving the spider.", "Q5": "3 seconds"}, "trial_id": "mouselab_quiz_misaligned", "trial_type": "survey-multi-choice", "trial_index": 13, "time_elapsed": 812033, "internal_node_id": "0.0-2.1-4.1"}}, {"uniqueid": "w20800015:a69866322", "current_trial": 14, "dateTime": 1691071769788, "trialdata": {"success": true, "trial_type": "fullscreen", "trial_index": 14, "time_elapsed": 818790, "internal_node_id": "0.0-2.2-0.2"}}, {"uniqueid": "w20800015:a69866322", "current_trial": 15, "dateTime": 1691071799239, "trialdata": {"view_history": [{"page_index": 0, "viewing_time": 7779}, {"page_index": 1, "viewing_time": 3839}, {"page_index": 2, "viewing_time": 16173}, {"page_index": 3, "viewing_time": 1651}], "rt": 29442, "trial_id": "mouselab_instructions_1_misaligned", "trial_type": "instructions", "trial_index": 15, "time_elapsed": 848241, "internal_node_id": "0.0-2.2-1.2"}}, {"uniqueid": "w20800015:a69866322", "current_trial": 16, "dateTime": 1691071812062, "trialdata": {"revealed_states": [], "clicked_states": [], "num_clicks_accrued": [0, 0, 0, 0, 0, 0, 0, 0, 0, 0, 0, 0, 0], "stateRewards": ["", 10, -10, 10, -10, -10, -10, 10, -10, -10, -10, -10, 10, 10, -10, -10, 10, -10, 10, 10, -10, -10, 10, -10, -10, -10, -10, 10, 10, 10, 10, -10, 10, -10], "withholdReward": false, "trial_id": "practice_1", "block": "test", "trialIndex": 4, "score": 13.5, "costs": 0, "simulationMode": [null, null, null, null, null], "rewards": [10, 10, -10, 10, -10], "path": ["0", "0", "12", "13", "14", "19", "20"], "rt": [1002, 420, 341, 626, 535], "actions": ["right", "right", "right", "down", "right"], "actionTimes": [3965, 4941, 5829, 7002, 8076], "queries": {"click": {"state": {"target": [], "time": []}, "edge": {"target": [], "time": []}}, "mouseover": {"state": {"target": [], "time": []}, "edge": {"target": [], "time": []}}, "mouseout": {"state": {"target": [], "time": []}, "edge": {"target": [], "time": []}}}, "displayed_time": "8.59", "trialTime": 11703, "trial_type": "mouselab-mdp", "trial_index": 16, "time_elapsed": 861063, "internal_node_id": "0.0-2.2-2.2-0.2"}}, {"uniqueid": "w20800015:a69866322", "current_trial": 17, "dateTime": 1691071842771, "trialdata": {"revealed_states": [], "clicked_states": [], "num_clicks_accrued": [0, 0, 0, 0, 0, 0, 0, 0, 0, 0, 0, 0, 0], "stateRewards": ["", 10, 10, 10, -10, -10, 10, 10, 10, -10, -10, 10, 10, 10, 10, 10, -10, 10, 10, -10, -10, 10, 10, -10, -10, -10, -10, 10, 10, 10, -10, 10, -10, -10], "withholdReward": false, "trial_id": "practice_2", "block": "test", "trialIndex": 5, "score": 33.5, "costs": 0, "simulationMode": [null, null, null, null, null], "rewards": [10, 10, 10, -10, 10], "path": ["0", "0", "12", "13", "14", "19", "22"], "rt": [1135, 1223, 877, 985, 708], "actions": ["right", "right", "right", "down", "left"], "actionTimes": [18652, 20380, 21768, 23260, 24569], "queries": {"click": {"state": {"target": [], "time": []}, "edge": {"target": [], "time": []}}, "mouseover": {"state": {"target": [], "time": []}, "edge": {"target": [], "time": []}}, "mouseout": {"state": {"target": [], "time": []}, "edge": {"target": [], "time": []}}}, "displayed_time": "25.09", "trialTime": 29534, "trial_type": "mouselab-mdp", "trial_index": 17, "time_elapsed": 891771, "internal_node_id": "0.0-2.2-2.2-1.2"}}, {"uniqueid": "w20800015:a69866322", "current_trial": 18, "dateTime": 1691071849330, "trialdata": {"view_history": [{"page_index": 0, "viewing_time": 4954}, {"page_index": 1, "viewing_time": 1596}], "rt": 6551, "trial_id": "mouselab_instructions_2_misaligned", "trial_type": "instructions", "trial_index": 18, "time_elapsed": 898332, "internal_node_id": "0.0-2.2-3.2"}}, {"uniqueid": "w20800015:a69866322", "current_trial": 19, "dateTime": 1691071896553, "trialdata": {"rt": 47214, "response": {"Q0": "The cost for clicking on nodes may vary between nodes.", "Q1": "The better I perform the higher my bonus will be.", "Q2": "Yes.", "Q3": "To get the highest total score.", "Q4": "Only after moving the spider.", "Q5": "3 seconds"}, "question_order": [0, 1, 2, 3, 4, 5], "correct": {"Q0": "The cost for clicking on nodes may vary between nodes.", "Q1": "The better I perform the higher my bonus will be.", "Q2": "No, the amount of cash at each node of the web may be different each time.", "Q3": "To get the highest total score.", "Q4": "Only before moving the spider.", "Q5": "3 seconds"}, "trial_id": "mouselab_quiz_misaligned", "trial_type": "survey-multi-choice", "trial_index": 19, "time_elapsed": 945555, "internal_node_id": "0.0-2.2-4.2"}}, {"uniqueid": "w20800015:a69866322", "current_trial": 20, "dateTime": 1691071902509, "trialdata": {"success": true, "trial_type": "fullscreen", "trial_index": 20, "time_elapsed": 951510, "internal_node_id": "0.0-2.3-0.3"}}, {"uniqueid": "w20800015:a69866322", "current_trial": 21, "dateTime": 1691071935777, "trialdata": {"view_history": [{"page_index": 0, "viewing_time": 3918}, {"page_index": 1, "viewing_time": 17742}, {"page_index": 2, "viewing_time": 9961}, {"page_index": 3, "viewing_time": 1641}], "rt": 33261, "trial_id": "mouselab_instructions_1_misaligned", "trial_type": "instructions", "trial_index": 21, "time_elapsed": 984779, "internal_node_id": "0.0-2.3-1.3"}}, {"uniqueid": "w20800015:a69866322", "current_trial": 22, "dateTime": 1691071952408, "trialdata": {"revealed_states": [], "clicked_states": [], "num_clicks_accrued": [0, 0, 0, 0, 0, 0, 0, 0, 0, 0, 0, 0, 0], "stateRewards": ["", 10, -10, 10, -10, -10, -10, 10, -10, -10, -10, -10, 10, 10, -10, -10, 10, -10, 10, 10, -10, -10, 10, -10, -10, -10, -10, 10, 10, 10, 10, -10, 10, -10], "withholdReward": false, "trial_id": "practice_1", "block": "test", "trialIndex": 6, "score": 13.5, "costs": 0, "simulationMode": [null, null, null, null, null], "rewards": [10, 10, -10, 10, -10], "path": ["0", "0", "12", "13", "14", "19", "20"], "rt": [839, 1189, 832, 613, 671], "actions": ["right", "right", "right", "down", "right"], "actionTimes": [6523, 8337, 9689, 10820, 11995], "queries": {"click": {"state": {"target": [], "time": []}, "edge": {"target": [], "time": []}}, "mouseover": {"state": {"target": [], "time": []}, "edge": {"target": [], "time": []}}, "mouseout": {"state": {"target": ["0"], "time": [4545]}, "edge": {"target": [], "time": []}}}, "displayed_time": "12.51", "trialTime": 15269, "trial_type": "mouselab-mdp", "trial_index": 22, "time_elapsed": 1001409, "internal_node_id": "0.0-2.3-2.3-0.3"}}, {"uniqueid": "w20800015:a69866322", "current_trial": 23, "dateTime": 1691071963002, "trialdata": {"revealed_states": [], "clicked_states": [], "num_clicks_accrued": [0, 0, 0, 0, 0, 0, 0, 0, 0, 0, 0, 0, 0], "stateRewards": ["", 10, 10, 10, -10, -10, 10, 10, 10, -10, -10, 10, 10, 10, 10, 10, -10, 10, 10, -10, -10, 10, 10, -10, -10, -10, -10, 10, 10, 10, -10, 10, -10, -10], "withholdReward": false, "trial_id": "practice_2", "block": "test", "trialIndex": 7, "score": 33.5, "costs": 0, "simulationMode": [null, null, null, null, null], "rewards": [10, 10, 10, -10, 10], "path": ["0", "0", "12", "13", "14", "19", "22"], "rt": [555, 456, 730, 495, 449], "actions": ["right", "right", "right", "down", "left"], "actionTimes": [2619, 3587, 4828, 5891, 6848], "queries": {"click": {"state": {"target": [], "time": []}, "edge": {"target": [], "time": []}}, "mouseover": {"state": {"target": [], "time": []}, "edge": {"target": [], "time": []}}, "mouseout": {"state": {"target": ["0"], "time": [632]}, "edge": {"target": [], "time": []}}}, "displayed_time": "7.38", "trialTime": 9117, "trial_type": "mouselab-mdp", "trial_index": 23, "time_elapsed": 1012004, "internal_node_id": "0.0-2.3-2.3-1.3"}}, {"uniqueid": "w20800015:a69866322", "current_trial": 24, "dateTime": 1691071994397, "trialdata": {"view_history": [{"page_index": 0, "viewing_time": 4106}, {"page_index": 1, "viewing_time": 15352}, {"page_index": 0, "viewing_time": 10084}, {"page_index": 1, "viewing_time": 1844}], "rt": 31387, "trial_id": "mouselab_instructions_2_misaligned", "trial_type": "instructions", "trial_index": 24, "time_elapsed": 1043399, "internal_node_id": "0.0-2.3-3.3"}}, {"uniqueid": "w20800015:a69866322", "current_trial": 25, "dateTime": 1691072032146, "trialdata": {"rt": 37740, "response": {"Q0": "It is less costly to inspect further nodes.", "Q1": "The better I perform the higher my bonus will be.", "Q2": "Yes.", "Q3": "To get the highest total score.", "Q4": "Only after moving the spider.", "Q5": "3 seconds"}, "question_order": [0, 1, 2, 3, 4, 5], "correct": {"Q0": "The cost for clicking on nodes may vary between nodes.", "Q1": "The better I perform the higher my bonus will be.", "Q2": "No, the amount of cash at each node of the web may be different each time.", "Q3": "To get the highest total score.", "Q4": "Only before moving the spider.", "Q5": "3 seconds"}, "trial_id": "mouselab_quiz_misaligned", "trial_type": "survey-multi-choice", "trial_index": 25, "time_elapsed": 1081148, "internal_node_id": "0.0-2.3-4.3"}}, {"uniqueid": "w20800015:a69866322", "current_trial": 26, "dateTime": 1691072191189, "trialdata": {"rt": 158995, "response": {"Q0": "everything was good... just that I have a problem with my laptop and I will really appreciate if you can give me more studies to complete ", "Q1": "23", "Q2": "female", "Q3": "no", "Q4": "I was enjoying the study... just that my laptop has a screen problem"}, "trial_id": "finish_fail", "trial_type": "survey-text", "trial_index": 26, "time_elapsed": 1240191, "internal_node_id": "0.0-3.0-0.0"}}, {"uniqueid": "w20800015:a69866322", "current_trial": 27, "dateTime": 1691072194489, "trialdata": {"rt": 3288, "stimulus": "Press 'Finish HIT' in order to reach the completion code. Once the data has been saved, you will receive the code either in this window or in the original browser window where you started the experiment.\n", "response": 0, "trial_type": "html-button-response", "trial_index": 27, "time_elapsed": 1243491, "internal_node_id": "0.0-5.0"}}, {"uniqueid": "w20800015:a69866322", "current_trial": 28, "dateTime": 1691072195518, "trialdata": {"success": true, "trial_type": "fullscreen", "trial_index": 28, "time_elapsed": 1244520, "internal_node_id": "0.0-6.0"}}], "questiondata": {"params": {"CODE": "C6DMOQA6", "MIN_TIME": 14, "inspectCost": 1, "startTime": "Thu Aug 03 2023 15:55:48 GMT+0200 (South Africa Standard Time)", "bonusRate": 0.002, "variance": "1_2_4_8_44", "branching": "31123"}, "final_score": 0}, "eventdata": [{"eventtype": "initialized", "value": null, "timestamp": 1691070947806, "interval": 0}, {"eventtype": "window_resize", "value": [1366, 712], "timestamp": 1691070947806, "interval": 0}, {"eventtype": "window_resize", "value": [1366, 712], "timestamp": 1691070948327, "interval": 521}, {"eventtype": "window_resize", "value": [1366, 768], "timestamp": 1691070966846, "interval": 18519}, {"eventtype": "focus", "value": "off", "timestamp": 1691071039070, "interval": 72224}, {"eventtype": "window_resize", "value": [1366, 767], "timestamp": 1691071039293, "interval": 223}, {"eventtype": "window_resize", "value": [1366, 768], "timestamp": 1691071041577, "interval": 2284}, {"eventtype": "focus", "value": "on", "timestamp": 1691071095877, "interval": 54300}, {"eventtype": "focus", "value": "off", "timestamp": 1691071632851, "interval": 536974}, {"eventtype": "focus", "value": "on", "timestamp": 1691071632853, "interval": 2}, {"eventtype": "window_resize", "value": [1366, 712], "timestamp": 1691071633098, "interval": 245}, {"eventtype": "window_resize", "value": [1366, 768], "timestamp": 1691071636614, "interval": 3516}, {"eventtype": "focus", "value": "off", "timestamp": 1691071767220, "interval": 130606}, {"eventtype": "focus", "value": "on", "timestamp": 1691071767221, "interval": 1}, {"eventtype": "window_resize", "value": [1366, 712], "timestamp": 1691071767438, "interval": 217}, {"eventtype": "window_resize", "value": [1366, 768], "timestamp": 1691071769011, "interval": 1573}, {"eventtype": "focus", "value": "off", "timestamp": 1691071900026, "interval": 131015}, {"eventtype": "focus", "value": "on", "timestamp": 1691071900027, "interval": 1}, {"eventtype": "window_resize", "value": [1366, 712], "timestamp": 1691071900246, "interval": 219}, {"eventtype": "window_resize", "value": [1366, 768], "timestamp": 1691071901787, "interval": 1541}, {"eventtype": "window_resize", "value": [1366, 712], "timestamp": 1691072194784, "interval": 292997}], "useragent": "Mozilla/5.0 (Windows NT 10.0; Win64; x64) AppleWebKit/537.36 (KHTML, like Gecko) Chrome/114.0.0.0 Safari/537.36 Edg/114.0.1823.67", "mode": "live", "id": "w20800015:a69866322", "status": "user data saved", "Beginhit": "2023-08-03 13:55:38.030171", "Beginexp": "2023-08-03 13:56:07.794217", "Endhit": "2023-08-03 14:16:36.737915", "psiturkStatus": 3, "browser": "<redacted>", "platform": "windows", "language": "en-US", "excludeReason": "quizfail"}