{"condition": 1, "counterbalance": 0, "assignmentId": "a84747141", "workerId": "w57646196", "hitId": "h98784430", "currenttrial": 56, "bonus": 0, "data": [{"uniqueid": "w57646196:a84747141", "current_trial": 0, "dateTime": 1693834603113, "trialdata": {"success": true, "trial_type": "fullscreen", "trial_index": 0, "time_elapsed": 2283, "internal_node_id": "0.0-0.0"}}, {"uniqueid": "w57646196:a84747141", "current_trial": 1, "dateTime": 1693834624587, "trialdata": {"view_history": [{"page_index": 0, "viewing_time": 21472}], "rt": 21472, "trial_id": "exp_instructions_misaligned", "trial_type": "instructions", "trial_index": 1, "time_elapsed": 23757, "internal_node_id": "0.0-1.0"}}, {"uniqueid": "w57646196:a84747141", "current_trial": 2, "dateTime": 1693834805610, "trialdata": {"view_history": [{"page_index": 0, "viewing_time": 54822}, {"page_index": 1, "viewing_time": 55558}, {"page_index": 2, "viewing_time": 49170}, {"page_index": 3, "viewing_time": 21470}], "rt": 181020, "trial_id": "mouselab_instructions_1_misaligned", "trial_type": "instructions", "trial_index": 2, "time_elapsed": 204780, "internal_node_id": "0.0-2.0-1.0"}}, {"uniqueid": "w57646196:a84747141", "current_trial": 3, "dateTime": 1693834839761, "trialdata": {"revealed_states": [], "clicked_states": ["3", "14", "26", "23"], "num_clicks_accrued": [0, 0, 0, 0, 0, 0, 0, 0, 0, 0, 0, 0, 0], "stateRewards": ["", 10, 10, 10, -10, 10, 10, -10, -10, -10, 10, -10, 10, -10, -10, 10, 10, -10, 10, 10, -10, 10, 10, -10, -10, 10, 10, -10, -10, -10, 10, 10, 10, -10], "withholdReward": false, "trial_id": "practice_1", "block": "test", "trialIndex": 0, "score": 31.5, "costs": -2, "simulationMode": [null, null, null, null, null], "rewards": [10, 10, 10, -10, 10], "path": ["0", "0", "1", "2", "3", "4", "5"], "rt": [14545, 826, 302, 26, 7685], "actions": ["up", "up", "up", "right", "up"], "actionTimes": [15748, 17092, 17900, 18440, 26649], "queries": {"click": {"state": {"target": ["3", "14", "26", "23"], "time": [3059, 5601, 7828, 11909]}, "edge": {"target": [], "time": []}}, "mouseover": {"state": {"target": ["1", "2", "3", "15", "14", "19", "14", "13", "12", "25", "25", "26", "25", "30", "30", "25", "28", "8", "8", "28", "25", "25", "24", "23"], "time": [2163, 2380, 2680, 3897, 4098, 4514, 4713, 6347, 6480, 6947, 7330, 7396, 8647, 8730, 8981, 9147, 9196, 9247, 9713, 9813, 9863, 11396, 11447, 11497]}, "edge": {"target": [], "time": []}}, "mouseout": {"state": {"target": ["0", "1", "10", "11", "11", "10", "1", "2", "3", "15", "14", "19", "14", "13", "12", "25", "25", "26", "25", "30", "30", "25", "28", "8", "8", "28", "25", "25", "24", "23", "23", "1", "26", "29", "26", "10", "2", "6", "6", "12"], "time": [null, null, null, null, 80, 113, 2230, 2630, 3713, 4013, 4447, 4663, 6263, 6430, 6530, 7030, 7363, 8597, 8697, 8797, 9097, 9163, 9213, 9280, 9763, 9830, 9930, 11430, 11480, 12280, 12997, 22964, 23396, 24730, 25014, 25463, 29730, 29780, 29947, 30247]}, "edge": {"target": [], "time": []}}}, "displayed_time": "27.18", "trialTime": 33330, "trial_type": "mouselab-mdp", "trial_index": 3, "time_elapsed": 238930, "internal_node_id": "0.0-2.0-2.0-0.0"}}, {"uniqueid": "w57646196:a84747141", "current_trial": 4, "dateTime": 1693834866246, "trialdata": {"revealed_states": [], "clicked_states": ["32", "29", "9", "5", "16", "17"], "num_clicks_accrued": [0, 0, 0, 0, 0, 0, 0, 0, 0, 0, 0, 0, 0], "stateRewards": ["", 10, 10, 10, -10, 10, -10, -10, -10, -10, 10, 10, -10, -10, -10, 10, 10, 10, 10, -10, 10, -10, 10, -10, -10, 10, 10, 10, -10, -10, 10, 10, -10, -10], "withholdReward": false, "trial_id": "practice_2", "block": "test", "trialIndex": 1, "score": -29.5, "costs": -3, "simulationMode": [null, null, null, null, null], "rewards": [-10, -10, -10, -10, 10], "path": ["0", "0", "12", "13", "14", "19", "20"], "rt": [15838, 95, 224, 1548, 858], "actions": ["right", "right", "right", "down", "right"], "actionTimes": [17301, 17929, 18659, 20716, 22109], "queries": {"click": {"state": {"target": ["32", "29", "9", "5", "16", "17"], "time": [2679, 4795, 7075, 8682, 11639, 13823]}, "edge": {"target": [], "time": []}}, "mouseover": {"state": {"target": ["0", "23", "31", "30", "32", "29", "8", "9", "5", "16", "17", "16", "17", "20"], "time": [1749, 1782, 1832, 1866, 2350, 4565, 6232, 6883, 7749, 9683, 10716, 11249, 12366, 15816]}, "edge": {"target": [], "time": []}}, "mouseout": {"state": {"target": ["0", "0", "23", "31", "30", "32", "29", "8", "9", "5", "16", "17", "16", "17", "20", "17", "16"], "time": [1232, 1766, 1799, 1849, 1882, 2780, 6149, 6249, 7499, 8999, 10132, 11099, 12232, 14116, 24482, 24899, 24915]}, "edge": {"target": [], "time": []}}}, "displayed_time": "22.62", "trialTime": 26385, "trial_type": "mouselab-mdp", "trial_index": 4, "time_elapsed": 265416, "internal_node_id": "0.0-2.0-2.0-1.0"}}, {"uniqueid": "w57646196:a84747141", "current_trial": 5, "dateTime": 1693834890605, "trialdata": {"view_history": [{"page_index": 0, "viewing_time": 18622}, {"page_index": 1, "viewing_time": 5734}], "rt": 24357, "trial_id": "mouselab_instructions_2_misaligned", "trial_type": "instructions", "trial_index": 5, "time_elapsed": 289775, "internal_node_id": "0.0-2.0-3.0"}}, {"uniqueid": "w57646196:a84747141", "current_trial": 6, "dateTime": 1693834931176, "trialdata": {"rt": 40567, "response": {"Q0": "The cost for clicking on nodes may vary between nodes.", "Q1": "The better I perform the higher my bonus will be.", "Q2": "No, the amount of cash at each node of the web may be different each time.", "Q3": "To get the highest total score.", "Q4": "Only before moving the spider.", "Q5": "3 seconds"}, "question_order": [0, 1, 2, 3, 4, 5], "correct": {"Q0": "The cost for clicking on nodes may vary between nodes.", "Q1": "The better I perform the higher my bonus will be.", "Q2": "No, the amount of cash at each node of the web may be different each time.", "Q3": "To get the highest total score.", "Q4": "Only before moving the spider.", "Q5": "3 seconds"}, "trial_id": "mouselab_quiz_misaligned", "trial_type": "survey-multi-choice", "trial_index": 6, "time_elapsed": 330346, "internal_node_id": "0.0-2.0-4.0"}}, {"uniqueid": "w57646196:a84747141", "current_trial": 7, "dateTime": 1693834936027, "trialdata": {"rt": 4847, "response": {"Q0": "No"}, "question_order": [0], "trial_id": "repeat_check", "trial_type": "survey-multi-choice", "trial_index": 7, "time_elapsed": 335197, "internal_node_id": "0.0-4.0-0.0"}}, {"uniqueid": "w57646196:a84747141", "current_trial": 8, "dateTime": 1693834944479, "trialdata": {"rt": 8449, "stimulus": "\n<h1> Get ready to start the game! </h1>\n\nThank you for reading the instructions. Get ready start with the 40 rounds of this game.\n<br><br>\nIf you need to take a break, feel free to take one after the end of a round, before continuing to the next one.\n<br><br>\nRemember, the more money the spider gets, the bigger your bonus will be!\n<br><br>\n<div style='text-align: center;'>Press <code>space</code> to begin.</div>\n\n<br><br>\n(If, at any point, the <code>space</code> key does not take you to the next page, click once on the text and try again.)", "response": " ", "trial_id": "mdp_ready", "trial_type": "html-keyboard-response", "trial_index": 8, "time_elapsed": 343649, "internal_node_id": "0.0-6.0-0.0"}}, {"uniqueid": "w57646196:a84747141", "current_trial": 9, "dateTime": 1693834982093, "trialdata": {"revealed_states": [], "clicked_states": ["9", "21", "32", "29", "33", "17", "16", "18"], "num_clicks_accrued": [0, 0, 0, 0, 0, 0, 0, 0, 0, 0, 0, 0, 0], "stateRewards": ["", -2, 1, -7, 9, 8, 25, 61, -7, -17, 69, -81, 1, 4, -4, -11, 16, 67, 44, 3, 6, -45, -54, -2, 3, 6, -11, -15, 32, -47, 3, -39, -6, -88], "withholdReward": false, "trial_id": "mdp_trial_1", "block": "test", "trialIndex": 2, "score": 39.8, "costs": -17.2, "simulationMode": [null, null, null, null, null], "rewards": [1, 4, -4, -11, 67], "path": ["0", "0", "12", "13", "14", "15", "17"], "rt": [29525, 31, 15, 145, 721], "actions": ["right", "right", "right", "up", "right"], "actionTimes": [31017, 31560, 32110, 32773, 34015], "queries": {"click": {"state": {"target": ["9", "21", "32", "29", "33", "17", "16", "18"], "time": [2190, 6163, 9390, 12530, 15657, 18784, 22698, 26401]}, "edge": {"target": [], "time": []}}, "mouseover": {"state": {"target": ["1", "8", "9", "3", "2", "22", "21", "32", "30", "25", "26", "29", "33", "30", "24", "6", "24", "33", "33", "30", "0", "12", "13", "14", "17", "15", "16", "16", "6", "5", "5", "4", "6", "16", "18", "13", "14", "18", "13", "0"], "time": [1593, 1676, 1959, 2443, 2460, 2543, 2843, 6893, 9826, 9859, 9893, 10177, 12909, 13126, 13143, 13510, 13609, 13659, 14060, 15910, 15959, 15977, 15994, 16010, 16376, 19510, 20043, 20376, 20826, 21126, 21976, 22276, 22343, 22426, 23293, 23459, 23526, 24393, 27443, 28309]}, "edge": {"target": [], "time": []}}, "mouseout": {"state": {"target": ["27", "24", "23", "0", "1", "8", "9", "3", "2", "22", "21", "32", "30", "25", "26", "29", "33", "30", "24", "6", "24", "33", "33", "30", "0", "12", "13", "14", "17", "17", "15", "16", "16", "6", "5", "5", "4", "6", "16", "18", "13", "14", "18", "13", "0", "0", "12", "13", "21"], "time": [776, 826, 909, 1543, 1626, 1759, 2426, 2460, 2476, 2576, 6226, 9776, 9843, 9876, 9909, 12826, 13010, 13143, 13159, 13526, 13626, 13693, 15893, 15926, 15976, 15993, 16009, 16026, 18842, 19310, 19526, 20109, 20476, 20943, 21193, 22093, 22293, 22376, 23243, 23410, 23493, 24126, 27093, 27743, 28460, 33943, 33976, 34010, 35993]}, "edge": {"target": [], "time": []}}}, "displayed_time": "34.53", "trialTime": 37509, "trial_type": "mouselab-mdp", "trial_index": 9, "time_elapsed": 381263, "internal_node_id": "0.0-6.0-1.0-0.0"}}, {"uniqueid": "w57646196:a84747141", "current_trial": 10, "dateTime": 1693835010083, "trialdata": {"revealed_states": [], "clicked_states": ["7", "5", "6", "14", "17", "16"], "num_clicks_accrued": [0, 0, 0, 0, 0, 0, 0, 0, 0, 0, 0, 0, 0], "stateRewards": ["", -2, 4, -5, -12, 85, -24, -18, -15, -78, -22, 26, -1, -1, 2, 14, -45, 52, -23, 7, -33, 24, -6, -2, -4, 5, -7, -16, 36, -39, 5, 71, -87, -23], "withholdReward": false, "trial_id": "mdp_trial_2", "block": "test", "trialIndex": 3, "score": 58.3, "costs": -11.7, "simulationMode": [null, null, null, null, null], "rewards": [-2, 4, -5, -12, 85], "path": ["0", "0", "1", "2", "3", "4", "5"], "rt": [22194, 168, 159, 12, 70], "actions": ["up", "up", "up", "right", "up"], "actionTimes": [23469, 24155, 24847, 25367, 25941], "queries": {"click": {"state": {"target": ["7", "5", "6", "14", "17", "16"], "time": [2653, 7489, 10991, 14741, 15823, 19183]}, "edge": {"target": [], "time": []}}, "mouseover": {"state": {"target": ["1", "2", "3", "5", "5", "4", "7", "7", "5", "5", "5", "6", "4", "3", "8", "8", "3", "4", "16", "15", "14", "20", "17", "16", "20", "4"], "time": [1569, 1587, 1619, 1802, 1953, 2219, 2253, 2486, 3519, 7036, 7303, 10035, 11385, 11436, 11485, 11736, 11819, 11869, 11985, 12436, 12669, 15335, 15602, 18403, 21335, 22535]}, "edge": {"target": [], "time": []}}, "mouseout": {"state": {"target": ["1", "23", "0", "1", "2", "3", "5", "5", "4", "7", "7", "5", "5", "5", "6", "4", "3", "8", "8", "3", "4", "6", "16", "15", "14", "20", "17", "16", "16", "17", "20", "4", "5", "5", "13", "22"], "time": [419, 802, 1520, 1586, 1602, 1652, 1836, 2203, 2252, 2303, 3169, 5302, 7085, 8152, 11352, 11419, 11469, 11535, 11802, 11852, 11885, 11919, 12152, 12452, 15252, 15419, 18035, 19248, 20902, 21002, 22436, 22569, 24903, 25052, 26935, 26952]}, "edge": {"target": [], "time": []}}}, "displayed_time": "26.45", "trialTime": 27893, "trial_type": "mouselab-mdp", "trial_index": 10, "time_elapsed": 409253, "internal_node_id": "0.0-6.0-1.0-1.0"}}, {"uniqueid": "w57646196:a84747141", "current_trial": 11, "dateTime": 1693835045675, "trialdata": {"revealed_states": [], "clicked_states": ["33", "27", "11", "9", "20", "21", "14"], "num_clicks_accrued": [0, 0, 0, 0, 0, 0, 0, 0, 0, 0, 0, 0, 0], "stateRewards": ["", -2, 1, -3, -16, -39, -52, 30, -7, -41, -59, 11, 2, 1, 8, 2, -11, -26, -42, -13, 87, -59, -48, -1, -1, -1, 16, -79, 31, 50, -1, -84, 34, -82], "withholdReward": false, "trial_id": "mdp_trial_3", "block": "test", "trialIndex": 4, "score": 71.15, "costs": -13.85, "simulationMode": [null, null, null, null, null], "rewards": [2, 1, 8, -13, 87], "path": ["0", "0", "12", "13", "14", "19", "20"], "rt": [26840, 44, 579, 102, 75], "actions": ["right", "right", "right", "down", "right"], "actionTimes": [30611, 31164, 32250, 32856, 33462], "queries": {"click": {"state": {"target": ["33", "27", "11", "9", "20", "21", "14"], "time": [4661, 8137, 11566, 16213, 20051, 23469, 28722]}, "edge": {"target": [], "time": []}}, "mouseover": {"state": {"target": ["23", "30", "33", "32", "27", "29", "27", "28", "23", "0", "22", "0", "11", "11", "9", "5", "5", "9", "22", "19", "14", "17", "20", "21", "19", "22", "14", "20"], "time": [4001, 4251, 4468, 5219, 5985, 7668, 8001, 9118, 9168, 9202, 9285, 9652, 10401, 11403, 15102, 15385, 15518, 15718, 17769, 18869, 19236, 19368, 19685, 20985, 27002, 27202, 28386, 29085]}, "edge": {"target": [], "time": []}}, "mouseout": {"state": {"target": ["1", "10", "27", "28", "23", "28", "28", "23", "30", "33", "32", "27", "29", "27", "28", "23", "0", "22", "0", "11", "27", "11", "9", "5", "5", "9", "22", "19", "14", "17", "20", "20", "21", "20", "19", "22", "14", "20", "19", "22"], "time": [401, 434, 984, 1084, 1251, 2318, 3201, 4051, 4335, 5018, 5486, 7518, 7935, 8205, 9151, 9201, 9218, 9318, 9669, 10818, 11235, 14868, 15185, 15451, 15635, 16271, 18119, 19068, 19252, 19418, 20117, 20885, 24835, 24918, 27118, 27651, 28985, 29118, 34635, 34668]}, "edge": {"target": [], "time": []}}}, "displayed_time": "33.97", "trialTime": 35500, "trial_type": "mouselab-mdp", "trial_index": 11, "time_elapsed": 444844, "internal_node_id": "0.0-6.0-1.0-2.0"}}, {"uniqueid": "w57646196:a84747141", "current_trial": 12, "dateTime": 1693835067693, "trialdata": {"revealed_states": [], "clicked_states": ["5", "9", "6"], "num_clicks_accrued": [0, 0, 0, 0, 0, 0, 0, 0, 0, 0, 0, 0, 0], "stateRewards": ["", -2, 3, 3, -14, 62, 36, 49, 16, 11, 17, -84, 2, -1, 6, 2, -82, -73, 49, -6, -87, 48, 50, -1, -2, -1, -16, -11, 37, -44, 4, 55, 73, -10], "withholdReward": false, "trial_id": "mdp_trial_4", "block": "test", "trialIndex": 5, "score": 45.55, "costs": -6.449999999999999, "simulationMode": [null, null, null, null, null], "rewards": [-2, 3, 3, -14, 62], "path": ["0", "0", "1", "2", "3", "4", "5"], "rt": [14901, 44, 494, 46, 68], "actions": ["up", "up", "up", "right", "up"], "actionTimes": [17184, 17737, 18738, 19290, 19862], "queries": {"click": {"state": {"target": ["5", "9", "6"], "time": [3020, 7062, 10424]}, "edge": {"target": [], "time": []}}, "mouseover": {"state": {"target": ["1", "2", "3", "5", "9", "4", "6", "6", "16", "17"], "time": [2409, 2442, 2476, 2760, 4976, 7859, 7942, 9509, 15727, 16142]}, "edge": {"target": [], "time": []}}, "mouseout": {"state": {"target": ["23", "28", "10", "2", "0", "1", "2", "3", "5", "5", "9", "9", "4", "6", "6", "16", "17", "17", "13", "12", "0"], "time": [425, 592, 809, 875, 2393, 2426, 2459, 2543, 4160, 4809, 7156, 7742, 7892, 8177, 15326, 16042, 17909, 20509, 20626, 20692, 20910]}, "edge": {"target": [], "time": []}}}, "displayed_time": "20.39", "trialTime": 21925, "trial_type": "mouselab-mdp", "trial_index": 12, "time_elapsed": 466862, "internal_node_id": "0.0-6.0-1.0-3.0"}}, {"uniqueid": "w57646196:a84747141", "current_trial": 13, "dateTime": 1693835101561, "trialdata": {"revealed_states": [], "clicked_states": ["29", "33", "27", "9", "5", "17", "21"], "num_clicks_accrued": [0, 0, 0, 0, 0, 0, 0, 0, 0, 0, 0, 0, 0], "stateRewards": ["", 1, 4, -8, -13, -13, -87, -77, -10, -44, 54, 42, 2, -3, -4, 12, -9, -80, 52, 9, 84, -2, -65, 1, -4, -5, -6, 8, 80, 32, 13, -59, -5, -13], "withholdReward": false, "trial_id": "mdp_trial_5", "block": "test", "trialIndex": 6, "score": -72.05, "costs": -15.05, "simulationMode": [null, null, null, null, null], "rewards": [1, 4, -8, -10, -44], "path": ["0", "0", "1", "2", "3", "8", "9"], "rt": [27897, 101, 86, 17, 36], "actions": ["up", "up", "up", "left", "up"], "actionTimes": [29281, 29894, 30495, 31026, 31595], "queries": {"click": {"state": {"target": ["29", "33", "27", "9", "5", "17", "21"], "time": [2409, 5834, 9297, 12693, 16031, 20070, 23905]}, "edge": {"target": [], "time": []}}, "mouseover": {"state": {"target": ["23", "24", "29", "33", "27", "10", "13", "7", "3", "9", "5", "5", "16", "15", "16", "17", "20", "21"], "time": [1673, 1707, 2157, 3107, 8140, 9990, 11324, 11590, 11673, 12490, 14090, 14541, 16890, 17007, 17307, 19890, 20907, 21723]}, "edge": {"target": [], "time": []}}, "mouseout": {"state": {"target": ["23", "28", "27", "27", "26", "24", "0", "23", "24", "29", "33", "27", "27", "10", "13", "7", "3", "9", "5", "5", "16", "15", "16", "17", "20", "21"], "time": [423, 456, 523, 706, 756, 806, 990, 1707, 1723, 2973, 7474, 9378, 9757, 10057, 11507, 11607, 11690, 12752, 14140, 16640, 16957, 17190, 19673, 20658, 21023, 32857]}, "edge": {"target": [], "time": []}}}, "displayed_time": "32.11", "trialTime": 33774, "trial_type": "mouselab-mdp", "trial_index": 13, "time_elapsed": 500731, "internal_node_id": "0.0-6.0-1.0-4.0"}}, {"uniqueid": "w57646196:a84747141", "current_trial": 14, "dateTime": 1693835137385, "trialdata": {"revealed_states": [], "clicked_states": ["33", "29", "17", "20", "5", "9", "10"], "num_clicks_accrued": [0, 0, 0, 0, 0, 0, 0, 0, 0, 0, 0, 0, 0], "stateRewards": ["", 2, 4, -6, -13, -75, -81, 30, 7, 5, 59, -65, -1, -1, 7, 14, -38, 36, -41, 1, -54, -5, 64, 2, -1, 5, 6, -19, 79, 11, 16, -33, -50, 58], "withholdReward": false, "trial_id": "mdp_trial_6", "block": "test", "trialIndex": 7, "score": 50.95, "costs": -15.05, "simulationMode": [null, null, null, null, null], "rewards": [2, 4, -6, 7, 59], "path": ["0", "0", "1", "2", "3", "8", "10"], "rt": [29691, 64, 475, 16, 115], "actions": ["up", "up", "up", "left", "down"], "actionTimes": [31179, 31753, 32732, 33272, 33905], "queries": {"click": {"state": {"target": ["33", "29", "17", "20", "5", "9", "10"], "time": [2502, 6344, 9816, 13107, 16420, 19564, 24228]}, "edge": {"target": [], "time": []}}, "mouseover": {"state": {"target": ["23", "24", "25", "33", "33", "25", "27", "29", "3", "4", "6", "17", "14", "13", "29", "25", "24", "18", "17", "20", "20", "5", "9", "9", "9", "4", "18", "2", "10", "3"], "time": [1856, 1905, 1939, 2039, 2140, 2905, 3172, 3255, 4805, 4871, 5355, 5555, 5705, 5722, 6071, 8888, 8906, 9005, 9605, 10171, 10388, 14456, 16805, 17089, 17455, 20271, 22771, 22955, 23007, 29621]}, "edge": {"target": [], "time": []}}, "mouseout": {"state": {"target": ["26", "23", "24", "25", "33", "33", "25", "27", "29", "3", "4", "6", "17", "14", "13", "29", "33", "25", "24", "18", "17", "20", "20", "17", "5", "9", "9", "9", "4", "18", "2", "10", "3", "4", "16"], "time": [505, 1889, 1922, 1972, 2089, 2839, 2922, 3206, 4622, 4838, 4888, 5421, 5571, 5722, 5738, 6838, 7371, 8905, 8922, 9021, 10105, 10188, 13988, 14038, 16466, 16855, 17272, 20172, 20288, 22838, 22971, 24318, 31888, 31946, 34971]}, "edge": {"target": [], "time": []}}}, "displayed_time": "34.42", "trialTime": 35730, "trial_type": "mouselab-mdp", "trial_index": 14, "time_elapsed": 536555, "internal_node_id": "0.0-6.0-1.0-5.0"}}, {"uniqueid": "w57646196:a84747141", "current_trial": 15, "dateTime": 1693835168047, "trialdata": {"revealed_states": [], "clicked_states": ["10", "29", "33", "18"], "num_clicks_accrued": [0, 0, 0, 0, 0, 0, 0, 0, 0, 0, 0, 0, 0], "stateRewards": ["", 1, -1, 1, 13, 31, -56, 72, 2, 41, 5, 63, -2, -3, -2, 3, -71, -26, 52, 13, -31, 24, -67, 2, -2, 5, 4, 66, 43, 72, 9, 86, -26, 44], "withholdReward": false, "trial_id": "mdp_trial_7", "block": "test", "trialIndex": 8, "score": 72.4, "costs": -8.6, "simulationMode": [null, null, null, null, null], "rewards": [2, -2, 5, 4, 72], "path": ["0", "0", "23", "24", "25", "26", "29"], "rt": [24139, 480, 132, 77, 547], "actions": ["left", "left", "left", "up", "left"], "actionTimes": [25456, 26441, 27092, 27687, 28740], "queries": {"click": {"state": {"target": ["10", "29", "33", "18"], "time": [2161, 6949, 10487, 15380]}, "edge": {"target": [], "time": []}}, "mouseover": {"state": {"target": ["10", "23", "31", "26", "29", "33", "24", "23", "12", "13", "15", "7", "18", "13", "31", "30", "33", "29", "22", "19", "22", "19", "20", "19"], "time": [1992, 2592, 3175, 6458, 6675, 8525, 13775, 13808, 13858, 13925, 13991, 14725, 15191, 16476, 17475, 17508, 17741, 18008, 20575, 20742, 21075, 21692, 21775, 22641]}, "edge": {"target": [], "time": []}}, "mouseout": {"state": {"target": ["22", "10", "23", "31", "26", "29", "29", "33", "24", "23", "12", "13", "15", "7", "18", "13", "31", "30", "33", "29", "22", "19", "22", "19", "20", "19", "12", "0", "28"], "time": [358, 2492, 2658, 6008, 6526, 7038, 7758, 13658, 13791, 13825, 13892, 13958, 14042, 14941, 16308, 16675, 17491, 17558, 17842, 18291, 20641, 20991, 21658, 21741, 22591, 22776, 26858, 26908, 27041]}, "edge": {"target": [], "time": []}}}, "displayed_time": "29.24", "trialTime": 30562, "trial_type": "mouselab-mdp", "trial_index": 15, "time_elapsed": 567216, "internal_node_id": "0.0-6.0-1.0-6.0"}}, {"uniqueid": "w57646196:a84747141", "current_trial": 16, "dateTime": 1693835210959, "trialdata": {"revealed_states": [], "clicked_states": ["9", "29", "17", "20", "33", "5", "6", "11", "27", "32"], "num_clicks_accrued": [0, 0, 0, 0, 0, 0, 0, 0, 0, 0, 0, 0, 0], "stateRewards": ["", 2, 4, 7, 7, -79, -2, -21, -5, -53, 47, -21, 1, -3, -1, 7, 83, 7, 84, -7, 80, -37, 69, 2, -4, 5, 2, 4, -20, -30, 7, 71, 44, -81], "withholdReward": false, "trial_id": "mdp_trial_8", "block": "test", "trialIndex": 9, "score": 48.5, "costs": -21.499999999999996, "simulationMode": [null, null, null, null, null], "rewards": [1, -3, -1, -7, 80], "path": ["0", "0", "12", "13", "14", "19", "20"], "rt": [37242, 75, 86, 75, 157], "actions": ["right", "right", "right", "down", "right"], "actionTimes": [38283, 38871, 39465, 40054, 40736], "queries": {"click": {"state": {"target": ["9", "29", "17", "20", "33", "5", "6", "11", "27", "32"], "time": [1919, 7336, 10929, 14696, 18193, 21730, 24906, 28050, 31831, 35100]}, "edge": {"target": [], "time": []}}, "mouseover": {"state": {"target": ["1", "2", "9", "3", "4", "5", "8", "11", "27", "29", "26", "28", "1", "18", "18", "15", "17", "20", "20", "19", "31", "30", "33", "26", "11", "9", "5", "5", "6", "4", "3", "8", "11", "11", "2", "18", "14", "18", "27", "27", "26", "25", "32", "21", "20"], "time": [1310, 1377, 1610, 5894, 5977, 6195, 6510, 6544, 6610, 6860, 7760, 7810, 7894, 7977, 8494, 10577, 10727, 12178, 13444, 14977, 15610, 15644, 16277, 18694, 18760, 18794, 19127, 19344, 22461, 25227, 25277, 25310, 25360, 25710, 28560, 28677, 28861, 31079, 31227, 31560, 32210, 32228, 33661, 35527, 35777]}, "edge": {"target": [], "time": []}}, "mouseout": {"state": {"target": ["28", "0", "1", "2", "9", "3", "4", "5", "8", "11", "27", "29", "26", "28", "1", "18", "18", "15", "17", "20", "20", "19", "31", "30", "33", "26", "11", "9", "5", "5", "5", "6", "4", "3", "8", "11", "11", "2", "18", "14", "18", "27", "27", "26", "25", "32", "21", "20", "19"], "time": [410, 1228, 1360, 1410, 4427, 5927, 6011, 6444, 6527, 6560, 6694, 7727, 7794, 7827, 7911, 8044, 10527, 10660, 11277, 12627, 14944, 14994, 15627, 15677, 18561, 18710, 18777, 18810, 19144, 21805, 22077, 25194, 25260, 25294, 25344, 25494, 28477, 28594, 28727, 30061, 31128, 31244, 32194, 32227, 32244, 35159, 35560, 42462, 42527]}, "edge": {"target": [], "time": []}}}, "displayed_time": "41.26", "trialTime": 42809, "trial_type": "mouselab-mdp", "trial_index": 16, "time_elapsed": 610129, "internal_node_id": "0.0-6.0-1.0-7.0"}}, {"uniqueid": "w57646196:a84747141", "current_trial": 17, "dateTime": 1693835304860, "trialdata": {"revealed_states": [], "clicked_states": [], "num_clicks_accrued": [0, 0, 0, 0, 0, 0, 0, 0, 0, 0, 0, 0, 0], "stateRewards": ["", -2, 1, -7, -8, -37, -76, -87, 11, 30, -63, 80, -1, 4, 2, -1, 42, 17, 52, -3, -75, -80, -68, 2, -3, -5, -15, -48, 82, 24, -7, 5, -22, -71], "withholdReward": false, "trial_id": "mdp_trial_9", "block": "test", "trialIndex": 10, "score": -73, "costs": 0, "simulationMode": [null, null, null, null, null], "rewards": [-1, 4, 2, -3, -75], "path": ["0", "0", "12", "13", "14", "19", "20"], "rt": [9331, 170, 62, 36, 205], "actions": ["right", "right", "right", "down", "right"], "actionTimes": [82680, 83359, 83934, 84475, 85211], "queries": {"click": {"state": {"target": [], "time": []}, "edge": {"target": [], "time": []}}, "mouseover": {"state": {"target": ["1", "0", "1", "2", "3", "5", "5", "1", "13", "17", "14", "22", "22"], "time": [74218, 74385, 76304, 76354, 76387, 76620, 77604, 79537, 79954, 80120, 80904, 80954, 81038]}, "edge": {"target": [], "time": []}}, "mouseout": {"state": {"target": ["23", "10", "31", "18", "1", "0", "1", "2", "3", "5", "5", "1", "13", "17", "14", "22", "22"], "time": [384, 5218, 5285, 71068, 74285, 74552, 76337, 76370, 76404, 77004, 79487, 79570, 79987, 80854, 80921, 81037, 81054]}, "edge": {"target": [], "time": []}}}, "displayed_time": "87.35", "trialTime": 93801, "trial_type": "mouselab-mdp", "trial_index": 17, "time_elapsed": 704030, "internal_node_id": "0.0-6.0-1.0-8.0"}}, {"uniqueid": "w57646196:a84747141", "current_trial": 18, "dateTime": 1693835336424, "trialdata": {"revealed_states": [], "clicked_states": ["5", "9", "29", "33", "20", "17", "16"], "num_clicks_accrued": [0, 0, 0, 0, 0, 0, 0, 0, 0, 0, 0, 0, 0], "stateRewards": ["", -1, 1, 8, -3, -24, 11, -65, -6, -77, 48, 44, -2, 1, -2, -7, -55, -35, 33, 8, -28, 19, -53, -1, -1, -5, -5, -70, 10, 44, 8, -58, -70, 51], "withholdReward": false, "trial_id": "mdp_trial_10", "block": "test", "trialIndex": 11, "score": 36.95, "costs": -15.05, "simulationMode": [null, null, null, null, null], "rewards": [-1, -1, -5, 8, 51], "path": ["0", "0", "23", "24", "25", "30", "33"], "rt": [25366, 15, 83, 33, 24], "actions": ["left", "left", "left", "down", "left"], "actionTimes": [27847, 28367, 28968, 29518, 30076], "queries": {"click": {"state": {"target": ["5", "9", "29", "33", "20", "17", "16"], "time": [3274, 6554, 9640, 12866, 16100, 19964, 23533]}, "edge": {"target": [], "time": []}}, "mouseover": {"state": {"target": ["1", "2", "5", "5", "9", "9", "11", "27", "26", "29", "33", "33", "30", "20", "17", "16"], "time": [2683, 2717, 2799, 3116, 3883, 4699, 7233, 7316, 7416, 7717, 10099, 10867, 13134, 13833, 16466, 20299]}, "edge": {"target": [], "time": []}}, "mouseout": {"state": {"target": ["0", "1", "2", "5", "5", "9", "9", "9", "11", "27", "26", "29", "33", "33", "30", "20", "17", "16", "16", "22"], "time": [2016, 2716, 2733, 2816, 3733, 4183, 6599, 7149, 7266, 7366, 7433, 9933, 10583, 13133, 13166, 16366, 20024, 23567, 26168, 30933]}, "edge": {"target": [], "time": []}}}, "displayed_time": "30.60", "trialTime": 31444, "trial_type": "mouselab-mdp", "trial_index": 18, "time_elapsed": 735594, "internal_node_id": "0.0-6.0-1.0-9.0"}}, {"uniqueid": "w57646196:a84747141", "current_trial": 19, "dateTime": 1693835355836, "trialdata": {"revealed_states": [], "clicked_states": ["9", "20", "33"], "num_clicks_accrued": [0, 0, 0, 0, 0, 0, 0, 0, 0, 0, 0, 0, 0], "stateRewards": ["", -2, 4, -3, -13, 63, -36, 62, 11, 78, 34, -51, 2, -2, 8, -6, -40, -18, 31, 9, 64, 39, 79, 1, 4, -4, 15, -12, 76, 73, -10, -77, 86, -4], "withholdReward": false, "trial_id": "mdp_trial_11", "block": "test", "trialIndex": 12, "score": 81.55, "costs": -6.449999999999999, "simulationMode": [null, null, null, null, null], "rewards": [-2, 4, -3, 11, 78], "path": ["0", "0", "1", "2", "3", "8", "9"], "rt": [14022, 21, 22, 447, 89], "actions": ["up", "up", "up", "left", "up"], "actionTimes": [14780, 15304, 15856, 16831, 17455], "queries": {"click": {"state": {"target": ["9", "20", "33"], "time": [2781, 6485, 10811]}, "edge": {"target": [], "time": []}}, "mouseover": {"state": {"target": ["1", "2", "2", "1", "1", "8", "9", "6", "16", "17", "20", "32", "33", "30", "31"], "time": [1313, 1363, 1530, 1663, 2146, 2263, 2579, 3231, 3396, 3480, 3697, 9898, 10215, 12865, 12948]}, "edge": {"target": [], "time": []}}, "mouseout": {"state": {"target": ["0", "1", "2", "2", "1", "1", "8", "9", "6", "16", "17", "20", "32", "33", "30", "31"], "time": [430, 1346, 1413, 1613, 1830, 2180, 2296, 3080, 3263, 3413, 3513, 7614, 9915, 12815, 12915, 12981]}, "edge": {"target": [], "time": []}}}, "displayed_time": "17.97", "trialTime": 19303, "trial_type": "mouselab-mdp", "trial_index": 19, "time_elapsed": 755005, "internal_node_id": "0.0-6.0-1.0-10.0"}}, {"uniqueid": "w57646196:a84747141", "current_trial": 20, "dateTime": 1693835383080, "trialdata": {"revealed_states": [], "clicked_states": ["33", "29", "17", "20", "5"], "num_clicks_accrued": [0, 0, 0, 0, 0, 0, 0, 0, 0, 0, 0, 0, 0], "stateRewards": ["", 1, -2, -8, -3, 31, -84, -55, -14, 15, -58, 17, -2, -3, 7, 7, -12, 48, 67, 4, -44, -68, 46, 2, 3, -5, -7, 76, 27, 5, 11, 57, 52, 59], "withholdReward": false, "trial_id": "mdp_trial_12", "block": "test", "trialIndex": 13, "score": 59.25, "costs": -10.75, "simulationMode": [null, null, null, null, null], "rewards": [2, 3, -5, 11, 59], "path": ["0", "0", "23", "24", "25", "30", "33"], "rt": [21562, 6, 570, 16, 65], "actions": ["left", "left", "left", "down", "left"], "actionTimes": [22568, 23079, 24177, 24705, 25306], "queries": {"click": {"state": {"target": ["33", "29", "17", "20", "5"], "time": [3053, 6837, 11095, 14839, 18531]}, "edge": {"target": [], "time": []}}, "mouseover": {"state": {"target": ["1", "2", "3", "9", "9", "8", "25", "33", "33", "30", "31", "30", "29", "29", "25", "2", "6", "17", "20", "19", "14", "15", "5"], "time": [1321, 1388, 1421, 1538, 1755, 2455, 2538, 2605, 2855, 5221, 5572, 5721, 5855, 6271, 7722, 10471, 10521, 10889, 14505, 17788, 17888, 17906, 18339]}, "edge": {"target": [], "time": []}}, "mouseout": {"state": {"target": ["0", "1", "2", "3", "9", "9", "8", "25", "33", "33", "33", "30", "31", "30", "29", "29", "25", "2", "6", "17", "17", "20", "20", "19", "14", "15", "5", "5", "2", "1", "0"], "time": [721, 1355, 1405, 1438, 1605, 2438, 2471, 2555, 2655, 3423, 3905, 5305, 5655, 5755, 5921, 7238, 10388, 10488, 10538, 11185, 11688, 14926, 17355, 17871, 17905, 17922, 21172, 23855, 25888, 25905, 25938]}, "edge": {"target": [], "time": []}}}, "displayed_time": "25.84", "trialTime": 27137, "trial_type": "mouselab-mdp", "trial_index": 20, "time_elapsed": 782249, "internal_node_id": "0.0-6.0-1.0-11.0"}}, {"uniqueid": "w57646196:a84747141", "current_trial": 21, "dateTime": 1693835410601, "trialdata": {"revealed_states": [], "clicked_states": ["21", "17", "5", "9", "29"], "num_clicks_accrued": [0, 0, 0, 0, 0, 0, 0, 0, 0, 0, 0, 0, 0], "stateRewards": ["", -1, 2, -6, 6, 43, 78, 78, -2, 55, -29, -17, -2, -4, 1, -15, 13, 7, -79, 8, -28, -68, 36, -1, -3, 3, -16, 84, -18, 87, 10, 32, 13, -81], "withholdReward": false, "trial_id": "mdp_trial_13", "block": "test", "trialIndex": 14, "score": 59.25, "costs": -10.75, "simulationMode": [null, null, null, null, null], "rewards": [-1, -3, 3, -16, 87], "path": ["0", "0", "23", "24", "25", "26", "29"], "rt": [20452, 28, 221, 3, 6], "actions": ["left", "left", "left", "up", "left"], "actionTimes": [21600, 22138, 22864, 23381, 23917], "queries": {"click": {"state": {"target": ["21", "17", "5", "9", "29"], "time": [1895, 5680, 9270, 12810, 16678]}, "edge": {"target": [], "time": []}}, "mouseover": {"state": {"target": ["22", "21", "20", "20", "17", "5", "9", "11", "26", "29", "33", "33"], "time": [1490, 1623, 2524, 5223, 5407, 7224, 11407, 14990, 15290, 15941, 18673, 20607]}, "edge": {"target": [], "time": []}}, "mouseout": {"state": {"target": ["0", "22", "21", "20", "20", "17", "5", "9", "9", "11", "26", "29", "33", "33", "31"], "time": [1373, 1507, 2424, 2624, 5340, 5774, 9384, 12928, 14974, 15007, 15490, 18573, 20175, 21724, 26059]}, "edge": {"target": [], "time": []}}}, "displayed_time": "24.44", "trialTime": 27410, "trial_type": "mouselab-mdp", "trial_index": 21, "time_elapsed": 809771, "internal_node_id": "0.0-6.0-1.0-12.0"}}, {"uniqueid": "w57646196:a84747141", "current_trial": 22, "dateTime": 1693835439302, "trialdata": {"revealed_states": [], "clicked_states": ["33", "29", "9", "17", "20", "26"], "num_clicks_accrued": [0, 0, 0, 0, 0, 0, 0, 0, 0, 0, 0, 0, 0], "stateRewards": ["", -1, 1, -2, 5, 73, 15, 61, 8, 7, 38, 76, 2, 2, -4, -6, -6, -26, 43, -5, -45, -85, -35, -2, 1, -4, 15, -10, 69, 72, -11, 84, -49, -38], "withholdReward": false, "trial_id": "mdp_trial_14", "block": "test", "trialIndex": 15, "score": 69.7, "costs": -12.3, "simulationMode": [null, null, null, null, null], "rewards": [-2, 1, -4, 15, 72], "path": ["0", "0", "23", "24", "25", "26", "29"], "rt": [23535, 1, 18, 4, 30], "actions": ["left", "left", "left", "up", "left"], "actionTimes": [24500, 25009, 25560, 26096, 26638], "queries": {"click": {"state": {"target": ["33", "29", "9", "17", "20", "26"], "time": [2373, 5886, 11141, 14945, 18131, 21929]}, "edge": {"target": [], "time": []}}, "mouseover": {"state": {"target": ["23", "24", "25", "33", "30", "30", "29", "29", "26", "10", "3", "4", "28", "25", "28", "8", "9", "3", "15", "17", "20", "13", "12", "1", "26", "26", "24", "23", "0"], "time": [1272, 1356, 1422, 1639, 3039, 3940, 4489, 5173, 7556, 7606, 7640, 7672, 10139, 10324, 10439, 10506, 10572, 14339, 14406, 14639, 16556, 18589, 18639, 18706, 21472, 21689, 23772, 23806, 23906]}, "edge": {"target": [], "time": []}}, "mouseout": {"state": {"target": ["23", "23", "24", "25", "33", "30", "30", "29", "29", "29", "26", "10", "3", "4", "28", "25", "28", "8", "9", "3", "15", "17", "17", "20", "13", "12", "1", "26", "26", "24", "23", "0", "23", "23", "31"], "time": [472, 1322, 1406, 1472, 2906, 3056, 4056, 4522, 6022, 7539, 7572, 7622, 7655, 7706, 10156, 10405, 10456, 10522, 14322, 14356, 14423, 15028, 15256, 18472, 18623, 18672, 18739, 21489, 23739, 23789, 23855, 27290, 27373, 27422, 27772]}, "edge": {"target": [], "time": []}}}, "displayed_time": "27.16", "trialTime": 28591, "trial_type": "mouselab-mdp", "trial_index": 22, "time_elapsed": 838472, "internal_node_id": "0.0-6.0-1.0-13.0"}}, {"uniqueid": "w57646196:a84747141", "current_trial": 23, "dateTime": 1693835539577, "trialdata": {"revealed_states": [], "clicked_states": ["9", "5"], "num_clicks_accrued": [0, 0, 0, 0, 0, 0, 0, 0, 0, 0, 0, 0, 0], "stateRewards": ["", 1, 3, -2, 15, 51, 15, -19, 11, 67, -45, -73, 2, 4, -2, -13, 36, 9, -28, 10, -30, 31, 16, 1, 2, -1, -16, 14, -22, 36, -1, 88, -5, 45], "withholdReward": false, "trial_id": "mdp_trial_15", "block": "test", "trialIndex": 16, "score": 75.7, "costs": -4.3, "simulationMode": [null, null, null, null, null], "rewards": [1, 3, -2, 11, 67], "path": ["0", "0", "1", "2", "3", "8", "9"], "rt": [20387, 89, 52, 501, 172], "actions": ["up", "up", "up", "left", "up"], "actionTimes": [21561, 22164, 22743, 23759, 24447], "queries": {"click": {"state": {"target": ["9", "5"], "time": [3691, 9431]}, "edge": {"target": [], "time": []}}, "mouseover": {"state": {"target": ["2", "3", "8", "11", "9", "5", "6", "6", "6", "8", "27", "11", "27", "2", "2", "8", "9", "8"], "time": [2622, 2656, 2955, 3256, 3440, 7972, 11306, 12772, 13023, 14806, 15240, 17172, 17422, 19357, 20806, 21056, 21206, 21439]}, "edge": {"target": [], "time": []}}, "mouseout": {"state": {"target": ["0", "2", "3", "8", "11", "9", "5", "5", "5", "6", "6", "6", "8", "27", "11", "27", "2", "2", "8", "9", "8", "2", "4", "4", "6", "5", "3", "2", "2", "10", "28", "24", "1", "18", "15", "17", "14", "22"], "time": [722, 2639, 2772, 2972, 3289, 7839, 9502, 10322, 11006, 12523, 12822, 14639, 14822, 16155, 17339, 18206, 19373, 20972, 21122, 21356, 21589, 46292, 46358, 50859, 55191, 69442, 70291, 70325, 94927, 96477, 97977, 98677, 98727, 98760, 98794, 98894, 99227, 99294]}, "edge": {"target": [], "time": []}}}, "displayed_time": "24.98", "trialTime": 100165, "trial_type": "mouselab-mdp", "trial_index": 23, "time_elapsed": 938746, "internal_node_id": "0.0-6.0-1.0-14.0"}}, {"uniqueid": "w57646196:a84747141", "current_trial": 24, "dateTime": 1693835567302, "trialdata": {"revealed_states": [], "clicked_states": ["5", "17", "9", "29", "33", "8"], "num_clicks_accrued": [0, 0, 0, 0, 0, 0, 0, 0, 0, 0, 0, 0, 0], "stateRewards": ["", 2, 3, -3, 12, -43, 81, -82, -15, 58, -7, -75, -1, -1, 3, -5, 50, -25, -8, 4, 66, 65, -66, 2, -4, 2, -1, -10, 10, 37, 11, 88, -37, 8], "withholdReward": false, "trial_id": "mdp_trial_16", "block": "test", "trialIndex": 17, "score": 32.7, "costs": -12.3, "simulationMode": [null, null, null, null, null], "rewards": [2, 3, -3, -15, 58], "path": ["0", "0", "1", "2", "3", "8", "9"], "rt": [22293, 29, 12, 479, 82], "actions": ["up", "up", "up", "left", "up"], "actionTimes": [23646, 24201, 24717, 25701, 26287], "queries": {"click": {"state": {"target": ["5", "17", "9", "29", "33", "8"], "time": [2238, 5701, 8765, 12399, 15582, 18830]}, "edge": {"target": [], "time": []}}, "mouseover": {"state": {"target": ["5", "6", "16", "17", "6", "9", "25", "26", "27", "29", "30", "33", "30", "31", "19", "20", "19", "12", "2", "8", "2", "12", "13", "20", "20", "19", "20"], "time": [2069, 2636, 2669, 2769, 7203, 7503, 9269, 9569, 9603, 11436, 13286, 13669, 15836, 15870, 16019, 16086, 16603, 16753, 16836, 17120, 19403, 20253, 20436, 20853, 21369, 21503, 22636]}, "edge": {"target": [], "time": []}}, "mouseout": {"state": {"target": ["5", "6", "16", "17", "6", "5", "9", "9", "25", "26", "27", "29", "29", "30", "33", "30", "31", "19", "20", "19", "12", "2", "8", "2", "12", "13", "20", "20", "19", "20", "19", "22"], "time": [2603, 2653, 2686, 7120, 7219, 7269, 8828, 9119, 9536, 9586, 11003, 13120, 13253, 13503, 15660, 15869, 15886, 16036, 16353, 16669, 16786, 16870, 19303, 19453, 20369, 20503, 20919, 21420, 22387, 27086, 27119, 27253]}, "edge": {"target": [], "time": []}}}, "displayed_time": "26.82", "trialTime": 27601, "trial_type": "mouselab-mdp", "trial_index": 24, "time_elapsed": 966472, "internal_node_id": "0.0-6.0-1.0-15.0"}}, {"uniqueid": "w57646196:a84747141", "current_trial": 25, "dateTime": 1693835600496, "trialdata": {"revealed_states": [], "clicked_states": ["27", "9", "5", "29", "33", "32", "17", "20"], "num_clicks_accrued": [0, 0, 0, 0, 0, 0, 0, 0, 0, 0, 0, 0, 0], "stateRewards": ["", -1, -3, -3, 1, -38, 2, -53, -2, -1, -81, 70, -1, 1, -5, -9, 46, 15, 35, -1, -22, 38, 59, -2, 4, -8, 13, 1, -83, -43, 4, 76, 13, 48], "withholdReward": false, "trial_id": "mdp_trial_17", "block": "test", "trialIndex": 18, "score": 28.8, "costs": -17.2, "simulationMode": [null, null, null, null, null], "rewards": [-2, 4, -8, 4, 48], "path": ["0", "0", "23", "24", "25", "30", "33"], "rt": [27751, 496, 56, 122, 98], "actions": ["left", "left", "left", "down", "left"], "actionTimes": [28441, 29465, 30057, 30690, 31298], "queries": {"click": {"state": {"target": ["27", "9", "5", "29", "33", "32", "17", "20"], "time": [1642, 5211, 8325, 11375, 14421, 17724, 20938, 24116]}, "edge": {"target": [], "time": []}}, "mouseover": {"state": {"target": ["23", "24", "26", "27", "29", "11", "9", "5", "6", "16", "16", "15", "18", "1", "29", "25", "25", "33", "30", "32", "13", "14", "17", "17", "20", "19", "25", "30", "24", "23"], "time": [1032, 1082, 1248, 1498, 3915, 4848, 5115, 7565, 8715, 8782, 9398, 9982, 10048, 10115, 10415, 11999, 12915, 13432, 15049, 15399, 18382, 18432, 18615, 19133, 22900, 24418, 24516, 24932, 27949, 28050]}, "edge": {"target": [], "time": []}}, "mouseout": {"state": {"target": ["0", "23", "24", "26", "27", "29", "27", "11", "9", "5", "6", "16", "16", "15", "18", "1", "29", "29", "25", "25", "33", "30", "32", "13", "14", "17", "17", "20", "19", "25", "30", "24", "23"], "time": [415, 1065, 1115, 1415, 3232, 4715, 4782, 4882, 6982, 8632, 8732, 9065, 9782, 10032, 10082, 10132, 11462, 11849, 12748, 12932, 14932, 15115, 18065, 18415, 18549, 18732, 22266, 24417, 24433, 24533, 27666, 27966, 28833]}, "edge": {"target": [], "time": []}}}, "displayed_time": "31.80", "trialTime": 33073, "trial_type": "mouselab-mdp", "trial_index": 25, "time_elapsed": 999666, "internal_node_id": "0.0-6.0-1.0-16.0"}}, {"uniqueid": "w57646196:a84747141", "current_trial": 26, "dateTime": 1693835634291, "trialdata": {"revealed_states": [], "clicked_states": ["5", "9", "17", "16", "21", "33", "29", "15"], "num_clicks_accrued": [0, 0, 0, 0, 0, 0, 0, 0, 0, 0, 0, 0, 0], "stateRewards": ["", -2, -1, -4, -15, -14, -67, 32, -3, -59, 63, 31, 2, -1, -7, -15, 71, -66, -27, -3, -54, -39, 72, 2, 1, 1, -13, 77, -40, 35, -9, 35, 75, 57], "withholdReward": false, "trial_id": "mdp_trial_18", "block": "test", "trialIndex": 19, "score": 33.4, "costs": -16.6, "simulationMode": [null, null, null, null, null], "rewards": [2, -1, -7, -15, 71], "path": ["0", "0", "12", "13", "14", "15", "16"], "rt": [29198, 187, 59, 17, 25], "actions": ["right", "right", "right", "up", "up"], "actionTimes": [30273, 30973, 31560, 32086, 32644], "queries": {"click": {"state": {"target": ["5", "9", "17", "16", "21", "33", "29", "15"], "time": [1717, 4785, 7859, 11189, 15793, 19759, 22973, 28011]}, "edge": {"target": [], "time": []}}, "mouseover": {"state": {"target": ["1", "5", "9", "6", "16", "17", "20", "16", "1", "12", "13", "14", "20", "21", "24", "25", "33", "29", "26", "1", "15", "14", "15", "14"], "time": [1299, 1616, 3000, 5216, 5283, 5550, 9433, 10117, 11800, 12066, 12116, 12183, 13167, 13950, 19299, 19349, 19566, 20900, 23233, 23299, 23616, 26966, 27216, 28517]}, "edge": {"target": [], "time": []}}, "mouseout": {"state": {"target": ["23", "1", "5", "9", "6", "16", "17", "17", "20", "17", "16", "1", "12", "13", "14", "20", "21", "24", "25", "33", "29", "26", "1", "15", "14", "15"], "time": [666, 1316, 2866, 5166, 5233, 5300, 7945, 8783, 9566, 9716, 11633, 11816, 12099, 12149, 12233, 13183, 19099, 19333, 19433, 19804, 23037, 23249, 23316, 26916, 27166, 28399]}, "edge": {"target": [], "time": []}}}, "displayed_time": "33.17", "trialTime": 33685, "trial_type": "mouselab-mdp", "trial_index": 26, "time_elapsed": 1033461, "internal_node_id": "0.0-6.0-1.0-17.0"}}, {"uniqueid": "w57646196:a84747141", "current_trial": 27, "dateTime": 1693835669808, "trialdata": {"revealed_states": [], "clicked_states": ["5", "32", "33", "17", "9", "11", "27"], "num_clicks_accrued": [0, 0, 0, 0, 0, 0, 0, 0, 0, 0, 0, 0, 0], "stateRewards": ["", -1, -4, 8, 8, -68, 47, 24, -7, -61, 49, -69, -1, -1, 8, -7, 42, 1, -45, -11, 10, -63, -6, 1, 4, 6, -16, 79, -37, -58, -12, 81, 18, -53], "withholdReward": false, "trial_id": "mdp_trial_19", "block": "test", "trialIndex": 20, "score": 58.95, "costs": -15.05, "simulationMode": [null, null, null, null, null], "rewards": [1, 4, 6, -16, 79], "path": ["0", "0", "23", "24", "25", "26", "27"], "rt": [29111, 126, 338, 114, 538], "actions": ["left", "left", "left", "up", "up"], "actionTimes": [30930, 31564, 32410, 33036, 34093], "queries": {"click": {"state": {"target": ["5", "32", "33", "17", "9", "11", "27"], "time": [2471, 6284, 9474, 12610, 16247, 19608, 22962]}, "edge": {"target": [], "time": []}}, "mouseover": {"state": {"target": ["1", "2", "5", "6", "16", "23", "31", "32", "33", "33", "30", "31", "17", "15", "7", "3", "8", "9", "9", "9", "3", "3", "8", "11", "28", "24", "31", "23", "24", "26", "26", "27", "28", "26", "26"], "time": [2102, 2153, 2252, 2903, 3019, 5536, 5686, 5952, 6936, 7719, 9753, 9770, 10153, 15236, 15320, 15470, 15586, 15737, 15819, 15969, 18170, 18570, 18686, 18837, 20136, 20570, 20686, 21436, 21503, 21703, 21887, 22436, 23653, 28753, 29037]}, "edge": {"target": [], "time": []}}, "mouseout": {"state": {"target": ["14", "13", "12", "0", "1", "2", "5", "5", "6", "16", "23", "31", "32", "33", "33", "30", "31", "17", "15", "7", "3", "8", "9", "9", "9", "3", "3", "8", "11", "28", "24", "31", "23", "24", "26", "26", "27", "28", "26", "26"], "time": [419, 636, 1503, 2003, 2153, 2186, 2552, 2836, 2953, 5319, 5552, 5752, 6603, 7019, 9736, 9769, 9786, 15203, 15253, 15336, 15553, 15620, 15786, 15936, 18103, 18203, 18620, 18736, 19853, 20553, 20653, 20770, 21470, 21570, 21736, 22370, 23320, 28703, 28836, 29803]}, "edge": {"target": [], "time": []}}}, "displayed_time": "34.60", "trialTime": 35405, "trial_type": "mouselab-mdp", "trial_index": 27, "time_elapsed": 1068978, "internal_node_id": "0.0-6.0-1.0-18.0"}}, {"uniqueid": "w57646196:a84747141", "current_trial": 28, "dateTime": 1693835702321, "trialdata": {"revealed_states": [], "clicked_states": ["5", "7", "4", "28", "27", "32", "33", "29"], "num_clicks_accrued": [0, 0, 0, 0, 0, 0, 0, 0, 0, 0, 0, 0, 0], "stateRewards": ["", -2, 2, -4, -4, -59, 88, 62, -3, 69, -15, -34, 1, -2, -5, 7, -54, -20, 78, -16, -74, -53, -21, 2, -4, 2, 13, -8, -44, 26, 9, 72, 4, 17], "withholdReward": false, "trial_id": "mdp_trial_20", "block": "test", "trialIndex": 21, "score": 37.4, "costs": -16.6, "simulationMode": [null, null, null, null, null], "rewards": [-2, 2, -4, -4, 62], "path": ["0", "0", "1", "2", "3", "4", "7"], "rt": [26393, 407, 36, 54, 13], "actions": ["up", "up", "up", "right", "down"], "actionTimes": [28553, 29472, 30016, 30584, 31109], "queries": {"click": {"state": {"target": ["5", "7", "4", "28", "27", "32", "33", "29"], "time": [3290, 6382, 10539, 11749, 14960, 18103, 21323, 25149]}, "edge": {"target": [], "time": []}}, "mouseover": {"state": {"target": ["1", "2", "4", "5", "6", "16", "18", "1", "7", "12", "0", "23", "24", "25", "29", "27", "28", "10", "2", "4", "10", "28", "26", "28", "28", "27", "26", "25", "30", "32", "22", "19", "30", "33", "30", "24", "28", "26", "29", "26", "28", "1", "18"], "time": [2561, 2661, 2861, 2911, 3761, 3945, 4595, 4728, 4945, 6795, 7011, 7044, 7078, 7111, 7161, 7445, 7845, 10261, 10279, 10328, 10961, 11011, 11061, 11294, 11561, 12178, 15228, 15295, 15378, 15495, 18595, 18645, 19111, 19245, 21728, 21861, 22028, 23445, 23662, 25461, 25511, 25561, 25661]}, "edge": {"target": [], "time": []}}, "mouseout": {"state": {"target": ["28", "0", "12", "0", "1", "2", "4", "5", "5", "6", "16", "18", "1", "7", "12", "0", "23", "24", "25", "29", "27", "28", "10", "2", "4", "10", "28", "26", "28", "28", "27", "26", "25", "30", "32", "22", "19", "30", "33", "30", "24", "28", "26", "29", "26", "28", "1", "18"], "time": [1528, 1661, 1861, 2445, 2611, 2695, 2895, 3349, 3711, 3811, 4495, 4611, 4861, 6661, 6978, 7028, 7061, 7095, 7128, 7261, 7712, 10228, 10278, 10295, 10911, 10978, 11028, 11228, 11345, 11840, 15211, 15261, 15345, 15428, 18495, 18628, 18745, 19178, 21628, 21795, 21911, 23395, 23528, 25444, 25495, 25528, 25578, 28362]}, "edge": {"target": [], "time": []}}}, "displayed_time": "31.63", "trialTime": 32393, "trial_type": "mouselab-mdp", "trial_index": 28, "time_elapsed": 1101491, "internal_node_id": "0.0-6.0-1.0-19.0"}}, {"uniqueid": "w57646196:a84747141", "current_trial": 29, "dateTime": 1693835735088, "trialdata": {"revealed_states": [], "clicked_states": ["21", "16", "17", "11", "27", "28", "33"], "num_clicks_accrued": [0, 0, 0, 0, 0, 0, 0, 0, 0, 0, 0, 0, 0], "stateRewards": ["", 2, -3, -5, 5, 11, -9, -33, 6, 67, 6, -30, -1, -2, -6, 13, 55, 13, 72, -14, 75, 21, -66, -2, -4, 6, 15, -1, -35, 60, 2, 51, -73, 12], "withholdReward": false, "trial_id": "mdp_trial_21", "block": "test", "trialIndex": 22, "score": 43.95, "costs": -15.05, "simulationMode": [null, null, null, null, null], "rewards": [-1, -2, -6, 13, 55], "path": ["0", "0", "12", "13", "14", "15", "16"], "rt": [27215, 24, 4, 6, 389], "actions": ["right", "right", "right", "up", "up"], "actionTimes": [28706, 29251, 29765, 30299, 31215], "queries": {"click": {"state": {"target": ["21", "16", "17", "11", "27", "28", "33"], "time": [2779, 6477, 9722, 14053, 17495, 20718, 24297]}, "edge": {"target": [], "time": []}}, "mouseover": {"state": {"target": ["15", "19", "21", "19", "15", "15", "16", "6", "17", "15", "1", "2", "3", "11", "27", "28", "25", "33", "31", "0", "12", "18", "15", "14"], "time": [1909, 2275, 2442, 4193, 5565, 6176, 6276, 7892, 8992, 10259, 10609, 10644, 10693, 13392, 16342, 19559, 21309, 21809, 25159, 25309, 25342, 25409, 25492, 25943]}, "edge": {"target": [], "time": []}}, "mouseout": {"state": {"target": ["7", "0", "15", "19", "21", "19", "15", "15", "16", "6", "16", "17", "17", "15", "1", "2", "3", "11", "27", "28", "25", "33", "31", "0", "12", "18", "15"], "time": [1009, 1309, 1942, 2325, 2832, 4260, 5580, 6226, 6541, 7976, 8776, 9790, 10159, 10359, 10626, 10676, 10726, 15626, 19242, 21176, 21526, 24759, 25209, 25326, 25376, 25442, 25776]}, "edge": {"target": [], "time": []}}}, "displayed_time": "31.74", "trialTime": 32640, "trial_type": "mouselab-mdp", "trial_index": 29, "time_elapsed": 1134257, "internal_node_id": "0.0-6.0-1.0-20.0"}}, {"uniqueid": "w57646196:a84747141", "current_trial": 30, "dateTime": 1693835755765, "trialdata": {"revealed_states": [], "clicked_states": ["27", "24", "5", "7", "4"], "num_clicks_accrued": [0, 0, 0, 0, 0, 0, 0, 0, 0, 0, 0, 0, 0], "stateRewards": ["", -2, -4, 2, 10, -17, 18, 73, 11, -32, 23, -13, -2, -4, 7, 12, -25, 66, -23, 15, 40, -76, -9, 1, 2, -7, -5, -20, 24, 3, -5, 16, -73, 70], "withholdReward": false, "trial_id": "mdp_trial_22", "block": "test", "trialIndex": 23, "score": 70.65, "costs": -8.350000000000001, "simulationMode": [null, null, null, null, null], "rewards": [-2, -4, 2, 10, 73], "path": ["0", "0", "1", "2", "3", "4", "7"], "rt": [14861, 377, 168, 413, 130], "actions": ["up", "up", "up", "right", "down"], "actionTimes": [15976, 16871, 17546, 18491, 19124], "queries": {"click": {"state": {"target": ["27", "24", "5", "7", "4"], "time": [2580, 5685, 6984, 10232, 14446]}, "edge": {"target": [], "time": []}}, "mouseover": {"state": {"target": ["1", "2", "3", "27", "28", "23", "24", "1", "2", "4", "5", "5", "7", "1", "0", "0", "1", "10", "10", "4"], "time": [1326, 1392, 1459, 2293, 3076, 3245, 3842, 6126, 6159, 6193, 6226, 6493, 7810, 10743, 10843, 11093, 11176, 11609, 11976, 13909]}, "edge": {"target": [], "time": []}}, "mouseout": {"state": {"target": ["12", "1", "2", "3", "27", "28", "23", "24", "1", "2", "4", "5", "5", "7", "1", "0", "0", "1", "10", "10", "4"], "time": [643, 1359, 1426, 1642, 2993, 3126, 3759, 6059, 6142, 6176, 6209, 6343, 7493, 10593, 10793, 10909, 11126, 11209, 11676, 13809, 15093]}, "edge": {"target": [], "time": []}}}, "displayed_time": "19.63", "trialTime": 20567, "trial_type": "mouselab-mdp", "trial_index": 30, "time_elapsed": 1154934, "internal_node_id": "0.0-6.0-1.0-21.0"}}, {"uniqueid": "w57646196:a84747141", "current_trial": 31, "dateTime": 1693835796201, "trialdata": {"revealed_states": [], "clicked_states": ["29", "27", "6", "16", "18", "21", "20", "33", "32"], "num_clicks_accrued": [0, 0, 0, 0, 0, 0, 0, 0, 0, 0, 0, 0, 0], "stateRewards": ["", 1, 1, -5, 8, -6, 45, 16, -6, -7, -22, -38, -1, -4, 8, -11, -16, 21, -45, -15, -59, -32, 42, -1, 3, 6, 11, -7, 34, -27, -8, 85, 43, -9], "withholdReward": false, "trial_id": "mdp_trial_23", "block": "test", "trialIndex": 24, "score": 23.650000000000002, "costs": -19.349999999999998, "simulationMode": [null, null, null, null, null], "rewards": [-1, 3, 6, -8, 43], "path": ["0", "0", "23", "24", "25", "30", "32"], "rt": [34461, 436, 88, 46, 160], "actions": ["left", "left", "left", "down", "down"], "actionTimes": [35953, 36922, 37524, 38082, 38745], "queries": {"click": {"state": {"target": ["29", "27", "6", "16", "18", "21", "20", "33", "32"], "time": [2362, 5441, 8561, 11816, 14958, 18550, 21725, 25265, 28396]}, "edge": {"target": [], "time": []}}, "mouseover": {"state": {"target": ["23", "24", "25", "29", "27", "11", "9", "11", "27", "9", "9", "10", "2", "7", "6", "6", "15", "14", "14", "16", "18", "15", "20", "20", "21", "20", "19", "22", "31", "30", "33", "33", "33", "32", "32", "31", "30", "31"], "time": [1850, 1917, 1967, 2234, 2684, 2751, 2867, 3350, 3784, 5951, 6301, 6717, 7201, 7267, 7551, 7867, 9584, 9634, 10051, 10617, 12318, 15251, 15501, 18018, 18417, 18968, 22117, 22284, 22450, 22501, 23367, 24285, 25134, 26584, 27651, 28717, 34467, 35234]}, "edge": {"target": [], "time": []}}, "mouseout": {"state": {"target": ["23", "23", "24", "25", "29", "27", "11", "9", "11", "27", "9", "9", "10", "2", "7", "6", "6", "15", "14", "14", "16", "18", "15", "20", "20", "21", "20", "19", "22", "31", "30", "33", "33", "33", "33", "32", "32", "31", "30", "31"], "time": [168, 1884, 1950, 2001, 2428, 2717, 2784, 3300, 3400, 5834, 5984, 6551, 6834, 7234, 7434, 7601, 9501, 9617, 9651, 10167, 12134, 15201, 15305, 17767, 18117, 18901, 22051, 22150, 22317, 22484, 22834, 23568, 24884, 25300, 25601, 26851, 28634, 34417, 35184, 35317]}, "edge": {"target": [], "time": []}}}, "displayed_time": "39.27", "trialTime": 40312, "trial_type": "mouselab-mdp", "trial_index": 31, "time_elapsed": 1195371, "internal_node_id": "0.0-6.0-1.0-22.0"}}, {"uniqueid": "w57646196:a84747141", "current_trial": 32, "dateTime": 1693835826455, "trialdata": {"revealed_states": [], "clicked_states": ["9", "17", "15", "33", "32", "21"], "num_clicks_accrued": [0, 0, 0, 0, 0, 0, 0, 0, 0, 0, 0, 0, 0], "stateRewards": ["", -1, -3, 1, -4, -48, -63, -49, -2, -84, -19, 65, 2, -2, -2, -12, -4, 59, 9, 6, 75, 69, -13, -1, -3, -3, -2, -37, -68, -36, 13, 32, 18, -14], "withholdReward": false, "trial_id": "mdp_trial_24", "block": "test", "trialIndex": 25, "score": 60.7, "costs": -12.3, "simulationMode": [null, null, null, null, null], "rewards": [2, -2, -2, 6, 69], "path": ["0", "0", "12", "13", "14", "19", "21"], "rt": [23583, 63, 60, 508, 319], "actions": ["right", "right", "right", "down", "down"], "actionTimes": [26092, 26668, 27231, 28263, 29092], "queries": {"click": {"state": {"target": ["9", "17", "15", "33", "32", "21"], "time": [3507, 7931, 13171, 14419, 17698, 21207]}, "edge": {"target": [], "time": []}}, "mouseover": {"state": {"target": ["1", "2", "8", "9", "8", "10", "18", "15", "17", "17", "14", "13", "14", "14", "14", "14", "19", "14", "15", "14", "24", "33", "32", "30", "25", "26", "27", "27", "23", "21", "21", "19"], "time": [2853, 2903, 2986, 3237, 5003, 6903, 7153, 7170, 7203, 7786, 9086, 9170, 9570, 10904, 11453, 12203, 12286, 12636, 12819, 13620, 13953, 14236, 16270, 18220, 18254, 18286, 18386, 18887, 19286, 19636, 19953, 25487]}, "edge": {"target": [], "time": []}}, "mouseout": {"state": {"target": ["23", "10", "1", "0", "1", "2", "8", "9", "8", "10", "18", "15", "17", "17", "14", "13", "14", "14", "14", "14", "19", "14", "15", "14", "24", "33", "32", "30", "25", "26", "27", "27", "23", "21", "21", "19"], "time": [453, 569, 2036, 2253, 2886, 2920, 3069, 4803, 6853, 6936, 7170, 7186, 7236, 9036, 9120, 9186, 9620, 11286, 11936, 12253, 12603, 12720, 13536, 13736, 13970, 14770, 17757, 18236, 18270, 18336, 18503, 19003, 19336, 19654, 25336, 28087]}, "edge": {"target": [], "time": []}}}, "displayed_time": "29.62", "trialTime": 30135, "trial_type": "mouselab-mdp", "trial_index": 32, "time_elapsed": 1225624, "internal_node_id": "0.0-6.0-1.0-23.0"}}, {"uniqueid": "w57646196:a84747141", "current_trial": 33, "dateTime": 1693835850735, "trialdata": {"revealed_states": [], "clicked_states": ["9", "10", "29", "33", "26", "30"], "num_clicks_accrued": [0, 0, 0, 0, 0, 0, 0, 0, 0, 0, 0, 0, 0], "stateRewards": ["", -2, -3, -6, -7, 9, 16, 65, 5, -41, 20, -25, -1, -4, 1, -11, -49, -4, 71, 1, 39, -62, 52, -2, -3, 7, -9, -28, -70, 84, 8, 24, -58, 82], "withholdReward": false, "trial_id": "mdp_trial_25", "block": "test", "trialIndex": 26, "score": 80.3, "costs": -11.700000000000001, "simulationMode": [null, null, null, null, null], "rewards": [-2, -3, 7, 8, 82], "path": ["0", "0", "23", "24", "25", "30", "33"], "rt": [19199, 505, 118, 65, 157], "actions": ["left", "left", "left", "down", "left"], "actionTimes": [20247, 21287, 21918, 22498, 23174], "queries": {"click": {"state": {"target": ["9", "10", "29", "33", "26", "30"], "time": [2758, 5834, 10164, 13208, 17304, 18740]}, "edge": {"target": [], "time": []}}, "mouseover": {"state": {"target": ["28", "26", "28", "2", "4", "9", "4", "6", "16", "2", "10", "28", "24", "24", "25", "26", "29", "33", "26", "25", "30", "31"], "time": [1497, 1664, 1831, 1881, 2081, 2465, 3347, 3397, 3497, 4447, 4831, 6198, 6348, 7681, 7914, 8247, 8598, 12898, 14447, 17664, 17714, 19131]}, "edge": {"target": [], "time": []}}, "mouseout": {"state": {"target": ["17", "15", "1", "0", "28", "26", "28", "2", "4", "9", "4", "6", "16", "2", "10", "28", "24", "24", "25", "26", "29", "33", "26", "25", "30", "30", "31"], "time": [347, 380, 564, 830, 1614, 1814, 1847, 1897, 2131, 3264, 3381, 3414, 3514, 4764, 6131, 6231, 7431, 7814, 8148, 8448, 10564, 14314, 17647, 17697, 18811, 19097, 19147]}, "edge": {"target": [], "time": []}}}, "displayed_time": "23.68", "trialTime": 24159, "trial_type": "mouselab-mdp", "trial_index": 33, "time_elapsed": 1249905, "internal_node_id": "0.0-6.0-1.0-24.0"}}, {"uniqueid": "w57646196:a84747141", "current_trial": 34, "dateTime": 1693835880272, "trialdata": {"revealed_states": [], "clicked_states": ["33", "20", "17", "15", "5", "4", "9", "8", "3"], "num_clicks_accrued": [0, 0, 0, 0, 0, 0, 0, 0, 0, 0, 0, 0, 0], "stateRewards": ["", -2, 3, -1, -9, 44, 48, -37, -3, 71, -39, 87, -1, 3, -4, 4, -21, 59, -15, -8, -1, 28, -38, 2, 4, 4, 8, -85, -72, -63, 14, 58, 63, -46], "withholdReward": false, "trial_id": "mdp_trial_26", "block": "test", "trialIndex": 27, "score": 51.65, "costs": -16.35, "simulationMode": [null, null, null, null, null], "rewards": [-2, 3, -1, -3, 71], "path": ["0", "0", "1", "2", "3", "8", "9"], "rt": [24182, 121, 31, 31, 59], "actions": ["up", "up", "up", "left", "up"], "actionTimes": [25914, 26554, 27097, 27647, 28242], "queries": {"click": {"state": {"target": ["33", "20", "17", "15", "5", "4", "9", "8", "3"], "time": [2512, 5610, 8970, 13176, 14186, 18012, 18838, 23019, 24332]}, "edge": {"target": [], "time": []}}, "mouseover": {"state": {"target": ["24", "25", "33", "32", "22", "20", "17", "16", "6", "5", "5", "6", "15", "4", "5", "5", "6", "16", "17", "7", "7", "4", "2", "9", "3", "2", "8", "11", "3", "2"], "time": [2013, 2080, 2280, 3097, 3563, 3997, 6047, 10430, 12047, 12113, 12313, 12730, 12930, 13647, 13697, 14014, 15780, 15830, 16230, 16730, 16897, 17863, 18447, 18630, 19197, 22097, 22847, 23630, 24131, 24897]}, "edge": {"target": [], "time": []}}, "mouseout": {"state": {"target": ["1", "1", "0", "0", "24", "25", "33", "32", "22", "20", "17", "16", "6", "5", "5", "6", "15", "4", "5", "5", "5", "6", "16", "17", "7", "7", "4", "4", "2", "9", "3", "2", "8", "11", "8", "3"], "time": [996, 1146, 1230, 1563, 2063, 2197, 2863, 3280, 3614, 5701, 10080, 10447, 12063, 12147, 12663, 12747, 13513, 13663, 13730, 14263, 15747, 15813, 15863, 16614, 16763, 17830, 18079, 18263, 18497, 19130, 19280, 22447, 23564, 23897, 24013, 24730]}, "edge": {"target": [], "time": []}}}, "displayed_time": "28.75", "trialTime": 29412, "trial_type": "mouselab-mdp", "trial_index": 34, "time_elapsed": 1279441, "internal_node_id": "0.0-6.0-1.0-25.0"}}, {"uniqueid": "w57646196:a84747141", "current_trial": 35, "dateTime": 1693835908436, "trialdata": {"revealed_states": [], "clicked_states": ["29", "5", "16", "33", "32", "21", "26"], "num_clicks_accrued": [0, 0, 0, 0, 0, 0, 0, 0, 0, 0, 0, 0, 0], "stateRewards": ["", 1, -2, -2, 10, -31, -77, 35, 9, -47, 8, 48, -2, 1, -4, -3, -26, -50, 43, -11, 76, -38, 17, 1, -1, 6, 10, 15, -9, 12, -8, 85, 11, -55], "withholdReward": false, "trial_id": "mdp_trial_27", "block": "test", "trialIndex": 28, "score": 13.549999999999999, "costs": -14.450000000000001, "simulationMode": [null, null, null, null, null], "rewards": [1, -1, 6, 10, 12], "path": ["0", "0", "23", "24", "25", "26", "29"], "rt": [22772, 393, 105, 6, 457], "actions": ["left", "left", "left", "up", "left"], "actionTimes": [23721, 24647, 25275, 25794, 26761], "queries": {"click": {"state": {"target": ["29", "5", "16", "33", "32", "21", "26"], "time": [1799, 4884, 7905, 11539, 14906, 18147, 22207]}, "edge": {"target": [], "time": []}}, "mouseover": {"state": {"target": ["23", "24", "26", "29", "8", "5", "6", "16", "16", "17", "17", "15", "12", "23", "24", "25", "33", "30", "32", "21", "23", "24", "26", "27", "3", "16", "6", "5", "9", "26", "29", "26"], "time": [1317, 1352, 1484, 1684, 2184, 2534, 5384, 5484, 6086, 8402, 9869, 10985, 11035, 11069, 11102, 11135, 11385, 12002, 12219, 15869, 18652, 18687, 18735, 19052, 19235, 20436, 20852, 20935, 21320, 21619, 21803, 22069]}, "edge": {"target": [], "time": []}}, "mouseout": {"state": {"target": ["2", "1", "23", "24", "26", "29", "8", "5", "6", "16", "16", "16", "17", "17", "15", "12", "23", "24", "25", "33", "30", "32", "21", "23", "24", "26", "27", "3", "16", "6", "5", "9", "26", "29", "26"], "time": [451, 500, 1351, 1384, 1634, 2084, 2201, 5318, 5418, 5567, 7992, 8353, 8486, 10969, 11002, 11052, 11086, 11119, 11285, 11919, 12069, 15252, 18502, 18669, 18703, 18752, 19085, 19269, 20769, 20902, 20952, 21502, 21652, 22002, 22315]}, "edge": {"target": [], "time": []}}}, "displayed_time": "27.27", "trialTime": 28031, "trial_type": "mouselab-mdp", "trial_index": 35, "time_elapsed": 1307606, "internal_node_id": "0.0-6.0-1.0-26.0"}}, {"uniqueid": "w57646196:a84747141", "current_trial": 36, "dateTime": 1693835937902, "trialdata": {"revealed_states": [], "clicked_states": ["9", "20", "19", "17", "21", "32", "16"], "num_clicks_accrued": [0, 0, 0, 0, 0, 0, 0, 0, 0, 0, 0, 0, 0], "stateRewards": ["", 1, -3, -1, 9, -34, -40, 22, -7, 45, 53, -11, 2, 4, 5, 15, 21, 37, -49, -3, 80, -28, -34, 1, -3, 1, 1, -40, -6, -5, -16, -85, -86, 59], "withholdReward": false, "trial_id": "mdp_trial_28", "block": "test", "trialIndex": 29, "score": 73.55, "costs": -14.450000000000001, "simulationMode": [null, null, null, null, null], "rewards": [2, 4, 5, -3, 80], "path": ["0", "0", "12", "13", "14", "19", "20"], "rt": [24792, 394, 72, 61, 105], "actions": ["right", "right", "right", "down", "right"], "actionTimes": [25637, 26543, 27120, 27692, 28304], "queries": {"click": {"state": {"target": ["9", "20", "19", "17", "21", "32", "16"], "time": [1597, 5019, 8955, 10241, 14562, 18608, 22446]}, "edge": {"target": [], "time": []}}, "mouseover": {"state": {"target": ["8", "9", "8", "2", "13", "19", "20", "19", "13", "3", "8", "8", "2", "13", "19", "14", "17", "14", "21", "22", "31", "32", "31", "25", "26", "10", "2", "7", "16", "18", "12"], "time": [1347, 1446, 1896, 1946, 2130, 2246, 2730, 5646, 5680, 5746, 5763, 6063, 8429, 8513, 8596, 9513, 10179, 11679, 11779, 18096, 18279, 18463, 21513, 21546, 21829, 21913, 21946, 21979, 22063, 24365, 24679]}, "edge": {"target": [], "time": []}}, "mouseout": {"state": {"target": ["10", "8", "9", "8", "2", "13", "19", "20", "19", "13", "3", "8", "8", "2", "13", "19", "14", "17", "14", "19", "21", "22", "31", "32", "31", "25", "26", "10", "2", "7", "16", "18", "12", "12", "18", "16", "7", "1", "23"], "time": [513, 1379, 1863, 1913, 1980, 2180, 2330, 5313, 5663, 5696, 5763, 5779, 8413, 8463, 8546, 9396, 9980, 11563, 11696, 11746, 18013, 18163, 18313, 19996, 21529, 21563, 21846, 21929, 21963, 21996, 23229, 24546, 24713, 27946, 28013, 28079, 28863, 29013, 29146]}, "edge": {"target": [], "time": []}}}, "displayed_time": "28.83", "trialTime": 29341, "trial_type": "mouselab-mdp", "trial_index": 36, "time_elapsed": 1337072, "internal_node_id": "0.0-6.0-1.0-27.0"}}, {"uniqueid": "w57646196:a84747141", "current_trial": 37, "dateTime": 1693835967877, "trialdata": {"revealed_states": [], "clicked_states": ["29", "6", "16", "9", "32", "33", "20", "19"], "num_clicks_accrued": [0, 0, 0, 0, 0, 0, 0, 0, 0, 0, 0, 0, 0], "stateRewards": ["", 1, 1, 7, -11, 80, -20, -53, -14, 3, 31, 27, 2, -1, -8, -10, 33, 41, 86, 9, 78, -37, -13, -1, -2, -6, -8, -80, 75, 4, -16, -49, -74, 24], "withholdReward": false, "trial_id": "mdp_trial_29", "block": "test", "trialIndex": 30, "score": 63.4, "costs": -16.6, "simulationMode": [null, null, null, null, null], "rewards": [2, -1, -8, 9, 78], "path": ["0", "0", "12", "13", "14", "19", "20"], "rt": [25380, 97, 23, 33, 51], "actions": ["right", "right", "right", "down", "right"], "actionTimes": [26311, 26924, 27450, 28010, 28578], "queries": {"click": {"state": {"target": ["29", "6", "16", "9", "32", "33", "20", "19"], "time": [2225, 5818, 8974, 12362, 15446, 18621, 22082, 25796]}, "edge": {"target": [], "time": []}}, "mouseover": {"state": {"target": ["28", "26", "29", "26", "10", "2", "4", "6", "6", "6", "6", "16", "17", "16", "17", "7", "2", "8", "9", "9", "23", "24", "31", "30", "32", "33", "33", "30", "31", "22", "19", "20", "21", "19"], "time": [1309, 1443, 1859, 3493, 3676, 3709, 3776, 3843, 4659, 5076, 5693, 6176, 6259, 6509, 9376, 11359, 11409, 11475, 11525, 12193, 13959, 14092, 14192, 14275, 14492, 15976, 16509, 18909, 18942, 19042, 19092, 19142, 22876, 25542]}, "edge": {"target": [], "time": []}}, "mouseout": {"state": {"target": ["23", "28", "26", "29", "26", "10", "2", "4", "6", "6", "6", "6", "16", "17", "16", "17", "7", "2", "8", "9", "9", "23", "24", "31", "30", "32", "33", "33", "30", "31", "22", "19", "20", "21", "19", "15", "12", "0", "23", "28", "28", "25", "31"], "time": [426, 1376, 1593, 2576, 3526, 3693, 3744, 3809, 3859, 4743, 5610, 6143, 6193, 6459, 9309, 11259, 11392, 11426, 11509, 11575, 12742, 14010, 14109, 14209, 14392, 15548, 16009, 18876, 18926, 18959, 19075, 19109, 22559, 25492, 25863, 29209, 29292, 29426, 29509, 29543, 29592, 29709, 29792]}, "edge": {"target": [], "time": []}}}, "displayed_time": "29.09", "trialTime": 29846, "trial_type": "mouselab-mdp", "trial_index": 37, "time_elapsed": 1367047, "internal_node_id": "0.0-6.0-1.0-28.0"}}, {"uniqueid": "w57646196:a84747141", "current_trial": 38, "dateTime": 1693836001330, "trialdata": {"revealed_states": [], "clicked_states": ["17", "5", "9", "29", "33", "20", "21", "32", "30"], "num_clicks_accrued": [0, 0, 0, 0, 0, 0, 0, 0, 0, 0, 0, 0, 0], "stateRewards": ["", 1, 1, -5, 10, -31, 73, 14, -8, -23, 63, -70, -1, 2, 8, 7, 25, -59, 27, -10, -40, -71, -15, -2, 3, -8, -5, -19, 77, -34, 7, 67, 63, 19], "withholdReward": false, "trial_id": "mdp_trial_30", "block": "test", "trialIndex": 31, "score": 44.25, "costs": -18.75, "simulationMode": [null, null, null, null, null], "rewards": [-2, 3, -8, 7, 63], "path": ["0", "0", "23", "24", "25", "30", "32"], "rt": [28766, 31, 70, 70, 38], "actions": ["left", "left", "left", "down", "down"], "actionTimes": [29656, 30197, 30785, 31369, 31920], "queries": {"click": {"state": {"target": ["17", "5", "9", "29", "33", "20", "21", "32", "30"], "time": [2033, 5974, 9200, 12489, 15770, 19058, 22300, 25467, 29171]}, "edge": {"target": [], "time": []}}, "mouseover": {"state": {"target": ["14", "20", "17", "15", "4", "3", "4", "6", "5", "3", "10", "10", "8", "9", "8", "26", "25", "29", "33", "30", "31", "22", "20", "21", "32", "32", "32", "31", "23", "1", "7", "6", "12", "0", "23", "24", "30", "31"], "time": [1281, 1631, 1981, 2548, 2697, 2815, 5264, 5447, 5781, 6464, 6547, 7598, 7664, 7981, 9648, 9831, 9881, 10214, 15548, 16131, 16247, 16497, 16781, 20232, 22897, 23198, 23631, 25764, 25797, 25831, 25864, 26098, 26697, 26831, 26981, 27248, 29031, 29581]}, "edge": {"target": [], "time": []}}, "mouseout": {"state": {"target": ["14", "20", "17", "15", "4", "3", "4", "6", "5", "3", "10", "10", "8", "9", "9", "8", "26", "25", "29", "33", "30", "31", "22", "20", "21", "32", "32", "32", "31", "23", "1", "7", "6", "12", "0", "23", "24", "30", "31"], "time": [1314, 1714, 2498, 2564, 2731, 5214, 5314, 5498, 6431, 6498, 6564, 7631, 7681, 9285, 9614, 9731, 9847, 9899, 13281, 15851, 16197, 16314, 16514, 19531, 22481, 22964, 23314, 25544, 25781, 25814, 25848, 25898, 26498, 26764, 26866, 27014, 28698, 29514, 29618]}, "edge": {"target": [], "time": []}}}, "displayed_time": "32.43", "trialTime": 33320, "trial_type": "mouselab-mdp", "trial_index": 38, "time_elapsed": 1400500, "internal_node_id": "0.0-6.0-1.0-29.0"}}, {"uniqueid": "w57646196:a84747141", "current_trial": 39, "dateTime": 1693836017246, "trialdata": {"revealed_states": [], "clicked_states": ["9", "17", "15"], "num_clicks_accrued": [0, 0, 0, 0, 0, 0, 0, 0, 0, 0, 0, 0, 0], "stateRewards": ["", 1, -1, 8, 4, 76, -33, -17, -3, -1, -54, -74, -2, 2, -5, 13, -51, 63, 83, 1, 84, 29, -36, 2, -1, 7, -12, -10, -44, -43, -14, 8, -69, 19], "withholdReward": false, "trial_id": "mdp_trial_31", "block": "test", "trialIndex": 32, "score": 65.15, "costs": -5.85, "simulationMode": [null, null, null, null, null], "rewards": [-2, 2, -5, 13, 63], "path": ["0", "0", "12", "13", "14", "15", "17"], "rt": [8779, 102, 68, 29, 65], "actions": ["right", "right", "right", "up", "right"], "actionTimes": [9374, 9979, 10562, 11107, 11694], "queries": {"click": {"state": {"target": ["9", "17", "15"], "time": [1414, 4506, 8515]}, "edge": {"target": [], "time": []}}, "mouseover": {"state": {"target": ["1", "2", "3", "9", "3", "4", "16", "17", "19", "21", "20", "15"], "time": [908, 942, 959, 1241, 1858, 1908, 2358, 2825, 5009, 5075, 5509, 8375]}, "edge": {"target": [], "time": []}}, "mouseout": {"state": {"target": ["0", "1", "0", "1", "2", "3", "9", "3", "4", "16", "17", "19", "21", "20", "15", "14", "20", "21", "22", "14", "17", "17", "17"], "time": [141, 375, 875, 925, 958, 991, 1725, 1875, 1975, 2392, 4958, 5042, 5292, 8175, 8892, 11509, 11575, 12242, 13275, 13426, 13659, 14009, 15175]}, "edge": {"target": [], "time": []}}}, "displayed_time": "14.60", "trialTime": 15780, "trial_type": "mouselab-mdp", "trial_index": 39, "time_elapsed": 1416416, "internal_node_id": "0.0-6.0-1.0-30.0"}}, {"uniqueid": "w57646196:a84747141", "current_trial": 40, "dateTime": 1693836050627, "trialdata": {"revealed_states": [], "clicked_states": ["9", "29", "33", "32", "21", "20", "19", "17"], "num_clicks_accrued": [0, 0, 0, 0, 0, 0, 0, 0, 0, 0, 0, 0, 0], "stateRewards": ["", -1, 4, -6, -5, -22, -38, -38, -2, -56, 88, 14, -1, -1, -7, -6, 61, -60, 21, 11, 57, 31, -30, -2, -2, 6, -9, -44, -70, -44, -15, 34, 16, -78], "withholdReward": false, "trial_id": "mdp_trial_32", "block": "test", "trialIndex": 33, "score": 42.4, "costs": -16.6, "simulationMode": [null, null, null, null, null], "rewards": [-1, -1, -7, 11, 57], "path": ["0", "0", "12", "13", "14", "19", "20"], "rt": [27634, 47, 410, 11, 85], "actions": ["right", "right", "right", "down", "right"], "actionTimes": [28998, 29577, 30490, 31007, 31598], "queries": {"click": {"state": {"target": ["9", "29", "33", "32", "21", "20", "19", "17"], "time": [2143, 5326, 8481, 11861, 15548, 19507, 23433, 25617]}, "edge": {"target": [], "time": []}}, "mouseover": {"state": {"target": ["9", "5", "16", "6", "4", "3", "26", "29", "29", "33", "30", "31", "22", "19", "19", "21", "32", "21", "20", "17", "14", "19", "17", "14", "16", "16"], "time": [2045, 2545, 3045, 3328, 3595, 3745, 4111, 4362, 4878, 5731, 8778, 8812, 8928, 8961, 9195, 9395, 10429, 13345, 16195, 20412, 23045, 23262, 23995, 27745, 28379, 28845]}, "edge": {"target": [], "time": []}}, "mouseout": {"state": {"target": ["18", "9", "5", "16", "6", "4", "3", "26", "29", "29", "29", "33", "30", "31", "22", "19", "19", "21", "32", "21", "20", "17", "14", "19", "17", "14", "16", "16", "1", "0"], "time": [361, 2234, 2595, 3178, 3561, 3645, 3861, 4212, 4762, 5424, 5628, 8761, 8795, 8828, 8945, 9028, 9211, 9811, 12095, 15878, 19592, 23011, 23078, 23778, 26995, 27778, 28528, 28945, 32579, 32695]}, "edge": {"target": [], "time": []}}}, "displayed_time": "32.13", "trialTime": 33247, "trial_type": "mouselab-mdp", "trial_index": 40, "time_elapsed": 1449796, "internal_node_id": "0.0-6.0-1.0-31.0"}}, {"uniqueid": "w57646196:a84747141", "current_trial": 41, "dateTime": 1693836079785, "trialdata": {"revealed_states": [], "clicked_states": ["9", "20", "33", "29", "32", "17", "15"], "num_clicks_accrued": [0, 0, 0, 0, 0, 0, 0, 0, 0, 0, 0, 0, 0], "stateRewards": ["", -2, -3, -5, 8, 27, 11, 43, -6, -24, -87, 69, -2, 1, 1, 9, 19, 48, -37, 9, -14, 45, 62, 1, 2, 1, 16, -81, -41, 22, 4, -6, -63, 47], "withholdReward": false, "trial_id": "mdp_trial_33", "block": "test", "trialIndex": 34, "score": 42.55, "costs": -14.450000000000001, "simulationMode": [null, null, null, null, null], "rewards": [-2, 1, 1, 9, 48], "path": ["0", "0", "12", "13", "14", "15", "17"], "rt": [23996, 399, 2, 45, 332], "actions": ["right", "right", "right", "up", "right"], "actionTimes": [25075, 25980, 26501, 27077, 27931], "queries": {"click": {"state": {"target": ["9", "20", "33", "29", "32", "17", "15"], "time": [1959, 5778, 9741, 12828, 16263, 20237, 24065]}, "edge": {"target": [], "time": []}}, "mouseover": {"state": {"target": ["1", "2", "3", "9", "4", "16", "17", "20", "20", "23", "31", "30", "33", "33", "29", "29", "30", "32", "5", "4", "2", "10", "28", "23", "7", "4", "4", "15", "17", "17", "17", "16", "15", "14"], "time": [1379, 1445, 1528, 1778, 2262, 2328, 3996, 5345, 5645, 9095, 9162, 9295, 9412, 9645, 11178, 11529, 14679, 15896, 16913, 17229, 17313, 17379, 17646, 17963, 18163, 18213, 18496, 18731, 18813, 19247, 19913, 23196, 23796, 24496]}, "edge": {"target": [], "time": []}}, "mouseout": {"state": {"target": ["0", "1", "2", "3", "9", "4", "16", "17", "20", "20", "23", "31", "30", "33", "33", "29", "29", "30", "32", "5", "4", "2", "10", "28", "23", "7", "4", "4", "15", "17", "17", "17", "16", "15", "14"], "time": [912, 1429, 1495, 1578, 2195, 2278, 2362, 5312, 5395, 9012, 9112, 9178, 9380, 9478, 9839, 11212, 14329, 15713, 16546, 16963, 17280, 17346, 17480, 17846, 18029, 18196, 18263, 18579, 18763, 18913, 19680, 22779, 23763, 24446, 29013]}, "edge": {"target": [], "time": []}}}, "displayed_time": "28.45", "trialTime": 29023, "trial_type": "mouselab-mdp", "trial_index": 41, "time_elapsed": 1478955, "internal_node_id": "0.0-6.0-1.0-32.0"}}, {"uniqueid": "w57646196:a84747141", "current_trial": 42, "dateTime": 1693836111043, "trialdata": {"revealed_states": [], "clicked_states": ["5", "4", "29", "33", "32", "30", "11", "17"], "num_clicks_accrued": [0, 0, 0, 0, 0, 0, 0, 0, 0, 0, 0, 0, 0], "stateRewards": ["", 2, 1, -3, 7, 46, 11, -36, 16, 71, 5, 1, 2, -2, -8, -3, -4, 6, 55, 7, 68, -54, 2, 1, 1, 6, -6, 42, -4, -84, -11, -65, 63, 25], "withholdReward": false, "trial_id": "mdp_trial_34", "block": "test", "trialIndex": 35, "score": 37, "costs": -16, "simulationMode": [null, null, null, null, null], "rewards": [2, 1, -3, 7, 46], "path": ["0", "0", "1", "2", "3", "4", "5"], "rt": [25953, 76, 519, 20, 112], "actions": ["up", "up", "up", "right", "up"], "actionTimes": [26749, 27329, 28370, 28922, 29563], "queries": {"click": {"state": {"target": ["5", "4", "29", "33", "32", "30", "11", "17"], "time": [2165, 6180, 7040, 10171, 13902, 18140, 19825, 23503]}, "edge": {"target": [], "time": []}}, "mouseover": {"state": {"target": ["1", "2", "3", "5", "8", "29", "3", "4", "3", "27", "29", "27", "5", "3", "10", "28", "25", "33", "33", "32", "32", "11", "9", "28", "25", "30", "31", "23", "8", "11", "2", "7", "16", "15", "17"], "time": [1500, 1550, 1567, 2067, 3216, 3466, 5866, 6066, 6533, 6650, 6883, 7383, 8400, 8550, 8600, 8766, 8868, 9016, 9200, 10567, 11016, 14266, 14717, 17416, 17566, 17700, 18683, 18766, 19466, 19533, 21933, 22000, 22634, 23084, 23366]}, "edge": {"target": [], "time": []}}, "mouseout": {"state": {"target": ["0", "1", "2", "3", "5", "8", "29", "3", "4", "3", "27", "29", "27", "5", "5", "3", "10", "28", "25", "33", "33", "32", "32", "11", "9", "28", "25", "30", "31", "23", "8", "11", "2", "7", "16", "15", "17", "14", "13", "12"], "time": [1084, 1533, 1566, 1600, 3083, 3267, 5733, 5933, 6238, 6550, 6683, 7077, 7400, 7816, 8466, 8567, 8650, 8800, 8966, 9116, 10450, 10666, 14167, 14283, 17366, 17433, 17633, 18650, 18700, 18783, 19483, 21750, 21966, 22100, 22650, 23217, 24783, 30200, 30283, 30366]}, "edge": {"target": [], "time": []}}}, "displayed_time": "30.09", "trialTime": 31117, "trial_type": "mouselab-mdp", "trial_index": 42, "time_elapsed": 1510212, "internal_node_id": "0.0-6.0-1.0-33.0"}}, {"uniqueid": "w57646196:a84747141", "current_trial": 43, "dateTime": 1693836147662, "trialdata": {"revealed_states": [], "clicked_states": ["9", "29", "20", "17", "21", "16", "33", "32", "30"], "num_clicks_accrued": [0, 0, 0, 0, 0, 0, 0, 0, 0, 0, 0, 0, 0], "stateRewards": ["", 1, 1, -6, -2, 7, 77, 3, 16, -16, 66, 31, -1, 3, -8, -6, 33, -50, -48, 7, -60, -66, 36, 2, -3, 3, -7, -12, -61, -79, -4, 8, 74, -70], "withholdReward": false, "trial_id": "mdp_trial_35", "block": "test", "trialIndex": 36, "score": 53.25, "costs": -18.75, "simulationMode": [null, null, null, null, null], "rewards": [2, -3, 3, -4, 74], "path": ["0", "0", "23", "24", "25", "30", "32"], "rt": [29998, 40, 469, 422, 110], "actions": ["left", "left", "left", "down", "down"], "actionTimes": [31700, 32249, 33229, 34182, 34820], "queries": {"click": {"state": {"target": ["9", "29", "20", "17", "21", "16", "33", "32", "30"], "time": [2571, 5706, 8840, 12098, 15544, 19205, 22547, 25727, 30099]}, "edge": {"target": [], "time": []}}, "mouseover": {"state": {"target": ["1", "10", "8", "9", "9", "27", "29", "29", "33", "32", "20", "17", "17", "16", "4", "6", "15", "14", "19", "21", "19", "14", "5", "6", "16", "7", "2", "24", "30", "33", "32", "24", "10", "3", "5", "5", "5", "24", "30"], "time": [1992, 2058, 2092, 2125, 2442, 3125, 3242, 3543, 5977, 6058, 6458, 11325, 11592, 14175, 14309, 14792, 14975, 15025, 15108, 15225, 15858, 15892, 16275, 18025, 18308, 19625, 19675, 19758, 19858, 20258, 24325, 27192, 27258, 27308, 27425, 27892, 28442, 29108, 29458]}, "edge": {"target": [], "time": []}}, "mouseout": {"state": {"target": ["0", "1", "10", "8", "9", "9", "9", "27", "29", "29", "33", "32", "20", "17", "17", "16", "4", "6", "15", "14", "19", "21", "19", "14", "5", "6", "16", "7", "2", "24", "30", "33", "32", "24", "10", "3", "5", "5", "5", "24", "30", "31", "23", "0"], "time": [558, 2008, 2075, 2108, 2142, 2659, 2942, 3158, 3375, 5909, 6009, 6075, 10825, 11358, 14108, 14208, 14425, 14859, 14992, 15075, 15175, 15825, 15875, 15910, 17275, 18108, 19541, 19658, 19691, 19792, 19975, 24158, 27092, 27225, 27275, 27342, 27442, 28125, 28925, 29342, 31275, 33658, 33742, 33842]}, "edge": {"target": [], "time": []}}}, "displayed_time": "35.34", "trialTime": 36477, "trial_type": "mouselab-mdp", "trial_index": 43, "time_elapsed": 1546831, "internal_node_id": "0.0-6.0-1.0-34.0"}}, {"uniqueid": "w57646196:a84747141", "current_trial": 44, "dateTime": 1693836175209, "trialdata": {"revealed_states": [], "clicked_states": ["5", "17", "15", "33", "30", "25", "29"], "num_clicks_accrued": [0, 0, 0, 0, 0, 0, 0, 0, 0, 0, 0, 0, 0], "stateRewards": ["", -1, 3, -5, -2, -13, -9, -34, -7, -81, 32, 35, -2, -2, 1, -14, -32, 81, 7, 4, 82, 56, -8, -1, 3, -8, 6, -24, -24, -53, 2, 38, 61, 54], "withholdReward": false, "trial_id": "mdp_trial_36", "block": "test", "trialIndex": 37, "score": 51.35, "costs": -12.65, "simulationMode": [null, null, null, null, null], "rewards": [-2, -2, 1, -14, 81], "path": ["0", "0", "12", "13", "14", "15", "17"], "rt": [21577, 15, 412, 47, 15], "actions": ["right", "right", "right", "up", "right"], "actionTimes": [24033, 24556, 25503, 26054, 26588], "queries": {"click": {"state": {"target": ["5", "17", "15", "33", "30", "25", "29"], "time": [3183, 6274, 10238, 12177, 15863, 18001, 19243]}, "edge": {"target": [], "time": []}}, "mouseover": {"state": {"target": ["1", "2", "3", "5", "15", "17", "17", "20", "15", "14", "19", "22", "31", "30", "33", "32", "30", "25", "26", "25", "26", "29", "26", "10", "8", "9", "9", "9"], "time": [2788, 2838, 2905, 2988, 3655, 3905, 4139, 6838, 10088, 11422, 11488, 11605, 11788, 11855, 12022, 14188, 15721, 16905, 17739, 17838, 18905, 19139, 20655, 20772, 20855, 20938, 23005, 23339]}, "edge": {"target": [], "time": []}}, "mouseout": {"state": {"target": ["1", "2", "1", "1", "2", "3", "5", "5", "15", "17", "17", "20", "15", "15", "15", "14", "19", "22", "31", "30", "33", "32", "30", "25", "26", "25", "26", "29", "26", "10", "8", "9", "9", "9", "10", "1"], "time": [155, 1671, 1721, 2821, 2871, 2922, 3233, 3505, 3788, 3938, 6688, 9738, 10822, 11105, 11388, 11455, 11588, 11638, 11822, 11905, 13472, 15672, 16855, 16972, 17772, 18097, 18989, 20622, 20688, 20805, 20905, 21038, 23072, 27155, 27221, 27271]}, "edge": {"target": [], "time": []}}}, "displayed_time": "27.11", "trialTime": 27406, "trial_type": "mouselab-mdp", "trial_index": 44, "time_elapsed": 1574379, "internal_node_id": "0.0-6.0-1.0-35.0"}}, {"uniqueid": "w57646196:a84747141", "current_trial": 45, "dateTime": 1693836205468, "trialdata": {"revealed_states": [], "clicked_states": ["29", "33", "17", "20", "19", "5", "9", "6"], "num_clicks_accrued": [0, 0, 0, 0, 0, 0, 0, 0, 0, 0, 0, 0, 0], "stateRewards": ["", -2, 1, -8, 12, -65, -79, 16, 7, -80, -17, -45, -2, 2, -5, -2, -85, 23, -4, -7, 48, 27, -76, 2, 3, 5, 2, 43, 71, -13, 7, -49, 59, -31], "withholdReward": false, "trial_id": "mdp_trial_37", "block": "test", "trialIndex": 38, "score": 19.4, "costs": -16.6, "simulationMode": [null, null, null, null, null], "rewards": [-2, 2, -5, -7, 48], "path": ["0", "0", "12", "13", "14", "19", "20"], "rt": [25428, 419, 91, 37, 177], "actions": ["right", "right", "right", "down", "right"], "actionTimes": [26316, 27257, 27880, 28443, 29132], "queries": {"click": {"state": {"target": ["29", "33", "17", "20", "19", "5", "9", "6"], "time": [2172, 5287, 8431, 11674, 15282, 16346, 19649, 22824]}, "edge": {"target": [], "time": []}}, "mouseover": {"state": {"target": ["10", "29", "29", "25", "30", "33", "20", "17", "17", "20", "19", "21", "19", "14", "6", "5", "9", "3", "2", "7", "18", "6", "14", "14"], "time": [1203, 1586, 2054, 2670, 2736, 3220, 5753, 5820, 6037, 11070, 12537, 13287, 15103, 15670, 15887, 16104, 18320, 20104, 20337, 20437, 20604, 21204, 23554, 26004]}, "edge": {"target": [], "time": []}}, "mouseout": {"state": {"target": ["0", "0", "10", "29", "29", "29", "25", "30", "33", "20", "17", "17", "20", "19", "21", "19", "14", "6", "5", "9", "3", "2", "7", "18", "6", "6", "14", "14", "15", "15"], "time": [69, 1020, 1236, 1736, 2249, 2586, 2720, 2820, 5570, 5770, 5886, 10770, 12154, 13104, 14737, 15345, 15787, 15904, 17620, 20053, 20154, 20354, 20454, 20737, 22908, 23354, 23637, 26037, 27720, 29987]}, "edge": {"target": [], "time": []}}}, "displayed_time": "29.64", "trialTime": 30113, "trial_type": "mouselab-mdp", "trial_index": 45, "time_elapsed": 1604638, "internal_node_id": "0.0-6.0-1.0-36.0"}}, {"uniqueid": "w57646196:a84747141", "current_trial": 46, "dateTime": 1693836235028, "trialdata": {"revealed_states": [], "clicked_states": ["9", "10", "27", "33", "32", "21", "8"], "num_clicks_accrued": [0, 0, 0, 0, 0, 0, 0, 0, 0, 0, 0, 0, 0], "stateRewards": ["", 1, 2, -3, 6, -88, 74, -45, 7, -46, 40, -77, 1, -4, 4, 3, 22, -25, -59, 8, -83, 19, -60, -1, -1, -1, -8, 26, -29, 64, -7, -88, -51, -55], "withholdReward": false, "trial_id": "mdp_trial_38", "block": "test", "trialIndex": 39, "score": 32.55, "costs": -14.450000000000001, "simulationMode": [null, null, null, null, null], "rewards": [1, 2, -3, 7, 40], "path": ["0", "0", "1", "2", "3", "8", "10"], "rt": [24961, 77, 12, 473, 97], "actions": ["up", "up", "up", "left", "down"], "actionTimes": [25631, 26239, 26756, 27751, 28375], "queries": {"click": {"state": {"target": ["9", "10", "27", "33", "32", "21", "8"], "time": [1787, 4901, 8837, 12747, 16607, 20271, 24635]}, "edge": {"target": [], "time": []}}, "mouseover": {"state": {"target": ["9", "8", "10", "27", "27", "26", "24", "23", "1", "29", "33", "30", "32", "24", "28", "2", "18", "15", "15", "15", "14", "19", "21", "18", "7", "3", "8", "2"], "time": [1609, 4226, 4509, 7343, 7626, 9176, 9276, 9309, 9593, 10143, 12526, 15459, 15777, 16943, 16976, 17359, 17443, 17509, 18126, 19793, 19859, 19909, 19959, 23959, 24043, 24193, 24393, 25026]}, "edge": {"target": [], "time": []}}, "mouseout": {"state": {"target": ["13", "0", "9", "8", "10", "27", "27", "26", "24", "23", "1", "10", "10", "29", "33", "30", "32", "24", "28", "2", "18", "15", "15", "15", "14", "19", "21", "18", "7", "3", "8", "2", "3", "3"], "time": [6, 876, 4209, 4259, 7059, 7426, 9143, 9193, 9293, 9359, 9609, 9659, 9959, 12409, 15359, 15493, 16700, 16959, 16993, 17393, 17476, 17726, 18410, 19843, 19893, 19926, 23527, 23992, 24126, 24243, 24943, 26109, 26209, 29343]}, "edge": {"target": [], "time": []}}}, "displayed_time": "28.88", "trialTime": 29411, "trial_type": "mouselab-mdp", "trial_index": 46, "time_elapsed": 1634197, "internal_node_id": "0.0-6.0-1.0-37.0"}}, {"uniqueid": "w57646196:a84747141", "current_trial": 47, "dateTime": 1693836261874, "trialdata": {"revealed_states": [], "clicked_states": ["17", "9", "29", "33", "30", "25", "32"], "num_clicks_accrued": [0, 0, 0, 0, 0, 0, 0, 0, 0, 0, 0, 0, 0], "stateRewards": ["", 1, 2, 3, 16, 63, -25, 16, -4, -14, 82, -66, -1, -3, -3, -11, -14, 19, 46, 3, -34, -82, 66, -2, -3, 4, -5, -63, 77, -37, -1, -45, -41, 84], "withholdReward": false, "trial_id": "mdp_trial_39", "block": "test", "trialIndex": 40, "score": 68.75, "costs": -13.25, "simulationMode": [null, null, null, null, null], "rewards": [-2, -3, 4, -1, 84], "path": ["0", "0", "23", "24", "25", "30", "33"], "rt": [21827, 22, 465, 78, 157], "actions": ["left", "left", "left", "down", "left"], "actionTimes": [22596, 23132, 24107, 24705, 25386], "queries": {"click": {"state": {"target": ["17", "9", "29", "33", "30", "25", "32"], "time": [1990, 5840, 9658, 13039, 17057, 18410, 19470]}, "edge": {"target": [], "time": []}}, "mouseover": {"state": {"target": ["3", "4", "6", "16", "17", "15", "16", "16", "16", "3", "9", "3", "2", "28", "26", "29", "29", "33", "33", "30", "20", "19", "32", "30", "25", "32"], "time": [1075, 1208, 1292, 1375, 1625, 2875, 2958, 3575, 4375, 5458, 5675, 6208, 6258, 8425, 8525, 8725, 9259, 11641, 11908, 13291, 13825, 16325, 16591, 16824, 18058, 18808]}, "edge": {"target": [], "time": []}}, "mouseout": {"state": {"target": ["1", "23", "0", "3", "4", "6", "16", "17", "17", "15", "16", "16", "16", "3", "9", "3", "2", "28", "26", "29", "29", "29", "33", "33", "33", "30", "20", "19", "32", "30", "30", "25", "30", "32", "0"], "time": [141, 241, 541, 1125, 1258, 1325, 1408, 2063, 2408, 2925, 3125, 3792, 5342, 5492, 6158, 6225, 6292, 8475, 8658, 8875, 9753, 11541, 11691, 13113, 13274, 13308, 16308, 16341, 16724, 17123, 17391, 18675, 18759, 20158, 25958]}, "edge": {"target": [], "time": []}}}, "displayed_time": "25.91", "trialTime": 26705, "trial_type": "mouselab-mdp", "trial_index": 47, "time_elapsed": 1661043, "internal_node_id": "0.0-6.0-1.0-38.0"}}, {"uniqueid": "w57646196:a84747141", "current_trial": 48, "dateTime": 1693836297478, "trialdata": {"revealed_states": [], "clicked_states": ["29", "6", "5", "33", "32", "9", "17", "15", "20"], "num_clicks_accrued": [0, 0, 0, 0, 0, 0, 0, 0, 0, 0, 0, 0, 0], "stateRewards": ["", -2, -3, -7, 7, -54, -69, -4, -14, -77, 22, 40, -2, -1, 5, 6, -35, 50, -60, 10, -28, 75, 57, 1, -4, -2, 2, 68, 34, -18, 12, 3, -21, -43], "withholdReward": false, "trial_id": "mdp_trial_40", "block": "test", "trialIndex": 41, "score": 39.25, "costs": -18.75, "simulationMode": [null, null, null, null, null], "rewards": [-2, -1, 5, 6, 50], "path": ["0", "0", "12", "13", "14", "15", "17"], "rt": [30284, 89, 163, 52, 86], "actions": ["right", "right", "right", "up", "right"], "actionTimes": [32116, 32716, 33391, 33945, 34563], "queries": {"click": {"state": {"target": ["29", "6", "5", "33", "32", "9", "17", "15", "20"], "time": [2636, 6196, 9353, 12518, 15644, 18902, 22138, 26218, 28990]}, "edge": {"target": [], "time": []}}, "mouseover": {"state": {"target": ["10", "27", "29", "27", "11", "9", "6", "6", "5", "3", "24", "30", "33", "33", "32", "14", "18", "7", "3", "9", "3", "17", "20", "15", "15", "14", "20"], "time": [2192, 2292, 2459, 3076, 3109, 3642, 4376, 6092, 6876, 9726, 9826, 9892, 10059, 10276, 12909, 16042, 16442, 16509, 16592, 16792, 19142, 19626, 22609, 25909, 26075, 26526, 27376]}, "edge": {"target": [], "time": []}}, "mouseout": {"state": {"target": ["10", "27", "29", "27", "11", "9", "6", "6", "5", "3", "24", "30", "33", "33", "33", "32", "14", "18", "7", "3", "9", "3", "17", "20", "15", "15", "14", "20"], "time": [2209, 2376, 3026, 3092, 3126, 3692, 5610, 6675, 9676, 9742, 9842, 10026, 10127, 12585, 12809, 15942, 16059, 16476, 16526, 16609, 19109, 19159, 22426, 25776, 25926, 26492, 26559, 29426]}, "edge": {"target": [], "time": []}}}, "displayed_time": "35.08", "trialTime": 35462, "trial_type": "mouselab-mdp", "trial_index": 48, "time_elapsed": 1696648, "internal_node_id": "0.0-6.0-1.0-39.0"}}, {"uniqueid": "w57646196:a84747141", "current_trial": 49, "dateTime": 1693836348405, "trialdata": {"rt": 50923, "response": {"Q0": "$-2 to $2", "Q1": "$-4 to $4", "Q2": "$-16 to $16", "Q3": "The cost for clicking on nodes varied between nodes.", "Q4": "Very motivated"}, "question_order": [0, 1, 2, 3, 4], "trial_id": "final_quiz_control", "trial_type": "survey-multi-choice", "trial_index": 49, "time_elapsed": 1747574, "internal_node_id": "0.0-6.0-2.0"}}, {"uniqueid": "w57646196:a84747141", "current_trial": 50, "dateTime": 1693836432127, "trialdata": {"rt": 83716, "response": {"Q0": "Try to assess if the nodes on the end were worth the risk in value, then working backwards if the value was high enough.", "Q1": "I was more random with which nodes instead of trying to work with a pattern", "Q2": "Not hard at all really"}, "trial_id": "self_report_control", "trial_type": "survey-text", "trial_index": 50, "time_elapsed": 1831297, "internal_node_id": "0.0-6.0-3.0"}}, {"uniqueid": "w57646196:a84747141", "current_trial": 51, "dateTime": 1693836478181, "trialdata": {"rt": 46049, "response": {"Q0": "Neither disagree nor agree", "Q1": "Disagree", "Q2": "Agree", "Q3": "Agree", "Q4": "Neither disagree nor agree", "Q5": "Strongly agree", "Q6": "Strongly disagree"}, "question_order": [0, 1, 2, 3, 4, 5, 6], "trial_id": "self_report_2", "trial_type": "survey-multi-choice", "trial_index": 51, "time_elapsed": 1877350, "internal_node_id": "0.0-6.0-4.0"}}, {"uniqueid": "w57646196:a84747141", "current_trial": 52, "dateTime": 1693836497856, "trialdata": {"rt": 19670, "response": {"gender": "other", "age": "20", "colorblind": "0", "effort": "0"}, "trial_type": "survey-html-form", "trial_index": 52, "time_elapsed": 1897026, "internal_node_id": "0.0-6.0-5.0"}}, {"uniqueid": "w57646196:a84747141", "current_trial": 53, "dateTime": 1693836530708, "trialdata": {"rt": 32848, "response": {"Q0": "Not after playing a few rounds", "Q1": "No, I still haven't", "Q2": ""}, "trial_type": "survey-text", "trial_index": 53, "time_elapsed": 1929878, "internal_node_id": "0.0-6.0-6.0"}}, {"uniqueid": "w57646196:a84747141", "current_trial": 54, "dateTime": 1693836622835, "trialdata": {"rt": 92123, "stimulus": "<h1>Completion Code Instructions (1/2)</h1>\n<br><br><br><br>\nYou have reached the end of the experiment! The completion code consists of two parts: (1) a code with 2 characters (2) a code with 6 characters. On this page, you will receive the second part of the code. The first part of the completion code will be on the next page.\n<br><br>\nThe second part of your completion code is: <b>EWEK22</b>\n<br><br>\nPlease note this down. Then, press 'Next' in order to find the first part of your completion code. Once the data has been saved, you will receive this code either in this window or in the original browser window where you started the experiment.\n <br><br>\n<h2 style='color: red;'>Note: this is <strong>NOT</strong> the full completion code. Copy this down and click 'Next' to get the full completion code on the next page.</h2>", "response": 0, "trial_type": "html-button-response", "trial_index": 54, "time_elapsed": 2022005, "internal_node_id": "0.0-6.0-7.0"}}, {"uniqueid": "w57646196:a84747141", "current_trial": 55, "dateTime": 1693836623838, "trialdata": {"success": true, "trial_type": "fullscreen", "trial_index": 55, "time_elapsed": 2023008, "internal_node_id": "0.0-7.0"}}], "questiondata": {"params": {"CODE": "C6DMOQA6", "MIN_TIME": 14, "inspectCost": 1, "startTime": "Mon Sep 04 2023 15:36:39 GMT+0200 (South Africa Standard Time)", "bonusRate": 0.002, "variance": "1_2_4_8_44", "branching": "31123"}, "final_score": 1792.55}, "eventdata": [{"eventtype": "initialized", "value": null, "timestamp": 1693834598887, "interval": 0}, {"eventtype": "window_resize", "value": [1024, 767], "timestamp": 1693834598888, "interval": 1}, {"eventtype": "window_resize", "value": [1024, 767], "timestamp": 1693834599335, "interval": 447}, {"eventtype": "window_resize", "value": [1920, 1080], "timestamp": 1693834602325, "interval": 2990}, {"eventtype": "focus", "value": "off", "timestamp": 1693834606232, "interval": 3907}, {"eventtype": "focus", "value": "on", "timestamp": 1693834622370, "interval": 16138}, {"eventtype": "window_resize", "value": [1024, 767], "timestamp": 1693834629258, "interval": 6888}, {"eventtype": "window_resize", "value": [1503, 767], "timestamp": 1693834632275, "interval": 3017}, {"eventtype": "focus", "value": "off", "timestamp": 1693834740160, "interval": 107885}, {"eventtype": "focus", "value": "on", "timestamp": 1693834763509, "interval": 23349}, {"eventtype": "focus", "value": "off", "timestamp": 1693834772040, "interval": 8531}, {"eventtype": "focus", "value": "on", "timestamp": 1693834778113, "interval": 6073}, {"eventtype": "focus", "value": "off", "timestamp": 1693835216923, "interval": 438810}, {"eventtype": "focus", "value": "on", "timestamp": 1693835267545, "interval": 50622}, {"eventtype": "focus", "value": "off", "timestamp": 1693835708013, "interval": 440468}, {"eventtype": "focus", "value": "on", "timestamp": 1693835708016, "interval": 3}, {"eventtype": "focus", "value": "off", "timestamp": 1693836610392, "interval": 902376}, {"eventtype": "focus", "value": "on", "timestamp": 1693836622823, "interval": 12431}], "useragent": "Mozilla/5.0 (Windows NT 10.0; Win64; x64) AppleWebKit/537.36 (KHTML, like Gecko) Chrome/116.0.0.0 Safari/537.36", "mode": "live", "id": "w57646196:a84747141", "status": "user data saved", "Beginhit": "2023-09-04 13:36:36.826275", "Beginexp": "2023-09-04 13:36:43.231061", "Endhit": "2023-09-04 14:10:25.613483", "psiturkStatus": 3, "browser": "<redacted>", "platform": "windows", "language": "en-ZA"}