{"condition": 0, "counterbalance": 0, "assignmentId": "a78284931", "workerId": "w46288051", "hitId": "h85535122", "currenttrial": 67, "bonus": 0, "data": [{"uniqueid": "w46288051:a78284931", "current_trial": 0, "dateTime": 1693580200173, "trialdata": {"success": true, "trial_type": "fullscreen", "trial_index": 0, "time_elapsed": 6505, "internal_node_id": "0.0-0.0"}}, {"uniqueid": "w46288051:a78284931", "current_trial": 1, "dateTime": 1693580232475, "trialdata": {"view_history": [{"page_index": 0, "viewing_time": 32292}], "rt": 32293, "trial_id": "exp_instructions_control", "trial_type": "instructions", "trial_index": 1, "time_elapsed": 38807, "internal_node_id": "0.0-1.0"}}, {"uniqueid": "w46288051:a78284931", "current_trial": 2, "dateTime": 1693580499339, "trialdata": {"view_history": [{"page_index": 0, "viewing_time": 78266}, {"page_index": 1, "viewing_time": 54990}, {"page_index": 2, "viewing_time": 11679}, {"page_index": 3, "viewing_time": 121926}], "rt": 266861, "trial_id": "mouselab_instructions_1_control", "trial_type": "instructions", "trial_index": 2, "time_elapsed": 305671, "internal_node_id": "0.0-2.0-1.0"}}, {"uniqueid": "w46288051:a78284931", "current_trial": 3, "dateTime": 1693580623063, "trialdata": {"revealed_states": [], "clicked_states": ["25", "14", "3", "23", "24", "22", "19", "21", "12", "13", "30", "1", "2", "10", "8", "9", "5", "6", "4", "7", "11", "27", "26", "28", "29", "33", "32", "31", "20", "15", "16", "18", "17"], "num_clicks_accrued": [0, 0, 0, 0, 0, 0, 0, 0, 0, 0, 0, 0, 0], "stateRewards": ["", 10, -10, -10, 10, 10, 10, 10, 10, 10, 10, 10, 10, 10, 10, -10, -10, 10, 10, 10, -10, 10, -10, 10, 10, 10, -10, 10, 10, -10, -10, 10, -10, -10], "withholdReward": false, "trial_id": "practice_1", "block": "test", "trialIndex": 0, "score": -3, "costs": -16.5, "simulationMode": [null, null, null, null, null], "rewards": [10, 10, 10, -10, -10], "path": ["0", "0", "12", "13", "14", "15", "16"], "rt": [103615, 1050, 1469, 494, 337], "actions": ["right", "right", "right", "up", "up"], "actionTimes": [112045, 113602, 115589, 116600, 117438], "queries": {"click": {"state": {"target": ["25", "14", "3", "23", "24", "22", "19", "21", "12", "13", "30", "1", "2", "10", "8", "9", "5", "6", "4", "7", "11", "27", "26", "28", "29", "33", "32", "31", "20", "15", "16", "18", "17"], "time": [13823, 24133, 26221, 28676, 30993, 32729, 33790, 34985, 44361, 48205, 51318, 56908, 58207, 59674, 60751, 62639, 71405, 73076, 74386, 75530, 76571, 78894, 80440, 81479, 82642, 83943, 85261, 87045, 91592, 92618, 94143, 95527, 96591]}, "edge": {"target": [], "time": []}}, "mouseover": {"state": {"target": ["24", "25", "25", "26", "27", "27", "1", "12", "28", "26", "27", "26", "2", "7", "15", "13", "13", "14", "18", "3", "2", "1", "28", "23", "24", "14", "20", "19", "22", "19", "21", "0", "12", "12", "12", "13", "30", "32", "2", "1", "2", "10", "8", "9", "5", "4", "6", "4", "7", "11", "11", "27", "27", "26", "28", "29", "29", "33", "33", "33", "32", "31", "14", "22", "30", "22", "20", "15", "16", "18", "17", "15", "0", "0", "23", "0", "1", "1", "1"], "time": [13043, 13065, 13359, 15309, 15347, 15643, 16376, 16687, 17542, 17559, 17841, 18558, 20742, 21828, 21927, 22477, 23075, 23741, 25458, 25575, 27179, 27392, 27674, 28157, 30425, 31858, 31991, 32111, 32398, 33509, 34630, 41356, 42122, 43639, 43990, 47573, 50771, 52236, 55072, 56562, 57725, 59239, 60256, 61259, 70919, 72056, 72622, 73472, 75255, 75940, 76240, 77069, 78585, 79421, 81122, 82023, 82271, 83074, 83320, 83606, 84324, 85656, 87738, 88934, 89382, 90184, 91283, 92168, 93036, 95251, 96272, 98700, 98750, 99833, 99916, 100217, 101151, 101453, 109857]}, "edge": {"target": [], "time": []}}, "mouseout": {"state": {"target": ["0", "0", "0", "23", "24", "25", "24", "1", "1", "24", "25", "25", "26", "27", "27", "1", "12", "28", "26", "27", "26", "2", "7", "15", "13", "13", "14", "18", "3", "2", "1", "28", "23", "24", "14", "20", "19", "22", "19", "21", "21", "0", "12", "12", "12", "13", "30", "32", "2", "1", "2", "10", "8", "9", "5", "5", "4", "6", "4", "7", "11", "11", "27", "27", "27", "26", "28", "29", "29", "29", "33", "33", "33", "32", "31", "14", "22", "30", "31", "22", "20", "15", "16", "18", "17", "15", "0", "0", "23", "0", "1", "1", "1"], "time": [628, 1795, 2026, 5929, 6010, 6319, 6346, 6380, 7492, 13060, 13092, 15258, 15344, 15410, 15993, 16410, 17492, 17557, 17593, 18528, 18591, 21810, 21861, 21961, 22745, 23708, 24253, 25474, 27148, 27293, 27442, 27712, 28798, 31116, 31875, 32030, 32175, 33457, 34209, 35106, 35726, 41389, 43108, 43674, 44480, 50639, 52193, 54755, 55203, 57644, 58328, 59799, 60873, 63830, 71527, 71694, 72590, 73440, 74887, 75652, 75990, 76888, 77820, 79020, 79356, 81056, 81602, 82072, 82761, 83019, 83090, 83338, 84290, 85622, 87169, 87886, 88967, 89419, 89651, 90516, 91974, 93004, 94233, 95650, 98684, 98718, 98767, 99882, 100167, 101119, 101168, 103151, 109897]}, "edge": {"target": [], "time": []}}}, "displayed_time": "117.95", "trialTime": 122329, "trial_type": "mouselab-mdp", "trial_index": 3, "time_elapsed": 429395, "internal_node_id": "0.0-2.0-2.0-0.0"}}, {"uniqueid": "w46288051:a78284931", "current_trial": 4, "dateTime": 1693580645345, "trialdata": {"revealed_states": [], "clicked_states": [], "num_clicks_accrued": [0, 0, 0, 0, 0, 0, 0, 0, 0, 0, 0, 0, 0], "stateRewards": ["", -10, -10, -10, -10, 10, 10, 10, 10, -10, 10, -10, -10, 10, -10, 10, -10, 10, -10, -10, -10, -10, 10, 10, 10, 10, -10, -10, -10, -10, 10, 10, 10, 10], "withholdReward": false, "trial_id": "practice_2", "block": "test", "trialIndex": 1, "score": -26.5, "costs": 0, "simulationMode": [null, null, null, null, null], "rewards": [-10, -10, -10, -10, 10], "path": ["0", "0", "1", "2", "3", "4", "5"], "rt": [6399, 250, 2079, 83, 256], "actions": ["up", "up", "up", "right", "up"], "actionTimes": [11156, 11922, 14520, 15119, 15891], "queries": {"click": {"state": {"target": [], "time": []}, "edge": {"target": [], "time": []}}, "mouseover": {"state": {"target": [], "time": []}, "edge": {"target": [], "time": []}}, "mouseout": {"state": {"target": ["1", "0"], "time": [4015, 18248]}, "edge": {"target": [], "time": []}}}, "displayed_time": "16.40", "trialTime": 21979, "trial_type": "mouselab-mdp", "trial_index": 4, "time_elapsed": 451676, "internal_node_id": "0.0-2.0-2.0-1.0"}}, {"uniqueid": "w46288051:a78284931", "current_trial": 5, "dateTime": 1693580700601, "trialdata": {"view_history": [{"page_index": 0, "viewing_time": 43589}, {"page_index": 1, "viewing_time": 11662}], "rt": 55251, "trial_id": "mouselab_instructions_2_control", "trial_type": "instructions", "trial_index": 5, "time_elapsed": 506933, "internal_node_id": "0.0-2.0-3.0"}}, {"uniqueid": "w46288051:a78284931", "current_trial": 6, "dateTime": 1693580758502, "trialdata": {"rt": 57892, "response": {"Q0": "The cost for clicking on nodes may vary between nodes.", "Q1": "The better I perform the higher my bonus will be.", "Q2": "No, the structure of the web will be different each time.", "Q3": "To get the highest total score.", "Q4": "Only before moving the spider.", "Q5": "3 seconds"}, "question_order": [0, 1, 2, 3, 4, 5], "correct": {"Q0": "The cost for clicking on nodes may vary between nodes.", "Q1": "The better I perform the higher my bonus will be.", "Q2": "No, the amount of cash at each node of the web may be different each time.", "Q3": "To get the highest total score.", "Q4": "Only before moving the spider.", "Q5": "3 seconds"}, "trial_id": "mouselab_quiz_control", "trial_type": "survey-multi-choice", "trial_index": 6, "time_elapsed": 564834, "internal_node_id": "0.0-2.0-4.0"}}, {"uniqueid": "w46288051:a78284931", "current_trial": 7, "dateTime": 1693580765916, "trialdata": {"success": true, "trial_type": "fullscreen", "trial_index": 7, "time_elapsed": 572247, "internal_node_id": "0.0-2.1-0.1-0.1"}}, {"uniqueid": "w46288051:a78284931", "current_trial": 8, "dateTime": 1693580842500, "trialdata": {"view_history": [{"page_index": 0, "viewing_time": 36549}, {"page_index": 1, "viewing_time": 17460}, {"page_index": 2, "viewing_time": 5355}, {"page_index": 3, "viewing_time": 2687}, {"page_index": 2, "viewing_time": 7323}, {"page_index": 3, "viewing_time": 7207}], "rt": 76581, "trial_id": "mouselab_instructions_1_control", "trial_type": "instructions", "trial_index": 8, "time_elapsed": 648832, "internal_node_id": "0.0-2.1-1.1"}}, {"uniqueid": "w46288051:a78284931", "current_trial": 9, "dateTime": 1693580863400, "trialdata": {"revealed_states": [], "clicked_states": [], "num_clicks_accrued": [0, 0, 0, 0, 0, 0, 0, 0, 0, 0, 0, 0, 0], "stateRewards": ["", 10, -10, -10, 10, 10, 10, 10, 10, 10, 10, 10, 10, 10, 10, -10, -10, 10, 10, 10, -10, 10, -10, 10, 10, 10, -10, 10, 10, -10, -10, 10, -10, -10], "withholdReward": false, "trial_id": "practice_1", "block": "test", "trialIndex": 2, "score": 13.5, "costs": 0, "simulationMode": [null, null, null, null, null], "rewards": [10, -10, -10, 10, 10], "path": ["0", "0", "1", "2", "3", "4", "6"], "rt": [8964, 1353, 95, 118, 324], "actions": ["up", "up", "up", "right", "right"], "actionTimes": [10852, 12713, 13327, 13964, 14805], "queries": {"click": {"state": {"target": [], "time": []}, "edge": {"target": [], "time": []}}, "mouseover": {"state": {"target": [], "time": []}, "edge": {"target": [], "time": []}}, "mouseout": {"state": {"target": ["0"], "time": [18521]}, "edge": {"target": [], "time": []}}}, "displayed_time": "15.33", "trialTime": 20501, "trial_type": "mouselab-mdp", "trial_index": 9, "time_elapsed": 669731, "internal_node_id": "0.0-2.1-2.1-0.1"}}, {"uniqueid": "w46288051:a78284931", "current_trial": 10, "dateTime": 1693580881141, "trialdata": {"revealed_states": [], "clicked_states": [], "num_clicks_accrued": [0, 0, 0, 0, 0, 0, 0, 0, 0, 0, 0, 0, 0], "stateRewards": ["", -10, -10, -10, -10, 10, 10, 10, 10, -10, 10, -10, -10, 10, -10, 10, -10, 10, -10, -10, -10, -10, 10, 10, 10, 10, -10, -10, -10, -10, 10, 10, 10, 10], "withholdReward": false, "trial_id": "practice_2", "block": "test", "trialIndex": 3, "score": 13.5, "costs": 0, "simulationMode": [null, null, null, null, null], "rewards": [10, 10, 10, -10, -10], "path": ["0", "0", "23", "24", "25", "26", "27"], "rt": [4395, 901, 314, 221, 5], "actions": ["left", "left", "left", "up", "up"], "actionTimes": [9477, 10891, 11720, 12464, 12982], "queries": {"click": {"state": {"target": [], "time": []}, "edge": {"target": [], "time": []}}, "mouseover": {"state": {"target": [], "time": []}, "edge": {"target": [], "time": []}}, "mouseout": {"state": {"target": ["0", "0"], "time": [4168, 14136]}, "edge": {"target": [], "time": []}}}, "displayed_time": "13.53", "trialTime": 17325, "trial_type": "mouselab-mdp", "trial_index": 10, "time_elapsed": 687472, "internal_node_id": "0.0-2.1-2.1-1.1"}}, {"uniqueid": "w46288051:a78284931", "current_trial": 11, "dateTime": 1693580901596, "trialdata": {"view_history": [{"page_index": 0, "viewing_time": 18259}, {"page_index": 1, "viewing_time": 2192}], "rt": 20451, "trial_id": "mouselab_instructions_2_control", "trial_type": "instructions", "trial_index": 11, "time_elapsed": 707928, "internal_node_id": "0.0-2.1-3.1"}}, {"uniqueid": "w46288051:a78284931", "current_trial": 12, "dateTime": 1693581204382, "trialdata": {"rt": 302781, "response": {"Q0": "The cost for clicking on nodes may vary between nodes.", "Q1": "The better I perform the higher my bonus will be.", "Q2": "Yes.", "Q3": "To get the highest total score.", "Q4": "Only before moving the spider.", "Q5": "3 seconds"}, "question_order": [0, 1, 2, 3, 4, 5], "correct": {"Q0": "The cost for clicking on nodes may vary between nodes.", "Q1": "The better I perform the higher my bonus will be.", "Q2": "No, the amount of cash at each node of the web may be different each time.", "Q3": "To get the highest total score.", "Q4": "Only before moving the spider.", "Q5": "3 seconds"}, "trial_id": "mouselab_quiz_control", "trial_type": "survey-multi-choice", "trial_index": 12, "time_elapsed": 1010714, "internal_node_id": "0.0-2.1-4.1"}}, {"uniqueid": "w46288051:a78284931", "current_trial": 13, "dateTime": 1693581211328, "trialdata": {"success": true, "trial_type": "fullscreen", "trial_index": 13, "time_elapsed": 1017660, "internal_node_id": "0.0-2.2-0.2-0.2"}}, {"uniqueid": "w46288051:a78284931", "current_trial": 14, "dateTime": 1693581263276, "trialdata": {"view_history": [{"page_index": 0, "viewing_time": 7499}, {"page_index": 1, "viewing_time": 3801}, {"page_index": 2, "viewing_time": 6807}, {"page_index": 3, "viewing_time": 33838}], "rt": 51945, "trial_id": "mouselab_instructions_1_control", "trial_type": "instructions", "trial_index": 14, "time_elapsed": 1069608, "internal_node_id": "0.0-2.2-1.2"}}, {"uniqueid": "w46288051:a78284931", "current_trial": 15, "dateTime": 1693581274432, "trialdata": {"revealed_states": [], "clicked_states": [], "num_clicks_accrued": [0, 0, 0, 0, 0, 0, 0, 0, 0, 0, 0, 0, 0], "stateRewards": ["", 10, -10, -10, 10, 10, 10, 10, 10, 10, 10, 10, 10, 10, 10, -10, -10, 10, 10, 10, -10, 10, -10, 10, 10, 10, -10, 10, 10, -10, -10, 10, -10, -10], "withholdReward": false, "trial_id": "practice_1", "block": "test", "trialIndex": 4, "score": 13.5, "costs": 0, "simulationMode": [null, null, null, null, null], "rewards": [10, -10, -10, 10, 10], "path": ["0", "0", "1", "2", "3", "4", "6"], "rt": [1778, 500, 93, 3, 1076], "actions": ["up", "up", "up", "right", "right"], "actionTimes": [3482, 4501, 5111, 5624, 7224], "queries": {"click": {"state": {"target": [], "time": []}, "edge": {"target": [], "time": []}}, "mouseover": {"state": {"target": ["1"], "time": [2285]}, "edge": {"target": [], "time": []}}, "mouseout": {"state": {"target": ["2", "8", "10", "1", "1", "0"], "time": [677, 828, 860, 2330, 9195, 9662]}, "edge": {"target": [], "time": []}}}, "displayed_time": "7.73", "trialTime": 10721, "trial_type": "mouselab-mdp", "trial_index": 15, "time_elapsed": 1080764, "internal_node_id": "0.0-2.2-2.2-0.2"}}, {"uniqueid": "w46288051:a78284931", "current_trial": 16, "dateTime": 1693581290452, "trialdata": {"revealed_states": [], "clicked_states": [], "num_clicks_accrued": [0, 0, 0, 0, 0, 0, 0, 0, 0, 0, 0, 0, 0], "stateRewards": ["", -10, -10, -10, -10, 10, 10, 10, 10, -10, 10, -10, -10, 10, -10, 10, -10, 10, -10, -10, -10, -10, 10, 10, 10, 10, -10, -10, -10, -10, 10, 10, 10, 10], "withholdReward": false, "trial_id": "practice_2", "block": "test", "trialIndex": 5, "score": 53.5, "costs": 0, "simulationMode": [null, null, null, null, null], "rewards": [10, 10, 10, 10, 10], "path": ["0", "0", "23", "24", "25", "30", "32"], "rt": [2204, 387, 187, 498, 339], "actions": ["left", "left", "left", "down", "down"], "actionTimes": [8899, 9810, 10512, 11523, 12377], "queries": {"click": {"state": {"target": [], "time": []}, "edge": {"target": [], "time": []}}, "mouseover": {"state": {"target": [], "time": []}, "edge": {"target": [], "time": []}}, "mouseout": {"state": {"target": ["0"], "time": [13483]}, "edge": {"target": [], "time": []}}}, "displayed_time": "12.90", "trialTime": 15614, "trial_type": "mouselab-mdp", "trial_index": 16, "time_elapsed": 1096783, "internal_node_id": "0.0-2.2-2.2-1.2"}}, {"uniqueid": "w46288051:a78284931", "current_trial": 17, "dateTime": 1693581314167, "trialdata": {"view_history": [{"page_index": 0, "viewing_time": 21665}, {"page_index": 1, "viewing_time": 2046}], "rt": 23711, "trial_id": "mouselab_instructions_2_control", "trial_type": "instructions", "trial_index": 17, "time_elapsed": 1120499, "internal_node_id": "0.0-2.2-3.2"}}, {"uniqueid": "w46288051:a78284931", "current_trial": 18, "dateTime": 1693581393741, "trialdata": {"rt": 79569, "response": {"Q0": "The cost for clicking on nodes may vary between nodes.", "Q1": "The better I perform the higher my bonus will be.", "Q2": "No, the amount of cash at each node of the web may be different each time.", "Q3": "To get the highest total score.", "Q4": "Only before moving the spider.", "Q5": "3 seconds"}, "question_order": [0, 1, 2, 3, 4, 5], "correct": {"Q0": "The cost for clicking on nodes may vary between nodes.", "Q1": "The better I perform the higher my bonus will be.", "Q2": "No, the amount of cash at each node of the web may be different each time.", "Q3": "To get the highest total score.", "Q4": "Only before moving the spider.", "Q5": "3 seconds"}, "trial_id": "mouselab_quiz_control", "trial_type": "survey-multi-choice", "trial_index": 18, "time_elapsed": 1200073, "internal_node_id": "0.0-2.2-4.2"}}, {"uniqueid": "w46288051:a78284931", "current_trial": 19, "dateTime": 1693581402639, "trialdata": {"rt": 8886, "response": {"Q0": "No"}, "question_order": [0], "trial_id": "repeat_check", "trial_type": "survey-multi-choice", "trial_index": 19, "time_elapsed": 1208971, "internal_node_id": "0.0-4.0-0.0"}}, {"uniqueid": "w46288051:a78284931", "current_trial": 20, "dateTime": 1693581422401, "trialdata": {"rt": 19753, "stimulus": "\n<h1> Get ready to start the game! </h1>\n\nThank you for reading the instructions. Get ready start with the 40 rounds of this game.\n<br><br>\nIf you need to take a break, feel free to take one after the end of a round, before continuing to the next one.\n<br><br>\nRemember, the more money the spider gets, the bigger your bonus will be!\n<br><br>\n<div style='text-align: center;'>Press <code>space</code> to begin.</div>\n\n<br><br>\n(If, at any point, the <code>space</code> key does not take you to the next page, click once on the text and try again.)", "response": " ", "trial_id": "mdp_ready", "trial_type": "html-keyboard-response", "trial_index": 20, "time_elapsed": 1228733, "internal_node_id": "0.0-6.0-0.0"}}, {"uniqueid": "w46288051:a78284931", "current_trial": 21, "dateTime": 1693581444373, "trialdata": {"revealed_states": [], "clicked_states": [], "num_clicks_accrued": [0, 0, 0, 0, 0, 0, 0, 0, 0, 0, 0, 0, 0], "stateRewards": ["", -2, -4, 4, -11, -63, -60, -7, 2, -14, 81, -43, -1, -1, -5, 7, 10, 69, 40, 8, -83, 52, 60, 1, 2, 5, -5, 16, 64, 14, -3, 29, 7, -51], "withholdReward": false, "trial_id": "mdp_trial_1", "block": "test", "trialIndex": 6, "score": 19, "costs": 0, "simulationMode": [null, null, null, null, null], "rewards": [1, 2, 5, -5, 16], "path": ["0", "0", "23", "24", "25", "26", "27"], "rt": [2705, 215, 39, 6, 57], "actions": ["left", "left", "left", "up", "up"], "actionTimes": [6001, 6744, 7301, 7821, 8420], "queries": {"click": {"state": {"target": [], "time": []}, "edge": {"target": [], "time": []}}, "mouseover": {"state": {"target": [], "time": []}, "edge": {"target": [], "time": []}}, "mouseout": {"state": {"target": ["0", "12"], "time": [10756, 10953]}, "edge": {"target": [], "time": []}}}, "displayed_time": "17.31", "trialTime": 21573, "trial_type": "mouselab-mdp", "trial_index": 21, "time_elapsed": 1250705, "internal_node_id": "0.0-6.0-1.0-0.0"}}, {"uniqueid": "w46288051:a78284931", "current_trial": 22, "dateTime": 1693581462863, "trialdata": {"revealed_states": [], "clicked_states": [], "num_clicks_accrued": [0, 0, 0, 0, 0, 0, 0, 0, 0, 0, 0, 0, 0], "stateRewards": ["", -2, 2, 8, -6, -25, 3, 87, 2, -62, -2, 74, -2, -1, 2, -1, 79, 49, -37, -14, 5, 67, -9, -1, 2, -2, 5, 15, 38, 32, -14, -38, -38, 30], "withholdReward": false, "trial_id": "mdp_trial_2", "block": "test", "trialIndex": 7, "score": -23, "costs": 0, "simulationMode": [null, null, null, null, null], "rewards": [-2, 2, 8, -6, -25], "path": ["0", "0", "1", "2", "3", "4", "5"], "rt": [5043, 3549, 658, 992, 563], "actions": ["up", "up", "up", "right", "up"], "actionTimes": [7051, 11125, 12303, 13819, 14919], "queries": {"click": {"state": {"target": [], "time": []}, "edge": {"target": [], "time": []}}, "mouseover": {"state": {"target": [], "time": []}, "edge": {"target": [], "time": []}}, "mouseout": {"state": {"target": ["12", "0", "0"], "time": [1202, 8456, 15637]}, "edge": {"target": [], "time": []}}}, "displayed_time": "16.01", "trialTime": 18048, "trial_type": "mouselab-mdp", "trial_index": 22, "time_elapsed": 1269195, "internal_node_id": "0.0-6.0-1.0-1.0"}}, {"uniqueid": "w46288051:a78284931", "current_trial": 23, "dateTime": 1693581484814, "trialdata": {"revealed_states": [], "clicked_states": [], "num_clicks_accrued": [0, 0, 0, 0, 0, 0, 0, 0, 0, 0, 0, 0, 0], "stateRewards": ["", -1, 2, -2, 13, -56, -28, 10, 14, 53, -80, -29, 1, -3, -3, -14, 14, 9, -40, -9, 18, 18, 48, 1, 1, 1, -9, 64, -39, -9, 7, -52, -78, 7], "withholdReward": false, "trial_id": "mdp_trial_3", "block": "test", "trialIndex": 8, "score": -5, "costs": 0, "simulationMode": [null, null, null, null, null], "rewards": [1, -3, -3, -14, 14], "path": ["0", "0", "12", "13", "14", "15", "16"], "rt": [3593, 723, 186, 257, 60], "actions": ["right", "right", "right", "up", "up"], "actionTimes": [6846, 8088, 8782, 9562, 10145], "queries": {"click": {"state": {"target": [], "time": []}, "edge": {"target": [], "time": []}}, "mouseover": {"state": {"target": [], "time": []}, "edge": {"target": [], "time": []}}, "mouseout": {"state": {"target": ["0", "1", "2", "1", "0", "0", "24", "23", "0", "12", "0"], "time": [650, 709, 825, 1794, 13060, 18658, 18841, 19093, 19143, 19642, 20925]}, "edge": {"target": [], "time": []}}}, "displayed_time": "17.26", "trialTime": 21424, "trial_type": "mouselab-mdp", "trial_index": 23, "time_elapsed": 1291146, "internal_node_id": "0.0-6.0-1.0-2.0"}}, {"uniqueid": "w46288051:a78284931", "current_trial": 24, "dateTime": 1693581502969, "trialdata": {"revealed_states": [], "clicked_states": ["1"], "num_clicks_accrued": [0, 0, 0, 0, 0, 0, 0, 0, 0, 0, 0, 0, 0], "stateRewards": ["", 2, -1, 5, 6, 10, 86, 55, 10, -45, 63, -71, 1, -2, 5, -8, -50, -72, 36, 15, 61, 12, 33, -1, -4, 6, 5, 79, -56, -21, -16, -87, 60, -81], "withholdReward": false, "trial_id": "mdp_trial_4", "block": "test", "trialIndex": 9, "score": 43.6, "costs": -1.4, "simulationMode": [null, null, null, null, null], "rewards": [-1, -4, 6, -16, 60], "path": ["0", "0", "23", "24", "25", "30", "32"], "rt": [9106, 271, 161, 287, 818], "actions": ["left", "left", "left", "down", "down"], "actionTimes": [10894, 11688, 12364, 13153, 14482], "queries": {"click": {"state": {"target": ["1"], "time": [3638]}, "edge": {"target": [], "time": []}}, "mouseover": {"state": {"target": ["1", "1", "23"], "time": [2778, 3177, 6526]}, "edge": {"target": [], "time": []}}, "mouseout": {"state": {"target": ["0", "1", "1", "1"], "time": [696, 2826, 3760, 4484]}, "edge": {"target": [], "time": []}}}, "displayed_time": "15.80", "trialTime": 17715, "trial_type": "mouselab-mdp", "trial_index": 24, "time_elapsed": 1309300, "internal_node_id": "0.0-6.0-1.0-3.0"}}, {"uniqueid": "w46288051:a78284931", "current_trial": 25, "dateTime": 1693581525059, "trialdata": {"revealed_states": [], "clicked_states": ["12"], "num_clicks_accrued": [0, 0, 0, 0, 0, 0, 0, 0, 0, 0, 0, 0, 0], "stateRewards": ["", -1, 1, -5, -6, -78, 47, -13, 12, 48, -88, 20, 2, -3, -2, 13, -20, 37, -57, 14, -38, 30, 31, -2, -2, 8, 2, -23, 78, 28, 12, -74, -88, 8], "withholdReward": false, "trial_id": "mdp_trial_5", "block": "test", "trialIndex": 10, "score": -18.4, "costs": -1.4, "simulationMode": [null, null, null, null, null], "rewards": [-2, -2, 8, 2, -23], "path": ["0", "0", "23", "24", "25", "26", "27"], "rt": [4761, 15, 58, 404, 66], "actions": ["left", "left", "left", "up", "up"], "actionTimes": [8556, 9096, 9673, 10589, 11183], "queries": {"click": {"state": {"target": ["12"], "time": [4667]}, "edge": {"target": [], "time": []}}, "mouseover": {"state": {"target": ["12"], "time": [4312]}, "edge": {"target": [], "time": []}}, "mouseout": {"state": {"target": ["1", "12", "12"], "time": [794, 4792, 5081]}, "edge": {"target": [], "time": []}}}, "displayed_time": "17.80", "trialTime": 21623, "trial_type": "mouselab-mdp", "trial_index": 25, "time_elapsed": 1331390, "internal_node_id": "0.0-6.0-1.0-4.0"}}, {"uniqueid": "w46288051:a78284931", "current_trial": 26, "dateTime": 1693581542714, "trialdata": {"revealed_states": [], "clicked_states": [], "num_clicks_accrued": [0, 0, 0, 0, 0, 0, 0, 0, 0, 0, 0, 0, 0], "stateRewards": ["", 1, 2, -8, 9, 18, -83, -11, 6, -64, -48, 17, -2, -2, -5, -3, -24, -3, -86, -2, 48, -41, -22, -2, 4, 7, 8, 81, 13, -48, 10, 61, 19, 57], "withholdReward": false, "trial_id": "mdp_trial_6", "block": "test", "trialIndex": 11, "score": -36, "costs": 0, "simulationMode": [null, null, null, null, null], "rewards": [-2, -2, -5, -3, -24], "path": ["0", "0", "12", "13", "14", "15", "16"], "rt": [3308, 88, 133, 180, 47], "actions": ["right", "right", "right", "up", "up"], "actionTimes": [5089, 5700, 6348, 7047, 7615], "queries": {"click": {"state": {"target": [], "time": []}, "edge": {"target": [], "time": []}}, "mouseover": {"state": {"target": [], "time": []}, "edge": {"target": [], "time": []}}, "mouseout": {"state": {"target": ["0", "12", "13", "15"], "time": [9194, 11158, 11393, 11443]}, "edge": {"target": [], "time": []}}}, "displayed_time": "15.79", "trialTime": 17196, "trial_type": "mouselab-mdp", "trial_index": 26, "time_elapsed": 1349045, "internal_node_id": "0.0-6.0-1.0-5.0"}}, {"uniqueid": "w46288051:a78284931", "current_trial": 27, "dateTime": 1693581561649, "trialdata": {"revealed_states": [], "clicked_states": [], "num_clicks_accrued": [0, 0, 0, 0, 0, 0, 0, 0, 0, 0, 0, 0, 0], "stateRewards": ["", 2, -1, -2, -5, -47, -57, -33, -11, 31, -18, -72, -2, 1, -4, -8, -46, -53, -50, 15, -85, -9, 39, -2, -2, 1, 14, -1, -8, 53, -12, -41, -74, 62], "withholdReward": false, "trial_id": "mdp_trial_7", "block": "test", "trialIndex": 12, "score": -63, "costs": 0, "simulationMode": [null, null, null, null, null], "rewards": [-2, 1, -4, -8, -50], "path": ["0", "0", "12", "13", "14", "15", "18"], "rt": [1144, 595, 293, 10, 260], "actions": ["right", "right", "right", "up", "left"], "actionTimes": [2985, 4089, 4901, 5423, 6221], "queries": {"click": {"state": {"target": [], "time": []}, "edge": {"target": [], "time": []}}, "mouseover": {"state": {"target": [], "time": []}, "edge": {"target": [], "time": []}}, "mouseout": {"state": {"target": ["16", "13", "12", "1", "0"], "time": [192, 259, 876, 1090, 7490]}, "edge": {"target": [], "time": []}}}, "displayed_time": "15.85", "trialTime": 18398, "trial_type": "mouselab-mdp", "trial_index": 27, "time_elapsed": 1367981, "internal_node_id": "0.0-6.0-1.0-6.0"}}, {"uniqueid": "w46288051:a78284931", "current_trial": 28, "dateTime": 1693581582878, "trialdata": {"revealed_states": [], "clicked_states": ["2", "8", "6"], "num_clicks_accrued": [0, 0, 0, 0, 0, 0, 0, 0, 0, 0, 0, 0, 0], "stateRewards": ["", -2, -4, -6, 12, -58, -70, -80, 2, 16, -88, -62, 1, 2, -5, 11, 77, -35, -44, -5, 18, -83, 87, 1, -3, -5, 13, -44, -21, -86, 10, -52, 8, 29], "withholdReward": false, "trial_id": "mdp_trial_8", "block": "test", "trialIndex": 13, "score": 75.8, "costs": -4.199999999999999, "simulationMode": [null, null, null, null, null], "rewards": [1, 2, -5, -5, 87], "path": ["0", "0", "12", "13", "14", "19", "22"], "rt": [7775, 542, 132, 379, 368], "actions": ["right", "right", "right", "down", "left"], "actionTimes": [10528, 11592, 12237, 13133, 14018], "queries": {"click": {"state": {"target": ["2", "8", "6"], "time": [4397, 6287, 8159]}, "edge": {"target": [], "time": []}}, "mouseover": {"state": {"target": ["1", "2", "3", "8", "3", "4", "6"], "time": [3368, 3932, 5666, 5967, 7386, 7438, 7869]}, "edge": {"target": [], "time": []}}, "mouseout": {"state": {"target": ["0", "0", "1", "2", "3", "8", "3", "4", "6"], "time": [1029, 1082, 3482, 5602, 5720, 7332, 7420, 7487, 15230]}, "edge": {"target": [], "time": []}}}, "displayed_time": "16.76", "trialTime": 20687, "trial_type": "mouselab-mdp", "trial_index": 28, "time_elapsed": 1389209, "internal_node_id": "0.0-6.0-1.0-7.0"}}, {"uniqueid": "w46288051:a78284931", "current_trial": 29, "dateTime": 1693581614633, "trialdata": {"revealed_states": [], "clicked_states": ["27", "31"], "num_clicks_accrued": [0, 0, 0, 0, 0, 0, 0, 0, 0, 0, 0, 0, 0], "stateRewards": ["", -2, 1, -7, 9, 8, 25, 61, -7, -17, 69, -81, 1, 4, -4, -11, 16, 67, 44, 3, 6, -45, -54, -2, 3, 6, -11, -15, 32, -47, 3, -39, -6, -88], "withholdReward": false, "trial_id": "mdp_trial_9", "block": "test", "trialIndex": 14, "score": 25.2, "costs": -2.8, "simulationMode": [null, null, null, null, null, null], "rewards": [-2, 3, 6, -11, 32], "path": ["0", "0", "23", "24", "25", "26", "28"], "rt": [4938, 978, 219, 543, 664, 700], "actions": ["left", "left", "left", "left", "up", "right"], "actionTimes": [19212, 20200, 20944, 21997, 23170, 24390], "queries": {"click": {"state": {"target": ["27", "31"], "time": [16608, 18327]}, "edge": {"target": [], "time": []}}, "mouseover": {"state": {"target": ["26", "27", "26", "25", "30", "31"], "time": [15950, 16218, 17221, 17242, 17271, 17705]}, "edge": {"target": [], "time": []}}, "mouseout": {"state": {"target": ["5", "7", "26", "27", "26", "25", "30", "31", "23"], "time": [12983, 13102, 16001, 17202, 17238, 17255, 17289, 26599, 26717]}, "edge": {"target": [], "time": []}}}, "displayed_time": "28.29", "trialTime": 31281, "trial_type": "mouselab-mdp", "trial_index": 29, "time_elapsed": 1420965, "internal_node_id": "0.0-6.0-1.0-8.0"}}, {"uniqueid": "w46288051:a78284931", "current_trial": 30, "dateTime": 1693581633863, "trialdata": {"revealed_states": [], "clicked_states": [], "num_clicks_accrued": [0, 0, 0, 0, 0, 0, 0, 0, 0, 0, 0, 0, 0], "stateRewards": ["", -1, -3, 1, -4, -48, -63, -49, -2, -84, -19, 65, 2, -2, -2, -12, -4, 59, 9, 6, 75, 69, -13, -1, -3, -3, -2, -37, -68, -36, 13, 32, 18, -14], "withholdReward": false, "trial_id": "mdp_trial_10", "block": "test", "trialIndex": 15, "score": -24, "costs": 0, "simulationMode": [null, null, null, null, null], "rewards": [-1, -3, 1, -2, -19], "path": ["0", "0", "1", "2", "3", "8", "10"], "rt": [1118, 135, 232, 199, 462], "actions": ["up", "up", "up", "left", "down"], "actionTimes": [4071, 4730, 5477, 6196, 7172], "queries": {"click": {"state": {"target": [], "time": []}, "edge": {"target": [], "time": []}}, "mouseover": {"state": {"target": [], "time": []}, "edge": {"target": [], "time": []}}, "mouseout": {"state": {"target": ["1", "0"], "time": [2175, 8756]}, "edge": {"target": [], "time": []}}}, "displayed_time": "16.96", "trialTime": 18770, "trial_type": "mouselab-mdp", "trial_index": 30, "time_elapsed": 1440194, "internal_node_id": "0.0-6.0-1.0-9.0"}}, {"uniqueid": "w46288051:a78284931", "current_trial": 31, "dateTime": 1693581657957, "trialdata": {"revealed_states": [], "clicked_states": [], "num_clicks_accrued": [0, 0, 0, 0, 0, 0, 0, 0, 0, 0, 0, 0, 0], "stateRewards": ["", -1, -3, -6, -2, -7, 80, -45, -3, -38, -72, 76, 2, 1, 7, 4, -62, 14, -74, 14, -87, -21, -88, -2, 1, -7, -10, 66, 56, -76, 10, -29, -72, -70], "withholdReward": false, "trial_id": "mdp_trial_11", "block": "test", "trialIndex": 16, "score": -64, "costs": 0, "simulationMode": [null, null, null, null, null], "rewards": [2, 1, 7, 14, -88], "path": ["0", "0", "12", "13", "14", "19", "22"], "rt": [2967, 221, 226, 197, 168], "actions": ["right", "right", "right", "down", "left"], "actionTimes": [10569, 11312, 12055, 12769, 13461], "queries": {"click": {"state": {"target": [], "time": []}, "edge": {"target": [], "time": []}}, "mouseover": {"state": {"target": [], "time": []}, "edge": {"target": [], "time": []}}, "mouseout": {"state": {"target": ["0", "1", "7", "7", "1", "0", "0"], "time": [735, 784, 819, 1085, 6700, 6935, 14971]}, "edge": {"target": [], "time": []}}}, "displayed_time": "21.61", "trialTime": 23611, "trial_type": "mouselab-mdp", "trial_index": 31, "time_elapsed": 1464288, "internal_node_id": "0.0-6.0-1.0-10.0"}}, {"uniqueid": "w46288051:a78284931", "current_trial": 32, "dateTime": 1693581682422, "trialdata": {"revealed_states": [], "clicked_states": [], "num_clicks_accrued": [0, 0, 0, 0, 0, 0, 0, 0, 0, 0, 0, 0, 0], "stateRewards": ["", 2, -2, -3, 10, -4, -1, -11, -8, -9, -36, -78, 2, 1, 7, -7, 44, -1, -31, -1, 26, 47, 83, 2, -4, -4, -6, -52, -76, -81, -1, -59, 45, 67], "withholdReward": false, "trial_id": "mdp_trial_12", "block": "test", "trialIndex": 17, "score": -66, "costs": 0, "simulationMode": [null, null, null, null, null], "rewards": [2, -4, -4, -1, -59], "path": ["0", "0", "23", "24", "25", "30", "31"], "rt": [2811, 233, 1532, 1345, 263], "actions": ["left", "left", "left", "down", "right"], "actionTimes": [11052, 11796, 13847, 15708, 16490], "queries": {"click": {"state": {"target": [], "time": []}, "edge": {"target": [], "time": []}}, "mouseover": {"state": {"target": ["1", "2"], "time": [8827, 8860]}, "edge": {"target": [], "time": []}}, "mouseout": {"state": {"target": ["0", "1", "2", "8", "11", "27", "26", "24", "0"], "time": [7885, 8844, 12709, 12759, 12926, 13124, 13207, 18224, 18407]}, "edge": {"target": [], "time": []}}}, "displayed_time": "22.25", "trialTime": 23935, "trial_type": "mouselab-mdp", "trial_index": 32, "time_elapsed": 1488753, "internal_node_id": "0.0-6.0-1.0-11.0"}}, {"uniqueid": "w46288051:a78284931", "current_trial": 33, "dateTime": 1693581701842, "trialdata": {"revealed_states": [], "clicked_states": [], "num_clicks_accrued": [0, 0, 0, 0, 0, 0, 0, 0, 0, 0, 0, 0, 0], "stateRewards": ["", -2, -4, -2, -13, -15, 87, -19, -6, -80, 30, 12, 1, 1, -8, 2, 55, 56, 15, 11, -68, -7, 55, -2, 3, -3, -3, 48, 62, 4, 1, -3, 69, -33], "withholdReward": false, "trial_id": "mdp_trial_13", "block": "test", "trialIndex": 18, "score": -36, "costs": 0, "simulationMode": [null, null, null, null, null], "rewards": [-2, -4, -2, -13, -15], "path": ["0", "0", "1", "2", "3", "4", "5"], "rt": [10893, 149, 209, 74, 582], "actions": ["up", "up", "up", "right", "up"], "actionTimes": [12696, 13364, 14088, 14688, 15775], "queries": {"click": {"state": {"target": [], "time": []}, "edge": {"target": [], "time": []}}, "mouseover": {"state": {"target": ["1", "2", "2", "3", "4", "4", "7", "12", "23", "2", "1"], "time": [2958, 3008, 3159, 3658, 3993, 4194, 4492, 8592, 11675, 11774, 11875]}, "edge": {"target": [], "time": []}}, "mouseout": {"state": {"target": ["1", "1", "2", "2", "3", "4", "4", "7", "12", "23", "2", "1", "30", "32"], "time": [1093, 2978, 3043, 3545, 3962, 4026, 4210, 7475, 8610, 11709, 11809, 11958, 17575, 17658]}, "edge": {"target": [], "time": []}}}, "displayed_time": "16.30", "trialTime": 18727, "trial_type": "mouselab-mdp", "trial_index": 33, "time_elapsed": 1508174, "internal_node_id": "0.0-6.0-1.0-12.0"}}, {"uniqueid": "w46288051:a78284931", "current_trial": 34, "dateTime": 1693581722913, "trialdata": {"revealed_states": [], "clicked_states": ["22"], "num_clicks_accrued": [0, 0, 0, 0, 0, 0, 0, 0, 0, 0, 0, 0, 0], "stateRewards": ["", 1, -3, -6, -5, 47, 80, -29, 11, -71, 10, -29, -2, 3, -6, 12, 2, -78, -6, 8, 34, -16, -5, -1, 3, 3, -13, 84, -36, -62, -3, -27, 66, 15], "withholdReward": false, "trial_id": "mdp_trial_14", "block": "test", "trialIndex": 19, "score": 35.6, "costs": -1.4, "simulationMode": [null, null, null, null, null, null], "rewards": [-2, 3, -6, 8, 34], "path": ["0", "0", "12", "13", "14", "19", "20"], "rt": [3273, 466, 356, 49, 709, 515], "actions": ["right", "right", "right", "right", "down", "right"], "actionTimes": [6524, 6994, 7862, 8435, 9663, 10686], "queries": {"click": {"state": {"target": ["22"], "time": [5290]}, "edge": {"target": [], "time": []}}, "mouseover": {"state": {"target": ["18", "13", "14", "19", "22"], "time": [3999, 4250, 4349, 4449, 4848]}, "edge": {"target": [], "time": []}}, "mouseout": {"state": {"target": ["7", "0", "0", "1", "18", "13", "14", "19", "22"], "time": [1049, 1499, 2367, 2498, 4048, 4332, 4383, 4831, 5416]}, "edge": {"target": [], "time": []}}}, "displayed_time": "17.26", "trialTime": 20555, "trial_type": "mouselab-mdp", "trial_index": 34, "time_elapsed": 1529244, "internal_node_id": "0.0-6.0-1.0-13.0"}}, {"uniqueid": "w46288051:a78284931", "current_trial": 35, "dateTime": 1693581745186, "trialdata": {"revealed_states": [], "clicked_states": [], "num_clicks_accrued": [0, 0, 0, 0, 0, 0, 0, 0, 0, 0, 0, 0, 0], "stateRewards": ["", 1, 4, -8, -13, -13, -87, -77, -10, -44, 54, 42, 2, -3, -4, 12, -9, -80, 52, 9, 84, -2, -65, 1, -4, -5, -6, 8, 80, 32, 13, -59, -5, -13], "withholdReward": false, "trial_id": "mdp_trial_15", "block": "test", "trialIndex": 20, "score": -73, "costs": 0, "simulationMode": [null, null, null, null, null], "rewards": [2, -3, -4, 12, -80], "path": ["0", "0", "12", "13", "14", "15", "17"], "rt": [1053, 158, 164, 182, 28], "actions": ["right", "right", "right", "up", "right"], "actionTimes": [6638, 7320, 8012, 8710, 9238], "queries": {"click": {"state": {"target": [], "time": []}, "edge": {"target": [], "time": []}}, "mouseover": {"state": {"target": [], "time": []}, "edge": {"target": [], "time": []}}, "mouseout": {"state": {"target": ["13", "0", "23", "28", "28", "1", "8", "10", "2"], "time": [4115, 4173, 4190, 4240, 4424, 4740, 12090, 12291, 12358]}, "edge": {"target": [], "time": []}}}, "displayed_time": "19.59", "trialTime": 21790, "trial_type": "mouselab-mdp", "trial_index": 35, "time_elapsed": 1551517, "internal_node_id": "0.0-6.0-1.0-14.0"}}, {"uniqueid": "w46288051:a78284931", "current_trial": 36, "dateTime": 1693581764661, "trialdata": {"revealed_states": [], "clicked_states": [], "num_clicks_accrued": [0, 0, 0, 0, 0, 0, 0, 0, 0, 0, 0, 0, 0], "stateRewards": ["", -2, -3, 8, -4, -30, 31, 69, 9, 66, 87, 64, -2, 2, 8, 5, 47, 16, -39, -8, -54, 51, -19, 1, -2, -2, -11, -25, -26, 43, -9, 19, -84, 86], "withholdReward": false, "trial_id": "mdp_trial_16", "block": "test", "trialIndex": 21, "score": 99, "costs": 0, "simulationMode": [null, null, null, null, null], "rewards": [-2, -3, 8, 9, 87], "path": ["0", "0", "1", "2", "3", "8", "10"], "rt": [1146, 261, 402, 396, 520], "actions": ["up", "up", "up", "left", "down"], "actionTimes": [2809, 3587, 4528, 5440, 6466], "queries": {"click": {"state": {"target": [], "time": []}, "edge": {"target": [], "time": []}}, "mouseover": {"state": {"target": [], "time": []}, "edge": {"target": [], "time": []}}, "mouseout": {"state": {"target": [], "time": []}, "edge": {"target": [], "time": []}}}, "displayed_time": "15.68", "trialTime": 18797, "trial_type": "mouselab-mdp", "trial_index": 36, "time_elapsed": 1570992, "internal_node_id": "0.0-6.0-1.0-15.0"}}, {"uniqueid": "w46288051:a78284931", "current_trial": 37, "dateTime": 1693581784743, "trialdata": {"revealed_states": [], "clicked_states": [], "num_clicks_accrued": [0, 0, 0, 0, 0, 0, 0, 0, 0, 0, 0, 0, 0], "stateRewards": ["", -1, -3, -7, -7, -76, 30, -49, 11, -70, 56, 2, 1, 4, -3, -14, -59, -83, -25, -9, -21, -67, -73, -2, 4, 4, -9, -11, -32, 60, 9, -87, 22, -64], "withholdReward": false, "trial_id": "mdp_trial_17", "block": "test", "trialIndex": 22, "score": -70, "costs": 0, "simulationMode": [null, null, null, null, null], "rewards": [-1, -3, -7, 11, -70], "path": ["0", "0", "1", "2", "3", "8", "9"], "rt": [542, 217, 139, 791, 59], "actions": ["up", "up", "up", "left", "up"], "actionTimes": [4461, 5192, 5840, 7142, 7731], "queries": {"click": {"state": {"target": [], "time": []}, "edge": {"target": [], "time": []}}, "mouseover": {"state": {"target": [], "time": []}, "edge": {"target": [], "time": []}}, "mouseout": {"state": {"target": ["0", "0"], "time": [11729, 17115]}, "edge": {"target": [], "time": []}}}, "displayed_time": "17.92", "trialTime": 19523, "trial_type": "mouselab-mdp", "trial_index": 37, "time_elapsed": 1591074, "internal_node_id": "0.0-6.0-1.0-16.0"}}, {"uniqueid": "w46288051:a78284931", "current_trial": 38, "dateTime": 1693581815888, "trialdata": {"revealed_states": [], "clicked_states": [], "num_clicks_accrued": [0, 0, 0, 0, 0, 0, 0, 0, 0, 0, 0, 0, 0], "stateRewards": ["", -1, -4, -3, 1, -45, -67, -24, 14, 32, 22, 22, -1, 1, -5, -7, 72, 84, -79, -5, 19, -40, -2, -1, -2, 8, -3, 84, -25, -28, 11, 64, -66, 77], "withholdReward": false, "trial_id": "mdp_trial_18", "block": "test", "trialIndex": 23, "score": -12, "costs": 0, "simulationMode": [null, null, null, null, null], "rewards": [-1, 1, -5, -5, -2], "path": ["0", "0", "12", "13", "14", "19", "22"], "rt": [1512, 12, 683, 79, 65], "actions": ["right", "right", "right", "down", "left"], "actionTimes": [6214, 6745, 7966, 8563, 9156], "queries": {"click": {"state": {"target": [], "time": []}, "edge": {"target": [], "time": []}}, "mouseover": {"state": {"target": [], "time": []}, "edge": {"target": [], "time": []}}, "mouseout": {"state": {"target": ["22", "0", "23", "0", "13"], "time": [3309, 3408, 3667, 3744, 11077]}, "edge": {"target": [], "time": []}}}, "displayed_time": "18.71", "trialTime": 30601, "trial_type": "mouselab-mdp", "trial_index": 38, "time_elapsed": 1622219, "internal_node_id": "0.0-6.0-1.0-17.0"}}, {"uniqueid": "w46288051:a78284931", "current_trial": 39, "dateTime": 1693581849682, "trialdata": {"revealed_states": [], "clicked_states": [], "num_clicks_accrued": [0, 0, 0, 0, 0, 0, 0, 0, 0, 0, 0, 0, 0], "stateRewards": ["", -1, 3, 2, 9, 41, 4, -46, -12, -54, -87, -25, 2, 3, -1, 11, -77, 12, -33, -9, -32, 35, 72, 1, 3, -7, 4, 37, 65, -73, 6, 77, -43, 8], "withholdReward": false, "trial_id": "mdp_trial_19", "block": "test", "trialIndex": 24, "score": 54, "costs": 0, "simulationMode": [null, null, null, null, null], "rewards": [-1, 3, 2, 9, 41], "path": ["0", "0", "1", "2", "3", "4", "5"], "rt": [3212, 115, 421, 25, 121], "actions": ["up", "up", "up", "right", "up"], "actionTimes": [8826, 9469, 10418, 10958, 11602], "queries": {"click": {"state": {"target": [], "time": []}, "edge": {"target": [], "time": []}}, "mouseover": {"state": {"target": ["1", "7", "2", "2", "3", "3"], "time": [5980, 6063, 6312, 6580, 6748, 7046]}, "edge": {"target": [], "time": []}}, "mouseout": {"state": {"target": ["26", "26", "1", "7", "2", "2", "3", "3", "8", "11", "9", "1", "23"], "time": [3863, 3962, 6014, 6131, 6463, 6680, 6779, 28074, 28194, 29304, 29315, 30560, 30579]}, "edge": {"target": [], "time": []}}}, "displayed_time": "19.62", "trialTime": 33251, "trial_type": "mouselab-mdp", "trial_index": 39, "time_elapsed": 1656013, "internal_node_id": "0.0-6.0-1.0-18.0"}}, {"uniqueid": "w46288051:a78284931", "current_trial": 40, "dateTime": 1693581869065, "trialdata": {"revealed_states": [], "clicked_states": [], "num_clicks_accrued": [0, 0, 0, 0, 0, 0, 0, 0, 0, 0, 0, 0, 0], "stateRewards": ["", 2, 1, -3, 7, 46, 11, -36, 16, 71, 5, 1, 2, -2, -8, -3, -4, 6, 55, 7, 68, -54, 2, 1, 1, 6, -6, 42, -4, -84, -11, -65, 63, 25], "withholdReward": false, "trial_id": "mdp_trial_20", "block": "test", "trialIndex": 25, "score": 1, "costs": 0, "simulationMode": [null, null, null, null, null], "rewards": [2, -2, -8, 7, 2], "path": ["0", "0", "12", "13", "14", "19", "22"], "rt": [1819, 322, 36, 219, 1196], "actions": ["right", "right", "right", "down", "left"], "actionTimes": [3851, 4695, 5249, 5985, 7694], "queries": {"click": {"state": {"target": [], "time": []}, "edge": {"target": [], "time": []}}, "mouseover": {"state": {"target": ["1", "2", "3", "2", "1"], "time": [2846, 2869, 2900, 3049, 3067]}, "edge": {"target": [], "time": []}}, "mouseout": {"state": {"target": ["1", "1", "2", "3", "2", "1", "0"], "time": [1195, 2866, 2881, 3028, 3062, 3095, 18057]}, "edge": {"target": [], "time": []}}}, "displayed_time": "16.03", "trialTime": 18886, "trial_type": "mouselab-mdp", "trial_index": 40, "time_elapsed": 1675396, "internal_node_id": "0.0-6.0-1.0-19.0"}}, {"uniqueid": "w46288051:a78284931", "current_trial": 41, "dateTime": 1693581889542, "trialdata": {"revealed_states": [], "clicked_states": [], "num_clicks_accrued": [0, 0, 0, 0, 0, 0, 0, 0, 0, 0, 0, 0, 0], "stateRewards": ["", -1, 2, 6, 11, 21, -21, -21, -6, 48, -71, 88, -1, -3, 3, 7, 64, 2, 9, -4, 37, -67, 72, 2, 2, -8, -8, -10, 71, -40, -3, 73, 80, 47], "withholdReward": false, "trial_id": "mdp_trial_21", "block": "test", "trialIndex": 26, "score": 39, "costs": 0, "simulationMode": [null, null, null, null, null], "rewards": [-1, 2, 6, 11, 21], "path": ["0", "0", "1", "2", "3", "4", "5"], "rt": [494, 219, 120, 576, 494], "actions": ["up", "up", "up", "right", "up"], "actionTimes": [4056, 4799, 5445, 6537, 7556], "queries": {"click": {"state": {"target": [], "time": []}, "edge": {"target": [], "time": []}}, "mouseover": {"state": {"target": [], "time": []}, "edge": {"target": [], "time": []}}, "mouseout": {"state": {"target": ["1", "0", "0", "0", "12", "12"], "time": [975, 1057, 1424, 11873, 18991, 19392]}, "edge": {"target": [], "time": []}}}, "displayed_time": "17.57", "trialTime": 19881, "trial_type": "mouselab-mdp", "trial_index": 41, "time_elapsed": 1695873, "internal_node_id": "0.0-6.0-1.0-20.0"}}, {"uniqueid": "w46288051:a78284931", "current_trial": 42, "dateTime": 1693581913269, "trialdata": {"revealed_states": [], "clicked_states": [], "num_clicks_accrued": [0, 0, 0, 0, 0, 0, 0, 0, 0, 0, 0, 0, 0], "stateRewards": ["", -2, -4, -2, 10, -8, -15, -47, 7, -84, 53, 5, -1, 2, -7, 3, 83, 31, 47, -1, 30, -8, 69, 2, -4, -1, 8, -7, 12, -8, -8, -13, 30, -84], "withholdReward": false, "trial_id": "mdp_trial_22", "block": "test", "trialIndex": 27, "score": 17, "costs": 0, "simulationMode": [null, null, null, null, null], "rewards": [2, -4, -1, 8, 12], "path": ["0", "0", "23", "24", "25", "26", "28"], "rt": [1533, 59, 194, 665, 448], "actions": ["left", "left", "left", "up", "right"], "actionTimes": [7202, 7786, 8503, 9688, 10657], "queries": {"click": {"state": {"target": [], "time": []}, "edge": {"target": [], "time": []}}, "mouseover": {"state": {"target": [], "time": []}, "edge": {"target": [], "time": []}}, "mouseout": {"state": {"target": ["18", "6", "12", "0", "0", "0"], "time": [497, 719, 4721, 5070, 16186, 22184]}, "edge": {"target": [], "time": []}}}, "displayed_time": "19.68", "trialTime": 23190, "trial_type": "mouselab-mdp", "trial_index": 42, "time_elapsed": 1719601, "internal_node_id": "0.0-6.0-1.0-21.0"}}, {"uniqueid": "w46288051:a78284931", "current_trial": 43, "dateTime": 1693581932991, "trialdata": {"revealed_states": [], "clicked_states": [], "num_clicks_accrued": [0, 0, 0, 0, 0, 0, 0, 0, 0, 0, 0, 0, 0], "stateRewards": ["", 1, 3, 3, -10, 52, 68, 59, 12, 7, 49, 21, -2, -3, -4, -2, -2, 63, 63, -4, 44, 43, -76, -2, -3, -6, 13, 48, 36, 12, -5, -36, -33, -11], "withholdReward": false, "trial_id": "mdp_trial_23", "block": "test", "trialIndex": 28, "score": 26, "costs": 0, "simulationMode": [null, null, null, null, null], "rewards": [1, 3, 3, 12, 7], "path": ["0", "0", "1", "2", "3", "8", "9"], "rt": [1241, 67, 568, 592, 23], "actions": ["up", "up", "up", "left", "up"], "actionTimes": [2912, 3497, 4580, 5689, 6234], "queries": {"click": {"state": {"target": [], "time": []}, "edge": {"target": [], "time": []}}, "mouseover": {"state": {"target": [], "time": []}, "edge": {"target": [], "time": []}}, "mouseout": {"state": {"target": ["0", "1", "0", "32", "12", "12"], "time": [379, 458, 959, 16958, 17340, 17968]}, "edge": {"target": [], "time": []}}}, "displayed_time": "15.67", "trialTime": 19187, "trial_type": "mouselab-mdp", "trial_index": 43, "time_elapsed": 1739322, "internal_node_id": "0.0-6.0-1.0-22.0"}}, {"uniqueid": "w46288051:a78284931", "current_trial": 44, "dateTime": 1693581953386, "trialdata": {"revealed_states": [], "clicked_states": [], "num_clicks_accrued": [0, 0, 0, 0, 0, 0, 0, 0, 0, 0, 0, 0, 0], "stateRewards": ["", 1, -2, -2, 10, -31, -77, 35, 9, -47, 8, 48, -2, 1, -4, -3, -26, -50, 43, -11, 76, -38, 17, 1, -1, 6, 10, 15, -9, 12, -8, 85, 11, -55], "withholdReward": false, "trial_id": "mdp_trial_24", "block": "test", "trialIndex": 29, "score": 35, "costs": 0, "simulationMode": [null, null, null, null, null], "rewards": [-2, 1, -4, -3, 43], "path": ["0", "0", "12", "13", "14", "15", "18"], "rt": [587, 59, 1175, 24, 233], "actions": ["right", "right", "right", "up", "left"], "actionTimes": [3204, 3785, 5471, 6015, 6761], "queries": {"click": {"state": {"target": [], "time": []}, "edge": {"target": [], "time": []}}, "mouseover": {"state": {"target": [], "time": []}, "edge": {"target": [], "time": []}}, "mouseout": {"state": {"target": ["0", "0"], "time": [1689, 14553]}, "edge": {"target": [], "time": []}}}, "displayed_time": "16.62", "trialTime": 19748, "trial_type": "mouselab-mdp", "trial_index": 44, "time_elapsed": 1759718, "internal_node_id": "0.0-6.0-1.0-23.0"}}, {"uniqueid": "w46288051:a78284931", "current_trial": 45, "dateTime": 1693581972139, "trialdata": {"revealed_states": [], "clicked_states": [], "num_clicks_accrued": [0, 0, 0, 0, 0, 0, 0, 0, 0, 0, 0, 0, 0], "stateRewards": ["", 2, -1, 8, -2, -16, 69, -39, -7, -13, -27, -86, 2, -2, 2, 13, -34, -16, -20, -5, 19, 81, 32, -2, -1, 2, -14, 20, 80, 58, 4, 70, 12, 73], "withholdReward": false, "trial_id": "mdp_trial_25", "block": "test", "trialIndex": 30, "score": 29, "costs": 0, "simulationMode": [null, null, null, null, null], "rewards": [2, -2, 2, -5, 32], "path": ["0", "0", "12", "13", "14", "19", "22"], "rt": [1475, 7, 132, 111, 1169], "actions": ["right", "right", "right", "down", "left"], "actionTimes": [3456, 3986, 4658, 5288, 6982], "queries": {"click": {"state": {"target": [], "time": []}, "edge": {"target": [], "time": []}}, "mouseover": {"state": {"target": [], "time": []}, "edge": {"target": [], "time": []}}, "mouseout": {"state": {"target": ["0", "0", "1", "4", "7", "7", "6", "13", "13"], "time": [1154, 7420, 7523, 7605, 8020, 8244, 8337, 8419, 8538]}, "edge": {"target": [], "time": []}}}, "displayed_time": "15.99", "trialTime": 18185, "trial_type": "mouselab-mdp", "trial_index": 45, "time_elapsed": 1778471, "internal_node_id": "0.0-6.0-1.0-24.0"}}, {"uniqueid": "w46288051:a78284931", "current_trial": 46, "dateTime": 1693581995274, "trialdata": {"revealed_states": [], "clicked_states": [], "num_clicks_accrued": [0, 0, 0, 0, 0, 0, 0, 0, 0, 0, 0, 0, 0], "stateRewards": ["", 1, -3, -2, 14, 49, -40, -39, 2, 26, -61, 73, 1, -4, -8, 12, 79, 29, -65, -13, 55, -26, 27, -1, 3, 3, 9, -17, -60, -18, -8, 35, -88, 69], "withholdReward": false, "trial_id": "mdp_trial_26", "block": "test", "trialIndex": 31, "score": -30, "costs": 0, "simulationMode": [null, null, null, null, null], "rewards": [1, -3, -2, 14, -40], "path": ["0", "0", "1", "2", "3", "4", "6"], "rt": [1500, 539, 56, 160, 687], "actions": ["up", "up", "up", "right", "right"], "actionTimes": [3179, 4240, 4822, 5508, 6697], "queries": {"click": {"state": {"target": [], "time": []}, "edge": {"target": [], "time": []}}, "mouseover": {"state": {"target": ["1", "7"], "time": [2355, 2407]}, "edge": {"target": [], "time": []}}, "mouseout": {"state": {"target": ["32", "32", "31", "1", "0", "1", "7", "3", "9", "5"], "time": [453, 572, 606, 954, 2334, 2374, 2422, 21722, 21822, 22056]}, "edge": {"target": [], "time": []}}}, "displayed_time": "15.68", "trialTime": 22523, "trial_type": "mouselab-mdp", "trial_index": 46, "time_elapsed": 1801605, "internal_node_id": "0.0-6.0-1.0-25.0"}}, {"uniqueid": "w46288051:a78284931", "current_trial": 47, "dateTime": 1693582030106, "trialdata": {"revealed_states": [], "clicked_states": [], "num_clicks_accrued": [0, 0, 0, 0, 0, 0, 0, 0, 0, 0, 0, 0, 0], "stateRewards": ["", 1, 4, -4, 14, 35, 51, 19, -13, 54, 78, -74, -2, -1, -3, 13, -11, -42, -73, -15, -24, -3, -69, 2, -1, 5, 16, -27, 73, 58, 9, -60, 5, -60], "withholdReward": false, "trial_id": "mdp_trial_27", "block": "test", "trialIndex": 32, "score": 95, "costs": 0, "simulationMode": [null, null, null, null, null], "rewards": [2, -1, 5, 16, 73], "path": ["0", "0", "23", "24", "25", "26", "28"], "rt": [2148, 134, 430, 758, 145], "actions": ["left", "left", "left", "up", "right"], "actionTimes": [4248, 4885, 5834, 7113, 7779], "queries": {"click": {"state": {"target": [], "time": []}, "edge": {"target": [], "time": []}}, "mouseover": {"state": {"target": [], "time": []}, "edge": {"target": [], "time": []}}, "mouseout": {"state": {"target": ["9", "2", "1", "0", "7", "10", "1"], "time": [438, 866, 899, 32519, 32580, 32950, 33063]}, "edge": {"target": [], "time": []}}}, "displayed_time": "16.11", "trialTime": 34249, "trial_type": "mouselab-mdp", "trial_index": 47, "time_elapsed": 1836437, "internal_node_id": "0.0-6.0-1.0-26.0"}}, {"uniqueid": "w46288051:a78284931", "current_trial": 48, "dateTime": 1693582054405, "trialdata": {"revealed_states": [], "clicked_states": [], "num_clicks_accrued": [0, 0, 0, 0, 0, 0, 0, 0, 0, 0, 0, 0, 0], "stateRewards": ["", -2, -1, -1, 5, -54, -87, 35, 2, -8, 20, -22, 1, 3, 6, 13, -75, -32, -55, -3, 56, 62, -22, -1, -4, -1, -7, -51, 84, 70, 7, -15, 5, 55], "withholdReward": false, "trial_id": "mdp_trial_28", "block": "test", "trialIndex": 33, "score": -15, "costs": 0, "simulationMode": [null, null, null, null, null], "rewards": [1, 3, 6, -3, -22], "path": ["0", "0", "12", "13", "14", "19", "22"], "rt": [1825, 4, 828, 387, 63], "actions": ["right", "right", "right", "down", "left"], "actionTimes": [5394, 5934, 7298, 8187, 8766], "queries": {"click": {"state": {"target": [], "time": []}, "edge": {"target": [], "time": []}}, "mouseover": {"state": {"target": [], "time": []}, "edge": {"target": [], "time": []}}, "mouseout": {"state": {"target": ["1", "1"], "time": [2532, 2698]}, "edge": {"target": [], "time": []}}}, "displayed_time": "17.57", "trialTime": 23717, "trial_type": "mouselab-mdp", "trial_index": 48, "time_elapsed": 1860736, "internal_node_id": "0.0-6.0-1.0-27.0"}}, {"uniqueid": "w46288051:a78284931", "current_trial": 49, "dateTime": 1693582097544, "trialdata": {"revealed_states": [], "clicked_states": [], "num_clicks_accrued": [0, 0, 0, 0, 0, 0, 0, 0, 0, 0, 0, 0, 0], "stateRewards": ["", 2, -1, -1, -9, -81, -30, 55, -6, 78, 25, 62, 2, 4, -1, 9, -85, 1, -19, 1, -60, 12, -34, 1, 4, -1, -13, -24, -16, -83, -8, 16, 43, 9], "withholdReward": false, "trial_id": "mdp_trial_29", "block": "test", "trialIndex": 34, "score": 19, "costs": 0, "simulationMode": [null, null, null, null, null], "rewards": [2, -1, -1, -6, 25], "path": ["0", "0", "1", "2", "3", "8", "10"], "rt": [2073, 73, 683, 30, 522], "actions": ["up", "up", "up", "left", "down"], "actionTimes": [4876, 5459, 6662, 7216, 8260], "queries": {"click": {"state": {"target": [], "time": []}, "edge": {"target": [], "time": []}}, "mouseover": {"state": {"target": ["1", "3", "3", "2", "1"], "time": [3478, 3530, 3596, 3764, 3816]}, "edge": {"target": [], "time": []}}, "mouseout": {"state": {"target": ["1", "3", "3", "2", "1"], "time": [3500, 3563, 3730, 3812, 41492]}, "edge": {"target": [], "time": []}}}, "displayed_time": "16.81", "trialTime": 42473, "trial_type": "mouselab-mdp", "trial_index": 49, "time_elapsed": 1903876, "internal_node_id": "0.0-6.0-1.0-28.0"}}, {"uniqueid": "w46288051:a78284931", "current_trial": 50, "dateTime": 1693582119106, "trialdata": {"revealed_states": [], "clicked_states": [], "num_clicks_accrued": [0, 0, 0, 0, 0, 0, 0, 0, 0, 0, 0, 0, 0], "stateRewards": ["", -1, 1, -6, -1, 80, 23, 2, -11, 73, -81, 59, 1, 3, 5, -1, -26, 28, -3, 16, -59, -13, -50, -2, -2, 2, 15, -50, 86, 17, -4, 37, 35, 44], "withholdReward": false, "trial_id": "mdp_trial_30", "block": "test", "trialIndex": 35, "score": -5, "costs": 0, "simulationMode": [null, null, null, null, null], "rewards": [-1, 1, -6, -1, 2], "path": ["0", "0", "1", "2", "3", "4", "7"], "rt": [1442, 26, 36, 340, 62], "actions": ["up", "up", "up", "right", "down"], "actionTimes": [2849, 3383, 3945, 4798, 5384], "queries": {"click": {"state": {"target": [], "time": []}, "edge": {"target": [], "time": []}}, "mouseover": {"state": {"target": [], "time": []}, "edge": {"target": [], "time": []}}, "mouseout": {"state": {"target": ["1", "0", "0"], "time": [568, 1968, 19349]}, "edge": {"target": [], "time": []}}}, "displayed_time": "15.42", "trialTime": 20880, "trial_type": "mouselab-mdp", "trial_index": 50, "time_elapsed": 1925437, "internal_node_id": "0.0-6.0-1.0-29.0"}}, {"uniqueid": "w46288051:a78284931", "current_trial": 51, "dateTime": 1693582138222, "trialdata": {"revealed_states": [], "clicked_states": [], "num_clicks_accrued": [0, 0, 0, 0, 0, 0, 0, 0, 0, 0, 0, 0, 0], "stateRewards": ["", 1, 1, -3, 2, 22, -25, -11, -5, 50, 49, 3, 1, -1, 8, 14, -85, -30, 57, -6, -39, -16, 59, -2, -1, 5, 5, 59, -16, 8, 4, 67, 56, -9], "withholdReward": false, "trial_id": "mdp_trial_31", "block": "test", "trialIndex": 36, "score": 61, "costs": 0, "simulationMode": [null, null, null, null, null], "rewards": [1, -1, 8, -6, 59], "path": ["0", "0", "12", "13", "14", "19", "22"], "rt": [1156, 23, 157, 638, 304], "actions": ["right", "right", "right", "down", "left"], "actionTimes": [3062, 3605, 4274, 5435, 6254], "queries": {"click": {"state": {"target": [], "time": []}, "edge": {"target": [], "time": []}}, "mouseover": {"state": {"target": [], "time": []}, "edge": {"target": [], "time": []}}, "mouseout": {"state": {"target": ["0", "0", "0", "1"], "time": [1027, 12326, 17542, 17643]}, "edge": {"target": [], "time": []}}}, "displayed_time": "15.91", "trialTime": 18524, "trial_type": "mouselab-mdp", "trial_index": 51, "time_elapsed": 1944554, "internal_node_id": "0.0-6.0-1.0-30.0"}}, {"uniqueid": "w46288051:a78284931", "current_trial": 52, "dateTime": 1693582158446, "trialdata": {"revealed_states": [], "clicked_states": [], "num_clicks_accrued": [0, 0, 0, 0, 0, 0, 0, 0, 0, 0, 0, 0, 0], "stateRewards": ["", -2, 3, -5, -7, 66, 43, -60, -4, -70, -75, 4, -1, 2, 2, -13, 54, 11, -40, -1, 77, 32, 15, -2, 3, -8, -9, -35, 83, -27, 6, -74, -34, 44], "withholdReward": false, "trial_id": "mdp_trial_32", "block": "test", "trialIndex": 37, "score": -78, "costs": 0, "simulationMode": [null, null, null, null, null], "rewards": [-2, 3, -5, -4, -70], "path": ["0", "0", "1", "2", "3", "8", "9"], "rt": [1298, 224, 99, 232, 472], "actions": ["up", "up", "up", "left", "up"], "actionTimes": [3214, 3947, 4557, 5309, 6298], "queries": {"click": {"state": {"target": [], "time": []}, "edge": {"target": [], "time": []}}, "mouseover": {"state": {"target": [], "time": []}, "edge": {"target": [], "time": []}}, "mouseout": {"state": {"target": ["0", "1", "2", "1"], "time": [985, 18366, 18466, 18617]}, "edge": {"target": [], "time": []}}}, "displayed_time": "15.93", "trialTime": 19524, "trial_type": "mouselab-mdp", "trial_index": 52, "time_elapsed": 1964777, "internal_node_id": "0.0-6.0-1.0-31.0"}}, {"uniqueid": "w46288051:a78284931", "current_trial": 53, "dateTime": 1693582186228, "trialdata": {"revealed_states": [], "clicked_states": [], "num_clicks_accrued": [0, 0, 0, 0, 0, 0, 0, 0, 0, 0, 0, 0, 0], "stateRewards": ["", 1, 1, 7, -11, 80, -20, -53, -14, 3, 31, 27, 2, -1, -8, -10, 33, 41, 86, 9, 78, -37, -13, -1, -2, -6, -8, -80, 75, 4, -16, -49, -74, 24], "withholdReward": false, "trial_id": "mdp_trial_33", "block": "test", "trialIndex": 38, "score": -1, "costs": 0, "simulationMode": [null, null, null, null, null], "rewards": [-1, -2, -6, -16, 24], "path": ["0", "0", "23", "24", "25", "30", "33"], "rt": [964, 100, 408, 200, 704], "actions": ["left", "left", "left", "down", "left"], "actionTimes": [6275, 6889, 7811, 8519, 9741], "queries": {"click": {"state": {"target": [], "time": []}, "edge": {"target": [], "time": []}}, "mouseover": {"state": {"target": ["0"], "time": [5500]}, "edge": {"target": [], "time": []}}, "mouseout": {"state": {"target": ["0", "23", "27"], "time": [26065, 26095, 26146]}, "edge": {"target": [], "time": []}}}, "displayed_time": "19.32", "trialTime": 27156, "trial_type": "mouselab-mdp", "trial_index": 53, "time_elapsed": 1992559, "internal_node_id": "0.0-6.0-1.0-32.0"}}, {"uniqueid": "w46288051:a78284931", "current_trial": 54, "dateTime": 1693582207162, "trialdata": {"revealed_states": [], "clicked_states": [], "num_clicks_accrued": [0, 0, 0, 0, 0, 0, 0, 0, 0, 0, 0, 0, 0], "stateRewards": ["", -1, -2, 4, 9, 10, -75, 39, 16, -43, 88, -19, -1, 1, 2, 4, -31, 10, 73, 12, 41, -64, -81, -2, 2, -6, 1, -81, -1, -26, 3, -59, -3, -20], "withholdReward": false, "trial_id": "mdp_trial_34", "block": "test", "trialIndex": 39, "score": -65, "costs": 0, "simulationMode": [null, null, null, null, null], "rewards": [-1, -2, 4, 9, -75], "path": ["0", "0", "1", "2", "3", "4", "6"], "rt": [1250, 364, 908, 355, 222], "actions": ["up", "up", "up", "right", "right"], "actionTimes": [3165, 4038, 5463, 6344, 7075], "queries": {"click": {"state": {"target": [], "time": []}, "edge": {"target": [], "time": []}}, "mouseover": {"state": {"target": [], "time": []}, "edge": {"target": [], "time": []}}, "mouseout": {"state": {"target": ["29", "27", "10", "1", "2", "2", "23"], "time": [698, 732, 865, 18498, 18597, 18747, 19215]}, "edge": {"target": [], "time": []}}}, "displayed_time": "15.92", "trialTime": 20210, "trial_type": "mouselab-mdp", "trial_index": 54, "time_elapsed": 2013493, "internal_node_id": "0.0-6.0-1.0-33.0"}}, {"uniqueid": "w46288051:a78284931", "current_trial": 55, "dateTime": 1693582226019, "trialdata": {"revealed_states": [], "clicked_states": [], "num_clicks_accrued": [0, 0, 0, 0, 0, 0, 0, 0, 0, 0, 0, 0, 0], "stateRewards": ["", 1, 2, -5, 14, 54, -14, -25, 16, -5, -87, 78, -1, 1, 3, -3, 52, 53, 53, -10, 73, -69, -48, 2, 3, 1, 8, -62, -7, 85, 7, 82, 52, -28], "withholdReward": false, "trial_id": "mdp_trial_35", "block": "test", "trialIndex": 40, "score": 7, "costs": 0, "simulationMode": [null, null, null, null, null], "rewards": [2, 3, 1, 8, -7], "path": ["0", "0", "23", "24", "25", "26", "28"], "rt": [1649, 133, 143, 311, 338], "actions": ["left", "left", "left", "up", "right"], "actionTimes": [4474, 5130, 5789, 6624, 7481], "queries": {"click": {"state": {"target": [], "time": []}, "edge": {"target": [], "time": []}}, "mouseover": {"state": {"target": [], "time": []}, "edge": {"target": [], "time": []}}, "mouseout": {"state": {"target": ["0", "1", "0", "7", "13"], "time": [1678, 2041, 15071, 15190, 15829]}, "edge": {"target": [], "time": []}}}, "displayed_time": "16.83", "trialTime": 18196, "trial_type": "mouselab-mdp", "trial_index": 55, "time_elapsed": 2032351, "internal_node_id": "0.0-6.0-1.0-34.0"}}, {"uniqueid": "w46288051:a78284931", "current_trial": 56, "dateTime": 1693582253126, "trialdata": {"revealed_states": [], "clicked_states": [], "num_clicks_accrued": [0, 0, 0, 0, 0, 0, 0, 0, 0, 0, 0, 0, 0], "stateRewards": ["", -1, 4, 3, 12, -27, 34, -33, 3, -63, 1, 6, 2, 2, -6, -11, -77, -85, 68, -6, 51, 81, -60, -2, -2, 1, 15, 20, 15, 68, -10, -14, 6, -4], "withholdReward": false, "trial_id": "mdp_trial_36", "block": "test", "trialIndex": 41, "score": 55, "costs": 0, "simulationMode": [null, null, null, null, null], "rewards": [2, 2, -6, -11, 68], "path": ["0", "0", "12", "13", "14", "15", "18"], "rt": [1183, 434, 96, 265, 892], "actions": ["right", "right", "right", "up", "left"], "actionTimes": [3467, 4411, 5019, 5806, 7216], "queries": {"click": {"state": {"target": [], "time": []}, "edge": {"target": [], "time": []}}, "mouseover": {"state": {"target": [], "time": []}, "edge": {"target": [], "time": []}}, "mouseout": {"state": {"target": ["13", "0", "1", "18", "12"], "time": [953, 24940, 24961, 26050, 26101]}, "edge": {"target": [], "time": []}}}, "displayed_time": "16.29", "trialTime": 26433, "trial_type": "mouselab-mdp", "trial_index": 56, "time_elapsed": 2059458, "internal_node_id": "0.0-6.0-1.0-35.0"}}, {"uniqueid": "w46288051:a78284931", "current_trial": 57, "dateTime": 1693582271548, "trialdata": {"revealed_states": [], "clicked_states": ["1"], "num_clicks_accrued": [0, 0, 0, 0, 0, 0, 0, 0, 0, 0, 0, 0, 0], "stateRewards": ["", 1, -4, -6, -1, -21, 17, -72, 10, 77, 67, -46, -1, 4, -2, 14, -66, -49, -45, -15, -52, 23, -67, 2, -2, -2, 15, -3, 45, -64, 5, -44, 83, 61], "withholdReward": false, "trial_id": "mdp_trial_37", "block": "test", "trialIndex": 42, "score": -31.4, "costs": -1.4, "simulationMode": [null, null, null, null, null], "rewards": [-1, 4, -2, 14, -45], "path": ["0", "0", "12", "13", "14", "15", "18"], "rt": [3023, 20, 1207, 642, 788], "actions": ["right", "right", "right", "up", "left"], "actionTimes": [5357, 5899, 7629, 8785, 10096], "queries": {"click": {"state": {"target": ["1"], "time": [3453]}, "edge": {"target": [], "time": []}}, "mouseover": {"state": {"target": ["1", "1"], "time": [2955, 3200]}, "edge": {"target": [], "time": []}}, "mouseout": {"state": {"target": ["1", "0", "1", "1", "1", "0"], "time": [1503, 2908, 2988, 3578, 17152, 17187]}, "edge": {"target": [], "time": []}}}, "displayed_time": "16.34", "trialTime": 17759, "trial_type": "mouselab-mdp", "trial_index": 57, "time_elapsed": 2077880, "internal_node_id": "0.0-6.0-1.0-36.0"}}, {"uniqueid": "w46288051:a78284931", "current_trial": 58, "dateTime": 1693582289318, "trialdata": {"revealed_states": [], "clicked_states": ["2"], "num_clicks_accrued": [0, 0, 0, 0, 0, 0, 0, 0, 0, 0, 0, 0, 0], "stateRewards": ["", -1, -1, 7, -15, -43, -21, -84, -9, -45, -66, 2, 1, -2, 2, 8, -27, 44, -52, -5, -84, 11, 53, 1, 4, -4, 16, 83, -82, -15, -16, 68, -43, 81], "withholdReward": false, "trial_id": "mdp_trial_38", "block": "test", "trialIndex": 43, "score": -44.4, "costs": -1.4, "simulationMode": [null, null, null, null, null], "rewards": [1, -2, 2, 8, -52], "path": ["0", "0", "12", "13", "14", "15", "18"], "rt": [4328, 648, 135, 143, 196], "actions": ["right", "right", "right", "up", "left"], "actionTimes": [6013, 7179, 7836, 8490, 9208], "queries": {"click": {"state": {"target": ["2"], "time": [3227]}, "edge": {"target": [], "time": []}}, "mouseover": {"state": {"target": ["1", "2", "2"], "time": [2259, 2279, 2575]}, "edge": {"target": [], "time": []}}, "mouseout": {"state": {"target": ["0", "0", "1", "2", "2", "1", "23"], "time": [774, 2214, 2276, 2292, 16025, 16491, 16527]}, "edge": {"target": [], "time": []}}}, "displayed_time": "15.69", "trialTime": 17052, "trial_type": "mouselab-mdp", "trial_index": 58, "time_elapsed": 2095650, "internal_node_id": "0.0-6.0-1.0-37.0"}}, {"uniqueid": "w46288051:a78284931", "current_trial": 59, "dateTime": 1693582307040, "trialdata": {"revealed_states": [], "clicked_states": [], "num_clicks_accrued": [0, 0, 0, 0, 0, 0, 0, 0, 0, 0, 0, 0, 0], "stateRewards": ["", -2, 1, -5, 2, -68, 80, 33, 10, 67, -59, 20, -1, -3, 3, 14, 74, -2, 24, -16, 63, 80, 46, -1, 4, 6, 12, 83, -38, -43, -4, 43, 14, -79], "withholdReward": false, "trial_id": "mdp_trial_39", "block": "test", "trialIndex": 44, "score": 104, "costs": 0, "simulationMode": [null, null, null, null, null], "rewards": [-1, 4, 6, 12, 83], "path": ["0", "0", "23", "24", "25", "26", "27"], "rt": [1048, 363, 35, 5, 297], "actions": ["left", "left", "left", "up", "up"], "actionTimes": [2914, 3800, 4343, 4860, 5688], "queries": {"click": {"state": {"target": [], "time": []}, "edge": {"target": [], "time": []}}, "mouseover": {"state": {"target": [], "time": []}, "edge": {"target": [], "time": []}}, "mouseout": {"state": {"target": ["1", "12", "0"], "time": [800, 983, 13101]}, "edge": {"target": [], "time": []}}}, "displayed_time": "15.87", "trialTime": 17034, "trial_type": "mouselab-mdp", "trial_index": 59, "time_elapsed": 2113372, "internal_node_id": "0.0-6.0-1.0-38.0"}}, {"uniqueid": "w46288051:a78284931", "current_trial": 60, "dateTime": 1693582326346, "trialdata": {"revealed_states": [], "clicked_states": [], "num_clicks_accrued": [0, 0, 0, 0, 0, 0, 0, 0, 0, 0, 0, 0, 0], "stateRewards": ["", -1, 1, -2, 5, 73, 15, 61, 8, 7, 38, 76, 2, 2, -4, -6, -6, -26, 43, -5, -45, -85, -35, -2, 1, -4, 15, -10, 69, 72, -11, 84, -49, -38], "withholdReward": false, "trial_id": "mdp_trial_40", "block": "test", "trialIndex": 45, "score": 64, "costs": 0, "simulationMode": [null, null, null, null, null], "rewards": [-1, 1, -2, 5, 61], "path": ["0", "0", "1", "2", "3", "4", "7"], "rt": [1051, 223, 494, 888, 423], "actions": ["up", "up", "up", "right", "down"], "actionTimes": [3537, 4284, 5294, 6704, 7653], "queries": {"click": {"state": {"target": [], "time": []}, "edge": {"target": [], "time": []}}, "mouseover": {"state": {"target": [], "time": []}, "edge": {"target": [], "time": []}}, "mouseout": {"state": {"target": ["0"], "time": [1559]}, "edge": {"target": [], "time": []}}}, "displayed_time": "16.50", "trialTime": 18617, "trial_type": "mouselab-mdp", "trial_index": 60, "time_elapsed": 2132677, "internal_node_id": "0.0-6.0-1.0-39.0"}}, {"uniqueid": "w46288051:a78284931", "current_trial": 61, "dateTime": 1693582384977, "trialdata": {"rt": 58625, "response": {"Q0": "$-2 to $2", "Q1": "$-16 to $16", "Q2": "$-88 to $88", "Q3": "The cost was always $1.4.", "Q4": "Slightly motivated"}, "question_order": [0, 1, 2, 3, 4], "trial_id": "final_quiz_control", "trial_type": "survey-multi-choice", "trial_index": 61, "time_elapsed": 2191308, "internal_node_id": "0.0-6.0-2.0"}}, {"uniqueid": "w46288051:a78284931", "current_trial": 62, "dateTime": 1693582437502, "trialdata": {"rt": 52514, "response": {"Q0": "I did not choose what i chose in the previous round", "Q1": "I was not able to master it ", "Q2": "It was bit difficult"}, "trial_id": "self_report_control", "trial_type": "survey-text", "trial_index": 62, "time_elapsed": 2243834, "internal_node_id": "0.0-6.0-3.0"}}, {"uniqueid": "w46288051:a78284931", "current_trial": 63, "dateTime": 1693582461576, "trialdata": {"rt": 24068, "response": {"gender": "female", "age": "22", "colorblind": "1", "effort": "0"}, "trial_type": "survey-html-form", "trial_index": 63, "time_elapsed": 2267908, "internal_node_id": "0.0-6.0-4.0"}}, {"uniqueid": "w46288051:a78284931", "current_trial": 64, "dateTime": 1693582477533, "trialdata": {"rt": 15946, "response": {"Q0": "NO", "Q1": "No", "Q2": ""}, "trial_type": "survey-text", "trial_index": 64, "time_elapsed": 2283865, "internal_node_id": "0.0-6.0-5.0"}}, {"uniqueid": "w46288051:a78284931", "current_trial": 65, "dateTime": 1693582484573, "trialdata": {"rt": 7030, "stimulus": "<h1>Completion Code Instructions (1/2)</h1>\n<br><br><br><br>\nYou have reached the end of the experiment! The completion code consists of two parts: (1) a code with 2 characters (2) a code with 6 characters. On this page, you will receive the second part of the code. The first part of the completion code will be on the next page.\n<br><br>\nThe second part of your completion code is: <b>EWEK22</b>\n<br><br>\nPlease note this down. Then, press 'Next' in order to find the first part of your completion code. Once the data has been saved, you will receive this code either in this window or in the original browser window where you started the experiment.\n <br><br>\n<h2 style='color: red;'>Note: this is <strong>NOT</strong> the full completion code. Copy this down and click 'Next' to get the full completion code on the next page.</h2>", "response": 0, "trial_type": "html-button-response", "trial_index": 65, "time_elapsed": 2290905, "internal_node_id": "0.0-6.0-6.0"}}, {"uniqueid": "w46288051:a78284931", "current_trial": 66, "dateTime": 1693582485591, "trialdata": {"success": true, "trial_type": "fullscreen", "trial_index": 66, "time_elapsed": 2291923, "internal_node_id": "0.0-7.0"}}], "questiondata": {"params": {"CODE": "C6DMOQA6", "MIN_TIME": 14, "inspectCost": 1, "startTime": "Fri Sep 01 2023 16:56:31 GMT+0200 (South Africa Standard Time)", "bonusRate": 0.002, "variance": "1_2_4_8_44", "branching": "31123"}, "final_score": 144}, "eventdata": [{"eventtype": "initialized", "value": null, "timestamp": 1693580190499, "interval": 0}, {"eventtype": "window_resize", "value": [1280, 622], "timestamp": 1693580190499, "interval": 0}, {"eventtype": "window_resize", "value": [1280, 622], "timestamp": 1693580191057, "interval": 558}, {"eventtype": "window_resize", "value": [1280, 720], "timestamp": 1693580199393, "interval": 8336}, {"eventtype": "focus", "value": "off", "timestamp": 1693580762181, "interval": 562788}, {"eventtype": "focus", "value": "on", "timestamp": 1693580762183, "interval": 2}, {"eventtype": "window_resize", "value": [1280, 622], "timestamp": 1693580762407, "interval": 224}, {"eventtype": "window_resize", "value": [1280, 720], "timestamp": 1693580765154, "interval": 2747}, {"eventtype": "focus", "value": "off", "timestamp": 1693581208079, "interval": 442925}, {"eventtype": "focus", "value": "on", "timestamp": 1693581208080, "interval": 1}, {"eventtype": "window_resize", "value": [1280, 622], "timestamp": 1693581208303, "interval": 223}, {"eventtype": "window_resize", "value": [1280, 720], "timestamp": 1693581210552, "interval": 2249}, {"eventtype": "window_resize", "value": [1280, 622], "timestamp": 1693582484841, "interval": 1274289}], "useragent": "Mozilla/5.0 (Windows NT 10.0; Win64; x64) AppleWebKit/537.36 (KHTML, like Gecko) Chrome/116.0.0.0 Safari/537.36", "mode": "live", "id": "w46288051:a78284931", "status": "user data saved", "Beginhit": "2023-09-01 14:56:38.321774", "Beginexp": "2023-09-01 14:56:51.921654", "Endhit": "2023-09-01 15:34:59.868697", "psiturkStatus": 3, "browser": "<redacted>", "platform": "windows", "language": "en-ZA"}