{"condition": 1, "counterbalance": 0, "assignmentId": "a38585653", "workerId": "w29928502", "hitId": "h75741429", "currenttrial": 62, "bonus": 0, "data": [{"uniqueid": "w29928502:a38585653", "current_trial": 0, "dateTime": 1693480803306, "trialdata": {"success": true, "trial_type": "fullscreen", "trial_index": 0, "time_elapsed": 2978, "internal_node_id": "0.0-0.0"}}, {"uniqueid": "w29928502:a38585653", "current_trial": 1, "dateTime": 1693480816004, "trialdata": {"view_history": [{"page_index": 0, "viewing_time": 12695}], "rt": 12696, "trial_id": "exp_instructions_misaligned", "trial_type": "instructions", "trial_index": 1, "time_elapsed": 15676, "internal_node_id": "0.0-1.0"}}, {"uniqueid": "w29928502:a38585653", "current_trial": 2, "dateTime": 1693480989307, "trialdata": {"view_history": [{"page_index": 0, "viewing_time": 89359}, {"page_index": 1, "viewing_time": 22284}, {"page_index": 2, "viewing_time": 39669}, {"page_index": 3, "viewing_time": 21985}], "rt": 173297, "trial_id": "mouselab_instructions_1_misaligned", "trial_type": "instructions", "trial_index": 2, "time_elapsed": 188979, "internal_node_id": "0.0-2.0-1.0"}}, {"uniqueid": "w29928502:a38585653", "current_trial": 3, "dateTime": 1693481076705, "trialdata": {"revealed_states": [], "clicked_states": ["12", "13", "1", "23", "26", "30", "32", "21", "19", "14", "15", "17", "6", "5", "3", "8", "9", "11", "27", "29"], "num_clicks_accrued": [0, 0, 0, 0, 0, 0, 0, 0, 0, 0, 0, 0, 0], "stateRewards": ["", -10, -10, -10, -10, -10, 10, -10, 10, -10, 10, 10, -10, -10, -10, 10, -10, 10, 10, 10, 10, 10, -10, -10, 10, 10, 10, 10, 10, -10, -10, -10, 10, -10], "withholdReward": false, "trial_id": "practice_1", "block": "test", "trialIndex": 0, "score": 3.5, "costs": -10, "simulationMode": [null, null, null, null, null], "rewards": [-10, 10, 10, -10, 10], "path": ["0", "0", "23", "24", "25", "30", "32"], "rt": [70273, 1033, 354, 141, 106], "actions": ["left", "left", "left", "down", "down"], "actionTimes": [76061, 77610, 78479, 79133, 79747], "queries": {"click": {"state": {"target": ["12", "13", "1", "23", "26", "30", "32", "21", "19", "14", "15", "17", "6", "5", "3", "8", "9", "11", "27", "29"], "time": [8905, 12578, 15914, 17885, 19884, 22883, 24209, 28063, 31290, 37576, 40012, 41096, 43094, 44141, 46495, 50589, 53329, 55677, 59507, 61861]}, "edge": {"target": [], "time": []}}, "mouseover": {"state": {"target": ["12", "23", "14", "13", "23", "1", "23", "26", "25", "30", "32", "21", "21", "19", "14", "15", "17", "17", "6", "5", "4", "3", "8", "9", "11", "27", "29", "29", "26", "26", "26", "23", "24", "31"], "time": [8652, 10696, 12079, 12300, 13862, 15563, 16961, 19648, 20730, 21516, 23747, 27579, 27887, 30910, 37405, 39682, 40614, 40947, 42840, 43913, 44447, 44933, 50487, 51457, 54267, 57047, 61537, 69096, 69444, 71808, 72176, 72491, 72801, 75079]}, "edge": {"target": [], "time": []}}, "mouseout": {"state": {"target": ["12", "0", "23", "0", "12", "23", "14", "13", "23", "1", "23", "26", "26", "25", "30", "30", "32", "21", "21", "19", "14", "15", "15", "17", "17", "6", "5", "4", "3", "8", "9", "11", "27", "29", "29", "26", "26", "26", "23", "24", "31"], "time": [4664, 4712, 4914, 5062, 9397, 11982, 12237, 13196, 14764, 16747, 19275, 19896, 20663, 20864, 22967, 23680, 24325, 27598, 30637, 37203, 39546, 40169, 40581, 40731, 41549, 43714, 44380, 44932, 50377, 51291, 54216, 56780, 61303, 61870, 69261, 69511, 72015, 72278, 72800, 75060, 75107]}, "edge": {"target": [], "time": []}}}, "displayed_time": "80.26", "trialTime": 86669, "trial_type": "mouselab-mdp", "trial_index": 3, "time_elapsed": 276376, "internal_node_id": "0.0-2.0-2.0-0.0"}}, {"uniqueid": "w29928502:a38585653", "current_trial": 4, "dateTime": 1693481096130, "trialdata": {"revealed_states": [], "clicked_states": ["12", "14", "21", "25", "32", "27"], "num_clicks_accrued": [0, 0, 0, 0, 0, 0, 0, 0, 0, 0, 0, 0, 0], "stateRewards": ["", 10, -10, 10, -10, 10, 10, -10, 10, -10, 10, 10, -10, 10, -10, -10, 10, 10, 10, -10, -10, -10, 10, 10, -10, 10, 10, 10, -10, -10, 10, -10, 10, -10], "withholdReward": false, "trial_id": "practice_2", "block": "test", "trialIndex": 1, "score": 30.5, "costs": -3, "simulationMode": [null, null, null, null, null], "rewards": [10, -10, 10, 10, 10], "path": ["0", "0", "23", "24", "25", "30", "32"], "rt": [11098, 181, 31, 363, 167], "actions": ["left", "left", "left", "down", "down"], "actionTimes": [13615, 14311, 14861, 15758, 16447], "queries": {"click": {"state": {"target": ["12", "14", "21", "25", "32", "27"], "time": [3365, 4636, 6401, 7468, 9104, 10582]}, "edge": {"target": [], "time": []}}, "mouseover": {"state": {"target": ["12", "13", "14", "20", "21", "25", "30", "32", "30", "26", "27", "26", "24"], "time": [3147, 4230, 4430, 5629, 6098, 7129, 7812, 8228, 9779, 9847, 10431, 11030, 11128]}, "edge": {"target": [], "time": []}}, "mouseout": {"state": {"target": ["31", "23", "1", "0", "12", "13", "14", "20", "21", "25", "30", "32", "30", "25", "26", "27", "26", "24"], "time": [1748, 1808, 1868, 3014, 4080, 4380, 5496, 6012, 6780, 7763, 8162, 9729, 9812, 9846, 10386, 11029, 11062, 11178]}, "edge": {"target": [], "time": []}}}, "displayed_time": "16.96", "trialTime": 19271, "trial_type": "mouselab-mdp", "trial_index": 4, "time_elapsed": 295801, "internal_node_id": "0.0-2.0-2.0-1.0"}}, {"uniqueid": "w29928502:a38585653", "current_trial": 5, "dateTime": 1693481116864, "trialdata": {"view_history": [{"page_index": 0, "viewing_time": 17665}, {"page_index": 1, "viewing_time": 3067}], "rt": 20732, "trial_id": "mouselab_instructions_2_misaligned", "trial_type": "instructions", "trial_index": 5, "time_elapsed": 316536, "internal_node_id": "0.0-2.0-3.0"}}, {"uniqueid": "w29928502:a38585653", "current_trial": 6, "dateTime": 1693481193831, "trialdata": {"rt": 76963, "response": {"Q0": "The cost for clicking on nodes may vary between nodes.", "Q1": "The better I perform the higher my bonus will be.", "Q2": "No, the amount of cash at each node of the web may be different each time.", "Q3": "To get the highest total score.", "Q4": "Only before moving the spider.", "Q5": "10 seconds"}, "question_order": [0, 1, 2, 3, 4, 5], "correct": {"Q0": "The cost for clicking on nodes may vary between nodes.", "Q1": "The better I perform the higher my bonus will be.", "Q2": "No, the amount of cash at each node of the web may be different each time.", "Q3": "To get the highest total score.", "Q4": "Only before moving the spider.", "Q5": "3 seconds"}, "trial_id": "mouselab_quiz_misaligned", "trial_type": "survey-multi-choice", "trial_index": 6, "time_elapsed": 393503, "internal_node_id": "0.0-2.0-4.0"}}, {"uniqueid": "w29928502:a38585653", "current_trial": 7, "dateTime": 1693481201333, "trialdata": {"success": true, "trial_type": "fullscreen", "trial_index": 7, "time_elapsed": 401005, "internal_node_id": "0.0-2.1-0.1-0.1"}}, {"uniqueid": "w29928502:a38585653", "current_trial": 8, "dateTime": 1693481217727, "trialdata": {"view_history": [{"page_index": 0, "viewing_time": 2331}, {"page_index": 1, "viewing_time": 4131}, {"page_index": 2, "viewing_time": 2062}, {"page_index": 3, "viewing_time": 7869}], "rt": 16393, "trial_id": "mouselab_instructions_1_misaligned", "trial_type": "instructions", "trial_index": 8, "time_elapsed": 417399, "internal_node_id": "0.0-2.1-1.1"}}, {"uniqueid": "w29928502:a38585653", "current_trial": 9, "dateTime": 1693481226696, "trialdata": {"revealed_states": [], "clicked_states": ["23", "32"], "num_clicks_accrued": [0, 0, 0, 0, 0, 0, 0, 0, 0, 0, 0, 0, 0], "stateRewards": ["", -10, -10, -10, -10, -10, 10, -10, 10, -10, 10, 10, -10, -10, -10, 10, -10, 10, 10, 10, 10, 10, -10, -10, 10, 10, 10, 10, 10, -10, -10, -10, 10, -10], "withholdReward": false, "trial_id": "practice_1", "block": "test", "trialIndex": 2, "score": 12.5, "costs": -1, "simulationMode": [null, null, null, null, null], "rewards": [-10, 10, 10, -10, 10], "path": ["0", "0", "23", "24", "25", "30", "32"], "rt": [3140, 1, 116, 71, 207], "actions": ["left", "left", "left", "down", "down"], "actionTimes": [5076, 5585, 6235, 6822, 7525], "queries": {"click": {"state": {"target": ["23", "32"], "time": [2457, 3646]}, "edge": {"target": [], "time": []}}, "mouseover": {"state": {"target": ["23", "24", "25", "32", "30"], "time": [2216, 2685, 2833, 3382, 4066]}, "edge": {"target": [], "time": []}}, "mouseout": {"state": {"target": ["23", "24", "25", "32", "30"], "time": [2683, 2766, 3183, 3799, 4399]}, "edge": {"target": [], "time": []}}}, "displayed_time": "8.04", "trialTime": 8808, "trial_type": "mouselab-mdp", "trial_index": 9, "time_elapsed": 426368, "internal_node_id": "0.0-2.1-2.1-0.1"}}, {"uniqueid": "w29928502:a38585653", "current_trial": 10, "dateTime": 1693481232529, "trialdata": {"revealed_states": [], "clicked_states": [], "num_clicks_accrued": [0, 0, 0, 0, 0, 0, 0, 0, 0, 0, 0, 0, 0], "stateRewards": ["", 10, -10, 10, -10, 10, 10, -10, 10, -10, 10, 10, -10, 10, -10, -10, 10, 10, 10, -10, -10, -10, 10, 10, -10, 10, 10, 10, -10, -10, 10, -10, 10, -10], "withholdReward": false, "trial_id": "practice_2", "block": "test", "trialIndex": 3, "score": -26.5, "costs": 0, "simulationMode": [null, null, null, null, null], "rewards": [-10, 10, -10, -10, -10], "path": ["0", "0", "12", "13", "14", "19", "21"], "rt": [202, 44, 104, 16, 120], "actions": ["right", "right", "right", "down", "down"], "actionTimes": [2029, 2591, 3216, 3746, 4384], "queries": {"click": {"state": {"target": [], "time": []}, "edge": {"target": [], "time": []}}, "mouseover": {"state": {"target": [], "time": []}, "edge": {"target": [], "time": []}}, "mouseout": {"state": {"target": ["0", "23"], "time": [5462, 5536]}, "edge": {"target": [], "time": []}}}, "displayed_time": "4.90", "trialTime": 5686, "trial_type": "mouselab-mdp", "trial_index": 10, "time_elapsed": 432200, "internal_node_id": "0.0-2.1-2.1-1.1"}}, {"uniqueid": "w29928502:a38585653", "current_trial": 11, "dateTime": 1693481237098, "trialdata": {"view_history": [{"page_index": 0, "viewing_time": 2829}, {"page_index": 1, "viewing_time": 1737}], "rt": 4566, "trial_id": "mouselab_instructions_2_misaligned", "trial_type": "instructions", "trial_index": 11, "time_elapsed": 436770, "internal_node_id": "0.0-2.1-3.1"}}, {"uniqueid": "w29928502:a38585653", "current_trial": 12, "dateTime": 1693481273117, "trialdata": {"rt": 36017, "response": {"Q0": "The cost for clicking on nodes may vary between nodes.", "Q1": "The better I perform the higher my bonus will be.", "Q2": "No, the amount of cash at each node of the web may be different each time.", "Q3": "To get the highest total score.", "Q4": "Only before moving the spider.", "Q5": "3 seconds"}, "question_order": [0, 1, 2, 3, 4, 5], "correct": {"Q0": "The cost for clicking on nodes may vary between nodes.", "Q1": "The better I perform the higher my bonus will be.", "Q2": "No, the amount of cash at each node of the web may be different each time.", "Q3": "To get the highest total score.", "Q4": "Only before moving the spider.", "Q5": "3 seconds"}, "trial_id": "mouselab_quiz_misaligned", "trial_type": "survey-multi-choice", "trial_index": 12, "time_elapsed": 472789, "internal_node_id": "0.0-2.1-4.1"}}, {"uniqueid": "w29928502:a38585653", "current_trial": 13, "dateTime": 1693481276385, "trialdata": {"rt": 3262, "response": {"Q0": "No"}, "question_order": [0], "trial_id": "repeat_check", "trial_type": "survey-multi-choice", "trial_index": 13, "time_elapsed": 476056, "internal_node_id": "0.0-4.0-0.0"}}, {"uniqueid": "w29928502:a38585653", "current_trial": 14, "dateTime": 1693481291771, "trialdata": {"rt": 15381, "stimulus": "\n<h1> Get ready to start the game! </h1>\n\nThank you for reading the instructions. Get ready start with the 40 rounds of this game.\n<br><br>\nIf you need to take a break, feel free to take one after the end of a round, before continuing to the next one.\n<br><br>\nRemember, the more money the spider gets, the bigger your bonus will be!\n<br><br>\n<div style='text-align: center;'>Press <code>space</code> to begin.</div>\n\n<br><br>\n(If, at any point, the <code>space</code> key does not take you to the next page, click once on the text and try again.)", "response": " ", "trial_id": "mdp_ready", "trial_type": "html-keyboard-response", "trial_index": 14, "time_elapsed": 491443, "internal_node_id": "0.0-6.0-0.0"}}, {"uniqueid": "w29928502:a38585653", "current_trial": 15, "dateTime": 1693481309479, "trialdata": {"revealed_states": [], "clicked_states": ["25", "27"], "num_clicks_accrued": [0, 0, 0, 0, 0, 0, 0, 0, 0, 0, 0, 0, 0], "stateRewards": ["", -1, -1, 7, -15, -43, -21, -84, -9, -45, -66, 2, 1, -2, 2, 8, -27, 44, -52, -5, -84, 11, 53, 1, 4, -4, 16, 83, -82, -15, -16, 68, -43, 81], "withholdReward": false, "trial_id": "mdp_trial_1", "block": "test", "trialIndex": 4, "score": 96.9, "costs": -3.0999999999999996, "simulationMode": [null, null, null, null, null], "rewards": [1, 4, -4, 16, 83], "path": ["0", "0", "23", "24", "25", "26", "27"], "rt": [5223, 472, 119, 117, 466], "actions": ["left", "left", "left", "up", "up"], "actionTimes": [7436, 8428, 9059, 9690, 10672], "queries": {"click": {"state": {"target": ["25", "27"], "time": [2957, 3763]}, "edge": {"target": [], "time": []}}, "mouseover": {"state": {"target": ["23", "24", "25", "25", "26", "27", "26", "30", "32", "32", "30"], "time": [2472, 2490, 2506, 2805, 3438, 3504, 4104, 4188, 4421, 6639, 6672]}, "edge": {"target": [], "time": []}}, "mouseout": {"state": {"target": ["24", "0", "0", "23", "24", "25", "25", "26", "27", "27", "26", "25", "30", "32", "32", "30", "31"], "time": [1588, 1787, 2457, 2488, 2505, 2521, 3404, 3472, 3863, 4088, 4121, 4154, 4288, 5722, 6654, 6687, 12113]}, "edge": {"target": [], "time": []}}}, "displayed_time": "16.22", "trialTime": 17561, "trial_type": "mouselab-mdp", "trial_index": 15, "time_elapsed": 509151, "internal_node_id": "0.0-6.0-1.0-0.0"}}, {"uniqueid": "w29928502:a38585653", "current_trial": 16, "dateTime": 1693481326060, "trialdata": {"revealed_states": [], "clicked_states": ["3", "4", "14"], "num_clicks_accrued": [0, 0, 0, 0, 0, 0, 0, 0, 0, 0, 0, 0, 0], "stateRewards": ["", -2, -3, -7, 7, -54, -69, -4, -14, -77, 22, 40, -2, -1, 5, 6, -35, 50, -60, 10, -28, 75, 57, 1, -4, -2, 2, 68, 34, -18, 12, 3, -21, -43], "withholdReward": false, "trial_id": "mdp_trial_2", "block": "test", "trialIndex": 5, "score": 83.55, "costs": -3.45, "simulationMode": [null, null, null, null, null], "rewards": [-2, -1, 5, 10, 75], "path": ["0", "0", "12", "13", "14", "19", "21"], "rt": [7332, 424, 149, 147, 122], "actions": ["right", "right", "right", "down", "down"], "actionTimes": [8614, 9570, 10229, 10892, 11534], "queries": {"click": {"state": {"target": ["3", "4", "14"], "time": [2911, 5465, 7603]}, "edge": {"target": [], "time": []}}, "mouseover": {"state": {"target": ["1", "2", "2", "2", "3", "4", "5", "4", "4", "3", "7", "18", "14", "22"], "time": [1558, 1631, 1833, 2144, 2559, 3594, 4613, 4964, 5216, 6546, 6695, 6778, 7186, 7910]}, "edge": {"target": [], "time": []}}, "mouseout": {"state": {"target": ["12", "1", "2", "2", "2", "3", "4", "5", "4", "4", "3", "7", "18", "14", "22"], "time": [958, 1629, 1664, 1962, 2212, 3494, 4443, 4944, 5028, 6044, 6661, 6729, 6797, 7862, 7947]}, "edge": {"target": [], "time": []}}}, "displayed_time": "15.29", "trialTime": 16431, "trial_type": "mouselab-mdp", "trial_index": 16, "time_elapsed": 525731, "internal_node_id": "0.0-6.0-1.0-1.0"}}, {"uniqueid": "w29928502:a38585653", "current_trial": 17, "dateTime": 1693481347234, "trialdata": {"revealed_states": [], "clicked_states": ["14", "26"], "num_clicks_accrued": [0, 0, 0, 0, 0, 0, 0, 0, 0, 0, 0, 0, 0], "stateRewards": ["", -1, 1, 8, -8, -49, 62, -78, 16, 28, -81, 78, -2, -3, -1, -4, 67, 49, -2, -13, -16, -39, 83, 1, -4, 4, -5, -20, 7, 84, 7, -32, -59, 19], "withholdReward": false, "trial_id": "mdp_trial_3", "block": "test", "trialIndex": 6, "score": 36.5, "costs": -2.5, "simulationMode": [null, null, null, null, null], "rewards": [-2, -3, -1, -4, 49], "path": ["0", "0", "12", "13", "14", "15", "17"], "rt": [4304, 35, 69, 580, 326], "actions": ["right", "right", "right", "up", "right"], "actionTimes": [6827, 7364, 7966, 9061, 9907], "queries": {"click": {"state": {"target": ["14", "26"], "time": [3196, 4644]}, "edge": {"target": [], "time": []}}, "mouseover": {"state": {"target": ["13", "14", "14", "29", "26", "25"], "time": [2655, 2697, 3014, 3961, 4461, 5362]}, "edge": {"target": [], "time": []}}, "mouseout": {"state": {"target": ["23", "23", "0", "13", "14", "14", "29", "26", "25"], "time": [1990, 2179, 2619, 2695, 2712, 3646, 4145, 5178, 6180]}, "edge": {"target": [], "time": []}}}, "displayed_time": "16.53", "trialTime": 21005, "trial_type": "mouselab-mdp", "trial_index": 17, "time_elapsed": 546905, "internal_node_id": "0.0-6.0-1.0-2.0"}}, {"uniqueid": "w29928502:a38585653", "current_trial": 18, "dateTime": 1693481367813, "trialdata": {"revealed_states": [], "clicked_states": ["32", "27", "30", "26"], "num_clicks_accrued": [0, 0, 0, 0, 0, 0, 0, 0, 0, 0, 0, 0, 0], "stateRewards": ["", -2, 2, 2, -6, 9, 37, 50, -13, -7, -18, -75, -2, -4, 4, 7, 23, -57, -66, -7, -81, -48, -76, 1, 1, -8, 1, 51, -2, 70, 14, 59, 71, -37], "withholdReward": false, "trial_id": "mdp_trial_4", "block": "test", "trialIndex": 7, "score": 57.6, "costs": -7.3999999999999995, "simulationMode": [null, null, null, null, null], "rewards": [1, 1, -8, 1, 70], "path": ["0", "0", "23", "24", "25", "26", "29"], "rt": [11175, 77, 82, 197, 1761], "actions": ["left", "left", "left", "up", "left"], "actionTimes": [13012, 13619, 14207, 14922, 17204], "queries": {"click": {"state": {"target": ["32", "27", "30", "26"], "time": [2771, 6342, 10936, 12131]}, "edge": {"target": [], "time": []}}, "mouseover": {"state": {"target": ["31", "32", "30", "25", "26", "27", "26", "25", "30", "25", "30", "31", "26", "24", "31"], "time": [2296, 2540, 3240, 3276, 3456, 3608, 6740, 6872, 7124, 10106, 10463, 11658, 11890, 12408, 12442]}, "edge": {"target": [], "time": []}}, "mouseout": {"state": {"target": ["0", "31", "32", "30", "25", "26", "27", "26", "25", "30", "25", "30", "30", "31", "26", "24", "31"], "time": [2029, 2407, 3223, 3274, 3375, 3557, 6707, 6789, 6972, 9799, 10345, 11116, 11558, 11709, 12407, 12441, 12490]}, "edge": {"target": [], "time": []}}}, "displayed_time": "17.73", "trialTime": 20411, "trial_type": "mouselab-mdp", "trial_index": 18, "time_elapsed": 567484, "internal_node_id": "0.0-6.0-1.0-3.0"}}, {"uniqueid": "w29928502:a38585653", "current_trial": 19, "dateTime": 1693481396559, "trialdata": {"revealed_states": [], "clicked_states": ["3", "9", "17"], "num_clicks_accrued": [0, 0, 0, 0, 0, 0, 0, 0, 0, 0, 0, 0, 0], "stateRewards": ["", -1, -4, -1, -11, 43, 69, 39, 4, 17, -20, -82, -2, -1, 4, 8, -79, 24, -79, 11, 36, 64, 41, 2, 4, -1, 11, -79, -47, 75, -3, 63, -36, -19], "withholdReward": false, "trial_id": "mdp_trial_5", "block": "test", "trialIndex": 8, "score": 27.75, "costs": -5.25, "simulationMode": [null, null, null, null, null], "rewards": [-2, -1, 4, 8, 24], "path": ["0", "0", "12", "13", "14", "15", "17"], "rt": [10817, 189, 143, 283, 57], "actions": ["right", "right", "right", "up", "right"], "actionTimes": [22669, 23364, 24018, 24810, 25383], "queries": {"click": {"state": {"target": ["3", "9", "17"], "time": [12965, 14257, 19507]}, "edge": {"target": [], "time": []}}, "mouseover": {"state": {"target": ["18", "7", "3", "8", "9", "8", "28", "31", "6", "5", "5", "26", "29", "25", "17"], "time": [12377, 12425, 12642, 13461, 13828, 15141, 15976, 16925, 17074, 17336, 17641, 18226, 18242, 18542, 19205]}, "edge": {"target": [], "time": []}}, "mouseout": {"state": {"target": ["0", "18", "7", "3", "8", "9", "8", "28", "31", "6", "5", "5", "26", "29", "25", "17"], "time": [11574, 12424, 12458, 13426, 13543, 15109, 15175, 16009, 16959, 17191, 17424, 18143, 18241, 18270, 18825, 20144]}, "edge": {"target": [], "time": []}}}, "displayed_time": "25.89", "trialTime": 28576, "trial_type": "mouselab-mdp", "trial_index": 19, "time_elapsed": 596231, "internal_node_id": "0.0-6.0-1.0-4.0"}}, {"uniqueid": "w29928502:a38585653", "current_trial": 20, "dateTime": 1693481434980, "trialdata": {"revealed_states": [], "clicked_states": ["14", "25", "32", "22", "21", "20", "17", "18", "27"], "num_clicks_accrued": [0, 0, 0, 0, 0, 0, 0, 0, 0, 0, 0, 0, 0], "stateRewards": ["", -2, 4, 3, 5, -61, 4, 30, 1, -47, 83, 10, 1, 4, 7, -14, 19, -74, -83, 6, -2, -2, -65, -1, -2, 4, -11, 12, -1, -68, 11, -38, -28, 66], "withholdReward": false, "trial_id": "mdp_trial_6", "block": "test", "trialIndex": 9, "score": -14.95, "costs": -16.95, "simulationMode": [null, null, null, null, null], "rewards": [-1, -2, 4, -11, 12], "path": ["0", "0", "23", "24", "25", "26", "27"], "rt": [31741, 60, 78, 194, 66], "actions": ["left", "left", "left", "up", "up"], "actionTimes": [33386, 33948, 34532, 35231, 35805], "queries": {"click": {"state": {"target": ["14", "25", "32", "22", "21", "20", "17", "18", "27"], "time": [2988, 4316, 5309, 8687, 12185, 15624, 19486, 23717, 28898]}, "edge": {"target": [], "time": []}}, "mouseover": {"state": {"target": ["0", "21", "19", "14", "13", "12", "23", "24", "25", "30", "32", "21", "19", "22", "21", "20", "17", "15", "18", "1", "2", "10", "26", "26", "27", "24", "24"], "time": [1702, 2121, 2404, 2634, 3469, 3488, 3521, 3570, 3786, 4853, 5136, 6052, 6635, 6719, 10553, 14236, 19190, 23329, 23599, 27648, 28011, 28322, 28405, 28636, 28753, 29572, 32439]}, "edge": {"target": [], "time": []}}, "mouseout": {"state": {"target": ["0", "0", "21", "19", "14", "13", "12", "23", "24", "25", "30", "32", "21", "19", "22", "21", "20", "17", "15", "18", "1", "2", "10", "26", "26", "27", "24", "24"], "time": [1276, 1754, 2254, 2575, 3436, 3486, 3519, 3569, 3602, 4788, 4919, 5322, 6536, 6669, 9052, 12735, 16252, 23241, 23438, 27512, 27771, 28320, 28339, 28419, 28682, 29536, 29603, 32640]}, "edge": {"target": [], "time": []}}}, "displayed_time": "36.32", "trialTime": 38224, "trial_type": "mouselab-mdp", "trial_index": 20, "time_elapsed": 634651, "internal_node_id": "0.0-6.0-1.0-5.0"}}, {"uniqueid": "w29928502:a38585653", "current_trial": 21, "dateTime": 1693481455450, "trialdata": {"revealed_states": [], "clicked_states": ["14", "16", "3", "9"], "num_clicks_accrued": [0, 0, 0, 0, 0, 0, 0, 0, 0, 0, 0, 0, 0], "stateRewards": ["", -2, 4, -7, -3, -76, 39, -28, 10, 14, 12, 60, 2, -3, 6, -10, 88, -34, -41, -3, 72, -13, -56, 1, 3, 2, 8, -51, 23, -57, 1, 14, -46, -16], "withholdReward": false, "trial_id": "mdp_trial_7", "block": "test", "trialIndex": 10, "score": 76.8, "costs": -6.199999999999999, "simulationMode": [null, null, null, null, null], "rewards": [2, -3, 6, -10, 88], "path": ["0", "0", "12", "13", "14", "15", "16"], "rt": [11599, 57, 70, 48, 791], "actions": ["right", "right", "right", "up", "up"], "actionTimes": [15903, 16469, 17065, 17628, 18937], "queries": {"click": {"state": {"target": ["14", "16", "3", "9"], "time": [5548, 7145, 10392, 12648]}, "edge": {"target": [], "time": []}}, "mouseover": {"state": {"target": ["12", "13", "14", "15", "16", "28", "26", "27", "9", "8", "3", "4", "9", "12", "13"], "time": [5022, 5180, 5247, 6345, 6759, 7811, 7846, 8161, 8295, 8695, 8995, 11012, 12253, 14094, 14147]}, "edge": {"target": [], "time": []}}, "mouseout": {"state": {"target": ["24", "0", "0", "12", "13", "14", "15", "16", "28", "26", "27", "9", "8", "3", "4", "16", "9", "12", "13", "22"], "time": [260, 3745, 4751, 5163, 5230, 6228, 6706, 7744, 7844, 7878, 8195, 8478, 8978, 10995, 11028, 11678, 13128, 14145, 14195, 19717]}, "edge": {"target": [], "time": []}}}, "displayed_time": "19.45", "trialTime": 20302, "trial_type": "mouselab-mdp", "trial_index": 21, "time_elapsed": 655122, "internal_node_id": "0.0-6.0-1.0-6.0"}}, {"uniqueid": "w29928502:a38585653", "current_trial": 22, "dateTime": 1693481476112, "trialdata": {"revealed_states": [], "clicked_states": ["25", "14", "21", "32"], "num_clicks_accrued": [0, 0, 0, 0, 0, 0, 0, 0, 0, 0, 0, 0, 0], "stateRewards": ["", 2, 3, -2, -8, -8, -41, 74, 15, -23, -80, 1, 1, 3, 3, -15, -63, -78, 67, 13, 75, -41, 86, 2, -2, 6, -3, -8, -49, 50, -6, 83, 74, 80], "withholdReward": false, "trial_id": "mdp_trial_8", "block": "test", "trialIndex": 11, "score": 67.8, "costs": -6.199999999999999, "simulationMode": [null, null, null, null, null], "rewards": [2, -2, 6, -6, 74], "path": ["0", "0", "23", "24", "25", "30", "32"], "rt": [11354, 25, 278, 120, 120], "actions": ["left", "left", "left", "down", "down"], "actionTimes": [14096, 14634, 15421, 16047, 16679], "queries": {"click": {"state": {"target": ["25", "14", "21", "32"], "time": [3364, 4123, 5088, 8242]}, "edge": {"target": [], "time": []}}, "mouseover": {"state": {"target": ["23", "24", "25", "24", "14", "14", "19", "21", "32", "30", "30", "33", "30"], "time": [2984, 3040, 3202, 3575, 3691, 3974, 4606, 4908, 5959, 11727, 12328, 12917, 13636]}, "edge": {"target": [], "time": []}}, "mouseout": {"state": {"target": ["0", "0", "22", "12", "0", "23", "24", "25", "24", "14", "14", "19", "21", "32", "30", "30", "33", "30", "31"], "time": [1506, 2090, 2321, 2423, 2982, 3023, 3075, 3573, 3639, 3758, 4540, 4808, 5239, 9691, 11794, 12889, 13498, 13849, 19857]}, "edge": {"target": [], "time": []}}}, "displayed_time": "17.19", "trialTime": 20493, "trial_type": "mouselab-mdp", "trial_index": 22, "time_elapsed": 675783, "internal_node_id": "0.0-6.0-1.0-7.0"}}, {"uniqueid": "w29928502:a38585653", "current_trial": 23, "dateTime": 1693481493490, "trialdata": {"revealed_states": [], "clicked_states": ["2", "4", "5", "9"], "num_clicks_accrued": [0, 0, 0, 0, 0, 0, 0, 0, 0, 0, 0, 0, 0], "stateRewards": ["", -1, 4, -3, 3, 57, -61, 5, -11, 23, -1, 34, -2, -4, -1, -13, 27, 38, -36, 4, -45, 21, 88, 1, -2, -1, 1, -69, -5, -78, -12, -9, 38, -54], "withholdReward": false, "trial_id": "mdp_trial_9", "block": "test", "trialIndex": 12, "score": 53.8, "costs": -6.199999999999999, "simulationMode": [null, null, null, null, null], "rewards": [-1, 4, -3, 3, 57], "path": ["0", "0", "1", "2", "3", "4", "5"], "rt": [10724, 258, 66, 67, 737], "actions": ["up", "up", "up", "right", "up"], "actionTimes": [12634, 13425, 14004, 14583, 15837], "queries": {"click": {"state": {"target": ["2", "4", "5", "9"], "time": [3603, 4826, 6073, 9269]}, "edge": {"target": [], "time": []}}, "mouseover": {"state": {"target": ["23", "24", "25", "25", "2", "4", "2", "3", "4", "5", "5", "9", "9"], "time": [2118, 2182, 2224, 2752, 2992, 3054, 3323, 4167, 4536, 5583, 5879, 7884, 8235]}, "edge": {"target": [], "time": []}}, "mouseout": {"state": {"target": ["23", "24", "25", "25", "2", "4", "2", "3", "4", "5", "5", "9", "9"], "time": [2139, 2198, 2290, 2937, 3031, 3231, 3609, 4482, 5536, 5600, 6449, 7916, 9406]}, "edge": {"target": [], "time": []}}}, "displayed_time": "16.35", "trialTime": 17129, "trial_type": "mouselab-mdp", "trial_index": 23, "time_elapsed": 693161, "internal_node_id": "0.0-6.0-1.0-8.0"}}, {"uniqueid": "w29928502:a38585653", "current_trial": 24, "dateTime": 1693481513958, "trialdata": {"revealed_states": [], "clicked_states": ["25", "32", "17", "16"], "num_clicks_accrued": [0, 0, 0, 0, 0, 0, 0, 0, 0, 0, 0, 0, 0], "stateRewards": ["", 2, -2, -3, 10, -4, -1, -11, -8, -9, -36, -78, 2, 1, 7, -7, 44, -1, -31, -1, 26, 47, 83, 2, -4, -4, -6, -52, -76, -81, -1, -59, 45, 67], "withholdReward": false, "trial_id": "mdp_trial_10", "block": "test", "trialIndex": 13, "score": 39.6, "costs": -7.4, "simulationMode": [null, null, null, null, null], "rewards": [2, 1, 7, -7, 44], "path": ["0", "0", "12", "13", "14", "15", "16"], "rt": [13561, 125, 122, 85, 51], "actions": ["right", "right", "right", "up", "up"], "actionTimes": [16385, 17022, 17653, 18248, 18814], "queries": {"click": {"state": {"target": ["25", "32", "17", "16"], "time": [3404, 4067, 7199, 12123]}, "edge": {"target": [], "time": []}}, "mouseover": {"state": {"target": ["25", "30", "32", "19", "21", "19", "14", "17", "17", "14", "17", "15", "16", "15", "28", "18", "16", "16", "13", "22", "21", "20", "20"], "time": [3261, 3679, 3730, 4295, 4778, 4830, 5063, 5414, 5711, 6345, 6863, 7746, 7879, 10507, 11353, 11546, 11810, 11902, 12879, 13581, 13662, 13813, 14197]}, "edge": {"target": [], "time": []}}, "mouseout": {"state": {"target": ["1", "25", "30", "32", "19", "21", "19", "14", "17", "17", "14", "17", "15", "16", "17", "17", "17", "17", "15", "28", "18", "16", "16", "13", "22", "21", "20", "20", "22"], "time": [2546, 3678, 3728, 4167, 4362, 4828, 4878, 5413, 5494, 6296, 6862, 7714, 7812, 8864, 8946, 9212, 9346, 10167, 10548, 11458, 11763, 11879, 12829, 12913, 13595, 13779, 13847, 15801, 19462]}, "edge": {"target": [], "time": []}}}, "displayed_time": "19.33", "trialTime": 20260, "trial_type": "mouselab-mdp", "trial_index": 24, "time_elapsed": 713630, "internal_node_id": "0.0-6.0-1.0-9.0"}}, {"uniqueid": "w29928502:a38585653", "current_trial": 25, "dateTime": 1693481540799, "trialdata": {"revealed_states": [], "clicked_states": ["14", "26", "27", "10", "7"], "num_clicks_accrued": [0, 0, 0, 0, 0, 0, 0, 0, 0, 0, 0, 0, 0], "stateRewards": ["", 2, 2, 3, -15, 23, -14, 73, -7, -32, -20, -6, 1, 1, -5, -12, 73, 6, -84, 11, -81, -57, 13, -2, -1, -4, -8, -52, -58, 49, 13, 5, -41, -41], "withholdReward": false, "trial_id": "mdp_trial_11", "block": "test", "trialIndex": 14, "score": 56.05, "costs": -8.950000000000001, "simulationMode": [null, null, null, null, null], "rewards": [2, 2, 3, -15, 73], "path": ["0", "0", "1", "2", "3", "4", "7"], "rt": [18240, 158, 109, 112, 70], "actions": ["up", "up", "up", "right", "down"], "actionTimes": [21218, 21896, 22512, 23135, 23722], "queries": {"click": {"state": {"target": ["14", "26", "27", "10", "7"], "time": [3975, 6350, 7722, 11137, 15095]}, "edge": {"target": [], "time": []}}, "mouseover": {"state": {"target": ["0", "14", "13", "12", "0", "0", "12", "0", "24", "25", "25", "26", "25", "27", "12", "13", "4", "7", "2", "10", "8", "10", "3", "8", "3", "7", "4", "6", "6"], "time": [3188, 3785, 4452, 4685, 4753, 4956, 5370, 5390, 5437, 5486, 5820, 6114, 7070, 7522, 8252, 8352, 8568, 8752, 8885, 9135, 9419, 9652, 11752, 14499, 14673, 14919, 15552, 15702, 20841]}, "edge": {"target": [], "time": []}}, "mouseout": {"state": {"target": ["0", "0", "14", "13", "12", "0", "0", "12", "0", "24", "25", "25", "26", "26", "25", "26", "27", "27", "12", "13", "4", "7", "2", "10", "8", "10", "3", "8", "3", "7", "4", "6", "6"], "time": [2568, 3202, 4418, 4485, 4752, 4837, 4985, 5389, 5436, 5485, 5517, 6087, 6451, 7002, 7439, 7503, 7839, 8036, 8303, 8402, 8719, 8802, 9035, 9319, 9570, 11635, 14477, 14672, 14719, 15452, 15619, 20202, 20898]}, "edge": {"target": [], "time": []}}}, "displayed_time": "24.24", "trialTime": 26640, "trial_type": "mouselab-mdp", "trial_index": 25, "time_elapsed": 740471, "internal_node_id": "0.0-6.0-1.0-10.0"}}, {"uniqueid": "w29928502:a38585653", "current_trial": 26, "dateTime": 1693481560955, "trialdata": {"revealed_states": [], "clicked_states": ["15", "25", "28", "9", "5"], "num_clicks_accrued": [0, 0, 0, 0, 0, 0, 0, 0, 0, 0, 0, 0, 0], "stateRewards": ["", 2, -1, -3, 16, -3, -16, -62, -1, 13, -26, 43, -1, 4, 3, -9, -54, -37, -3, -12, -71, -68, -57, 1, -3, 2, -9, 2, -2, -9, -11, 84, -52, 55], "withholdReward": false, "trial_id": "mdp_trial_12", "block": "test", "trialIndex": 15, "score": 1.049999999999999, "costs": -8.950000000000001, "simulationMode": [null, null, null, null, null], "rewards": [2, -1, -3, -1, 13], "path": ["0", "0", "1", "2", "3", "8", "9"], "rt": [14363, 45, 139, 16, 39], "actions": ["up", "up", "up", "left", "up"], "actionTimes": [16188, 16746, 17406, 17933, 18490], "queries": {"click": {"state": {"target": ["15", "25", "28", "9", "5"], "time": [3624, 5411, 6392, 9521, 13083]}, "edge": {"target": [], "time": []}}, "mouseover": {"state": {"target": ["12", "13", "1", "18", "15", "19", "24", "25", "28", "26", "10", "2", "7", "2", "8", "9", "9", "5", "3", "3", "5"], "time": [1967, 2316, 2982, 3233, 3276, 4533, 4999, 5256, 5949, 7050, 7684, 7718, 7783, 7968, 8302, 8402, 8600, 10368, 12532, 12715, 12802]}, "edge": {"target": [], "time": []}}, "mouseout": {"state": {"target": ["0", "12", "13", "1", "18", "15", "19", "24", "25", "28", "26", "10", "2", "7", "2", "8", "9", "9", "5", "3", "3", "5"], "time": [1336, 2236, 2579, 3168, 3251, 4219, 4897, 5234, 5547, 6950, 7649, 7716, 7750, 7933, 8016, 8400, 8452, 10233, 12201, 12560, 12742, 15317]}, "edge": {"target": [], "time": []}}}, "displayed_time": "19.02", "trialTime": 19910, "trial_type": "mouselab-mdp", "trial_index": 26, "time_elapsed": 760627, "internal_node_id": "0.0-6.0-1.0-11.0"}}, {"uniqueid": "w29928502:a38585653", "current_trial": 27, "dateTime": 1693481580239, "trialdata": {"revealed_states": [], "clicked_states": ["14", "32", "29", "28"], "num_clicks_accrued": [0, 0, 0, 0, 0, 0, 0, 0, 0, 0, 0, 0, 0], "stateRewards": ["", -1, 3, -7, 16, -32, -74, -48, 2, 10, 15, -30, 1, 1, -2, 10, 12, -83, 67, 13, -66, 47, 65, -2, 4, 2, -14, -8, -57, 24, 9, 65, 12, 46], "withholdReward": false, "trial_id": "mdp_trial_13", "block": "test", "trialIndex": 16, "score": 6.600000000000001, "costs": -7.4, "simulationMode": [null, null, null, null, null], "rewards": [-2, 4, 2, -14, 24], "path": ["0", "0", "23", "24", "25", "26", "29"], "rt": [12016, 697, 42, 8, 421], "actions": ["left", "left", "left", "up", "left"], "actionTimes": [14307, 15515, 16079, 16610, 17557], "queries": {"click": {"state": {"target": ["14", "32", "29", "28"], "time": [2878, 4049, 7171, 10872]}, "edge": {"target": [], "time": []}}, "mouseover": {"state": {"target": ["13", "14", "32", "33", "26", "27", "26", "29", "26", "28", "24"], "time": [2425, 2742, 3885, 4569, 5017, 5303, 6238, 6301, 7704, 8051, 13288]}, "edge": {"target": [], "time": []}}, "mouseout": {"state": {"target": ["0", "13", "14", "32", "33", "26", "27", "26", "29", "26", "28", "24"], "time": [2351, 2493, 3235, 4435, 4934, 5051, 6035, 6269, 7683, 7734, 13186, 18188]}, "edge": {"target": [], "time": []}}}, "displayed_time": "18.07", "trialTime": 19078, "trial_type": "mouselab-mdp", "trial_index": 27, "time_elapsed": 779911, "internal_node_id": "0.0-6.0-1.0-12.0"}}, {"uniqueid": "w29928502:a38585653", "current_trial": 28, "dateTime": 1693481608929, "trialdata": {"revealed_states": [], "clicked_states": ["13", "14", "17"], "num_clicks_accrued": [0, 0, 0, 0, 0, 0, 0, 0, 0, 0, 0, 0, 0], "stateRewards": ["", -2, -1, -3, -1, -78, -6, 2, -1, 22, -88, 32, 2, 2, -7, -8, -51, -17, 54, 2, -44, 54, 75, 2, -2, -8, -15, -29, 12, -67, 15, -1, -47, -47], "withholdReward": false, "trial_id": "mdp_trial_14", "block": "test", "trialIndex": 17, "score": -43.45, "costs": -3.4499999999999997, "simulationMode": [null, null, null, null, null], "rewards": [2, -2, -8, 15, -47], "path": ["0", "0", "23", "24", "25", "30", "33"], "rt": [10567, 34, 675, 256, 85], "actions": ["left", "left", "left", "down", "left"], "actionTimes": [21828, 22366, 23573, 24338, 24934], "queries": {"click": {"state": {"target": ["13", "14", "17"], "time": [12441, 12959, 13531]}, "edge": {"target": [], "time": []}}, "mouseover": {"state": {"target": ["12", "12", "13", "13", "14", "17", "18", "29"], "time": [11464, 11712, 12011, 12254, 12763, 13163, 13929, 14279]}, "edge": {"target": [], "time": []}}, "mouseout": {"state": {"target": ["12", "12", "13", "13", "14", "17", "18", "29", "28", "0"], "time": [11545, 11979, 12038, 12697, 13162, 13898, 13945, 21211, 27869, 27948]}, "edge": {"target": [], "time": []}}}, "displayed_time": "25.45", "trialTime": 28478, "trial_type": "mouselab-mdp", "trial_index": 28, "time_elapsed": 808601, "internal_node_id": "0.0-6.0-1.0-13.0"}}, {"uniqueid": "w29928502:a38585653", "current_trial": 29, "dateTime": 1693481628050, "trialdata": {"revealed_states": [], "clicked_states": ["17", "27"], "num_clicks_accrued": [0, 0, 0, 0, 0, 0, 0, 0, 0, 0, 0, 0, 0], "stateRewards": ["", 1, 4, -8, -5, -15, -7, 21, 13, -30, 40, -65, 1, 1, 5, -14, 35, 27, -38, -11, 36, -58, -47, -2, 4, -3, 13, -16, -49, 22, 15, -56, -44, -10], "withholdReward": false, "trial_id": "mdp_trial_15", "block": "test", "trialIndex": 18, "score": 15.7, "costs": -4.3, "simulationMode": [null, null, null, null, null], "rewards": [1, 1, 5, -14, 27], "path": ["0", "0", "12", "13", "14", "15", "17"], "rt": [7590, 567, 92, 158, 57], "actions": ["right", "right", "right", "up", "right"], "actionTimes": [10880, 11961, 12572, 13239, 13807], "queries": {"click": {"state": {"target": ["17", "27"], "time": [3976, 7992]}, "edge": {"target": [], "time": []}}, "mouseover": {"state": {"target": ["12", "14", "17", "28", "29", "27", "29"], "time": [3321, 3385, 3773, 4547, 4930, 5827, 8711]}, "edge": {"target": [], "time": []}}, "mouseout": {"state": {"target": ["0", "1", "0", "0", "12", "13", "14", "14", "12", "12", "14", "17", "28", "29", "27", "29"], "time": [1760, 2029, 2084, 2477, 2542, 2610, 2696, 2795, 2831, 3383, 3441, 4394, 4579, 5779, 8631, 16263]}, "edge": {"target": [], "time": []}}}, "displayed_time": "17.29", "trialTime": 18930, "trial_type": "mouselab-mdp", "trial_index": 29, "time_elapsed": 827721, "internal_node_id": "0.0-6.0-1.0-14.0"}}, {"uniqueid": "w29928502:a38585653", "current_trial": 30, "dateTime": 1693481647687, "trialdata": {"revealed_states": [], "clicked_states": ["20", "17"], "num_clicks_accrued": [0, 0, 0, 0, 0, 0, 0, 0, 0, 0, 0, 0, 0], "stateRewards": ["", -1, -4, -6, -15, 21, -67, -63, 9, 51, 69, -14, -1, 3, 8, -8, 39, 72, 63, 15, 19, 47, 15, 1, 4, 5, 16, -18, 34, 35, -14, -80, 40, 1], "withholdReward": false, "trial_id": "mdp_trial_16", "block": "test", "trialIndex": 19, "score": 69.7, "costs": -4.3, "simulationMode": [null, null, null, null, null], "rewards": [-1, 3, 8, -8, 72], "path": ["0", "0", "12", "13", "14", "15", "17"], "rt": [7815, 101, 66, 155, 338], "actions": ["right", "right", "right", "up", "right"], "actionTimes": [9481, 10095, 10676, 11350, 12201], "queries": {"click": {"state": {"target": ["20", "17"], "time": [2380, 5507]}, "edge": {"target": [], "time": []}}, "mouseover": {"state": {"target": ["19", "14", "14", "20", "19", "29", "27", "2", "16", "17", "16"], "time": [1807, 1974, 2142, 2264, 2624, 3060, 3574, 3824, 3875, 3991, 6026]}, "edge": {"target": [], "time": []}}, "mouseout": {"state": {"target": ["0", "19", "14", "14", "20", "19", "29", "27", "2", "16", "17", "16", "18", "12"], "time": [1731, 1926, 2026, 2177, 2386, 2674, 3393, 3776, 3874, 3940, 5614, 13967, 14037, 14108]}, "edge": {"target": [], "time": []}}}, "displayed_time": "15.67", "trialTime": 19365, "trial_type": "mouselab-mdp", "trial_index": 30, "time_elapsed": 847358, "internal_node_id": "0.0-6.0-1.0-15.0"}}, {"uniqueid": "w29928502:a38585653", "current_trial": 31, "dateTime": 1693481668634, "trialdata": {"revealed_states": [], "clicked_states": ["14", "16", "21", "9"], "num_clicks_accrued": [0, 0, 0, 0, 0, 0, 0, 0, 0, 0, 0, 0, 0], "stateRewards": ["", 1, 3, 3, -10, 52, 68, 59, 12, 7, 49, 21, -2, -3, -4, -2, -2, 63, 63, -4, 44, 43, -76, -2, -3, -6, 13, 48, 36, 12, -5, -36, -33, -11], "withholdReward": false, "trial_id": "mdp_trial_17", "block": "test", "trialIndex": 20, "score": 22.6, "costs": -7.4, "simulationMode": [null, null, null, null, null], "rewards": [-2, -3, -4, -4, 43], "path": ["0", "0", "12", "13", "14", "19", "21"], "rt": [11682, 326, 151, 36, 246], "actions": ["right", "right", "right", "down", "down"], "actionTimes": [14296, 15131, 15787, 16341, 17116], "queries": {"click": {"state": {"target": ["14", "16", "21", "9"], "time": [3397, 4841, 8036, 11163]}, "edge": {"target": [], "time": []}}, "mouseover": {"state": {"target": ["12", "13", "14", "13", "12", "24", "25", "28", "16", "15", "21", "24", "27", "11", "9", "22"], "time": [2861, 2891, 3269, 3886, 3919, 4020, 4120, 4366, 4702, 5317, 5899, 8617, 9218, 9834, 9868, 11852]}, "edge": {"target": [], "time": []}}, "mouseout": {"state": {"target": ["23", "24", "23", "12", "0", "12", "13", "14", "13", "12", "24", "25", "28", "16", "15", "14", "21", "24", "27", "11", "9", "22", "21"], "time": [1869, 2004, 2045, 2200, 2838, 2890, 2935, 3867, 3917, 3950, 4066, 4201, 4436, 5300, 5334, 5584, 8519, 8801, 9785, 9867, 11787, 11885, 20158]}, "edge": {"target": [], "time": []}}}, "displayed_time": "17.64", "trialTime": 20704, "trial_type": "mouselab-mdp", "trial_index": 31, "time_elapsed": 868306, "internal_node_id": "0.0-6.0-1.0-16.0"}}, {"uniqueid": "w29928502:a38585653", "current_trial": 32, "dateTime": 1693481685669, "trialdata": {"revealed_states": [], "clicked_states": ["17", "20"], "num_clicks_accrued": [0, 0, 0, 0, 0, 0, 0, 0, 0, 0, 0, 0, 0], "stateRewards": ["", -2, 1, -3, -16, -39, -52, 30, -7, -41, -59, 11, 2, 1, 8, 2, -11, -26, -42, -13, 87, -59, -48, -1, -1, -1, 16, -79, 31, 50, -1, -84, 34, -82], "withholdReward": false, "trial_id": "mdp_trial_18", "block": "test", "trialIndex": 21, "score": 80.7, "costs": -4.3, "simulationMode": [null, null, null, null, null], "rewards": [2, 1, 8, -13, 87], "path": ["0", "0", "12", "13", "14", "19", "20"], "rt": [7633, 9, 112, 78, 68], "actions": ["right", "right", "right", "down", "right"], "actionTimes": [9268, 9794, 10430, 11031, 11621], "queries": {"click": {"state": {"target": ["17", "20"], "time": [2383, 5518]}, "edge": {"target": [], "time": []}}, "mouseover": {"state": {"target": ["12", "17", "15", "18", "19", "20", "19", "22", "19"], "time": [1764, 2258, 2869, 2901, 4550, 5001, 7903, 7966, 8890]}, "edge": {"target": [], "time": []}}, "mouseout": {"state": {"target": ["12", "0", "12", "17", "15", "18", "19", "20", "19", "22", "19", "20"], "time": [1350, 1762, 1816, 2855, 2900, 2933, 4599, 7901, 7934, 8861, 8934, 8978]}, "edge": {"target": [], "time": []}}}, "displayed_time": "15.64", "trialTime": 16821, "trial_type": "mouselab-mdp", "trial_index": 32, "time_elapsed": 885341, "internal_node_id": "0.0-6.0-1.0-17.0"}}, {"uniqueid": "w29928502:a38585653", "current_trial": 33, "dateTime": 1693481707367, "trialdata": {"revealed_states": [], "clicked_states": ["9", "5", "11"], "num_clicks_accrued": [0, 0, 0, 0, 0, 0, 0, 0, 0, 0, 0, 0, 0], "stateRewards": ["", 2, -1, -2, -5, -47, -57, -33, -11, 31, -18, -72, -2, 1, -4, -8, -46, -53, -50, 15, -85, -9, 39, -2, -2, 1, 14, -1, -8, 53, -12, -41, -74, 62], "withholdReward": false, "trial_id": "mdp_trial_19", "block": "test", "trialIndex": 22, "score": 12.55, "costs": -6.449999999999999, "simulationMode": [null, null, null, null, null], "rewards": [2, -1, -2, -11, 31], "path": ["0", "0", "1", "2", "3", "8", "9"], "rt": [11378, 31, 65, 63, 323], "actions": ["up", "up", "up", "left", "up"], "actionTimes": [14896, 15445, 16046, 16629, 17471], "queries": {"click": {"state": {"target": ["9", "5", "11"], "time": [4133, 7830, 11857]}, "edge": {"target": [], "time": []}}, "mouseover": {"state": {"target": ["1", "8", "9", "5", "6", "4", "3", "8", "11", "8"], "time": [3683, 3751, 3925, 4930, 11081, 11397, 11433, 11495, 11713, 12413]}, "edge": {"target": [], "time": []}}, "mouseout": {"state": {"target": ["23", "24", "25", "12", "1", "8", "9", "5", "6", "4", "3", "8", "11", "8", "30"], "time": [2455, 2495, 2563, 3198, 3728, 3796, 4546, 7921, 11108, 11432, 11455, 11631, 12379, 12496, 20505]}, "edge": {"target": [], "time": []}}}, "displayed_time": "17.98", "trialTime": 21448, "trial_type": "mouselab-mdp", "trial_index": 33, "time_elapsed": 907039, "internal_node_id": "0.0-6.0-1.0-18.0"}}, {"uniqueid": "w29928502:a38585653", "current_trial": 34, "dateTime": 1693481724121, "trialdata": {"revealed_states": [], "clicked_states": ["17", "20"], "num_clicks_accrued": [0, 0, 0, 0, 0, 0, 0, 0, 0, 0, 0, 0, 0], "stateRewards": ["", 1, -3, -2, 14, 49, -40, -39, 2, 26, -61, 73, 1, -4, -8, 12, 79, 29, -65, -13, 55, -26, 27, -1, 3, 3, 9, -17, -60, -18, -8, 35, -88, 69], "withholdReward": false, "trial_id": "mdp_trial_20", "block": "test", "trialIndex": 23, "score": 26.7, "costs": -4.3, "simulationMode": [null, null, null, null, null], "rewards": [1, -4, -8, -13, 55], "path": ["0", "0", "12", "13", "14", "19", "20"], "rt": [8290, 46, 901, 613, 117], "actions": ["right", "right", "right", "down", "right"], "actionTimes": [10131, 10691, 12113, 13242, 13881], "queries": {"click": {"state": {"target": ["17", "20"], "time": [2427, 5665]}, "edge": {"target": [], "time": []}}, "mouseover": {"state": {"target": ["12", "14", "17", "20", "14", "0", "23", "24", "25", "33"], "time": [1952, 2018, 2248, 4410, 7013, 7195, 7511, 7547, 7578, 8013]}, "edge": {"target": [], "time": []}}, "mouseout": {"state": {"target": ["0", "12", "14", "17", "17", "20", "14", "0", "23", "24", "25", "33", "25"], "time": [1950, 1993, 2059, 2507, 4192, 6293, 7044, 7476, 7545, 7577, 7611, 14818, 14986]}, "edge": {"target": [], "time": []}}}, "displayed_time": "15.85", "trialTime": 16532, "trial_type": "mouselab-mdp", "trial_index": 34, "time_elapsed": 923793, "internal_node_id": "0.0-6.0-1.0-19.0"}}, {"uniqueid": "w29928502:a38585653", "current_trial": 35, "dateTime": 1693481750332, "trialdata": {"revealed_states": [], "clicked_states": ["17"], "num_clicks_accrued": [0, 0, 0, 0, 0, 0, 0, 0, 0, 0, 0, 0, 0], "stateRewards": ["", -1, 2, 6, 11, 21, -21, -21, -6, 48, -71, 88, -1, -3, 3, 7, 64, 2, 9, -4, 37, -67, 72, 2, 2, -8, -8, -10, 71, -40, -3, 73, 80, 47], "withholdReward": false, "trial_id": "mdp_trial_21", "block": "test", "trialIndex": 24, "score": 70.85, "costs": -2.15, "simulationMode": [null, null, null, null, null], "rewards": [2, 2, -8, -3, 80], "path": ["0", "0", "23", "24", "25", "30", "32"], "rt": [17358, 70, 863, 73, 41], "actions": ["left", "left", "left", "down", "down"], "actionTimes": [18956, 19541, 20919, 21511, 22062], "queries": {"click": {"state": {"target": ["17"], "time": [2213]}, "edge": {"target": [], "time": []}}, "mouseover": {"state": {"target": ["13", "14", "17", "20", "19", "22", "30", "33", "33", "31", "31", "30"], "time": [1762, 1810, 2074, 3004, 13142, 13209, 13444, 13701, 13855, 18121, 18236, 18336]}, "edge": {"target": [], "time": []}}, "mouseout": {"state": {"target": ["0", "13", "14", "17", "20", "19", "22", "30", "33", "33", "31", "31", "30"], "time": [1078, 1808, 1852, 2672, 12921, 13208, 13255, 13487, 13770, 18057, 18166, 18266, 18427]}, "edge": {"target": [], "time": []}}}, "displayed_time": "22.59", "trialTime": 25968, "trial_type": "mouselab-mdp", "trial_index": 35, "time_elapsed": 950003, "internal_node_id": "0.0-6.0-1.0-20.0"}}, {"uniqueid": "w29928502:a38585653", "current_trial": 36, "dateTime": 1693481776147, "trialdata": {"revealed_states": [], "clicked_states": ["16", "20", "21", "22"], "num_clicks_accrued": [0, 0, 0, 0, 0, 0, 0, 0, 0, 0, 0, 0, 0], "stateRewards": ["", -2, 3, 8, -9, 59, 41, -50, -1, 82, 66, 33, 2, -2, 7, 8, 1, -38, 12, -16, 24, -37, 67, 1, 4, -2, 5, 35, -83, 28, 8, -27, 69, -64], "withholdReward": false, "trial_id": "mdp_trial_22", "block": "test", "trialIndex": 25, "score": 49.4, "costs": -8.6, "simulationMode": [null, null, null, null, null], "rewards": [2, -2, 7, -16, 67], "path": ["0", "0", "12", "13", "14", "19", "22"], "rt": [15352, 79, 14, 113, 117], "actions": ["right", "right", "right", "down", "left"], "actionTimes": [19620, 20212, 20743, 21378, 22014], "queries": {"click": {"state": {"target": ["16", "20", "21", "22"], "time": [4797, 8419, 12714, 15852]}, "edge": {"target": [], "time": []}}, "mouseover": {"state": {"target": ["16", "16", "15", "20", "21", "21", "33", "30", "19", "21", "22", "14", "17"], "time": [4428, 4695, 5095, 5495, 8679, 10346, 11581, 11943, 12361, 12577, 14329, 17195, 17246]}, "edge": {"target": [], "time": []}}, "mouseout": {"state": {"target": ["0", "12", "15", "17", "17", "15", "18", "0", "16", "16", "15", "20", "21", "21", "33", "30", "19", "21", "22", "14", "17", "15", "31", "23"], "time": [3380, 3428, 3478, 3514, 3663, 3711, 3812, 4345, 4444, 5061, 5145, 8645, 8747, 10911, 11929, 11960, 12494, 13145, 17161, 17211, 22830, 24313, 24529, 24697]}, "edge": {"target": [], "time": []}}}, "displayed_time": "22.53", "trialTime": 25592, "trial_type": "mouselab-mdp", "trial_index": 36, "time_elapsed": 975818, "internal_node_id": "0.0-6.0-1.0-21.0"}}, {"uniqueid": "w29928502:a38585653", "current_trial": 37, "dateTime": 1693481796410, "trialdata": {"revealed_states": [], "clicked_states": ["17", "20", "16"], "num_clicks_accrued": [0, 0, 0, 0, 0, 0, 0, 0, 0, 0, 0, 0, 0], "stateRewards": ["", -1, 4, -5, 9, 29, -75, -42, -16, 24, -28, -41, 2, -3, 1, 10, 60, 47, 55, -1, -53, 22, -40, 2, -3, -6, 4, -26, 44, 54, 15, -76, 42, 14], "withholdReward": false, "trial_id": "mdp_trial_23", "block": "test", "trialIndex": 26, "score": 63.55, "costs": -6.449999999999999, "simulationMode": [null, null, null, null, null, null], "rewards": [2, -3, 1, 10, 60], "path": ["0", "0", "12", "13", "14", "15", "16"], "rt": [8159, 174, 16, 65, 382, 57], "actions": ["right", "right", "right", "right", "up", "up"], "actionTimes": [10496, 10673, 11223, 11819, 12735, 13310], "queries": {"click": {"state": {"target": ["17", "20", "16"], "time": [2870, 6307, 9367]}, "edge": {"target": [], "time": []}}, "mouseover": {"state": {"target": ["12", "13", "14", "17", "20", "16"], "time": [2467, 2486, 2517, 2786, 4934, 7186]}, "edge": {"target": [], "time": []}}, "mouseout": {"state": {"target": ["0", "12", "13", "14", "17", "20", "17", "16", "22"], "time": [2451, 2484, 2500, 2534, 3354, 6736, 6818, 9918, 14367]}, "edge": {"target": [], "time": []}}}, "displayed_time": "16.35", "trialTime": 19993, "trial_type": "mouselab-mdp", "trial_index": 37, "time_elapsed": 996081, "internal_node_id": "0.0-6.0-1.0-22.0"}}, {"uniqueid": "w29928502:a38585653", "current_trial": 38, "dateTime": 1693481812835, "trialdata": {"revealed_states": [], "clicked_states": ["17", "20"], "num_clicks_accrued": [0, 0, 0, 0, 0, 0, 0, 0, 0, 0, 0, 0, 0], "stateRewards": ["", 1, 2, 7, 13, 88, -71, 27, 3, 60, 5, -53, -2, 2, -6, -1, -30, 79, 47, -4, -14, 46, 68, 1, 1, 8, 10, -14, 86, 48, -11, -67, -44, 5], "withholdReward": false, "trial_id": "mdp_trial_24", "block": "test", "trialIndex": 27, "score": 67.7, "costs": -4.3, "simulationMode": [null, null, null, null, null, null], "rewards": [-2, 2, -6, -1, 79], "path": ["0", "0", "12", "13", "14", "15", "17"], "rt": [5107, 225, 41, 421, 30, 22], "actions": ["right", "right", "right", "right", "up", "right"], "actionTimes": [6413, 6639, 7217, 8161, 8718, 9277], "queries": {"click": {"state": {"target": ["17", "20"], "time": [1869, 5372]}, "edge": {"target": [], "time": []}}, "mouseover": {"state": {"target": ["18", "15", "17", "15", "16", "20"], "time": [1455, 1488, 1722, 2487, 2553, 4921]}, "edge": {"target": [], "time": []}}, "mouseout": {"state": {"target": ["0", "18", "15", "17", "15", "16", "20", "17", "14", "22"], "time": [1422, 1487, 1540, 2336, 2520, 3106, 5744, 10137, 11103, 11187]}, "edge": {"target": [], "time": []}}}, "displayed_time": "15.32", "trialTime": 16187, "trial_type": "mouselab-mdp", "trial_index": 38, "time_elapsed": 1012506, "internal_node_id": "0.0-6.0-1.0-23.0"}}, {"uniqueid": "w29928502:a38585653", "current_trial": 39, "dateTime": 1693481841319, "trialdata": {"revealed_states": [], "clicked_states": ["5", "9", "6", "17", "19", "27", "16"], "num_clicks_accrued": [0, 0, 0, 0, 0, 0, 0, 0, 0, 0, 0, 0, 0], "stateRewards": ["", -1, -3, -5, -14, -13, -47, 79, 8, -60, -64, 41, -1, 2, 3, 13, -46, 61, -79, -11, -64, -65, 23, 1, -2, 6, -14, 46, 32, 21, 7, 75, -66, 15], "withholdReward": false, "trial_id": "mdp_trial_25", "block": "test", "trialIndex": 28, "score": 63.55, "costs": -14.450000000000001, "simulationMode": [null, null, null, null, null], "rewards": [-1, 2, 3, 13, 61], "path": ["0", "0", "12", "13", "14", "15", "17"], "rt": [21736, 80, 311, 59, 74], "actions": ["right", "right", "right", "up", "right"], "actionTimes": [23966, 24559, 25390, 25957, 26554], "queries": {"click": {"state": {"target": ["5", "9", "6", "17", "19", "27", "16"], "time": [2847, 5966, 9211, 12486, 15982, 17900, 20979]}, "edge": {"target": [], "time": []}}, "mouseover": {"state": {"target": ["1", "2", "3", "5", "9", "9", "6", "16", "17", "17", "19", "19", "19", "22", "19", "22", "31", "30", "29", "27", "10", "2", "7", "16", "17", "17"], "time": [2447, 2481, 2511, 2761, 3262, 5614, 8127, 9647, 9697, 10080, 14597, 14762, 15061, 15378, 15864, 17062, 17245, 17381, 17615, 17778, 19395, 19427, 19461, 19844, 21694, 21795]}, "edge": {"target": [], "time": []}}, "mouseout": {"state": {"target": ["1", "2", "3", "5", "5", "9", "9", "5", "6", "16", "17", "17", "19", "19", "19", "22", "19", "22", "31", "30", "29", "27", "10", "2", "7", "16", "17", "17", "21"], "time": [2480, 2494, 2561, 2923, 3194, 4730, 7696, 7829, 9631, 9679, 9731, 14463, 14628, 15012, 15178, 15480, 17046, 17099, 17297, 17447, 17728, 19329, 19411, 19445, 19478, 21461, 21744, 23444, 27728]}, "edge": {"target": [], "time": []}}}, "displayed_time": "27.06", "trialTime": 28245, "trial_type": "mouselab-mdp", "trial_index": 39, "time_elapsed": 1040990, "internal_node_id": "0.0-6.0-1.0-24.0"}}, {"uniqueid": "w29928502:a38585653", "current_trial": 40, "dateTime": 1693481857385, "trialdata": {"revealed_states": [], "clicked_states": ["17", "7", "5"], "num_clicks_accrued": [0, 0, 0, 0, 0, 0, 0, 0, 0, 0, 0, 0, 0], "stateRewards": ["", -2, -3, -6, -7, 9, 16, 65, 5, -41, 20, -25, -1, -4, 1, -11, -49, -4, 71, 1, 39, -62, 52, -2, -3, 7, -9, -28, -70, 84, 8, 24, -58, 82], "withholdReward": false, "trial_id": "mdp_trial_26", "block": "test", "trialIndex": 29, "score": 40.55, "costs": -6.449999999999999, "simulationMode": [null, null, null, null, null, null], "rewards": [-2, -3, -6, -7, 65], "path": ["0", "0", "1", "2", "3", "4", "7"], "rt": [8464, 253, 45, 263, 407, 48], "actions": ["up", "up", "up", "up", "right", "down"], "actionTimes": [9650, 9905, 10478, 11260, 12187, 12747], "queries": {"click": {"state": {"target": ["17", "7", "5"], "time": [2025, 5072, 8165]}, "edge": {"target": [], "time": []}}, "mouseover": {"state": {"target": ["12", "13", "17", "17", "16", "6", "5", "6", "7", "7", "6", "5"], "time": [1213, 1248, 1529, 1847, 2462, 2496, 2747, 3064, 3529, 3713, 5530, 5829]}, "edge": {"target": [], "time": []}}, "mouseout": {"state": {"target": ["0", "12", "13", "17", "17", "16", "6", "5", "6", "7", "7", "6", "5", "7", "12"], "time": [1195, 1246, 1263, 1581, 2430, 2481, 2516, 3032, 3515, 3563, 5432, 5797, 9013, 15465, 15546]}, "edge": {"target": [], "time": []}}}, "displayed_time": "15.19", "trialTime": 15845, "trial_type": "mouselab-mdp", "trial_index": 40, "time_elapsed": 1057056, "internal_node_id": "0.0-6.0-1.0-25.0"}}, {"uniqueid": "w29928502:a38585653", "current_trial": 41, "dateTime": 1693481878917, "trialdata": {"revealed_states": [], "clicked_states": ["14", "16", "20", "32", "27"], "num_clicks_accrued": [0, 0, 0, 0, 0, 0, 0, 0, 0, 0, 0, 0, 0], "stateRewards": ["", -2, 2, 3, -7, -31, -33, 29, -8, -57, 50, -83, -1, -1, 5, 13, -23, -62, 25, 5, -66, -85, 14, 1, -2, -1, 16, 71, 33, -19, -14, 5, -43, 79], "withholdReward": false, "trial_id": "mdp_trial_27", "block": "test", "trialIndex": 30, "score": 75.45, "costs": -9.55, "simulationMode": [null, null, null, null, null], "rewards": [1, -2, -1, 16, 71], "path": ["0", "0", "23", "24", "25", "26", "27"], "rt": [14976, 14, 156, 560, 141], "actions": ["left", "left", "left", "up", "up"], "actionTimes": [16292, 16821, 17498, 18568, 19217], "queries": {"click": {"state": {"target": ["14", "16", "20", "32", "27"], "time": [1886, 2695, 5903, 9014, 12118]}, "edge": {"target": [], "time": []}}, "mouseover": {"state": {"target": ["12", "13", "14", "14", "16", "20", "20", "32", "27", "3", "4", "5", "28", "26"], "time": [1391, 1422, 1441, 1756, 2572, 3722, 4040, 7775, 10275, 13809, 13825, 14074, 15524, 15759]}, "edge": {"target": [], "time": []}}, "mouseout": {"state": {"target": ["0", "12", "13", "14", "14", "16", "20", "20", "32", "27", "3", "4", "5", "28", "26", "25"], "time": [1138, 1405, 1439, 1472, 2288, 3622, 3757, 7290, 9940, 13739, 13823, 13839, 15459, 15539, 19957, 19993]}, "edge": {"target": [], "time": []}}}, "displayed_time": "19.72", "trialTime": 21304, "trial_type": "mouselab-mdp", "trial_index": 41, "time_elapsed": 1078589, "internal_node_id": "0.0-6.0-1.0-26.0"}}, {"uniqueid": "w29928502:a38585653", "current_trial": 42, "dateTime": 1693481894916, "trialdata": {"revealed_states": [], "clicked_states": ["16", "9", "21"], "num_clicks_accrued": [0, 0, 0, 0, 0, 0, 0, 0, 0, 0, 0, 0, 0], "stateRewards": ["", -2, 2, 8, -6, -25, 3, 87, 2, -62, -2, 74, -2, -1, 2, -1, 79, 49, -37, -14, 5, 67, -9, -1, 2, -2, 5, 15, 38, 32, -14, -38, -38, 30], "withholdReward": false, "trial_id": "mdp_trial_28", "block": "test", "trialIndex": 31, "score": 70.55, "costs": -6.449999999999999, "simulationMode": [null, null, null, null, null, null], "rewards": [-2, -1, 2, -1, 79], "path": ["0", "0", "12", "13", "14", "15", "16"], "rt": [9347, 289, 57, 175, 85, 127], "actions": ["right", "right", "right", "right", "up", "up"], "actionTimes": [10686, 10977, 11556, 12255, 12832, 13475], "queries": {"click": {"state": {"target": ["16", "9", "21"], "time": [1820, 4925, 8253]}, "edge": {"target": [], "time": []}}, "mouseover": {"state": {"target": ["18", "15", "17", "16", "7", "3", "8", "9", "4", "15", "14", "14", "17", "20", "21", "19", "14", "15"], "time": [1362, 1381, 1413, 1512, 2086, 2114, 2147, 2398, 6114, 6264, 6580, 7079, 7314, 7664, 8063, 9263, 9312, 9348]}, "edge": {"target": [], "time": []}}, "mouseout": {"state": {"target": ["0", "0", "18", "15", "17", "16", "7", "3", "8", "9", "4", "16", "15", "14", "14", "17", "20", "21", "19", "14", "15", "22"], "time": [947, 1349, 1380, 1395, 1429, 2045, 2097, 2129, 2295, 6032, 6131, 6229, 6515, 6765, 7099, 7579, 7763, 8261, 9280, 9328, 14313, 14363]}, "edge": {"target": [], "time": []}}}, "displayed_time": "15.35", "trialTime": 15676, "trial_type": "mouselab-mdp", "trial_index": 42, "time_elapsed": 1094588, "internal_node_id": "0.0-6.0-1.0-27.0"}}, {"uniqueid": "w29928502:a38585653", "current_trial": 43, "dateTime": 1693481916445, "trialdata": {"revealed_states": [], "clicked_states": ["17", "21", "5", "32"], "num_clicks_accrued": [0, 0, 0, 0, 0, 0, 0, 0, 0, 0, 0, 0, 0], "stateRewards": ["", -1, 2, 5, -6, 13, -64, -47, 8, -79, -80, -33, 1, 2, -2, -16, 56, -71, -10, 3, 29, 44, 85, -1, 4, 5, 4, -36, -56, 19, 8, 52, -13, -2], "withholdReward": false, "trial_id": "mdp_trial_29", "block": "test", "trialIndex": 32, "score": 39.4, "costs": -8.6, "simulationMode": [null, null, null, null, null], "rewards": [1, 2, -2, 3, 44], "path": ["0", "0", "12", "13", "14", "19", "21"], "rt": [15826, 26, 3, 415, 151], "actions": ["right", "right", "right", "down", "down"], "actionTimes": [17055, 17588, 18113, 19059, 19727], "queries": {"click": {"state": {"target": ["17", "21", "5", "32"], "time": [2226, 6001, 9236, 13884]}, "edge": {"target": [], "time": []}}, "mouseover": {"state": {"target": ["12", "13", "17", "17", "17", "19", "21", "19", "16", "6", "5", "6", "14", "13", "12", "31", "30", "32"], "time": [1275, 1294, 1593, 1893, 2143, 2592, 2992, 7158, 7877, 8392, 8659, 10142, 12928, 13243, 13326, 13393, 13441, 13808]}, "edge": {"target": [], "time": []}}, "mouseout": {"state": {"target": ["0", "12", "13", "17", "17", "17", "19", "21", "21", "19", "16", "6", "5", "6", "14", "13", "12", "31", "30", "32", "30"], "time": [1238, 1292, 1309, 1607, 1993, 2541, 2607, 6014, 7125, 7175, 8042, 8442, 9909, 12661, 13209, 13325, 13360, 13408, 13691, 13988, 20608]}, "edge": {"target": [], "time": []}}}, "displayed_time": "20.24", "trialTime": 21316, "trial_type": "mouselab-mdp", "trial_index": 43, "time_elapsed": 1116116, "internal_node_id": "0.0-6.0-1.0-28.0"}}, {"uniqueid": "w29928502:a38585653", "current_trial": 44, "dateTime": 1693481943022, "trialdata": {"revealed_states": [], "clicked_states": ["32", "27", "6", "11"], "num_clicks_accrued": [0, 0, 0, 0, 0, 0, 0, 0, 0, 0, 0, 0, 0], "stateRewards": ["", -2, -3, 1, -7, 39, -67, 16, 5, -20, 73, 66, -1, 4, 5, -3, 23, -68, -87, -8, 3, -3, 17, 1, -4, -2, -13, -32, 34, 61, -5, -11, -18, 12], "withholdReward": false, "trial_id": "mdp_trial_30", "block": "test", "trialIndex": 33, "score": 58.4, "costs": -8.6, "simulationMode": [null, null, null, null, null], "rewards": [-2, -3, 1, 5, 66], "path": ["0", "0", "1", "2", "3", "8", "11"], "rt": [13492, 139, 32, 293, 118], "actions": ["up", "up", "up", "left", "left"], "actionTimes": [15709, 16354, 16898, 17725, 18367], "queries": {"click": {"state": {"target": ["32", "27", "6", "11"], "time": [2720, 5775, 8834, 11921]}, "edge": {"target": [], "time": []}}, "mouseover": {"state": {"target": ["0", "32", "30", "25", "26", "27", "27", "10", "2", "7", "17", "17", "15", "18", "7", "4", "6", "4", "3", "8", "11", "8", "7", "20"], "time": [2264, 2597, 3196, 3233, 3279, 3329, 3631, 6280, 6299, 6315, 6631, 6831, 6863, 6884, 6930, 7231, 7481, 9863, 9888, 9929, 9981, 13282, 13333, 15198]}, "edge": {"target": [], "time": []}}, "mouseout": {"state": {"target": ["23", "24", "23", "0", "32", "30", "25", "26", "27", "27", "10", "2", "7", "17", "17", "15", "18", "7", "4", "6", "4", "3", "8", "11", "8", "7", "20", "17", "21"], "time": [1645, 1865, 1948, 2280, 3181, 3231, 3264, 3315, 3381, 5862, 6297, 6313, 6333, 6647, 6847, 6883, 6899, 6997, 7449, 9847, 9886, 9918, 9948, 13232, 13296, 13346, 21838, 22164, 22248]}, "edge": {"target": [], "time": []}}}, "displayed_time": "18.89", "trialTime": 26282, "trial_type": "mouselab-mdp", "trial_index": 44, "time_elapsed": 1142694, "internal_node_id": "0.0-6.0-1.0-29.0"}}, {"uniqueid": "w29928502:a38585653", "current_trial": 45, "dateTime": 1693481968526, "trialdata": {"revealed_states": [], "clicked_states": ["17", "21", "18"], "num_clicks_accrued": [0, 0, 0, 0, 0, 0, 0, 0, 0, 0, 0, 0, 0], "stateRewards": ["", 2, -3, 5, 11, -79, 54, 11, -9, -78, 33, 22, -2, -1, 2, 14, 43, 34, 1, 10, 49, -65, 39, -1, 1, -1, 3, -16, -2, 11, 2, 12, 48, -65], "withholdReward": false, "trial_id": "mdp_trial_31", "block": "test", "trialIndex": 34, "score": 40.55, "costs": -6.449999999999999, "simulationMode": [null, null, null, null, null], "rewards": [-2, -1, 2, 14, 34], "path": ["0", "0", "12", "13", "14", "15", "17"], "rt": [16852, 17, 351, 81, 110], "actions": ["right", "right", "right", "up", "right"], "actionTimes": [18119, 18647, 19530, 20129, 20741], "queries": {"click": {"state": {"target": ["17", "21", "18"], "time": [1809, 5919, 9888]}, "edge": {"target": [], "time": []}}, "mouseover": {"state": {"target": ["12", "17", "21", "19", "14", "15", "14", "21", "16", "18", "12", "18", "27", "27"], "time": [1340, 1748, 3129, 5348, 5379, 5412, 5515, 5797, 9046, 9262, 9295, 9731, 13932, 14820]}, "edge": {"target": [], "time": []}}, "mouseout": {"state": {"target": ["0", "12", "17", "21", "19", "14", "15", "14", "21", "16", "18", "12", "18", "27", "27"], "time": [1316, 1384, 2613, 4197, 5362, 5395, 5514, 5528, 8612, 9080, 9279, 9332, 13547, 13964, 17579]}, "edge": {"target": [], "time": []}}}, "displayed_time": "21.25", "trialTime": 25201, "trial_type": "mouselab-mdp", "trial_index": 45, "time_elapsed": 1168198, "internal_node_id": "0.0-6.0-1.0-30.0"}}, {"uniqueid": "w29928502:a38585653", "current_trial": 46, "dateTime": 1693481988597, "trialdata": {"revealed_states": [], "clicked_states": [], "num_clicks_accrued": [0, 0, 0, 0, 0, 0, 0, 0, 0, 0, 0, 0, 0], "stateRewards": ["", 2, 3, -1, 16, -78, -11, 46, 2, -20, 79, -67, 2, 3, 2, 11, -83, -42, -58, -11, -67, -22, 55, 2, -1, -1, -16, -83, -82, 23, -11, -29, 13, 13], "withholdReward": false, "trial_id": "mdp_trial_32", "block": "test", "trialIndex": 35, "score": -26, "costs": 0, "simulationMode": [null, null, null, null, null], "rewards": [2, 3, 2, -11, -22], "path": ["0", "0", "12", "13", "14", "19", "21"], "rt": [5597, 103, 826, 112, 79], "actions": ["right", "right", "right", "down", "down"], "actionTimes": [9493, 10111, 11451, 12069, 12670], "queries": {"click": {"state": {"target": [], "time": []}, "edge": {"target": [], "time": []}}, "mouseover": {"state": {"target": ["12", "13", "17", "19", "19", "14", "15"], "time": [6771, 6838, 7906, 8790, 8988, 9037, 9158]}, "edge": {"target": [], "time": []}}, "mouseout": {"state": {"target": ["0", "12", "13", "17", "19", "19", "14", "15"], "time": [6742, 6823, 6855, 8725, 8822, 9022, 9072, 15957]}, "edge": {"target": [], "time": []}}}, "displayed_time": "17.91", "trialTime": 19747, "trial_type": "mouselab-mdp", "trial_index": 46, "time_elapsed": 1188269, "internal_node_id": "0.0-6.0-1.0-31.0"}}, {"uniqueid": "w29928502:a38585653", "current_trial": 47, "dateTime": 1693482011934, "trialdata": {"revealed_states": [], "clicked_states": ["17", "21", "32", "27"], "num_clicks_accrued": [0, 0, 0, 0, 0, 0, 0, 0, 0, 0, 0, 0, 0], "stateRewards": ["", 2, -4, 7, 3, 23, -42, 4, 7, -81, -33, 7, -2, -4, 5, -1, 50, -57, -14, -13, -14, 44, 55, -2, -2, 5, -2, 33, 1, 57, -13, -7, 58, 87], "withholdReward": false, "trial_id": "mdp_trial_33", "block": "test", "trialIndex": 36, "score": 37.4, "costs": -8.6, "simulationMode": [null, null, null, null, null, null], "rewards": [-2, -2, 5, -13, 58], "path": ["0", "0", "23", "24", "25", "30", "32"], "rt": [12838, 187, 287, 241, 125, 214], "actions": ["left", "left", "left", "left", "down", "down"], "actionTimes": [18038, 18227, 19047, 19818, 20472, 21206], "queries": {"click": {"state": {"target": ["17", "21", "32", "27"], "time": [5917, 9797, 13938, 17186]}, "edge": {"target": [], "time": []}}, "mouseover": {"state": {"target": ["12", "14", "17", "16", "16", "15", "14", "19", "21", "33", "32", "30", "25", "26", "27"], "time": [5274, 5557, 5708, 9163, 9341, 9423, 9473, 9492, 9540, 12824, 13176, 15196, 15257, 15325, 15893]}, "edge": {"target": [], "time": []}}, "mouseout": {"state": {"target": ["0", "12", "14", "17", "17", "16", "16", "15", "14", "19", "21", "33", "32", "30", "25", "26", "27"], "time": [5241, 5291, 5635, 5926, 9059, 9293, 9409, 9458, 9490, 9524, 12691, 13042, 14673, 15240, 15294, 15810, 22025]}, "edge": {"target": [], "time": []}}}, "displayed_time": "21.73", "trialTime": 23069, "trial_type": "mouselab-mdp", "trial_index": 47, "time_elapsed": 1211605, "internal_node_id": "0.0-6.0-1.0-32.0"}}, {"uniqueid": "w29928502:a38585653", "current_trial": 48, "dateTime": 1693482046074, "trialdata": {"revealed_states": [], "clicked_states": ["16", "20", "32", "6", "9", "26"], "num_clicks_accrued": [0, 0, 0, 0, 0, 0, 0, 0, 0, 0, 0, 0, 0], "stateRewards": ["", 2, 3, -1, 6, 44, -4, -59, -14, -3, 64, 16, 1, -3, 3, 6, 3, 49, 19, 3, -49, -14, -86, 1, 2, -3, -8, -33, 14, 32, -13, -77, -47, -67], "withholdReward": false, "trial_id": "mdp_trial_34", "block": "test", "trialIndex": 37, "score": 11.7, "costs": -12.3, "simulationMode": [null, null, null, null, null], "rewards": [1, 2, -3, -8, 32], "path": ["0", "0", "23", "24", "25", "26", "29"], "rt": [24140, 88, 157, 192, 207], "actions": ["left", "left", "left", "up", "left"], "actionTimes": [26450, 27058, 27728, 28433, 29161], "queries": {"click": {"state": {"target": ["16", "20", "32", "6", "9", "26"], "time": [2799, 6853, 10527, 13674, 17295, 22364]}, "edge": {"target": [], "time": []}}, "mouseover": {"state": {"target": ["18", "15", "16", "20", "21", "32", "31", "10", "3", "4", "4", "6", "9", "10", "26", "26", "29"], "time": [2384, 2433, 2703, 3304, 7600, 10435, 10900, 10967, 11035, 11134, 11534, 12353, 17201, 21450, 21851, 22286, 23768]}, "edge": {"target": [], "time": []}}, "mouseout": {"state": {"target": ["0", "0", "18", "15", "16", "16", "20", "21", "32", "31", "10", "3", "4", "4", "6", "9", "10", "26", "26"], "time": [1650, 2325, 2419, 2667, 2875, 3219, 7334, 10019, 10594, 10918, 10984, 11101, 11184, 11969, 14985, 17567, 21585, 21867, 23451]}, "edge": {"target": [], "time": []}}}, "displayed_time": "29.67", "trialTime": 33785, "trial_type": "mouselab-mdp", "trial_index": 48, "time_elapsed": 1245745, "internal_node_id": "0.0-6.0-1.0-33.0"}}, {"uniqueid": "w29928502:a38585653", "current_trial": 49, "dateTime": 1693482063889, "trialdata": {"revealed_states": [], "clicked_states": ["17", "21"], "num_clicks_accrued": [0, 0, 0, 0, 0, 0, 0, 0, 0, 0, 0, 0, 0], "stateRewards": ["", -1, -3, 1, -4, -48, -63, -49, -2, -84, -19, 65, 2, -2, -2, -12, -4, 59, 9, 6, 75, 69, -13, -1, -3, -3, -2, -37, -68, -36, 13, 32, 18, -14], "withholdReward": false, "trial_id": "mdp_trial_35", "block": "test", "trialIndex": 38, "score": 68.7, "costs": -4.3, "simulationMode": [null, null, null, null, null], "rewards": [2, -2, -2, 6, 69], "path": ["0", "0", "12", "13", "14", "19", "21"], "rt": [9198, 113, 11, 53, 120], "actions": ["right", "right", "right", "down", "down"], "actionTimes": [11654, 12281, 12812, 13390, 14022], "queries": {"click": {"state": {"target": ["17", "21"], "time": [3866, 7570]}, "edge": {"target": [], "time": []}}, "mouseover": {"state": {"target": ["12", "15", "17", "15", "28", "14", "20", "21", "19", "14", "15", "16"], "time": [3348, 3501, 3648, 4339, 4799, 6835, 6967, 7482, 8448, 8481, 8532, 10117]}, "edge": {"target": [], "time": []}}, "mouseout": {"state": {"target": ["29", "26", "28", "0", "12", "15", "17", "15", "28", "14", "20", "21", "19", "14", "15", "16", "22"], "time": [1668, 1933, 1981, 3332, 3398, 3633, 4337, 4349, 5917, 6885, 7165, 8399, 8467, 8516, 8565, 14834, 14916]}, "edge": {"target": [], "time": []}}}, "displayed_time": "16.46", "trialTime": 17531, "trial_type": "mouselab-mdp", "trial_index": 49, "time_elapsed": 1263561, "internal_node_id": "0.0-6.0-1.0-34.0"}}, {"uniqueid": "w29928502:a38585653", "current_trial": 50, "dateTime": 1693482091195, "trialdata": {"revealed_states": [], "clicked_states": ["17", "32", "27", "20", "6", "22"], "num_clicks_accrued": [0, 0, 0, 0, 0, 0, 0, 0, 0, 0, 0, 0, 0], "stateRewards": ["", -2, -4, -6, 12, -58, -70, -80, 2, 16, -88, -62, 1, 2, -5, 11, 77, -35, -44, -5, 18, -83, 87, 1, -3, -5, 13, -44, -21, -86, 10, -52, 8, 29], "withholdReward": false, "trial_id": "mdp_trial_36", "block": "test", "trialIndex": 39, "score": 67.1, "costs": -12.9, "simulationMode": [null, null, null, null, null], "rewards": [1, 2, -5, -5, 87], "path": ["0", "0", "12", "13", "14", "19", "22"], "rt": [20671, 62, 119, 95, 115], "actions": ["right", "right", "right", "down", "left"], "actionTimes": [22797, 23353, 23991, 24604, 25237], "queries": {"click": {"state": {"target": ["17", "32", "27", "20", "6", "22"], "time": [2800, 5869, 8958, 12075, 15856, 19135]}, "edge": {"target": [], "time": []}}, "mouseover": {"state": {"target": ["18", "16", "17", "13", "31", "32", "30", "26", "27", "3", "6", "18", "14", "14", "19", "20", "16", "6", "18", "13", "22", "22"], "time": [2271, 2420, 2721, 3271, 3437, 3772, 6454, 6504, 6705, 9470, 9803, 9869, 9920, 10719, 10737, 10987, 13037, 13087, 17271, 17321, 17370, 17920]}, "edge": {"target": [], "time": []}}, "mouseout": {"state": {"target": ["0", "18", "16", "17", "13", "31", "32", "30", "26", "27", "3", "6", "18", "14", "14", "19", "20", "20", "16", "6", "18", "13", "22", "22"], "time": [1871, 2286, 2506, 3153, 3306, 3472, 6438, 6471, 6555, 9419, 9486, 9836, 9886, 9953, 10736, 10753, 12571, 13004, 13054, 17104, 17303, 17354, 17437, 19607]}, "edge": {"target": [], "time": []}}}, "displayed_time": "25.76", "trialTime": 27041, "trial_type": "mouselab-mdp", "trial_index": 50, "time_elapsed": 1290866, "internal_node_id": "0.0-6.0-1.0-35.0"}}, {"uniqueid": "w29928502:a38585653", "current_trial": 51, "dateTime": 1693482109262, "trialdata": {"revealed_states": [], "clicked_states": ["17", "21"], "num_clicks_accrued": [0, 0, 0, 0, 0, 0, 0, 0, 0, 0, 0, 0, 0], "stateRewards": ["", 2, -1, 8, -2, -16, 69, -39, -7, -13, -27, -86, 2, -2, 2, 13, -34, -16, -20, -5, 19, 81, 32, -2, -1, 2, -14, 20, 80, 58, 4, 70, 12, 73], "withholdReward": false, "trial_id": "mdp_trial_37", "block": "test", "trialIndex": 40, "score": 73.7, "costs": -4.3, "simulationMode": [null, null, null, null, null], "rewards": [2, -2, 2, -5, 81], "path": ["0", "0", "12", "13", "14", "19", "21"], "rt": [9023, 83, 116, 158, 164], "actions": ["right", "right", "right", "down", "down"], "actionTimes": [11206, 11809, 12441, 13116, 13788], "queries": {"click": {"state": {"target": ["17", "21"], "time": [3134, 6849]}, "edge": {"target": [], "time": []}}, "mouseover": {"state": {"target": ["0", "12", "14", "17", "17", "21", "22", "19"], "time": [2191, 2323, 2525, 2573, 2974, 4006, 10175, 10490]}, "edge": {"target": [], "time": []}}, "mouseout": {"state": {"target": ["0", "0", "12", "14", "17", "17", "21", "21", "22", "19"], "time": [1740, 2290, 2356, 2559, 2613, 3557, 6912, 10025, 10374, 16817]}, "edge": {"target": [], "time": []}}}, "displayed_time": "16.20", "trialTime": 17778, "trial_type": "mouselab-mdp", "trial_index": 51, "time_elapsed": 1308934, "internal_node_id": "0.0-6.0-1.0-36.0"}}, {"uniqueid": "w29928502:a38585653", "current_trial": 52, "dateTime": 1693482126390, "trialdata": {"revealed_states": [], "clicked_states": ["17", "27"], "num_clicks_accrued": [0, 0, 0, 0, 0, 0, 0, 0, 0, 0, 0, 0, 0], "stateRewards": ["", 1, 2, -8, 9, 18, -83, -11, 6, -64, -48, 17, -2, -2, -5, -3, -24, -3, -86, -2, 48, -41, -22, -2, 4, 7, 8, 81, 13, -48, 10, 61, 19, 57], "withholdReward": false, "trial_id": "mdp_trial_38", "block": "test", "trialIndex": 41, "score": 93.7, "costs": -4.3, "simulationMode": [null, null, null, null, null], "rewards": [-2, 4, 7, 8, 81], "path": ["0", "0", "23", "24", "25", "26", "27"], "rt": [7677, 68, 211, 23, 80], "actions": ["left", "left", "left", "up", "up"], "actionTimes": [9382, 9958, 10684, 11214, 11819], "queries": {"click": {"state": {"target": ["17", "27"], "time": [2481, 5459]}, "edge": {"target": [], "time": []}}, "mouseover": {"state": {"target": ["17", "17", "23", "24", "26", "27", "18", "14", "20", "21", "23"], "time": [2254, 2406, 3071, 3140, 3488, 3588, 5888, 5921, 5955, 6157, 9006]}, "edge": {"target": [], "time": []}}, "mouseout": {"state": {"target": ["12", "0", "17", "17", "23", "24", "26", "27", "18", "14", "20", "21", "23", "0", "13", "14", "19"], "time": [1389, 1889, 2288, 2940, 3091, 3439, 3555, 5822, 5904, 5938, 6009, 8905, 15231, 15254, 15289, 15356, 15390]}, "edge": {"target": [], "time": []}}}, "displayed_time": "15.70", "trialTime": 16804, "trial_type": "mouselab-mdp", "trial_index": 52, "time_elapsed": 1326062, "internal_node_id": "0.0-6.0-1.0-37.0"}}, {"uniqueid": "w29928502:a38585653", "current_trial": 53, "dateTime": 1693482146322, "trialdata": {"revealed_states": [], "clicked_states": ["17", "32", "27", "6"], "num_clicks_accrued": [0, 0, 0, 0, 0, 0, 0, 0, 0, 0, 0, 0, 0], "stateRewards": ["", -1, -4, 8, 8, -68, 47, 24, -7, -61, 49, -69, -1, -1, 8, -7, 42, 1, -45, -11, 10, -63, -6, 1, 4, 6, -16, 79, -37, -58, -12, 81, 18, -53], "withholdReward": false, "trial_id": "mdp_trial_39", "block": "test", "trialIndex": 42, "score": 65.4, "costs": -8.6, "simulationMode": [null, null, null, null, null, null], "rewards": [1, 4, 6, -16, 79], "path": ["0", "0", "23", "24", "25", "26", "27"], "rt": [11251, 214, 51, 728, 155, 188], "actions": ["left", "left", "left", "left", "up", "up"], "actionTimes": [14141, 14357, 14940, 16200, 16876, 17576], "queries": {"click": {"state": {"target": ["17", "32", "27", "6"], "time": [3742, 6858, 10139, 13238]}, "edge": {"target": [], "time": []}}, "mouseover": {"state": {"target": ["12", "17", "17", "13", "23", "24", "32", "31", "23", "10", "27", "8", "6", "6", "7", "1", "23"], "time": [2936, 3302, 3622, 5788, 5853, 5892, 6153, 7468, 7519, 7636, 7803, 10935, 11272, 11469, 13602, 13635, 13720]}, "edge": {"target": [], "time": []}}, "mouseout": {"state": {"target": ["0", "12", "17", "17", "13", "23", "24", "32", "31", "23", "10", "27", "8", "6", "6", "7", "1", "23"], "time": [2902, 2954, 3370, 4137, 5802, 5869, 5936, 7403, 7502, 7536, 7687, 10886, 10952, 11319, 13587, 13620, 13652, 13769]}, "edge": {"target": [], "time": []}}}, "displayed_time": "18.09", "trialTime": 19683, "trial_type": "mouselab-mdp", "trial_index": 53, "time_elapsed": 1345994, "internal_node_id": "0.0-6.0-1.0-38.0"}}, {"uniqueid": "w29928502:a38585653", "current_trial": 54, "dateTime": 1693482177215, "trialdata": {"revealed_states": [], "clicked_states": ["17", "27", "22", "5", "11", "31"], "num_clicks_accrued": [0, 0, 0, 0, 0, 0, 0, 0, 0, 0, 0, 0, 0], "stateRewards": ["", -1, -2, -8, 8, -27, -82, 19, -14, -62, 4, 1, -2, 2, 6, 10, 73, -51, -2, 2, 73, -48, 54, -1, 2, -4, 11, -25, 47, 86, 15, 33, 43, -42], "withholdReward": false, "trial_id": "mdp_trial_40", "block": "test", "trialIndex": 43, "score": 32.1, "costs": -12.9, "simulationMode": [null, null, null, null, null, null], "rewards": [-1, 2, -4, 15, 33], "path": ["0", "0", "23", "24", "25", "30", "31"], "rt": [19008, 455, 126, 45, 120, 191], "actions": ["up", "left", "left", "left", "down", "right"], "actionTimes": [26177, 26634, 27284, 27851, 28493, 29198], "queries": {"click": {"state": {"target": ["17", "27", "22", "5", "11", "31"], "time": [8193, 11369, 14462, 18582, 21699, 24842]}, "edge": {"target": [], "time": []}}, "mouseover": {"state": {"target": ["17", "17", "15", "23", "25", "29", "27", "3", "4", "18", "13", "22", "21", "19", "14", "15", "6", "5", "5", "5", "6", "7", "8", "11", "24", "30", "32", "31"], "time": [7755, 8089, 10254, 10371, 10571, 10690, 11275, 12190, 12220, 12875, 12889, 12921, 14904, 15053, 15088, 15106, 15337, 15404, 18073, 18527, 19037, 19220, 19288, 19554, 22638, 22704, 22889, 23674]}, "edge": {"target": [], "time": []}}, "mouseout": {"state": {"target": ["0", "14", "14", "13", "12", "0", "12", "13", "12", "17", "17", "17", "15", "23", "25", "29", "27", "3", "4", "18", "13", "22", "21", "19", "14", "15", "6", "5", "5", "5", "6", "7", "8", "11", "24", "30", "32", "31"], "time": [3122, 3694, 4205, 4270, 4432, 5087, 5132, 5161, 6272, 7807, 8246, 10238, 10287, 10405, 10588, 11222, 12071, 12204, 12237, 12888, 12907, 14837, 15037, 15071, 15104, 15121, 15356, 16188, 18104, 18954, 19070, 19237, 19374, 22371, 22673, 22720, 23339, 25471]}, "edge": {"target": [], "time": []}}}, "displayed_time": "29.71", "trialTime": 30644, "trial_type": "mouselab-mdp", "trial_index": 54, "time_elapsed": 1376887, "internal_node_id": "0.0-6.0-1.0-39.0"}}, {"uniqueid": "w29928502:a38585653", "current_trial": 55, "dateTime": 1693482215129, "trialdata": {"rt": 37909, "response": {"Q0": "$-2 to $2", "Q1": "$-32 to $32", "Q2": "$-88 to $88", "Q3": "The cost for clicking on nodes varied between nodes.", "Q4": "Slightly unmotivated"}, "question_order": [0, 1, 2, 3, 4], "trial_id": "final_quiz_control", "trial_type": "survey-multi-choice", "trial_index": 55, "time_elapsed": 1414801, "internal_node_id": "0.0-6.0-2.0"}}, {"uniqueid": "w29928502:a38585653", "current_trial": 56, "dateTime": 1693482243337, "trialdata": {"rt": 28201, "response": {"Q0": "I clicked on the nodes further out ", "Q1": "I tried but it was all different ", "Q2": "Not sure to be honest \n"}, "trial_id": "self_report_control", "trial_type": "survey-text", "trial_index": 56, "time_elapsed": 1443009, "internal_node_id": "0.0-6.0-3.0"}}, {"uniqueid": "w29928502:a38585653", "current_trial": 57, "dateTime": 1693482280596, "trialdata": {"rt": 37255, "response": {"Q0": "Strongly disagree", "Q1": "Neither disagree nor agree", "Q2": "Neither disagree nor agree", "Q3": "Agree", "Q4": "Strongly disagree", "Q5": "Disagree", "Q6": "Agree"}, "question_order": [0, 1, 2, 3, 4, 5, 6], "trial_id": "self_report_2", "trial_type": "survey-multi-choice", "trial_index": 57, "time_elapsed": 1480268, "internal_node_id": "0.0-6.0-4.0"}}, {"uniqueid": "w29928502:a38585653", "current_trial": 58, "dateTime": 1693482358421, "trialdata": {"rt": 77819, "response": {"gender": "female", "age": "31", "colorblind": "0", "effort": "1"}, "trial_type": "survey-html-form", "trial_index": 58, "time_elapsed": 1558093, "internal_node_id": "0.0-6.0-5.0"}}, {"uniqueid": "w29928502:a38585653", "current_trial": 59, "dateTime": 1693482367484, "trialdata": {"rt": 9060, "response": {"Q0": "", "Q1": "Nope", "Q2": ""}, "trial_type": "survey-text", "trial_index": 59, "time_elapsed": 1567156, "internal_node_id": "0.0-6.0-6.0"}}, {"uniqueid": "w29928502:a38585653", "current_trial": 60, "dateTime": 1693482429522, "trialdata": {"rt": 62033, "stimulus": "<h1>Completion Code Instructions (1/2)</h1>\n<br><br><br><br>\nYou have reached the end of the experiment! The completion code consists of two parts: (1) a code with 2 characters (2) a code with 6 characters. On this page, you will receive the second part of the code. The first part of the completion code will be on the next page.\n<br><br>\nThe second part of your completion code is: <b>EWEK22</b>\n<br><br>\nPlease note this down. Then, press 'Finish HIT' in order to find the first part of your completion code. Once the data has been saved, you will receive this code either in this window or in the original browser window where you started the experiment.\n", "response": 0, "trial_type": "html-button-response", "trial_index": 60, "time_elapsed": 1629194, "internal_node_id": "0.0-6.0-7.0"}}, {"uniqueid": "w29928502:a38585653", "current_trial": 61, "dateTime": 1693482430531, "trialdata": {"success": true, "trial_type": "fullscreen", "trial_index": 61, "time_elapsed": 1630203, "internal_node_id": "0.0-7.0"}}], "questiondata": {"params": {"CODE": "C6DMOQA6", "MIN_TIME": 14, "inspectCost": 1, "startTime": "Thu Aug 31 2023 12:19:59 GMT+0100 (British Summer Time)", "bonusRate": 0.002, "variance": "1_2_4_8_44", "branching": "31123"}, "final_score": 1837.3}, "eventdata": [{"eventtype": "initialized", "value": null, "timestamp": 1693480798671, "interval": 0}, {"eventtype": "window_resize", "value": [1024, 767], "timestamp": 1693480798671, "interval": 0}, {"eventtype": "window_resize", "value": [1563, 853], "timestamp": 1693480799205, "interval": 534}, {"eventtype": "window_resize", "value": [1643, 885], "timestamp": 1693480800424, "interval": 1219}, {"eventtype": "window_resize", "value": [1792, 1120], "timestamp": 1693480802580, "interval": 2156}, {"eventtype": "focus", "value": "off", "timestamp": 1693481194634, "interval": 392054}, {"eventtype": "window_resize", "value": [1643, 885], "timestamp": 1693481194853, "interval": 219}, {"eventtype": "focus", "value": "on", "timestamp": 1693481198168, "interval": 3315}, {"eventtype": "focus", "value": "off", "timestamp": 1693481198665, "interval": 497}, {"eventtype": "focus", "value": "on", "timestamp": 1693481198927, "interval": 262}, {"eventtype": "window_resize", "value": [1792, 1120], "timestamp": 1693481200626, "interval": 1699}, {"eventtype": "window_resize", "value": [1643, 885], "timestamp": 1693482284514, "interval": 1083888}, {"eventtype": "focus", "value": "off", "timestamp": 1693482287892, "interval": 3378}, {"eventtype": "focus", "value": "on", "timestamp": 1693482289668, "interval": 1776}, {"eventtype": "focus", "value": "off", "timestamp": 1693482421241, "interval": 131573}, {"eventtype": "focus", "value": "on", "timestamp": 1693482424235, "interval": 2994}, {"eventtype": "focus", "value": "off", "timestamp": 1693482425504, "interval": 1269}, {"eventtype": "focus", "value": "on", "timestamp": 1693482426184, "interval": 680}], "useragent": "Mozilla/5.0 (Macintosh; Intel Mac OS X 10_15_7) AppleWebKit/537.36 (KHTML, like Gecko) Chrome/113.0.0.0 Safari/537.36", "mode": "live", "id": "w29928502:a38585653", "status": "user data saved", "Beginhit": "2023-08-31 11:19:57.311137", "Beginexp": "2023-08-31 11:20:03.395463", "Endhit": "2023-08-31 11:47:11.375523", "psiturkStatus": 3, "browser": "<redacted>", "platform": "macos", "language": "en-GB"}