{"condition": 1, "counterbalance": 0, "assignmentId": "a20964465", "workerId": "w76589097", "hitId": "h39483161", "currenttrial": 62, "bonus": 0, "data": [{"uniqueid": "w76589097:a20964465", "current_trial": 0, "dateTime": 1693393054518, "trialdata": {"success": true, "trial_type": "fullscreen", "trial_index": 0, "time_elapsed": 350726, "internal_node_id": "0.0-0.0"}}, {"uniqueid": "w76589097:a20964465", "current_trial": 1, "dateTime": 1693393057610, "trialdata": {"view_history": [{"page_index": 0, "viewing_time": 3086}], "rt": 3087, "trial_id": "exp_instructions_misaligned", "trial_type": "instructions", "trial_index": 1, "time_elapsed": 353819, "internal_node_id": "0.0-1.0"}}, {"uniqueid": "w76589097:a20964465", "current_trial": 2, "dateTime": 1693393232977, "trialdata": {"view_history": [{"page_index": 0, "viewing_time": 54739}, {"page_index": 1, "viewing_time": 71064}, {"page_index": 2, "viewing_time": 26490}, {"page_index": 3, "viewing_time": 23077}], "rt": 175370, "trial_id": "mouselab_instructions_1_misaligned", "trial_type": "instructions", "trial_index": 2, "time_elapsed": 529186, "internal_node_id": "0.0-2.0-1.0"}}, {"uniqueid": "w76589097:a20964465", "current_trial": 3, "dateTime": 1693393329336, "trialdata": {"revealed_states": [], "clicked_states": ["12", "13", "15", "14", "19", "23", "1", "2", "3", "8", "9", "4", "6", "7", "24", "25", "26", "29", "30", "32", "31", "33", "22", "21", "20", "16", "17", "18", "5", "11", "10", "28", "27"], "num_clicks_accrued": [0, 0, 0, 0, 0, 0, 0, 0, 0, 0, 0, 0, 0], "stateRewards": ["", 10, 10, -10, -10, 10, 10, 10, -10, 10, -10, 10, 10, -10, -10, -10, -10, -10, -10, -10, 10, 10, -10, 10, 10, 10, 10, -10, -10, -10, 10, 10, -10, 10], "withholdReward": false, "trial_id": "practice_1", "block": "test", "trialIndex": 0, "score": 17, "costs": -16.5, "simulationMode": [null, null, null, null, null], "rewards": [10, 10, 10, 10, -10], "path": ["0", "0", "23", "24", "25", "26", "27"], "rt": [80804, 1727, 325, 703, 262], "actions": ["left", "left", "left", "up", "up"], "actionTimes": [82543, 84786, 85616, 86836, 87598], "queries": {"click": {"state": {"target": ["12", "13", "15", "14", "19", "23", "1", "2", "3", "8", "9", "4", "6", "7", "24", "25", "26", "29", "30", "32", "31", "33", "22", "21", "20", "16", "17", "18", "5", "11", "10", "28", "27"], "time": [3319, 5191, 7004, 8398, 11374, 15058, 16093, 17173, 18305, 19606, 21017, 27947, 29681, 30700, 34153, 35883, 37252, 41656, 43561, 44822, 46397, 47674, 49503, 50671, 54258, 55768, 57021, 58205, 60689, 61986, 63378, 64571, 66064]}, "edge": {"target": [], "time": []}}, "mouseover": {"state": {"target": ["12", "13", "14", "15", "14", "19", "22", "23", "24", "23", "23", "1", "2", "3", "8", "9", "0", "1", "4", "7", "4", "5", "6", "7", "1", "23", "24", "25", "30", "25", "26", "24", "23", "31", "25", "29", "30", "32", "31", "33", "22", "21", "20", "22", "20", "15", "16", "17", "15", "18", "18", "2", "7", "6", "5", "3", "8", "11", "10", "2", "10", "28", "27", "27", "0", "20", "19", "22", "0", "23", "0"], "time": [2753, 4180, 6013, 6731, 7878, 10580, 14097, 14265, 14319, 14631, 14851, 15799, 16895, 17996, 19430, 19929, 26595, 26633, 26911, 27482, 27632, 28463, 29365, 30363, 32849, 33396, 33646, 34745, 35315, 35581, 36330, 39697, 39811, 40349, 40846, 41131, 43282, 44013, 45478, 46896, 49031, 50164, 51112, 53563, 53984, 54816, 55315, 56282, 57384, 57617, 57850, 59585, 59686, 60004, 60402, 61184, 61516, 61615, 62301, 62998, 63133, 63816, 65049, 65251, 66497, 74769, 74869, 74935, 75584, 77038, 81092]}, "edge": {"target": [], "time": []}}, "mouseout": {"state": {"target": ["12", "13", "14", "15", "15", "14", "14", "19", "22", "23", "24", "23", "23", "1", "2", "3", "8", "9", "0", "1", "4", "7", "4", "5", "6", "7", "1", "23", "24", "25", "30", "25", "26", "26", "24", "23", "31", "25", "29", "30", "32", "31", "30", "33", "22", "21", "20", "22", "20", "15", "16", "17", "15", "18", "18", "2", "7", "6", "5", "3", "8", "11", "11", "10", "2", "10", "28", "27", "27", "0", "20", "19", "22", "0", "23", "0"], "time": [4132, 5879, 6686, 7074, 7779, 9602, 10415, 14062, 14131, 14300, 14549, 14797, 15749, 16829, 17863, 19246, 19762, 21381, 26606, 26650, 27232, 27583, 28345, 29063, 30184, 31079, 33049, 33463, 34531, 35130, 35481, 36179, 37337, 38630, 39763, 39931, 40415, 40930, 41912, 43913, 45211, 46646, 46828, 48128, 49815, 50880, 51695, 53577, 54333, 55098, 56117, 57300, 57449, 57733, 58451, 59634, 59836, 60283, 60983, 61265, 61533, 62056, 62219, 62882, 63066, 63632, 64866, 65184, 66247, 67315, 74834, 74902, 74985, 76918, 81055, 81117]}, "edge": {"target": [], "time": []}}}, "displayed_time": "88.10", "trialTime": 96049, "trial_type": "mouselab-mdp", "trial_index": 3, "time_elapsed": 625544, "internal_node_id": "0.0-2.0-2.0-0.0"}}, {"uniqueid": "w76589097:a20964465", "current_trial": 4, "dateTime": 1693393358136, "trialdata": {"revealed_states": [], "clicked_states": [], "num_clicks_accrued": [0, 0, 0, 0, 0, 0, 0, 0, 0, 0, 0, 0, 0], "stateRewards": ["", -10, -10, -10, -10, 10, 10, 10, 10, 10, -10, -10, -10, -10, -10, -10, -10, 10, 10, -10, -10, 10, 10, 10, -10, -10, -10, -10, -10, -10, -10, 10, -10, -10], "withholdReward": false, "trial_id": "practice_2", "block": "test", "trialIndex": 1, "score": -46.5, "costs": 0, "simulationMode": [null, null, null, null, null], "rewards": [-10, -10, -10, -10, -10], "path": ["0", "0", "12", "13", "14", "15", "16"], "rt": [2596, 368, 411, 861, 357], "actions": ["right", "right", "right", "up", "up"], "actionTimes": [8915, 9795, 10706, 12087, 12952], "queries": {"click": {"state": {"target": [], "time": []}, "edge": {"target": [], "time": []}}, "mouseover": {"state": {"target": ["12"], "time": [7459]}, "edge": {"target": [], "time": []}}, "mouseout": {"state": {"target": ["0", "0", "12", "23", "23", "2", "1", "18", "15", "7", "7", "21"], "time": [5688, 6821, 7858, 20945, 21011, 21529, 22633, 22996, 23212, 23595, 24262, 27394]}, "edge": {"target": [], "time": []}}}, "displayed_time": "13.48", "trialTime": 28492, "trial_type": "mouselab-mdp", "trial_index": 4, "time_elapsed": 654344, "internal_node_id": "0.0-2.0-2.0-1.0"}}, {"uniqueid": "w76589097:a20964465", "current_trial": 5, "dateTime": 1693393392417, "trialdata": {"view_history": [{"page_index": 0, "viewing_time": 30163}, {"page_index": 1, "viewing_time": 4115}], "rt": 34278, "trial_id": "mouselab_instructions_2_misaligned", "trial_type": "instructions", "trial_index": 5, "time_elapsed": 688626, "internal_node_id": "0.0-2.0-3.0"}}, {"uniqueid": "w76589097:a20964465", "current_trial": 6, "dateTime": 1693393424023, "trialdata": {"rt": 31599, "response": {"Q0": "The cost for clicking on nodes may vary between nodes.", "Q1": "The better I perform the higher my bonus will be.", "Q2": "No, the amount of cash at each node of the web may be different each time.", "Q3": "To get the highest total score.", "Q4": "Any time during the round.", "Q5": "3 seconds"}, "question_order": [0, 1, 2, 3, 4, 5], "correct": {"Q0": "The cost for clicking on nodes may vary between nodes.", "Q1": "The better I perform the higher my bonus will be.", "Q2": "No, the amount of cash at each node of the web may be different each time.", "Q3": "To get the highest total score.", "Q4": "Only before moving the spider.", "Q5": "3 seconds"}, "trial_id": "mouselab_quiz_misaligned", "trial_type": "survey-multi-choice", "trial_index": 6, "time_elapsed": 720232, "internal_node_id": "0.0-2.0-4.0"}}, {"uniqueid": "w76589097:a20964465", "current_trial": 7, "dateTime": 1693393433229, "trialdata": {"success": true, "trial_type": "fullscreen", "trial_index": 7, "time_elapsed": 729438, "internal_node_id": "0.0-2.1-0.1-0.1"}}, {"uniqueid": "w76589097:a20964465", "current_trial": 8, "dateTime": 1693393448644, "trialdata": {"view_history": [{"page_index": 0, "viewing_time": 2586}, {"page_index": 1, "viewing_time": 10418}, {"page_index": 2, "viewing_time": 1777}, {"page_index": 3, "viewing_time": 631}], "rt": 15412, "trial_id": "mouselab_instructions_1_misaligned", "trial_type": "instructions", "trial_index": 8, "time_elapsed": 744853, "internal_node_id": "0.0-2.1-1.1"}}, {"uniqueid": "w76589097:a20964465", "current_trial": 9, "dateTime": 1693393463879, "trialdata": {"revealed_states": [], "clicked_states": ["15", "5"], "num_clicks_accrued": [0, 0, 0, 0, 0, 0, 0, 0, 0, 0, 0, 0, 0], "stateRewards": ["", 10, 10, -10, -10, 10, 10, 10, -10, 10, -10, 10, 10, -10, -10, -10, -10, -10, -10, -10, 10, 10, -10, 10, 10, 10, 10, -10, -10, -10, 10, 10, -10, 10], "withholdReward": false, "trial_id": "practice_1", "block": "test", "trialIndex": 2, "score": -27.5, "costs": -1, "simulationMode": [null, null, null, null, null], "rewards": [10, -10, -10, -10, -10], "path": ["0", "0", "12", "13", "14", "15", "16"], "rt": [5279, 53, 152, 557, 101], "actions": ["right", "right", "right", "up", "up"], "actionTimes": [7699, 8267, 8957, 10007, 10599], "queries": {"click": {"state": {"target": ["15", "5"], "time": [4871, 6088]}, "edge": {"target": [], "time": []}}, "mouseover": {"state": {"target": ["12", "13", "14", "15", "5", "4"], "time": [2463, 2649, 2783, 4698, 5897, 6330]}, "edge": {"target": [], "time": []}}, "mouseout": {"state": {"target": ["0", "12", "13", "14", "15", "5", "4"], "time": [2427, 2530, 2749, 2833, 5516, 6281, 6346]}, "edge": {"target": [], "time": []}}}, "displayed_time": "11.10", "trialTime": 14827, "trial_type": "mouselab-mdp", "trial_index": 9, "time_elapsed": 760087, "internal_node_id": "0.0-2.1-2.1-0.1"}}, {"uniqueid": "w76589097:a20964465", "current_trial": 10, "dateTime": 1693393479729, "trialdata": {"revealed_states": [], "clicked_states": ["24", "26", "10"], "num_clicks_accrued": [0, 0, 0, 0, 0, 0, 0, 0, 0, 0, 0, 0, 0], "stateRewards": ["", -10, -10, -10, -10, 10, 10, 10, 10, 10, -10, -10, -10, -10, -10, -10, -10, 10, 10, -10, -10, 10, 10, 10, -10, -10, -10, -10, -10, -10, -10, 10, -10, -10], "withholdReward": false, "trial_id": "practice_2", "block": "test", "trialIndex": 3, "score": -28, "costs": -1.5, "simulationMode": [null, null, null, null, null], "rewards": [-10, -10, -10, -10, 10], "path": ["0", "0", "1", "2", "3", "4", "6"], "rt": [6945, 210, 375, 297, 224], "actions": ["up", "up", "up", "right", "right"], "actionTimes": [9245, 9949, 10831, 11620, 12362], "queries": {"click": {"state": {"target": ["24", "26", "10"], "time": [3478, 5035, 6509]}, "edge": {"target": [], "time": []}}, "mouseover": {"state": {"target": ["23", "24", "26", "26", "10", "7"], "time": [2759, 3143, 3891, 4741, 5972, 7836]}, "edge": {"target": [], "time": []}}, "mouseout": {"state": {"target": ["0", "23", "24", "26", "26", "10", "7"], "time": [2658, 2841, 3724, 4475, 5555, 6986, 14456]}, "edge": {"target": [], "time": []}}}, "displayed_time": "12.88", "trialTime": 15655, "trial_type": "mouselab-mdp", "trial_index": 10, "time_elapsed": 775938, "internal_node_id": "0.0-2.1-2.1-1.1"}}, {"uniqueid": "w76589097:a20964465", "current_trial": 11, "dateTime": 1693393483749, "trialdata": {"view_history": [{"page_index": 0, "viewing_time": 2785}, {"page_index": 1, "viewing_time": 1230}], "rt": 4016, "trial_id": "mouselab_instructions_2_misaligned", "trial_type": "instructions", "trial_index": 11, "time_elapsed": 779958, "internal_node_id": "0.0-2.1-3.1"}}, {"uniqueid": "w76589097:a20964465", "current_trial": 12, "dateTime": 1693393506160, "trialdata": {"rt": 22406, "response": {"Q0": "The cost for clicking on nodes may vary between nodes.", "Q1": "The better I perform the higher my bonus will be.", "Q2": "No, the amount of cash at each node of the web may be different each time.", "Q3": "To get the highest total score.", "Q4": "Only before moving the spider.", "Q5": "3 seconds"}, "question_order": [0, 1, 2, 3, 4, 5], "correct": {"Q0": "The cost for clicking on nodes may vary between nodes.", "Q1": "The better I perform the higher my bonus will be.", "Q2": "No, the amount of cash at each node of the web may be different each time.", "Q3": "To get the highest total score.", "Q4": "Only before moving the spider.", "Q5": "3 seconds"}, "trial_id": "mouselab_quiz_misaligned", "trial_type": "survey-multi-choice", "trial_index": 12, "time_elapsed": 802369, "internal_node_id": "0.0-2.1-4.1"}}, {"uniqueid": "w76589097:a20964465", "current_trial": 13, "dateTime": 1693393513172, "trialdata": {"rt": 7000, "response": {"Q0": "No"}, "question_order": [0], "trial_id": "repeat_check", "trial_type": "survey-multi-choice", "trial_index": 13, "time_elapsed": 809380, "internal_node_id": "0.0-4.0-0.0"}}, {"uniqueid": "w76589097:a20964465", "current_trial": 14, "dateTime": 1693393516200, "trialdata": {"rt": 3019, "stimulus": "\n<h1> Get ready to start the game! </h1>\n\nThank you for reading the instructions. Get ready start with the 40 rounds of this game.\n<br><br>\nIf you need to take a break, feel free to take one after the end of a round, before continuing to the next one.\n<br><br>\nRemember, the more money the spider gets, the bigger your bonus will be!\n<br><br>\n<div style='text-align: center;'>Press <code>space</code> to begin.</div>\n\n<br><br>\n(If, at any point, the <code>space</code> key does not take you to the next page, click once on the text and try again.)", "response": " ", "trial_id": "mdp_ready", "trial_type": "html-keyboard-response", "trial_index": 14, "time_elapsed": 812408, "internal_node_id": "0.0-6.0-0.0"}}, {"uniqueid": "w76589097:a20964465", "current_trial": 15, "dateTime": 1693393537324, "trialdata": {"revealed_states": [], "clicked_states": [], "num_clicks_accrued": [0, 0, 0, 0, 0, 0, 0, 0, 0, 0, 0, 0, 0], "stateRewards": ["", -2, 1, -7, -8, -37, -76, -87, 11, 30, -63, 80, -1, 4, 2, -1, 42, 17, 52, -3, -75, -80, -68, 2, -3, -5, -15, -48, 82, 24, -7, 5, -22, -71], "withholdReward": false, "trial_id": "mdp_trial_1", "block": "test", "trialIndex": 4, "score": 33, "costs": 0, "simulationMode": [null, null, null, null, null], "rewards": [-2, 1, -7, 11, 30], "path": ["0", "0", "1", "2", "3", "8", "9"], "rt": [3199, 159, 235, 436, 1894], "actions": ["up", "up", "up", "left", "up"], "actionTimes": [6707, 7387, 8120, 9072, 11479], "queries": {"click": {"state": {"target": [], "time": []}, "edge": {"target": [], "time": []}}, "mouseover": {"state": {"target": ["10", "8"], "time": [4521, 4936]}, "edge": {"target": [], "time": []}}, "mouseout": {"state": {"target": ["0", "10", "8", "3", "15", "0"], "time": [4054, 4784, 13870, 13879, 15288, 17287]}, "edge": {"target": [], "time": []}}}, "displayed_time": "17.52", "trialTime": 20781, "trial_type": "mouselab-mdp", "trial_index": 15, "time_elapsed": 833532, "internal_node_id": "0.0-6.0-1.0-0.0"}}, {"uniqueid": "w76589097:a20964465", "current_trial": 16, "dateTime": 1693393555536, "trialdata": {"revealed_states": [], "clicked_states": [], "num_clicks_accrued": [0, 0, 0, 0, 0, 0, 0, 0, 0, 0, 0, 0, 0], "stateRewards": ["", -2, -4, -6, 12, -58, -70, -80, 2, 16, -88, -62, 1, 2, -5, 11, 77, -35, -44, -5, 18, -83, 87, 1, -3, -5, 13, -44, -21, -86, 10, -52, 8, 29], "withholdReward": false, "trial_id": "mdp_trial_2", "block": "test", "trialIndex": 5, "score": -80, "costs": 0, "simulationMode": [null, null, null, null, null], "rewards": [1, -3, -5, 13, -86], "path": ["0", "0", "23", "24", "25", "26", "29"], "rt": [3151, 233, 165, 1129, 153], "actions": ["left", "left", "left", "up", "left"], "actionTimes": [5025, 5780, 6450, 8076, 8731], "queries": {"click": {"state": {"target": [], "time": []}, "edge": {"target": [], "time": []}}, "mouseover": {"state": {"target": ["12", "13", "14"], "time": [2164, 2264, 2315]}, "edge": {"target": [], "time": []}}, "mouseout": {"state": {"target": ["0", "12", "13", "14"], "time": [2119, 2230, 2298, 2365]}, "edge": {"target": [], "time": []}}}, "displayed_time": "15.88", "trialTime": 17818, "trial_type": "mouselab-mdp", "trial_index": 16, "time_elapsed": 851744, "internal_node_id": "0.0-6.0-1.0-1.0"}}, {"uniqueid": "w76589097:a20964465", "current_trial": 17, "dateTime": 1693393583431, "trialdata": {"revealed_states": [], "clicked_states": [], "num_clicks_accrued": [0, 0, 0, 0, 0, 0, 0, 0, 0, 0, 0, 0, 0], "stateRewards": ["", 1, 1, 5, 6, -29, -7, 3, -16, 9, -46, 65, -1, 4, -1, -16, -63, -77, -87, 8, 80, -50, 43, -1, -1, -5, 5, -38, -71, -62, 9, 81, -50, -52], "withholdReward": false, "trial_id": "mdp_trial_3", "block": "test", "trialIndex": 6, "score": 56, "costs": 0, "simulationMode": [null, null, null, null, null], "rewards": [1, 1, 5, -16, 65], "path": ["0", "0", "1", "2", "3", "8", "11"], "rt": [3445, 205, 125, 615, 389], "actions": ["up", "up", "up", "left", "left"], "actionTimes": [10875, 11584, 12240, 13351, 14246], "queries": {"click": {"state": {"target": [], "time": []}, "edge": {"target": [], "time": []}}, "mouseover": {"state": {"target": ["12", "13", "14"], "time": [7452, 7519, 7586]}, "edge": {"target": [], "time": []}}, "mouseout": {"state": {"target": ["12", "0", "12", "13", "14", "19", "13"], "time": [6485, 7435, 7484, 7552, 7976, 25550, 25950]}, "edge": {"target": [], "time": []}}}, "displayed_time": "21.44", "trialTime": 27538, "trial_type": "mouselab-mdp", "trial_index": 17, "time_elapsed": 879639, "internal_node_id": "0.0-6.0-1.0-2.0"}}, {"uniqueid": "w76589097:a20964465", "current_trial": 18, "dateTime": 1693393601665, "trialdata": {"revealed_states": [], "clicked_states": ["2", "25", "15"], "num_clicks_accrued": [0, 0, 0, 0, 0, 0, 0, 0, 0, 0, 0, 0, 0], "stateRewards": ["", 2, -4, -8, -15, 71, -43, -41, 7, -17, 20, 67, -1, -1, -4, 6, 37, -24, -47, 9, 34, 57, 45, 1, 2, -4, -5, -23, 88, -5, 13, -40, 43, 44], "withholdReward": false, "trial_id": "mdp_trial_4", "block": "test", "trialIndex": 7, "score": 57.15, "costs": -2.8499999999999996, "simulationMode": [null, null, null, null, null], "rewards": [-1, -1, -4, 9, 57], "path": ["0", "0", "12", "13", "14", "19", "21"], "rt": [7556, 269, 244, 214, 204], "actions": ["right", "right", "right", "down", "down"], "actionTimes": [9434, 10207, 10946, 11651, 12357], "queries": {"click": {"state": {"target": ["2", "25", "15"], "time": [3111, 4828, 6111]}, "edge": {"target": [], "time": []}}, "mouseover": {"state": {"target": ["12", "12", "0", "1", "2", "28", "26", "25", "31", "14", "15", "17"], "time": [2084, 2298, 2399, 2581, 2834, 4133, 4199, 4585, 5498, 5648, 5832, 6482]}, "edge": {"target": [], "time": []}}, "mouseout": {"state": {"target": ["0", "12", "12", "0", "1", "2", "2", "28", "26", "25", "31", "14", "15", "17"], "time": [1932, 2151, 2365, 2447, 2750, 3316, 4031, 4165, 4214, 5315, 5515, 5731, 6382, 6615]}, "edge": {"target": [], "time": []}}}, "displayed_time": "15.88", "trialTime": 18070, "trial_type": "mouselab-mdp", "trial_index": 18, "time_elapsed": 897874, "internal_node_id": "0.0-6.0-1.0-3.0"}}, {"uniqueid": "w76589097:a20964465", "current_trial": 19, "dateTime": 1693393622318, "trialdata": {"revealed_states": [], "clicked_states": ["17"], "num_clicks_accrued": [0, 0, 0, 0, 0, 0, 0, 0, 0, 0, 0, 0, 0], "stateRewards": ["", -1, -2, 8, -6, -79, -6, 87, 9, -5, -66, -38, 2, 2, 5, -6, -82, 74, 85, -8, 67, -30, -15, 1, -2, -2, -2, 87, 64, 49, 7, 2, -38, -9], "withholdReward": false, "trial_id": "mdp_trial_5", "block": "test", "trialIndex": 8, "score": 83.85, "costs": -2.15, "simulationMode": [null, null, null, null, null], "rewards": [-1, -2, 8, -6, 87], "path": ["0", "0", "1", "2", "3", "4", "7"], "rt": [11384, 1077, 297, 257, 227], "actions": ["up", "up", "up", "right", "down"], "actionTimes": [13059, 14660, 15462, 16222, 16957], "queries": {"click": {"state": {"target": ["17"], "time": [3613]}, "edge": {"target": [], "time": []}}, "mouseover": {"state": {"target": ["12", "15", "17", "15", "18", "1", "28", "26", "25", "24", "23", "24", "24", "0"], "time": [1760, 2747, 2997, 4061, 4194, 4350, 4461, 4677, 6511, 7762, 7811, 10063, 10268, 11064]}, "edge": {"target": [], "time": []}}, "mouseout": {"state": {"target": ["0", "12", "15", "17", "15", "18", "1", "28", "26", "25", "24", "23", "24", "24", "0"], "time": [1711, 1843, 2897, 3978, 4144, 4261, 4377, 4511, 6445, 7732, 7795, 7828, 10213, 10796, 11681]}, "edge": {"target": [], "time": []}}}, "displayed_time": "17.46", "trialTime": 20367, "trial_type": "mouselab-mdp", "trial_index": 19, "time_elapsed": 918526, "internal_node_id": "0.0-6.0-1.0-4.0"}}, {"uniqueid": "w76589097:a20964465", "current_trial": 20, "dateTime": 1693393640107, "trialdata": {"revealed_states": [], "clicked_states": [], "num_clicks_accrued": [0, 0, 0, 0, 0, 0, 0, 0, 0, 0, 0, 0, 0], "stateRewards": ["", -1, 2, -2, 5, 80, -61, -27, 12, 44, -26, -75, -2, -4, 1, -16, 42, -49, -50, 4, -44, 2, 80, -2, -2, 5, -2, 59, 10, 24, 7, -48, -86, -44], "withholdReward": false, "trial_id": "mdp_trial_6", "block": "test", "trialIndex": 9, "score": -36, "costs": 0, "simulationMode": [null, null, null, null, null], "rewards": [-2, -2, 5, 7, -44], "path": ["0", "0", "23", "24", "25", "30", "33"], "rt": [1905, 90, 138, 204, 1084], "actions": ["left", "left", "left", "down", "left"], "actionTimes": [3870, 4473, 5106, 5821, 7417], "queries": {"click": {"state": {"target": [], "time": []}, "edge": {"target": [], "time": []}}, "mouseover": {"state": {"target": ["12", "23", "24", "31"], "time": [2116, 2480, 2585, 2818]}, "edge": {"target": [], "time": []}}, "mouseout": {"state": {"target": ["19", "22", "0", "12", "23", "24", "31"], "time": [1183, 1217, 2015, 2415, 2532, 2684, 2968]}, "edge": {"target": [], "time": []}}}, "displayed_time": "15.98", "trialTime": 17594, "trial_type": "mouselab-mdp", "trial_index": 20, "time_elapsed": 936316, "internal_node_id": "0.0-6.0-1.0-5.0"}}, {"uniqueid": "w76589097:a20964465", "current_trial": 21, "dateTime": 1693393658884, "trialdata": {"revealed_states": [], "clicked_states": [], "num_clicks_accrued": [0, 0, 0, 0, 0, 0, 0, 0, 0, 0, 0, 0, 0], "stateRewards": ["", 2, -1, -4, -13, 74, 77, 3, 2, -43, -2, -11, 2, 3, 7, 11, -26, -29, -33, -3, -3, -13, -3, 1, 3, -7, 14, -59, 33, 9, -5, 34, 79, 68], "withholdReward": false, "trial_id": "mdp_trial_7", "block": "test", "trialIndex": 10, "score": 6, "costs": 0, "simulationMode": [null, null, null, null, null], "rewards": [2, 3, 7, -3, -3], "path": ["0", "0", "12", "13", "14", "19", "20"], "rt": [1122, 55, 114, 239, 460], "actions": ["right", "right", "right", "down", "right"], "actionTimes": [3746, 4307, 4938, 5669, 6625], "queries": {"click": {"state": {"target": [], "time": []}, "edge": {"target": [], "time": []}}, "mouseover": {"state": {"target": ["0"], "time": [2633]}, "edge": {"target": [], "time": []}}, "mouseout": {"state": {"target": ["0"], "time": [2265]}, "edge": {"target": [], "time": []}}}, "displayed_time": "16.63", "trialTime": 18370, "trial_type": "mouselab-mdp", "trial_index": 21, "time_elapsed": 955092, "internal_node_id": "0.0-6.0-1.0-6.0"}}, {"uniqueid": "w76589097:a20964465", "current_trial": 22, "dateTime": 1693393677202, "trialdata": {"revealed_states": [], "clicked_states": ["25", "5"], "num_clicks_accrued": [0, 0, 0, 0, 0, 0, 0, 0, 0, 0, 0, 0, 0], "stateRewards": ["", 2, 2, 3, -15, 23, -14, 73, -7, -32, -20, -6, 1, 1, -5, -12, 73, 6, -84, 11, -81, -57, 13, -2, -1, -4, -8, -52, -58, 49, 13, 5, -41, -41], "withholdReward": false, "trial_id": "mdp_trial_8", "block": "test", "trialIndex": 11, "score": -9.1, "costs": -3.0999999999999996, "simulationMode": [null, null, null, null, null, null], "rewards": [2, 2, 3, -7, -6], "path": ["0", "0", "1", "2", "3", "8", "11"], "rt": [4535, 801, 287, 132, 483, 761], "actions": ["up", "up", "up", "up", "left", "left"], "actionTimes": [5554, 6358, 7151, 7794, 8796, 10059], "queries": {"click": {"state": {"target": ["25", "5"], "time": [2559, 4189]}, "edge": {"target": [], "time": []}}, "mouseover": {"state": {"target": ["23", "24", "24", "25", "23", "1", "2", "4", "5"], "time": [1446, 1563, 1930, 2230, 3117, 3198, 3262, 3569, 3959]}, "edge": {"target": [], "time": []}}, "mouseout": {"state": {"target": ["0", "23", "24", "24", "25", "23", "1", "2", "4", "5"], "time": [1314, 1498, 1775, 1980, 2819, 3138, 3221, 3336, 3859, 4444]}, "edge": {"target": [], "time": []}}}, "displayed_time": "15.02", "trialTime": 17951, "trial_type": "mouselab-mdp", "trial_index": 22, "time_elapsed": 973410, "internal_node_id": "0.0-6.0-1.0-7.0"}}, {"uniqueid": "w76589097:a20964465", "current_trial": 23, "dateTime": 1693393694951, "trialdata": {"revealed_states": [], "clicked_states": [], "num_clicks_accrued": [0, 0, 0, 0, 0, 0, 0, 0, 0, 0, 0, 0, 0], "stateRewards": ["", 1, 2, -5, 14, 54, -14, -25, 16, -5, -87, 78, -1, 1, 3, -3, 52, 53, 53, -10, 73, -69, -48, 2, 3, 1, 8, -62, -7, 85, 7, 82, 52, -28], "withholdReward": false, "trial_id": "mdp_trial_9", "block": "test", "trialIndex": 12, "score": -15, "costs": 0, "simulationMode": [null, null, null, null, null], "rewards": [2, 3, 1, 7, -28], "path": ["0", "0", "23", "24", "25", "30", "33"], "rt": [1412, 169, 114, 229, 442], "actions": ["left", "left", "left", "down", "left"], "actionTimes": [3536, 4220, 4855, 5592, 6560], "queries": {"click": {"state": {"target": [], "time": []}, "edge": {"target": [], "time": []}}, "mouseover": {"state": {"target": ["12", "15"], "time": [2133, 2434]}, "edge": {"target": [], "time": []}}, "mouseout": {"state": {"target": ["15", "18", "12", "12", "15"], "time": [1315, 1365, 1615, 2178, 2561]}, "edge": {"target": [], "time": []}}}, "displayed_time": "16.13", "trialTime": 17371, "trial_type": "mouselab-mdp", "trial_index": 23, "time_elapsed": 991159, "internal_node_id": "0.0-6.0-1.0-8.0"}}, {"uniqueid": "w76589097:a20964465", "current_trial": 24, "dateTime": 1693393712955, "trialdata": {"revealed_states": [], "clicked_states": [], "num_clicks_accrued": [0, 0, 0, 0, 0, 0, 0, 0, 0, 0, 0, 0, 0], "stateRewards": ["", 1, 4, -8, -13, -13, -87, -77, -10, -44, 54, 42, 2, -3, -4, 12, -9, -80, 52, 9, 84, -2, -65, 1, -4, -5, -6, 8, 80, 32, 13, -59, -5, -13], "withholdReward": false, "trial_id": "mdp_trial_10", "block": "test", "trialIndex": 13, "score": 18, "costs": 0, "simulationMode": [null, null, null, null, null], "rewards": [1, -4, -5, -6, 32], "path": ["0", "0", "23", "24", "25", "26", "29"], "rt": [1395, 666, 408, 937, 343], "actions": ["left", "left", "left", "up", "left"], "actionTimes": [3155, 4342, 5265, 6698, 7551], "queries": {"click": {"state": {"target": [], "time": []}, "edge": {"target": [], "time": []}}, "mouseover": {"state": {"target": ["12"], "time": [1798]}, "edge": {"target": [], "time": []}}, "mouseout": {"state": {"target": ["15", "13", "12", "12", "20"], "time": [992, 1041, 1142, 1826, 17019]}, "edge": {"target": [], "time": []}}}, "displayed_time": "15.77", "trialTime": 17670, "trial_type": "mouselab-mdp", "trial_index": 24, "time_elapsed": 1009163, "internal_node_id": "0.0-6.0-1.0-9.0"}}, {"uniqueid": "w76589097:a20964465", "current_trial": 25, "dateTime": 1693393731131, "trialdata": {"revealed_states": [], "clicked_states": [], "num_clicks_accrued": [0, 0, 0, 0, 0, 0, 0, 0, 0, 0, 0, 0, 0], "stateRewards": ["", 2, -3, 5, 11, -79, 54, 11, -9, -78, 33, 22, -2, -1, 2, 14, 43, 34, 1, 10, 49, -65, 39, -1, 1, -1, 3, -16, -2, 11, 2, 12, 48, -65], "withholdReward": false, "trial_id": "mdp_trial_11", "block": "test", "trialIndex": 14, "score": -14, "costs": 0, "simulationMode": [null, null, null, null, null], "rewards": [-1, 1, -1, 3, -16], "path": ["0", "0", "23", "24", "25", "26", "27"], "rt": [1220, 348, 242, 646, 67], "actions": ["left", "left", "left", "up", "up"], "actionTimes": [3467, 4317, 5078, 6232, 6827], "queries": {"click": {"state": {"target": [], "time": []}, "edge": {"target": [], "time": []}}, "mouseover": {"state": {"target": [], "time": []}, "edge": {"target": [], "time": []}}, "mouseout": {"state": {"target": ["20", "0"], "time": [1241, 10958]}, "edge": {"target": [], "time": []}}}, "displayed_time": "16.25", "trialTime": 17686, "trial_type": "mouselab-mdp", "trial_index": 25, "time_elapsed": 1027339, "internal_node_id": "0.0-6.0-1.0-10.0"}}, {"uniqueid": "w76589097:a20964465", "current_trial": 26, "dateTime": 1693393748098, "trialdata": {"revealed_states": [], "clicked_states": [], "num_clicks_accrued": [0, 0, 0, 0, 0, 0, 0, 0, 0, 0, 0, 0, 0], "stateRewards": ["", 2, 4, 7, -6, -76, -81, 2, 5, -66, -3, 36, -2, -4, 6, -2, -69, 4, -49, -6, 67, 38, -67, 2, 1, 1, 6, -68, -21, 52, -16, -16, 6, -70], "withholdReward": false, "trial_id": "mdp_trial_12", "block": "test", "trialIndex": 15, "score": -71, "costs": 0, "simulationMode": [null, null, null, null, null], "rewards": [-2, -4, 6, -2, -69], "path": ["0", "0", "12", "13", "14", "15", "16"], "rt": [2236, 307, 179, 562, 87], "actions": ["right", "right", "right", "up", "up"], "actionTimes": [3347, 4152, 4824, 5905, 6481], "queries": {"click": {"state": {"target": [], "time": []}, "edge": {"target": [], "time": []}}, "mouseover": {"state": {"target": ["12", "22"], "time": [1646, 1763]}, "edge": {"target": [], "time": []}}, "mouseout": {"state": {"target": ["0", "12"], "time": [1454, 1697]}, "edge": {"target": [], "time": []}}}, "displayed_time": "15.12", "trialTime": 16580, "trial_type": "mouselab-mdp", "trial_index": 26, "time_elapsed": 1044306, "internal_node_id": "0.0-6.0-1.0-11.0"}}, {"uniqueid": "w76589097:a20964465", "current_trial": 27, "dateTime": 1693393765638, "trialdata": {"revealed_states": [], "clicked_states": [], "num_clicks_accrued": [0, 0, 0, 0, 0, 0, 0, 0, 0, 0, 0, 0, 0], "stateRewards": ["", 2, 3, 6, -12, -29, 12, 87, 4, 35, -30, 67, 2, 3, -5, -9, 44, 69, -8, 1, 45, -8, 28, -2, -1, -8, 11, -12, -5, 81, 9, 87, 82, 88], "withholdReward": false, "trial_id": "mdp_trial_13", "block": "test", "trialIndex": 16, "score": 46, "costs": 0, "simulationMode": [null, null, null, null, null], "rewards": [2, 3, -5, 1, 45], "path": ["0", "0", "12", "13", "14", "19", "20"], "rt": [1381, 129, 106, 170, 300], "actions": ["right", "right", "right", "down", "right"], "actionTimes": [2850, 3480, 4106, 4786, 5586], "queries": {"click": {"state": {"target": [], "time": []}, "edge": {"target": [], "time": []}}, "mouseover": {"state": {"target": ["12", "13", "14"], "time": [1633, 1784, 1869]}, "edge": {"target": [], "time": []}}, "mouseout": {"state": {"target": ["22", "0", "12", "13", "14"], "time": [490, 1563, 1701, 1850, 1903]}, "edge": {"target": [], "time": []}}}, "displayed_time": "15.48", "trialTime": 16910, "trial_type": "mouselab-mdp", "trial_index": 27, "time_elapsed": 1061846, "internal_node_id": "0.0-6.0-1.0-12.0"}}, {"uniqueid": "w76589097:a20964465", "current_trial": 28, "dateTime": 1693393783118, "trialdata": {"revealed_states": [], "clicked_states": ["10"], "num_clicks_accrued": [0, 0, 0, 0, 0, 0, 0, 0, 0, 0, 0, 0, 0], "stateRewards": ["", 1, 2, 3, 16, 63, -25, 16, -4, -14, 82, -66, -1, -3, -3, -11, -14, 19, 46, 3, -34, -82, 66, -2, -3, 4, -5, -63, 77, -37, -1, -45, -41, 84], "withholdReward": false, "trial_id": "mdp_trial_14", "block": "test", "trialIndex": 17, "score": -71.15, "costs": -2.15, "simulationMode": [null, null, null, null, null, null], "rewards": [-2, -3, 4, -5, -63], "path": ["0", "0", "23", "24", "25", "26", "27"], "rt": [3289, 2049, 145, 141, 289, 45], "actions": ["left", "left", "left", "left", "up", "up"], "actionTimes": [4691, 6740, 7399, 8061, 8857, 9397], "queries": {"click": {"state": {"target": ["10"], "time": [2563]}, "edge": {"target": [], "time": []}}, "mouseover": {"state": {"target": ["10", "26", "24", "23"], "time": [1854, 3269, 3469, 3535]}, "edge": {"target": [], "time": []}}, "mouseout": {"state": {"target": ["14", "13", "12", "0", "10", "26", "24", "23"], "time": [771, 836, 936, 1477, 2736, 3352, 3501, 3552]}, "edge": {"target": [], "time": []}}}, "displayed_time": "15.41", "trialTime": 16828, "trial_type": "mouselab-mdp", "trial_index": 28, "time_elapsed": 1079326, "internal_node_id": "0.0-6.0-1.0-13.0"}}, {"uniqueid": "w76589097:a20964465", "current_trial": 29, "dateTime": 1693393801421, "trialdata": {"revealed_states": [], "clicked_states": ["10"], "num_clicks_accrued": [0, 0, 0, 0, 0, 0, 0, 0, 0, 0, 0, 0, 0], "stateRewards": ["", -1, 3, 1, -7, 56, 76, 57, 3, 11, -9, 14, 1, -2, 2, 8, -77, -3, 79, -5, 88, 24, -66, -2, -1, 7, -7, -30, 14, -76, 11, -36, 28, -6], "withholdReward": false, "trial_id": "mdp_trial_15", "block": "test", "trialIndex": 18, "score": 40.85, "costs": -2.15, "simulationMode": [null, null, null, null, null], "rewards": [-2, -1, 7, 11, 28], "path": ["0", "0", "23", "24", "25", "30", "32"], "rt": [5394, 388, 167, 441, 69], "actions": ["left", "left", "left", "down", "down"], "actionTimes": [6843, 7742, 8421, 9378, 9972], "queries": {"click": {"state": {"target": ["10"], "time": [3604]}, "edge": {"target": [], "time": []}}, "mouseover": {"state": {"target": ["10", "10", "1", "10", "1", "0"], "time": [2040, 2240, 2437, 3057, 3905, 4004]}, "edge": {"target": [], "time": []}}, "mouseout": {"state": {"target": ["0", "10", "10", "1", "10", "1", "0"], "time": [1791, 2156, 2356, 2708, 3771, 3921, 4071]}, "edge": {"target": [], "time": []}}}, "displayed_time": "15.45", "trialTime": 17704, "trial_type": "mouselab-mdp", "trial_index": 29, "time_elapsed": 1097630, "internal_node_id": "0.0-6.0-1.0-14.0"}}, {"uniqueid": "w76589097:a20964465", "current_trial": 30, "dateTime": 1693393818656, "trialdata": {"revealed_states": [], "clicked_states": [], "num_clicks_accrued": [0, 0, 0, 0, 0, 0, 0, 0, 0, 0, 0, 0, 0], "stateRewards": ["", 1, 4, 5, 8, -55, -11, 8, 16, -37, 77, -22, -2, 3, -8, -10, 45, 87, -67, 4, 17, -33, -22, -1, -3, 7, 6, -39, -85, 75, -1, 7, -48, 45], "withholdReward": false, "trial_id": "mdp_trial_16", "block": "test", "trialIndex": 19, "score": -30, "costs": 0, "simulationMode": [null, null, null, null, null], "rewards": [-1, -3, 7, 6, -39], "path": ["0", "0", "23", "24", "25", "26", "27"], "rt": [2350, 110, 136, 728, 638], "actions": ["left", "left", "left", "up", "up"], "actionTimes": [4115, 4726, 5353, 6597, 7757], "queries": {"click": {"state": {"target": [], "time": []}, "edge": {"target": [], "time": []}}, "mouseover": {"state": {"target": ["12", "13", "14"], "time": [2097, 2130, 2147]}, "edge": {"target": [], "time": []}}, "mouseout": {"state": {"target": ["0", "12", "13", "14"], "time": [2069, 2113, 2147, 2163]}, "edge": {"target": [], "time": []}}}, "displayed_time": "15.77", "trialTime": 17066, "trial_type": "mouselab-mdp", "trial_index": 30, "time_elapsed": 1114864, "internal_node_id": "0.0-6.0-1.0-15.0"}}, {"uniqueid": "w76589097:a20964465", "current_trial": 31, "dateTime": 1693393835635, "trialdata": {"revealed_states": [], "clicked_states": [], "num_clicks_accrued": [0, 0, 0, 0, 0, 0, 0, 0, 0, 0, 0, 0, 0], "stateRewards": ["", -2, -4, -2, 10, -8, -15, -47, 7, -84, 53, 5, -1, 2, -7, 3, 83, 31, 47, -1, 30, -8, 69, 2, -4, -1, 8, -7, 12, -8, -8, -13, 30, -84], "withholdReward": false, "trial_id": "mdp_trial_17", "block": "test", "trialIndex": 20, "score": -3, "costs": 0, "simulationMode": [null, null, null, null, null], "rewards": [2, -4, -1, 8, -8], "path": ["0", "0", "23", "24", "25", "26", "29"], "rt": [1398, 35, 262, 455, 21], "actions": ["left", "left", "left", "up", "left"], "actionTimes": [2887, 3428, 4188, 5151, 5665], "queries": {"click": {"state": {"target": [], "time": []}, "edge": {"target": [], "time": []}}, "mouseover": {"state": {"target": ["12", "13", "14"], "time": [1645, 1693, 1774]}, "edge": {"target": [], "time": []}}, "mouseout": {"state": {"target": ["12", "0", "12", "13"], "time": [958, 1611, 1658, 1723]}, "edge": {"target": [], "time": []}}}, "displayed_time": "15.50", "trialTime": 16621, "trial_type": "mouselab-mdp", "trial_index": 31, "time_elapsed": 1131843, "internal_node_id": "0.0-6.0-1.0-16.0"}}, {"uniqueid": "w76589097:a20964465", "current_trial": 32, "dateTime": 1693393853534, "trialdata": {"revealed_states": [], "clicked_states": [], "num_clicks_accrued": [0, 0, 0, 0, 0, 0, 0, 0, 0, 0, 0, 0, 0], "stateRewards": ["", -1, -1, 4, -16, -75, 81, -51, -7, -84, 73, -30, -2, 1, -3, -16, -77, 33, 14, 1, 45, 87, -66, 2, 2, -5, -7, -19, -17, 79, -3, 8, 49, 47], "withholdReward": false, "trial_id": "mdp_trial_18", "block": "test", "trialIndex": 21, "score": -25, "costs": 0, "simulationMode": [null, null, null, null, null], "rewards": [2, 2, -5, -7, -17], "path": ["0", "0", "23", "24", "25", "26", "28"], "rt": [1249, 630, 209, 367, 164], "actions": ["left", "left", "left", "up", "right"], "actionTimes": [3159, 4307, 5010, 5890, 6548], "queries": {"click": {"state": {"target": [], "time": []}, "edge": {"target": [], "time": []}}, "mouseover": {"state": {"target": [], "time": []}, "edge": {"target": [], "time": []}}, "mouseout": {"state": {"target": ["14", "0", "23", "0"], "time": [854, 881, 1167, 8184]}, "edge": {"target": [], "time": []}}}, "displayed_time": "15.92", "trialTime": 17132, "trial_type": "mouselab-mdp", "trial_index": 32, "time_elapsed": 1149742, "internal_node_id": "0.0-6.0-1.0-17.0"}}, {"uniqueid": "w76589097:a20964465", "current_trial": 33, "dateTime": 1693393871916, "trialdata": {"revealed_states": [], "clicked_states": ["6", "32"], "num_clicks_accrued": [0, 0, 0, 0, 0, 0, 0, 0, 0, 0, 0, 0, 0], "stateRewards": ["", 1, 1, 1, 15, -76, 52, -32, 14, -57, 37, 49, 1, -4, -3, 6, 83, -76, 25, 9, 36, -1, -17, -1, 4, 4, -2, -22, -21, 58, -15, -57, 49, -24], "withholdReward": false, "trial_id": "mdp_trial_19", "block": "test", "trialIndex": 22, "score": 61.7, "costs": -4.3, "simulationMode": [null, null, null, null, null], "rewards": [1, 1, 1, 14, 49], "path": ["0", "0", "1", "2", "3", "8", "11"], "rt": [9456, 668, 113, 450, 84], "actions": ["up", "up", "up", "left", "left"], "actionTimes": [10747, 11935, 12564, 13517, 14102], "queries": {"click": {"state": {"target": ["6", "32"], "time": [3349, 6906]}, "edge": {"target": [], "time": []}}, "mouseover": {"state": {"target": ["1", "7", "6", "1", "23", "30", "32", "32", "32", "20"], "time": [2535, 2851, 3120, 3966, 4033, 4300, 4485, 5183, 6502, 8249]}, "edge": {"target": [], "time": []}}, "mouseout": {"state": {"target": ["0", "0", "1", "7", "6", "1", "23", "30", "32", "32", "32", "20"], "time": [843, 901, 2804, 2905, 3516, 4016, 4066, 4353, 5033, 6319, 7166, 8266]}, "edge": {"target": [], "time": []}}}, "displayed_time": "15.30", "trialTime": 17715, "trial_type": "mouselab-mdp", "trial_index": 33, "time_elapsed": 1168124, "internal_node_id": "0.0-6.0-1.0-18.0"}}, {"uniqueid": "w76589097:a20964465", "current_trial": 34, "dateTime": 1693393889538, "trialdata": {"revealed_states": [], "clicked_states": ["8", "19"], "num_clicks_accrued": [0, 0, 0, 0, 0, 0, 0, 0, 0, 0, 0, 0, 0], "stateRewards": ["", 2, 3, 3, 10, 19, -21, 6, 9, 54, 68, 16, 2, 2, -6, -8, 40, -2, -75, -2, -42, 55, 59, -1, 2, 4, -14, 11, -34, -30, -6, 61, -53, 13], "withholdReward": false, "trial_id": "mdp_trial_20", "block": "test", "trialIndex": 23, "score": 33.9, "costs": -3.1, "simulationMode": [null, null, null, null, null], "rewards": [2, 3, 3, 10, 19], "path": ["0", "0", "1", "2", "3", "4", "5"], "rt": [5885, 103, 121, 168, 578], "actions": ["up", "up", "up", "right", "up"], "actionTimes": [7756, 8377, 8990, 9668, 10744], "queries": {"click": {"state": {"target": ["8", "19"], "time": [3541, 5256]}, "edge": {"target": [], "time": []}}, "mouseover": {"state": {"target": ["12", "2", "10", "8", "9", "8", "2", "1", "0", "22", "19", "22"], "time": [2336, 2485, 2569, 2785, 3053, 3270, 3916, 4083, 4349, 4819, 4969, 5548]}, "edge": {"target": [], "time": []}}, "mouseout": {"state": {"target": ["17", "15", "12", "0", "12", "2", "10", "8", "9", "8", "2", "1", "0", "22", "19", "22"], "time": [1065, 1149, 1402, 2183, 2352, 2535, 2685, 2919, 3218, 3799, 4016, 4199, 4416, 4903, 5482, 5615]}, "edge": {"target": [], "time": []}}}, "displayed_time": "15.88", "trialTime": 17387, "trial_type": "mouselab-mdp", "trial_index": 34, "time_elapsed": 1185746, "internal_node_id": "0.0-6.0-1.0-19.0"}}, {"uniqueid": "w76589097:a20964465", "current_trial": 35, "dateTime": 1693393906645, "trialdata": {"revealed_states": [], "clicked_states": ["25", "14"], "num_clicks_accrued": [0, 0, 0, 0, 0, 0, 0, 0, 0, 0, 0, 0, 0], "stateRewards": ["", 1, -1, 4, 5, -32, 18, 20, 6, -88, -74, 9, -2, 1, -2, -14, 34, -77, -38, -1, 80, -36, 73, 2, 3, -8, 10, -48, -73, -71, -11, -22, 20, 54], "withholdReward": false, "trial_id": "mdp_trial_21", "block": "test", "trialIndex": 24, "score": -24.9, "costs": -1.9, "simulationMode": [null, null, null, null, null], "rewards": [1, -1, 4, 5, -32], "path": ["0", "0", "1", "2", "3", "4", "5"], "rt": [4944, 556, 119, 291, 204], "actions": ["up", "up", "up", "right", "up"], "actionTimes": [6320, 7368, 7979, 8790, 9480], "queries": {"click": {"state": {"target": ["25", "14"], "time": [3177, 4801]}, "edge": {"target": [], "time": []}}, "mouseover": {"state": {"target": ["12", "0", "23", "24", "25", "24", "23", "0", "12", "13", "14", "22"], "time": [1657, 1960, 2709, 2743, 2824, 3408, 3692, 3809, 3892, 4008, 4295, 5525]}, "edge": {"target": [], "time": []}}, "mouseout": {"state": {"target": ["0", "12", "0", "23", "24", "25", "24", "23", "0", "12", "13", "14", "14"], "time": [1506, 1848, 2009, 2725, 2791, 3342, 3526, 3792, 3860, 3958, 4076, 5092, 5441]}, "edge": {"target": [], "time": []}}}, "displayed_time": "15.38", "trialTime": 16317, "trial_type": "mouselab-mdp", "trial_index": 35, "time_elapsed": 1202853, "internal_node_id": "0.0-6.0-1.0-20.0"}}, {"uniqueid": "w76589097:a20964465", "current_trial": 36, "dateTime": 1693393923780, "trialdata": {"revealed_states": [], "clicked_states": [], "num_clicks_accrued": [0, 0, 0, 0, 0, 0, 0, 0, 0, 0, 0, 0, 0], "stateRewards": ["", -1, -3, -6, -2, -7, 80, -45, -3, -38, -72, 76, 2, 1, 7, 4, -62, 14, -74, 14, -87, -21, -88, -2, 1, -7, -10, 66, 56, -76, 10, -29, -72, -70], "withholdReward": false, "trial_id": "mdp_trial_22", "block": "test", "trialIndex": 25, "score": 68, "costs": 0, "simulationMode": [null, null, null, null, null], "rewards": [-1, -3, -6, -2, 80], "path": ["0", "0", "1", "2", "3", "4", "6"], "rt": [1833, 93, 89, 145, 390], "actions": ["up", "up", "up", "right", "right"], "actionTimes": [3464, 4077, 4679, 5328, 6205], "queries": {"click": {"state": {"target": [], "time": []}, "edge": {"target": [], "time": []}}, "mouseover": {"state": {"target": [], "time": []}, "edge": {"target": [], "time": []}}, "mouseout": {"state": {"target": ["22", "0"], "time": [900, 1983]}, "edge": {"target": [], "time": []}}}, "displayed_time": "15.64", "trialTime": 16908, "trial_type": "mouselab-mdp", "trial_index": 36, "time_elapsed": 1219988, "internal_node_id": "0.0-6.0-1.0-21.0"}}, {"uniqueid": "w76589097:a20964465", "current_trial": 37, "dateTime": 1693393947707, "trialdata": {"revealed_states": [], "clicked_states": [], "num_clicks_accrued": [0, 0, 0, 0, 0, 0, 0, 0, 0, 0, 0, 0, 0], "stateRewards": ["", 1, -1, 4, -2, -75, -75, 84, -9, -60, -79, 59, 2, -4, 8, 9, -17, -82, 80, 14, -4, 49, 49, -1, 3, 6, -11, -33, 34, 55, 9, -57, 5, 59], "withholdReward": false, "trial_id": "mdp_trial_23", "block": "test", "trialIndex": 26, "score": -67, "costs": 0, "simulationMode": [null, null, null, null, null], "rewards": [2, -4, 8, 9, -82], "path": ["0", "0", "12", "13", "14", "15", "17"], "rt": [1191, 342, 188, 796, 24], "actions": ["right", "right", "right", "up", "right"], "actionTimes": [2244, 3091, 3770, 5062, 5590], "queries": {"click": {"state": {"target": [], "time": []}, "edge": {"target": [], "time": []}}, "mouseover": {"state": {"target": ["12", "13"], "time": [1197, 1283]}, "edge": {"target": [], "time": []}}, "mouseout": {"state": {"target": ["0", "12", "13"], "time": [869, 1249, 22547]}, "edge": {"target": [], "time": []}}}, "displayed_time": "15.06", "trialTime": 23167, "trial_type": "mouselab-mdp", "trial_index": 37, "time_elapsed": 1243915, "internal_node_id": "0.0-6.0-1.0-22.0"}}, {"uniqueid": "w76589097:a20964465", "current_trial": 38, "dateTime": 1693393964945, "trialdata": {"revealed_states": [], "clicked_states": [], "num_clicks_accrued": [0, 0, 0, 0, 0, 0, 0, 0, 0, 0, 0, 0, 0], "stateRewards": ["", 1, 1, -5, 8, -6, 45, 16, -6, -7, -22, -38, -1, -4, 8, -11, -16, 21, -45, -15, -59, -32, 42, -1, 3, 6, 11, -7, 34, -27, -8, 85, 43, -9], "withholdReward": false, "trial_id": "mdp_trial_24", "block": "test", "trialIndex": 27, "score": -47, "costs": 0, "simulationMode": [null, null, null, null, null], "rewards": [1, 1, -5, -6, -38], "path": ["0", "0", "1", "2", "3", "8", "11"], "rt": [1649, 391, 78, 597, 46], "actions": ["up", "up", "up", "left", "left"], "actionTimes": [3108, 4001, 4586, 5705, 6270], "queries": {"click": {"state": {"target": [], "time": []}, "edge": {"target": [], "time": []}}, "mouseover": {"state": {"target": ["12", "15", "17"], "time": [1557, 1975, 2009]}, "edge": {"target": [], "time": []}}, "mouseout": {"state": {"target": ["0", "0", "0", "12", "15", "17"], "time": [678, 972, 1489, 1574, 1993, 2044]}, "edge": {"target": [], "time": []}}}, "displayed_time": "15.46", "trialTime": 16583, "trial_type": "mouselab-mdp", "trial_index": 38, "time_elapsed": 1261153, "internal_node_id": "0.0-6.0-1.0-23.0"}}, {"uniqueid": "w76589097:a20964465", "current_trial": 39, "dateTime": 1693393982892, "trialdata": {"revealed_states": [], "clicked_states": [], "num_clicks_accrued": [0, 0, 0, 0, 0, 0, 0, 0, 0, 0, 0, 0, 0], "stateRewards": ["", -1, 2, -7, -12, -62, 12, -13, 5, 77, -71, 83, 1, -4, 7, 15, -42, -87, -4, 5, -25, 44, 88, -1, 4, -5, -8, 14, 51, 8, -5, 83, -24, -19], "withholdReward": false, "trial_id": "mdp_trial_25", "block": "test", "trialIndex": 28, "score": -6, "costs": 0, "simulationMode": [null, null, null, null, null], "rewards": [-1, 2, -7, -12, 12], "path": ["0", "0", "1", "2", "3", "4", "6"], "rt": [3045, 371, 138, 98, 155], "actions": ["up", "up", "up", "right", "right"], "actionTimes": [4604, 5495, 6145, 6740, 7397], "queries": {"click": {"state": {"target": [], "time": []}, "edge": {"target": [], "time": []}}, "mouseover": {"state": {"target": ["15"], "time": [2091]}, "edge": {"target": [], "time": []}}, "mouseout": {"state": {"target": ["13", "12", "23", "0", "15"], "time": [570, 587, 823, 1817, 2125]}, "edge": {"target": [], "time": []}}}, "displayed_time": "15.57", "trialTime": 17179, "trial_type": "mouselab-mdp", "trial_index": 39, "time_elapsed": 1279100, "internal_node_id": "0.0-6.0-1.0-24.0"}}, {"uniqueid": "w76589097:a20964465", "current_trial": 40, "dateTime": 1693394000047, "trialdata": {"revealed_states": [], "clicked_states": [], "num_clicks_accrued": [0, 0, 0, 0, 0, 0, 0, 0, 0, 0, 0, 0, 0], "stateRewards": ["", -2, 2, -5, -6, 10, -66, -58, -10, -11, -63, -70, -1, -4, -5, 7, 66, -64, -43, -3, 45, -37, 4, -2, -2, -6, -4, -30, 33, 43, 15, -32, -65, -59], "withholdReward": false, "trial_id": "mdp_trial_26", "block": "test", "trialIndex": 29, "score": 29, "costs": 0, "simulationMode": [null, null, null, null, null], "rewards": [-2, -2, -6, -4, 43], "path": ["0", "0", "23", "24", "25", "26", "29"], "rt": [2774, 27, 56, 416, 123], "actions": ["left", "left", "left", "up", "left"], "actionTimes": [3879, 4404, 4985, 5909, 6550], "queries": {"click": {"state": {"target": [], "time": []}, "edge": {"target": [], "time": []}}, "mouseover": {"state": {"target": ["0", "31"], "time": [1244, 3178]}, "edge": {"target": [], "time": []}}, "mouseout": {"state": {"target": ["17", "18", "12", "0", "31"], "time": [395, 411, 727, 1592, 3194]}, "edge": {"target": [], "time": []}}}, "displayed_time": "15.12", "trialTime": 16354, "trial_type": "mouselab-mdp", "trial_index": 40, "time_elapsed": 1296254, "internal_node_id": "0.0-6.0-1.0-25.0"}}, {"uniqueid": "w76589097:a20964465", "current_trial": 41, "dateTime": 1693394017227, "trialdata": {"revealed_states": [], "clicked_states": ["11"], "num_clicks_accrued": [0, 0, 0, 0, 0, 0, 0, 0, 0, 0, 0, 0, 0], "stateRewards": ["", -1, 3, -4, -14, 78, 67, 2, 13, -32, 28, 39, -2, 1, -4, -4, -4, -42, -86, 11, 64, -29, -32, -1, -4, 2, -7, 5, 68, -61, 2, -21, 85, 50], "withholdReward": false, "trial_id": "mdp_trial_27", "block": "test", "trialIndex": 30, "score": 46.85, "costs": -2.15, "simulationMode": [null, null, null, null, null, null], "rewards": [-1, -4, 2, 2, 50], "path": ["0", "0", "23", "24", "25", "30", "33"], "rt": [3190, 975, 197, 191, 186, 261], "actions": ["left", "left", "left", "left", "down", "left"], "actionTimes": [4472, 5449, 6167, 6862, 7540, 8298], "queries": {"click": {"state": {"target": ["11"], "time": [2152]}, "edge": {"target": [], "time": []}}, "mouseover": {"state": {"target": ["12", "2", "10", "11", "10", "2", "1"], "time": [1294, 1740, 1786, 1973, 2434, 2601, 2785]}, "edge": {"target": [], "time": []}}, "mouseout": {"state": {"target": ["0", "12", "2", "10", "11", "11", "10", "2", "1"], "time": [901, 1454, 1763, 1826, 2216, 2334, 2568, 2768, 2801]}, "edge": {"target": [], "time": []}}}, "displayed_time": "15.29", "trialTime": 16445, "trial_type": "mouselab-mdp", "trial_index": 41, "time_elapsed": 1313435, "internal_node_id": "0.0-6.0-1.0-26.0"}}, {"uniqueid": "w76589097:a20964465", "current_trial": 42, "dateTime": 1693394034162, "trialdata": {"revealed_states": [], "clicked_states": [], "num_clicks_accrued": [0, 0, 0, 0, 0, 0, 0, 0, 0, 0, 0, 0, 0], "stateRewards": ["", -2, 1, -7, 9, 8, 25, 61, -7, -17, 69, -81, 1, 4, -4, -11, 16, 67, 44, 3, 6, -45, -54, -2, 3, 6, -11, -15, 32, -47, 3, -39, -6, -88], "withholdReward": false, "trial_id": "mdp_trial_28", "block": "test", "trialIndex": 31, "score": -29, "costs": 0, "simulationMode": [null, null, null, null, null], "rewards": [-2, 3, 6, 3, -39], "path": ["0", "0", "23", "24", "25", "30", "31"], "rt": [1614, 520, 149, 205, 350], "actions": ["left", "left", "left", "down", "right"], "actionTimes": [2542, 3579, 4246, 4953, 5798], "queries": {"click": {"state": {"target": [], "time": []}, "edge": {"target": [], "time": []}}, "mouseover": {"state": {"target": ["23"], "time": [1095]}, "edge": {"target": [], "time": []}}, "mouseout": {"state": {"target": ["0", "23"], "time": [1016, 1652]}, "edge": {"target": [], "time": []}}}, "displayed_time": "14.93", "trialTime": 16125, "trial_type": "mouselab-mdp", "trial_index": 42, "time_elapsed": 1330371, "internal_node_id": "0.0-6.0-1.0-27.0"}}, {"uniqueid": "w76589097:a20964465", "current_trial": 43, "dateTime": 1693394050849, "trialdata": {"revealed_states": [], "clicked_states": [], "num_clicks_accrued": [0, 0, 0, 0, 0, 0, 0, 0, 0, 0, 0, 0, 0], "stateRewards": ["", 1, 2, -3, -5, 66, -50, -47, -5, 1, 28, -27, 1, 1, -1, -6, 37, -25, 56, 1, -82, -66, -40, -1, -4, -7, 15, -61, -23, 26, 10, 14, -56, 29], "withholdReward": false, "trial_id": "mdp_trial_29", "block": "test", "trialIndex": 32, "score": 29, "costs": 0, "simulationMode": [null, null, null, null, null], "rewards": [-1, -4, -7, 15, 26], "path": ["0", "0", "23", "24", "25", "26", "29"], "rt": [1163, 19, 45, 375, 498], "actions": ["left", "left", "left", "up", "left"], "actionTimes": [2137, 2676, 3250, 4131, 5137], "queries": {"click": {"state": {"target": [], "time": []}, "edge": {"target": [], "time": []}}, "mouseover": {"state": {"target": [], "time": []}, "edge": {"target": [], "time": []}}, "mouseout": {"state": {"target": [], "time": []}, "edge": {"target": [], "time": []}}}, "displayed_time": "14.98", "trialTime": 16119, "trial_type": "mouselab-mdp", "trial_index": 43, "time_elapsed": 1347057, "internal_node_id": "0.0-6.0-1.0-28.0"}}, {"uniqueid": "w76589097:a20964465", "current_trial": 44, "dateTime": 1693394067845, "trialdata": {"revealed_states": [], "clicked_states": [], "num_clicks_accrued": [0, 0, 0, 0, 0, 0, 0, 0, 0, 0, 0, 0, 0], "stateRewards": ["", -2, 2, 8, -6, -25, 3, 87, 2, -62, -2, 74, -2, -1, 2, -1, 79, 49, -37, -14, 5, 67, -9, -1, 2, -2, 5, 15, 38, 32, -14, -38, -38, 30], "withholdReward": false, "trial_id": "mdp_trial_30", "block": "test", "trialIndex": 33, "score": 19, "costs": 0, "simulationMode": [null, null, null, null, null], "rewards": [-1, 2, -2, 5, 15], "path": ["0", "0", "23", "24", "25", "26", "27"], "rt": [1035, 449, 169, 266, 551], "actions": ["left", "left", "left", "up", "up"], "actionTimes": [2005, 2988, 3671, 4435, 5486], "queries": {"click": {"state": {"target": [], "time": []}, "edge": {"target": [], "time": []}}, "mouseover": {"state": {"target": ["12", "13", "14"], "time": [1015, 1101, 1184]}, "edge": {"target": [], "time": []}}, "mouseout": {"state": {"target": ["0", "12", "13", "14"], "time": [333, 1068, 1151, 1250]}, "edge": {"target": [], "time": []}}}, "displayed_time": "14.97", "trialTime": 16063, "trial_type": "mouselab-mdp", "trial_index": 44, "time_elapsed": 1364053, "internal_node_id": "0.0-6.0-1.0-29.0"}}, {"uniqueid": "w76589097:a20964465", "current_trial": 45, "dateTime": 1693394084895, "trialdata": {"revealed_states": [], "clicked_states": [], "num_clicks_accrued": [0, 0, 0, 0, 0, 0, 0, 0, 0, 0, 0, 0, 0], "stateRewards": ["", 2, 3, -3, 4, 72, -28, 34, -12, 57, -64, -15, 2, 1, -4, -15, 2, 49, 31, -1, -42, -58, 31, -2, 1, -2, -13, -75, -19, -22, -6, 61, 10, -56], "withholdReward": false, "trial_id": "mdp_trial_31", "block": "test", "trialIndex": 34, "score": -38, "costs": 0, "simulationMode": [null, null, null, null, null], "rewards": [-2, 1, -2, -13, -22], "path": ["0", "0", "23", "24", "25", "26", "29"], "rt": [833, 33, 106, 219, 226], "actions": ["left", "left", "left", "up", "left"], "actionTimes": [2003, 2538, 3164, 3892, 4617], "queries": {"click": {"state": {"target": [], "time": []}, "edge": {"target": [], "time": []}}, "mouseover": {"state": {"target": ["12", "13"], "time": [1206, 1255]}, "edge": {"target": [], "time": []}}, "mouseout": {"state": {"target": ["14", "13", "12", "12", "13"], "time": [470, 539, 754, 1238, 1288]}, "edge": {"target": [], "time": []}}}, "displayed_time": "15.18", "trialTime": 16271, "trial_type": "mouselab-mdp", "trial_index": 45, "time_elapsed": 1381104, "internal_node_id": "0.0-6.0-1.0-30.0"}}, {"uniqueid": "w76589097:a20964465", "current_trial": 46, "dateTime": 1693394101827, "trialdata": {"revealed_states": [], "clicked_states": [], "num_clicks_accrued": [0, 0, 0, 0, 0, 0, 0, 0, 0, 0, 0, 0, 0], "stateRewards": ["", 1, 3, -2, 15, 51, 15, -19, 11, 67, -45, -73, 2, 4, -2, -13, 36, 9, -28, 10, -30, 31, 16, 1, 2, -1, -16, 14, -22, 36, -1, 88, -5, 45], "withholdReward": false, "trial_id": "mdp_trial_32", "block": "test", "trialIndex": 35, "score": -60, "costs": 0, "simulationMode": [null, null, null, null, null], "rewards": [1, 3, -2, 11, -73], "path": ["0", "0", "1", "2", "3", "8", "11"], "rt": [1627, 148, 88, 169, 150], "actions": ["up", "up", "up", "left", "left"], "actionTimes": [3103, 3761, 4351, 5030, 5695], "queries": {"click": {"state": {"target": [], "time": []}, "edge": {"target": [], "time": []}}, "mouseover": {"state": {"target": [], "time": []}, "edge": {"target": [], "time": []}}, "mouseout": {"state": {"target": ["14", "0"], "time": [760, 794]}, "edge": {"target": [], "time": []}}}, "displayed_time": "15.48", "trialTime": 16442, "trial_type": "mouselab-mdp", "trial_index": 46, "time_elapsed": 1398035, "internal_node_id": "0.0-6.0-1.0-31.0"}}, {"uniqueid": "w76589097:a20964465", "current_trial": 47, "dateTime": 1693394118294, "trialdata": {"revealed_states": [], "clicked_states": [], "num_clicks_accrued": [0, 0, 0, 0, 0, 0, 0, 0, 0, 0, 0, 0, 0], "stateRewards": ["", 1, 2, 8, -2, 23, -69, -18, -16, 54, -21, 71, -1, -4, 7, 11, 43, -6, 88, 6, -55, 72, 43, 1, -3, -2, -1, 68, -31, -54, 4, -8, 25, -2], "withholdReward": false, "trial_id": "mdp_trial_33", "block": "test", "trialIndex": 36, "score": 32, "costs": 0, "simulationMode": [null, null, null, null, null], "rewards": [1, 2, 8, -2, 23], "path": ["0", "0", "1", "2", "3", "4", "5"], "rt": [1242, 24, 90, 56, 153], "actions": ["up", "up", "up", "right", "up"], "actionTimes": [2093, 2627, 3242, 3808, 4472], "queries": {"click": {"state": {"target": [], "time": []}, "edge": {"target": [], "time": []}}, "mouseover": {"state": {"target": [], "time": []}, "edge": {"target": [], "time": []}}, "mouseout": {"state": {"target": [], "time": []}, "edge": {"target": [], "time": []}}}, "displayed_time": "14.86", "trialTime": 15799, "trial_type": "mouselab-mdp", "trial_index": 47, "time_elapsed": 1414502, "internal_node_id": "0.0-6.0-1.0-32.0"}}, {"uniqueid": "w76589097:a20964465", "current_trial": 48, "dateTime": 1693394134633, "trialdata": {"revealed_states": [], "clicked_states": [], "num_clicks_accrued": [0, 0, 0, 0, 0, 0, 0, 0, 0, 0, 0, 0, 0], "stateRewards": ["", 2, 1, -3, 7, 46, 11, -36, 16, 71, 5, 1, 2, -2, -8, -3, -4, 6, 55, 7, 68, -54, 2, 1, 1, 6, -6, 42, -4, -84, -11, -65, 63, 25], "withholdReward": false, "trial_id": "mdp_trial_34", "block": "test", "trialIndex": 37, "score": -29, "costs": 0, "simulationMode": [null, null, null, null, null], "rewards": [2, 1, -3, 7, -36], "path": ["0", "0", "1", "2", "3", "4", "7"], "rt": [911, 17, 168, 45, 212], "actions": ["up", "up", "up", "right", "down"], "actionTimes": [1769, 2295, 2979, 3539, 4255], "queries": {"click": {"state": {"target": [], "time": []}, "edge": {"target": [], "time": []}}, "mouseover": {"state": {"target": [], "time": []}, "edge": {"target": [], "time": []}}, "mouseout": {"state": {"target": ["0"], "time": [5441]}, "edge": {"target": [], "time": []}}}, "displayed_time": "14.87", "trialTime": 16049, "trial_type": "mouselab-mdp", "trial_index": 48, "time_elapsed": 1430842, "internal_node_id": "0.0-6.0-1.0-33.0"}}, {"uniqueid": "w76589097:a20964465", "current_trial": 49, "dateTime": 1693394151371, "trialdata": {"revealed_states": [], "clicked_states": [], "num_clicks_accrued": [0, 0, 0, 0, 0, 0, 0, 0, 0, 0, 0, 0, 0], "stateRewards": ["", -1, 1, 6, -6, 70, 66, 67, -16, -75, -35, 37, -1, 4, 4, -6, 47, -9, 63, 15, 21, -63, 13, 1, 3, -6, 10, 79, -29, 18, -15, 9, -67, -19], "withholdReward": false, "trial_id": "mdp_trial_35", "block": "test", "trialIndex": 38, "score": -36, "costs": 0, "simulationMode": [null, null, null, null, null], "rewards": [1, 3, -6, -15, -19], "path": ["0", "0", "23", "24", "25", "30", "33"], "rt": [1195, 531, 195, 180, 303], "actions": ["left", "left", "left", "down", "left"], "actionTimes": [1925, 2955, 3668, 4340, 5144], "queries": {"click": {"state": {"target": [], "time": []}, "edge": {"target": [], "time": []}}, "mouseover": {"state": {"target": [], "time": []}, "edge": {"target": [], "time": []}}, "mouseout": {"state": {"target": ["0"], "time": [6372]}, "edge": {"target": [], "time": []}}}, "displayed_time": "14.73", "trialTime": 16481, "trial_type": "mouselab-mdp", "trial_index": 49, "time_elapsed": 1447579, "internal_node_id": "0.0-6.0-1.0-34.0"}}, {"uniqueid": "w76589097:a20964465", "current_trial": 50, "dateTime": 1693394167213, "trialdata": {"revealed_states": [], "clicked_states": [], "num_clicks_accrued": [0, 0, 0, 0, 0, 0, 0, 0, 0, 0, 0, 0, 0], "stateRewards": ["", 2, -2, -3, 10, -4, -1, -11, -8, -9, -36, -78, 2, 1, 7, -7, 44, -1, -31, -1, 26, 47, 83, 2, -4, -4, -6, -52, -76, -81, -1, -59, 45, 67], "withholdReward": false, "trial_id": "mdp_trial_36", "block": "test", "trialIndex": 39, "score": -88, "costs": 0, "simulationMode": [null, null, null, null, null], "rewards": [2, -4, -4, -6, -76], "path": ["0", "0", "23", "24", "25", "26", "28"], "rt": [774, 303, 288, 108, 72], "actions": ["left", "left", "left", "up", "right"], "actionTimes": [1482, 2295, 3080, 3700, 4265], "queries": {"click": {"state": {"target": [], "time": []}, "edge": {"target": [], "time": []}}, "mouseover": {"state": {"target": [], "time": []}, "edge": {"target": [], "time": []}}, "mouseout": {"state": {"target": ["0"], "time": [5557]}, "edge": {"target": [], "time": []}}}, "displayed_time": "14.71", "trialTime": 15576, "trial_type": "mouselab-mdp", "trial_index": 50, "time_elapsed": 1463422, "internal_node_id": "0.0-6.0-1.0-35.0"}}, {"uniqueid": "w76589097:a20964465", "current_trial": 51, "dateTime": 1693394184438, "trialdata": {"revealed_states": [], "clicked_states": [], "num_clicks_accrued": [0, 0, 0, 0, 0, 0, 0, 0, 0, 0, 0, 0, 0], "stateRewards": ["", 1, -4, -4, 8, 1, -79, 68, -10, -79, 8, -74, -1, -3, -6, 14, 43, 23, 9, 5, -51, 63, 61, -2, 4, 6, -10, 69, -32, 57, 15, -80, -80, -77], "withholdReward": false, "trial_id": "mdp_trial_37", "block": "test", "trialIndex": 40, "score": -34, "costs": 0, "simulationMode": [null, null, null, null, null], "rewards": [-2, 4, 6, -10, -32], "path": ["0", "0", "23", "24", "25", "26", "28"], "rt": [920, 381, 70, 194, 197], "actions": ["left", "left", "left", "up", "right"], "actionTimes": [1595, 2473, 3046, 3754, 4458], "queries": {"click": {"state": {"target": [], "time": []}, "edge": {"target": [], "time": []}}, "mouseover": {"state": {"target": [], "time": []}, "edge": {"target": [], "time": []}}, "mouseout": {"state": {"target": ["0"], "time": [6158]}, "edge": {"target": [], "time": []}}}, "displayed_time": "14.68", "trialTime": 16968, "trial_type": "mouselab-mdp", "trial_index": 51, "time_elapsed": 1480647, "internal_node_id": "0.0-6.0-1.0-36.0"}}, {"uniqueid": "w76589097:a20964465", "current_trial": 52, "dateTime": 1693394201115, "trialdata": {"revealed_states": [], "clicked_states": ["17", "11"], "num_clicks_accrued": [0, 0, 0, 0, 0, 0, 0, 0, 0, 0, 0, 0, 0], "stateRewards": ["", -1, 2, -2, 13, -56, -28, 10, 14, 53, -80, -29, 1, -3, -3, -14, 14, 9, -40, -9, 18, 18, 48, 1, 1, 1, -9, 64, -39, -9, 7, -52, -78, 7], "withholdReward": false, "trial_id": "mdp_trial_38", "block": "test", "trialIndex": 41, "score": -20.3, "costs": -4.3, "simulationMode": [null, null, null, null, null, null], "rewards": [-1, 2, -2, 13, -28], "path": ["0", "0", "1", "2", "3", "4", "6"], "rt": [7210, 622, 126, 139, 88, 74], "actions": ["up", "up", "up", "up", "right", "right"], "actionTimes": [8313, 8937, 9559, 10204, 10804, 11391], "queries": {"click": {"state": {"target": ["17", "11"], "time": [2431, 5849]}, "edge": {"target": [], "time": []}}, "mouseover": {"state": {"target": ["12", "15", "17", "15", "18", "7", "8", "11", "11", "11", "10"], "time": [1651, 1699, 2252, 3050, 3217, 3333, 3533, 3817, 4667, 5565, 6332]}, "edge": {"target": [], "time": []}}, "mouseout": {"state": {"target": ["0", "12", "15", "17", "15", "18", "7", "8", "11", "11", "11", "10"], "time": [1636, 1667, 2065, 2968, 3184, 3267, 3417, 3784, 4400, 5383, 6250, 6349]}, "edge": {"target": [], "time": []}}}, "displayed_time": "15.11", "trialTime": 16337, "trial_type": "mouselab-mdp", "trial_index": 52, "time_elapsed": 1497323, "internal_node_id": "0.0-6.0-1.0-37.0"}}, {"uniqueid": "w76589097:a20964465", "current_trial": 53, "dateTime": 1693394218051, "trialdata": {"revealed_states": [], "clicked_states": [], "num_clicks_accrued": [0, 0, 0, 0, 0, 0, 0, 0, 0, 0, 0, 0, 0], "stateRewards": ["", 1, 1, -6, -2, 7, 77, 3, 16, -16, 66, 31, -1, 3, -8, -6, 33, -50, -48, 7, -60, -66, 36, 2, -3, 3, -7, -12, -61, -79, -4, 8, 74, -70], "withholdReward": false, "trial_id": "mdp_trial_39", "block": "test", "trialIndex": 42, "score": -72, "costs": 0, "simulationMode": [null, null, null, null, null], "rewards": [2, -3, 3, -4, -70], "path": ["0", "0", "23", "24", "25", "30", "33"], "rt": [1167, 39, 202, 98, 160], "actions": ["left", "left", "left", "down", "left"], "actionTimes": [2595, 3148, 3864, 4478, 5139], "queries": {"click": {"state": {"target": [], "time": []}, "edge": {"target": [], "time": []}}, "mouseover": {"state": {"target": ["12"], "time": [1590]}, "edge": {"target": [], "time": []}}, "mouseout": {"state": {"target": ["12"], "time": [1607]}, "edge": {"target": [], "time": []}}}, "displayed_time": "15.44", "trialTime": 16650, "trial_type": "mouselab-mdp", "trial_index": 53, "time_elapsed": 1514259, "internal_node_id": "0.0-6.0-1.0-38.0"}}, {"uniqueid": "w76589097:a20964465", "current_trial": 54, "dateTime": 1693394235602, "trialdata": {"revealed_states": [], "clicked_states": [], "num_clicks_accrued": [0, 0, 0, 0, 0, 0, 0, 0, 0, 0, 0, 0, 0], "stateRewards": ["", -2, 2, -4, -4, -59, 88, 62, -3, 69, -15, -34, 1, -2, -5, 7, -54, -20, 78, -16, -74, -53, -21, 2, -4, 2, 13, -8, -44, 26, 9, 72, 4, 17], "withholdReward": false, "trial_id": "mdp_trial_40", "block": "test", "trialIndex": 43, "score": 5, "costs": 0, "simulationMode": [null, null, null, null, null], "rewards": [2, -4, 2, 13, -8], "path": ["0", "0", "23", "24", "25", "26", "27"], "rt": [959, 11, 114, 39, 101], "actions": ["left", "left", "left", "up", "up"], "actionTimes": [2186, 2703, 3322, 3880, 4508], "queries": {"click": {"state": {"target": [], "time": []}, "edge": {"target": [], "time": []}}, "mouseover": {"state": {"target": [], "time": []}, "edge": {"target": [], "time": []}}, "mouseout": {"state": {"target": ["12", "13"], "time": [808, 15885]}, "edge": {"target": [], "time": []}}}, "displayed_time": "15.24", "trialTime": 16783, "trial_type": "mouselab-mdp", "trial_index": 54, "time_elapsed": 1531810, "internal_node_id": "0.0-6.0-1.0-39.0"}}, {"uniqueid": "w76589097:a20964465", "current_trial": 55, "dateTime": 1693394272256, "trialdata": {"rt": 36641, "response": {"Q0": "$-2 to $2", "Q1": "$-4 to $4", "Q2": "$-16 to $16", "Q3": "The cost for clicking on nodes varied between nodes.", "Q4": "Neither motivated nor unmotivated"}, "question_order": [0, 1, 2, 3, 4], "trial_id": "final_quiz_control", "trial_type": "survey-multi-choice", "trial_index": 55, "time_elapsed": 1568464, "internal_node_id": "0.0-6.0-2.0"}}, {"uniqueid": "w76589097:a20964465", "current_trial": 56, "dateTime": 1693394386199, "trialdata": {"rt": 113931, "response": {"Q0": "I tried to move the spider in different direction after making a loss. That didn't seem to work very well. \nI didn't find the nodes very helpful.", "Q1": "I did try to change the strategy to make a similar move after a loss but that didn't seem to work. So just made random moves after that.", "Q2": "Very difficult. It seems like it was just pure luck."}, "trial_id": "self_report_control", "trial_type": "survey-text", "trial_index": 56, "time_elapsed": 1682408, "internal_node_id": "0.0-6.0-3.0"}}, {"uniqueid": "w76589097:a20964465", "current_trial": 57, "dateTime": 1693394432288, "trialdata": {"rt": 46080, "response": {"Q0": "Agree", "Q1": "Strongly disagree", "Q2": "Strongly agree", "Q3": "Agree", "Q4": "Strongly disagree", "Q5": "Agree", "Q6": "Disagree"}, "question_order": [0, 1, 2, 3, 4, 5, 6], "trial_id": "self_report_2", "trial_type": "survey-multi-choice", "trial_index": 57, "time_elapsed": 1728497, "internal_node_id": "0.0-6.0-4.0"}}, {"uniqueid": "w76589097:a20964465", "current_trial": 58, "dateTime": 1693394446661, "trialdata": {"rt": 14361, "response": {"gender": "female", "age": "49", "colorblind": "0", "effort": "0"}, "trial_type": "survey-html-form", "trial_index": 58, "time_elapsed": 1742870, "internal_node_id": "0.0-6.0-5.0"}}, {"uniqueid": "w76589097:a20964465", "current_trial": 59, "dateTime": 1693394460129, "trialdata": {"rt": 13454, "response": {"Q0": "no", "Q1": "no", "Q2": "n/a"}, "trial_type": "survey-text", "trial_index": 59, "time_elapsed": 1756337, "internal_node_id": "0.0-6.0-6.0"}}, {"uniqueid": "w76589097:a20964465", "current_trial": 60, "dateTime": 1693394464347, "trialdata": {"rt": 4211, "stimulus": "<h1>Completion Code Instructions (1/2)</h1>\n<br><br><br><br>\nYou have reached the end of the experiment! The completion code consists of two parts: (1) a code with 2 characters (2) a code with 6 characters. On this page, you will receive the second part of the code. The first part of the completion code will be on the next page.\n<br><br>\nThe second part of your completion code is: <b>EWEK22</b>\n<br><br>\nPlease note this down. Then, press 'Finish HIT' in order to find the first part of your completion code. Once the data has been saved, you will receive this code either in this window or in the original browser window where you started the experiment.\n", "response": 0, "trial_type": "html-button-response", "trial_index": 60, "time_elapsed": 1760556, "internal_node_id": "0.0-6.0-7.0"}}, {"uniqueid": "w76589097:a20964465", "current_trial": 61, "dateTime": 1693394465379, "trialdata": {"success": true, "trial_type": "fullscreen", "trial_index": 61, "time_elapsed": 1761588, "internal_node_id": "0.0-7.0"}}], "questiondata": {"params": {"CODE": "C6DMOQA6", "MIN_TIME": 14, "inspectCost": 1, "startTime": "Wed Aug 30 2023 11:51:42 GMT+0100 (British Summer Time)", "bonusRate": 0.002, "variance": "1_2_4_8_44", "branching": "31123"}, "final_score": -240.15}, "eventdata": [{"eventtype": "initialized", "value": null, "timestamp": 1693392702315, "interval": 0}, {"eventtype": "window_resize", "value": [1032, 608], "timestamp": 1693392702315, "interval": 0}, {"eventtype": "window_resize", "value": [1032, 608], "timestamp": 1693392702646, "interval": 331}, {"eventtype": "focus", "value": "off", "timestamp": 1693392708538, "interval": 5892}, {"eventtype": "focus", "value": "on", "timestamp": 1693393051514, "interval": 342976}, {"eventtype": "window_resize", "value": [1280, 720], "timestamp": 1693393053741, "interval": 2227}, {"eventtype": "focus", "value": "off", "timestamp": 1693393431003, "interval": 377262}, {"eventtype": "focus", "value": "on", "timestamp": 1693393431004, "interval": 1}, {"eventtype": "window_resize", "value": [1032, 608], "timestamp": 1693393431230, "interval": 226}, {"eventtype": "window_resize", "value": [1280, 720], "timestamp": 1693393432479, "interval": 1249}, {"eventtype": "window_resize", "value": [1032, 608], "timestamp": 1693394464657, "interval": 1032178}], "useragent": "Mozilla/5.0 (Windows NT 10.0; Win64; x64) AppleWebKit/537.36 (KHTML, like Gecko) Chrome/116.0.0.0 Safari/537.36", "mode": "live", "id": "w76589097:a20964465", "status": "user data saved", "Beginhit": "2023-08-30 10:51:41.020328", "Beginexp": "2023-08-30 10:57:35.006014", "Endhit": "2023-08-30 11:21:06.399103", "psiturkStatus": 3, "browser": "<redacted>", "platform": "windows", "language": "en-GB"}