{"condition": 1, "counterbalance": 0, "assignmentId": "a24480694", "workerId": "w89850578", "hitId": "h63674659", "currenttrial": 14, "bonus": 0, "data": [{"uniqueid": "w89850578:a24480694", "current_trial": 0, "dateTime": 1693388989828, "trialdata": {"success": true, "trial_type": "fullscreen", "trial_index": 0, "time_elapsed": 6125, "internal_node_id": "0.0-0.0"}}, {"uniqueid": "w89850578:a24480694", "current_trial": 1, "dateTime": 1693389018818, "trialdata": {"view_history": [{"page_index": 0, "viewing_time": 28980}], "rt": 28980, "trial_id": "exp_instructions_misaligned", "trial_type": "instructions", "trial_index": 1, "time_elapsed": 35116, "internal_node_id": "0.0-1.0"}}, {"uniqueid": "w89850578:a24480694", "current_trial": 2, "dateTime": 1693389240766, "trialdata": {"view_history": [{"page_index": 0, "viewing_time": 95907}, {"page_index": 1, "viewing_time": 67950}, {"page_index": 2, "viewing_time": 30930}, {"page_index": 3, "viewing_time": 27158}], "rt": 221945, "trial_id": "mouselab_instructions_1_misaligned", "trial_type": "instructions", "trial_index": 2, "time_elapsed": 257064, "internal_node_id": "0.0-2.0-1.0"}}, {"uniqueid": "w89850578:a24480694", "current_trial": 3, "dateTime": 1693389260488, "trialdata": {"revealed_states": [], "clicked_states": [], "num_clicks_accrued": [0, 0, 0, 0, 0, 0, 0, 0, 0, 0, 0, 0, 0], "stateRewards": ["", 10, 10, -10, 10, -10, 10, 10, 10, 10, 10, 10, -10, 10, -10, -10, 10, 10, -10, -10, 10, 10, -10, -10, 10, 10, -10, -10, 10, -10, 10, -10, -10, -10], "withholdReward": false, "trial_id": "practice_1", "block": "test", "trialIndex": 0, "score": -6.5, "costs": 0, "simulationMode": [null, null, null, null, null], "rewards": [-10, 10, 10, -10, -10], "path": ["0", "0", "23", "24", "25", "26", "27"], "rt": [3714, 183, 329, 1184, 123], "actions": ["left", "left", "left", "up", "up"], "actionTimes": [6182, 6856, 7703, 9406, 10046], "queries": {"click": {"state": {"target": [], "time": []}, "edge": {"target": [], "time": []}}, "mouseover": {"state": {"target": ["23", "24", "25", "24", "23"], "time": [3689, 4021, 4225, 4855, 4924]}, "edge": {"target": [], "time": []}}, "mouseout": {"state": {"target": ["23", "31", "0", "23", "24", "25", "24", "23"], "time": [455, 740, 1699, 3959, 4104, 4823, 4890, 4957]}, "edge": {"target": [], "time": []}}}, "displayed_time": "10.56", "trialTime": 18726, "trial_type": "mouselab-mdp", "trial_index": 3, "time_elapsed": 276784, "internal_node_id": "0.0-2.0-2.0-0.0"}}, {"uniqueid": "w89850578:a24480694", "current_trial": 4, "dateTime": 1693389280936, "trialdata": {"revealed_states": [], "clicked_states": [], "num_clicks_accrued": [0, 0, 0, 0, 0, 0, 0, 0, 0, 0, 0, 0, 0], "stateRewards": ["", -10, 10, 10, 10, -10, 10, 10, -10, 10, 10, 10, -10, 10, -10, 10, -10, -10, 10, 10, -10, -10, -10, 10, -10, 10, 10, 10, 10, 10, 10, 10, -10, 10], "withholdReward": false, "trial_id": "practice_2", "block": "test", "trialIndex": 1, "score": 13.5, "costs": 0, "simulationMode": [null, null, null, null, null], "rewards": [-10, 10, 10, -10, 10], "path": ["0", "0", "1", "2", "3", "8", "9"], "rt": [1634, 450, 3780, 486, 1043], "actions": ["up", "up", "up", "left", "up"], "actionTimes": [5342, 6305, 10599, 11623, 13179], "queries": {"click": {"state": {"target": [], "time": []}, "edge": {"target": [], "time": []}}, "mouseover": {"state": {"target": [], "time": []}, "edge": {"target": [], "time": []}}, "mouseout": {"state": {"target": ["0"], "time": [2625]}, "edge": {"target": [], "time": []}}}, "displayed_time": "13.70", "trialTime": 20193, "trial_type": "mouselab-mdp", "trial_index": 4, "time_elapsed": 297232, "internal_node_id": "0.0-2.0-2.0-1.0"}}, {"uniqueid": "w89850578:a24480694", "current_trial": 5, "dateTime": 1693389305709, "trialdata": {"view_history": [{"page_index": 0, "viewing_time": 13025}, {"page_index": 1, "viewing_time": 11738}], "rt": 24764, "trial_id": "mouselab_instructions_2_misaligned", "trial_type": "instructions", "trial_index": 5, "time_elapsed": 322007, "internal_node_id": "0.0-2.0-3.0"}}, {"uniqueid": "w89850578:a24480694", "current_trial": 6, "dateTime": 1693389364093, "trialdata": {"rt": 58374, "response": {"Q0": "The cost for clicking on nodes may vary between nodes.", "Q1": "The better I perform the higher my bonus will be.", "Q2": "No, the amount of cash at each node of the web may be different each time.", "Q3": "To get the highest total score.", "Q4": "Only before moving the spider.", "Q5": "1 second"}, "question_order": [0, 1, 2, 3, 4, 5], "correct": {"Q0": "The cost for clicking on nodes may vary between nodes.", "Q1": "The better I perform the higher my bonus will be.", "Q2": "No, the amount of cash at each node of the web may be different each time.", "Q3": "To get the highest total score.", "Q4": "Only before moving the spider.", "Q5": "3 seconds"}, "trial_id": "mouselab_quiz_misaligned", "trial_type": "survey-multi-choice", "trial_index": 6, "time_elapsed": 380390, "internal_node_id": "0.0-2.0-4.0"}}, {"uniqueid": "w89850578:a24480694", "current_trial": 7, "dateTime": 1693389388373, "trialdata": {"success": true, "trial_type": "fullscreen", "trial_index": 7, "time_elapsed": 404671, "internal_node_id": "0.0-2.1-0.1-0.1"}}, {"uniqueid": "w89850578:a24480694", "current_trial": 8, "dateTime": 1693389707927, "trialdata": {"view_history": [{"page_index": 0, "viewing_time": 132865}, {"page_index": 1, "viewing_time": 77333}, {"page_index": 2, "viewing_time": 14303}, {"page_index": 3, "viewing_time": 95039}], "rt": 319541, "trial_id": "mouselab_instructions_1_misaligned", "trial_type": "instructions", "trial_index": 8, "time_elapsed": 724225, "internal_node_id": "0.0-2.1-1.1"}}, {"uniqueid": "w89850578:a24480694", "current_trial": 9, "dateTime": 1693389722182, "trialdata": {"revealed_states": [], "clicked_states": [], "num_clicks_accrued": [0, 0, 0, 0, 0, 0, 0, 0, 0, 0, 0, 0, 0], "stateRewards": ["", 10, 10, -10, 10, -10, 10, 10, 10, 10, 10, 10, -10, 10, -10, -10, 10, 10, -10, -10, 10, 10, -10, -10, 10, 10, -10, -10, 10, -10, 10, -10, -10, -10], "withholdReward": false, "trial_id": "practice_1", "block": "test", "trialIndex": 2, "score": 33.5, "costs": 0, "simulationMode": [null, null, null, null, null], "rewards": [10, 10, -10, 10, 10], "path": ["0", "0", "1", "2", "3", "4", "7"], "rt": [2478, 225, 1213, 771, 787], "actions": ["up", "up", "up", "right", "down"], "actionTimes": [4877, 5626, 7365, 8639, 9936], "queries": {"click": {"state": {"target": [], "time": []}, "edge": {"target": [], "time": []}}, "mouseover": {"state": {"target": ["1"], "time": [4299]}, "edge": {"target": [], "time": []}}, "mouseout": {"state": {"target": ["23", "23", "0"], "time": [535, 819, 1117]}, "edge": {"target": [], "time": []}}}, "displayed_time": "10.45", "trialTime": 13958, "trial_type": "mouselab-mdp", "trial_index": 9, "time_elapsed": 738478, "internal_node_id": "0.0-2.1-2.1-0.1"}}, {"uniqueid": "w89850578:a24480694", "current_trial": 10, "dateTime": 1693389737795, "trialdata": {"revealed_states": [], "clicked_states": [], "num_clicks_accrued": [0, 0, 0, 0, 0, 0, 0, 0, 0, 0, 0, 0, 0], "stateRewards": ["", -10, 10, 10, 10, -10, 10, 10, -10, 10, 10, 10, -10, 10, -10, 10, -10, -10, 10, 10, -10, -10, -10, 10, -10, 10, 10, 10, 10, 10, 10, 10, -10, 10], "withholdReward": false, "trial_id": "practice_2", "block": "test", "trialIndex": 3, "score": -6.5, "costs": 0, "simulationMode": [null, null, null, null, null], "rewards": [-10, 10, -10, 10, -10], "path": ["0", "0", "12", "13", "14", "19", "21"], "rt": [1532, 258, 396, 437, 434], "actions": ["right", "right", "right", "down", "down"], "actionTimes": [8664, 9429, 10336, 11292, 12239], "queries": {"click": {"state": {"target": [], "time": []}, "edge": {"target": [], "time": []}}, "mouseover": {"state": {"target": [], "time": []}, "edge": {"target": [], "time": []}}, "mouseout": {"state": {"target": ["1", "0"], "time": [3441, 4003]}, "edge": {"target": [], "time": []}}}, "displayed_time": "12.74", "trialTime": 15330, "trial_type": "mouselab-mdp", "trial_index": 10, "time_elapsed": 754091, "internal_node_id": "0.0-2.1-2.1-1.1"}}, {"uniqueid": "w89850578:a24480694", "current_trial": 11, "dateTime": 1693389761740, "trialdata": {"view_history": [{"page_index": 0, "viewing_time": 21949}, {"page_index": 1, "viewing_time": 1987}], "rt": 23937, "trial_id": "mouselab_instructions_2_misaligned", "trial_type": "instructions", "trial_index": 11, "time_elapsed": 778038, "internal_node_id": "0.0-2.1-3.1"}}, {"uniqueid": "w89850578:a24480694", "current_trial": 12, "dateTime": 1693389808397, "trialdata": {"rt": 46652, "response": {"Q0": "The cost for clicking on nodes may vary between nodes.", "Q1": "The better I perform the higher my bonus will be.", "Q2": "No, the amount of cash at each node of the web may be different each time.", "Q3": "To get the highest total score.", "Q4": "Only after moving the spider.", "Q5": "3 seconds"}, "question_order": [0, 1, 2, 3, 4, 5], "correct": {"Q0": "The cost for clicking on nodes may vary between nodes.", "Q1": "The better I perform the higher my bonus will be.", "Q2": "No, the amount of cash at each node of the web may be different each time.", "Q3": "To get the highest total score.", "Q4": "Only before moving the spider.", "Q5": "3 seconds"}, "trial_id": "mouselab_quiz_misaligned", "trial_type": "survey-multi-choice", "trial_index": 12, "time_elapsed": 824694, "internal_node_id": "0.0-2.1-4.1"}}, {"uniqueid": "w89850578:a24480694", "current_trial": 13, "dateTime": 1693389844208, "trialdata": {"success": true, "trial_type": "fullscreen", "trial_index": 13, "time_elapsed": 860505, "internal_node_id": "0.0-2.2-0.2-0.2"}}], "questiondata": {"params": {"CODE": "C6DMOQA6", "MIN_TIME": 14, "inspectCost": 1, "startTime": "Wed Aug 30 2023 11:49:41 GMT+0200 (South Africa Standard Time)", "bonusRate": 0.002, "variance": "1_2_4_8_44", "branching": "31123"}}, "eventdata": [{"eventtype": "initialized", "value": null, "timestamp": 1693388981224, "interval": 0}, {"eventtype": "window_resize", "value": [1536, 758], "timestamp": 1693388981225, "interval": 1}, {"eventtype": "window_resize", "value": [1536, 758], "timestamp": 1693388981718, "interval": 493}, {"eventtype": "window_resize", "value": [1536, 864], "timestamp": 1693388989052, "interval": 7334}, {"eventtype": "focus", "value": "off", "timestamp": 1693389378784, "interval": 389732}, {"eventtype": "focus", "value": "on", "timestamp": 1693389378784, "interval": 0}, {"eventtype": "window_resize", "value": [1536, 758], "timestamp": 1693389378992, "interval": 208}, {"eventtype": "window_resize", "value": [1536, 864], "timestamp": 1693389387598, "interval": 8606}, {"eventtype": "focus", "value": "off", "timestamp": 1693389840757, "interval": 453159}, {"eventtype": "focus", "value": "on", "timestamp": 1693389840758, "interval": 1}, {"eventtype": "window_resize", "value": [1536, 758], "timestamp": 1693389840975, "interval": 217}, {"eventtype": "window_resize", "value": [1536, 864], "timestamp": 1693389843430, "interval": 2455}, {"eventtype": "window_resize", "value": [1536, 758], "timestamp": 1693389850315, "interval": 6885}], "useragent": "Mozilla/5.0 (Windows NT 10.0; Win64; x64) AppleWebKit/537.36 (KHTML, like Gecko) Chrome/116.0.0.0 Safari/537.36", "mode": "live", "id": "w89850578:a24480694", "status": "user data saved", "Beginhit": "2023-08-30 09:49:38.651815", "Beginexp": "2023-08-30 09:49:50.586214", "Endhit": null, "psiturkStatus": 6, "browser": "<redacted>", "platform": "windows", "language": "en-ZA", "excludeReason": "quizfail"}